validity,detectorcomp,contrastCW,contrastCCW,precueCWorCCW,block_80trials.thisRepN,block_80trials.thisTrialN,block_80trials.thisN,block_80trials.thisIndex,etRecord.started,etRecord.stopped,text.started,text.stopped,text_4.started,text_4.stopped,text_6.started,text_6.stopped,oriCW,oriCCW,roi_2.started,grating_UR.started,grating_UL.started,grating_LR.started,grating_LL.started,noise_UR.started,noise_UL.started,noise_LR.started,noise_LL.started,roi_2.stopped,grating_UR.stopped,grating_UL.stopped,grating_LR.stopped,grating_LL.stopped,noise_UR.stopped,noise_UL.stopped,noise_LR.stopped,noise_LL.stopped,outframe,roi_2.numLooks,roi_2.timesOn,roi_2.timesOff,text_2.started,text_2.stopped,probedcontrast,key_resp.started,respdetect,relevantContrast,correctDetect,TorFdetect,respCWorCCW,key_resp.keys,key_resp.rt,feedback_display_.started,participantNo,blockNo,date,expName,psychopyVersion,frameRate,
1000,1,4.9,0.0,1,0,0,0,67,3.400002606213093e-05,3.400002606213093e-05,50.73902969999472,52.746984499972314,52.746984499972314,53.375735300011,53.375735300011,53.89345599996159,45,45,53.89345599996159,53.89345599996159,53.89345599996159,53.89345599996159,53.89345599996159,53.89345599996159,53.89345599996159,53.89345599996159,53.89345599996159,54.24321709998185,54.24321709998185,54.24321709998185,54.24321709998185,54.24321709998185,54.24321709998185,54.24321709998185,54.24321709998185,54.24321709998185,23,0,,,54.24321709998185,54.45043849997455,1000,54.45043849997455,1000,1000,1000,1000,1,num_2,0.9337593999807723,,26,5,2026-03-05_10h39.58.363,2026A_exp2,2022.2.4,60.08752348862524,
1000,1,0.0,4.9,1,0,1,1,37,,,,,55.411276799975894,56.06179529998917,56.06179529998917,56.563005100004375,45,45,56.563005100004375,56.563005100004375,56.563005100004375,56.563005100004375,56.563005100004375,56.563005100004375,56.563005100004375,56.563005100004375,56.563005100004375,56.92915849998826,56.92915849998826,56.92915849998826,56.92915849998826,56.92915849998826,56.92915849998826,56.92915849998826,56.92915849998826,56.92915849998826,23,0,,,56.92915849998826,57.13129569997545,1000,57.13129569997545,1000,1000,1000,1000,1,num_2,0.8691271999850869,,26,5,2026-03-05_10h39.58.363,2026A_exp2,2022.2.4,60.08752348862524,
1000,1,3.7,6.1,1,0,2,2,75,,,,,58.030624000006355,58.681183799984865,58.681183799984865,59.18228869995801,45,45,59.18228869995801,59.18228869995801,59.18228869995801,59.18228869995801,59.18228869995801,59.18228869995801,59.18228869995801,59.18228869995801,59.18228869995801,59.53187209996395,59.53187209996395,59.53187209996395,59.53187209996395,59.53187209996395,59.53187209996395,59.53187209996395,59.53187209996395,59.53187209996395,6,5,"[0.0013510999851860106, 0.10023139999248087, 0.15017259999876842, 0.23381009994773194, 0.3172286999761127]","[0.08384829998249188, 0.11701469996478409, 0.20029069995507598, 0.30038449994754046, 0.3505916999420151]",59.53187209996395,59.734202899970114,1000,59.734202899970114,1000,1000,1000,1000,1,num_2,0.346615299989935,,26,5,2026-03-05_10h39.58.363,2026A_exp2,2022.2.4,60.08752348862524,
1,0,4.9,0.0,0,0,3,3,66,,,,,60.0992962999735,60.74973229999887,60.74973229999887,61.25106829998549,45,315,61.25106829998549,61.25106829998549,61.25106829998549,61.25106829998549,61.25106829998549,61.25106829998549,61.25106829998549,61.25106829998549,61.25106829998549,61.61753829999361,61.61753829999361,61.61753829999361,61.61753829999361,61.61753829999361,61.61753829999361,61.61753829999361,61.61753829999361,61.61753829999361,21,2,"[0.26713190000737086, 0.30047059996286407]","[0.2838152999756858, 0.31705529999453574]",61.61753829999361,61.817665399983525,4.9,61.817665399983525,1,4.9,1,1,1000,num_4,0.7914166999980807,,26,5,2026-03-05_10h39.58.363,2026A_exp2,2022.2.4,60.08752348862524,
1000,1,3.7,0.0,0,0,4,4,69,,,,,62.63510700000916,63.28561699995771,63.28561699995771,63.7701270999969,45,315,63.7701270999969,63.7701270999969,63.7701270999969,63.7701270999969,63.7701270999969,63.7701270999969,63.7701270999969,63.7701270999969,63.7701270999969,64.13659529999131,64.13659529999131,64.13659529999131,64.13659529999131,64.13659529999131,64.13659529999131,64.13659529999131,64.13659529999131,64.13659529999131,23,0,,,64.13659529999131,64.338436799997,1000,64.338436799997,1000,1000,1000,1000,1,num_2,0.8532382999546826,,26,5,2026-03-05_10h39.58.363,2026A_exp2,2022.2.4,60.08752348862524,
0,0,4.9,0.0,0,0,5,5,84,,,,,65.2213056999608,65.85489189997315,65.85489189997315,66.35593269998208,315,315,66.35593269998208,66.35593269998208,66.35593269998208,66.35593269998208,66.35593269998208,66.35593269998208,66.35593269998208,66.35593269998208,66.35593269998208,66.72247629996855,66.72247629996855,66.72247629996855,66.72247629996855,66.72247629996855,66.72247629996855,66.72247629996855,66.72247629996855,66.72247629996855,23,0,,,66.72247629996855,66.92280800000299,0.0,66.92280800000299,0,0.0,0,1,1000,num_1,0.7976030000136234,,26,5,2026-03-05_10h39.58.363,2026A_exp2,2022.2.4,60.08752348862524,
1000,1,6.1,0.0,0,0,6,6,27,,,,,67.74026009999216,68.39087229996221,68.39087229996221,68.87507249996997,315,45,68.87507249996997,68.87507249996997,68.87507249996997,68.87507249996997,68.87507249996997,68.87507249996997,68.87507249996997,68.87507249996997,68.87507249996997,69.24171099998057,69.24171099998057,69.24171099998057,69.24171099998057,69.24171099998057,69.24171099998057,69.24171099998057,69.24171099998057,69.24171099998057,23,0,,,69.24171099998057,69.44191339996178,1000,69.44191339996178,1000,1000,1000,1000,0,num_3,0.45380980003392324,,26,5,2026-03-05_10h39.58.363,2026A_exp2,2022.2.4,60.08752348862524,
1,0,0.0,0.0,0,0,7,7,80,,,,,69.92562049999833,70.57623159996001,70.57623159996001,71.07729389995802,45,45,71.07729389995802,71.07729389995802,71.07729389995802,71.07729389995802,71.07729389995802,71.07729389995802,71.07729389995802,71.07729389995802,71.07729389995802,71.42693329998292,71.42693329998292,71.42693329998292,71.42693329998292,71.42693329998292,71.42693329998292,71.42693329998292,71.42693329998292,71.42693329998292,22,0,,,71.42693329998292,71.62738099996932,0.0,71.64412199996877,1,0.0,0,0,1000,num_4,1.020047300029546,,26,5,2026-03-05_10h39.58.363,2026A_exp2,2022.2.4,60.08752348862524,
1000,1,0.0,0.0,1,0,8,8,29,,,,,72.69499739998719,73.34568619995844,73.34568619995844,73.83011089998763,315,315,73.83011089998763,73.83011089998763,73.83011089998763,73.83011089998763,73.83011089998763,73.83011089998763,73.83011089998763,73.83011089998763,73.83011089998763,74.19660959998146,74.19660959998146,74.19660959998146,74.19660959998146,74.19660959998146,74.19660959998146,74.19660959998146,74.19660959998146,74.19660959998146,23,0,,,74.19660959998146,74.39899859996513,1000,74.39899859996513,1000,1000,1000,1000,1,num_2,0.5936225999612361,,26,5,2026-03-05_10h39.58.363,2026A_exp2,2022.2.4,60.08752348862524,
1,0,4.9,4.9,1,0,9,9,9,,,,,75.01392369996756,75.66472699999576,75.66472699999576,76.16568669996923,315,315,76.16568669996923,76.16568669996923,76.16568669996923,76.16568669996923,76.16568669996923,76.16568669996923,76.16568669996923,76.16568669996923,76.16568669996923,76.5169211999746,76.5169211999746,76.5169211999746,76.5169211999746,76.5169211999746,76.5169211999746,76.5169211999746,76.5169211999746,76.5169211999746,22,0,,,76.5169211999746,76.73920589999761,4.9,76.73920589999761,1,4.9,1,1,1000,num_4,1.028514300007373,,26,5,2026-03-05_10h39.58.363,2026A_exp2,2022.2.4,60.08752348862524,
1,0,4.9,0.0,1,0,10,10,34,,,,,77.80051370000001,78.45077469997341,78.45077469997341,78.96509740001056,315,315,78.96509740001056,78.96509740001056,78.96509740001056,78.96509740001056,78.96509740001056,78.96509740001056,78.96509740001056,78.96509740001056,78.96509740001056,79.31838389998302,79.31838389998302,79.31838389998302,79.31838389998302,79.31838389998302,79.31838389998302,79.31838389998302,79.31838389998302,79.31838389998302,23,0,,,79.31838389998302,79.51855669997167,0.0,79.51855669997167,0,0.0,0,1,1000,num_1,0.8093896000063978,,26,5,2026-03-05_10h39.58.363,2026A_exp2,2022.2.4,60.08752348862524,
1000,1,0.0,3.7,1,0,11,11,88,,,,,80.3525854999898,81.00350719998823,81.00350719998823,81.4876421999652,315,315,81.4876421999652,81.4876421999652,81.4876421999652,81.4876421999652,81.4876421999652,81.4876421999652,81.4876421999652,81.4876421999652,81.4876421999652,81.85454349999782,81.85454349999782,81.85454349999782,81.85454349999782,81.85454349999782,81.85454349999782,81.85454349999782,81.85454349999782,81.85454349999782,23,0,,,81.85454349999782,82.05444719997467,1000,82.05444719997467,1000,1000,1000,1000,1,num_2,0.4891493000322953,,26,5,2026-03-05_10h39.58.363,2026A_exp2,2022.2.4,60.08752348862524,
1000,1,6.1,0.0,0,0,12,12,58,,,,,82.57277470000554,83.22222319996217,83.22222319996217,83.72312260000035,315,45,83.72312260000035,83.72312260000035,83.72312260000035,83.72312260000035,83.72312260000035,83.72312260000035,83.72312260000035,83.72312260000035,83.72312260000035,84.0893958999659,84.0893958999659,84.0893958999659,84.0893958999659,84.0893958999659,84.0893958999659,84.0893958999659,84.0893958999659,84.0893958999659,23,0,,,84.0893958999659,84.29120239999611,1000,84.29120239999611,1000,1000,1000,1000,0,num_3,0.6285180000122637,,26,5,2026-03-05_10h39.58.363,2026A_exp2,2022.2.4,60.08752348862524,
1,0,3.7,0.0,0,0,13,13,10,,,,,84.94043949997285,85.59109159995569,85.59109159995569,86.09260779997567,315,315,86.09260779997567,86.09260779997567,86.09260779997567,86.09260779997567,86.09260779997567,86.09260779997567,86.09260779997567,86.09260779997567,86.09260779997567,86.44197109999368,86.44197109999368,86.44197109999368,86.44197109999368,86.44197109999368,86.44197109999368,86.44197109999368,86.44197109999368,86.44197109999368,22,0,,,86.44197109999368,86.64235089998692,3.7,86.64235089998692,1,3.7,1,1,1000,num_4,0.7336251999950036,,26,5,2026-03-05_10h39.58.363,2026A_exp2,2022.2.4,60.08752348862524,
1000,1,0.0,4.9,0,0,14,14,8,,,,,87.39293579995865,88.02687349996995,88.02687349996995,88.52837179997005,45,45,88.52837179997005,88.52837179997005,88.52837179997005,88.52837179997005,88.52837179997005,88.52837179997005,88.52837179997005,88.52837179997005,88.52837179997005,88.89468599995598,88.89468599995598,88.89468599995598,88.89468599995598,88.89468599995598,88.89468599995598,88.89468599995598,88.89468599995598,88.89468599995598,23,0,,,88.89468599995598,89.09655339998426,1000,89.09655339998426,1000,1000,1000,1000,1,num_2,0.5191784999915399,,26,5,2026-03-05_10h39.58.363,2026A_exp2,2022.2.4,60.08752348862524,
1000,1,0.0,6.1,1,0,15,15,42,,,,,89.64530400000513,90.29607549996581,90.29607549996581,90.79722509998828,45,45,90.79722509998828,90.79722509998828,90.79722509998828,90.79722509998828,90.79722509998828,90.79722509998828,90.79722509998828,90.79722509998828,90.79722509998828,91.14688610000303,91.14688610000303,91.14688610000303,91.14688610000303,91.14688610000303,91.14688610000303,91.14688610000303,91.14688610000303,91.14688610000303,22,0,,,91.14688610000303,91.34903569996823,1000,91.34903569996823,1000,1000,1000,1000,1,num_2,0.8346057999879122,,26,5,2026-03-05_10h39.58.363,2026A_exp2,2022.2.4,60.08752348862524,
1000,1,0.0,0.0,1,0,16,16,56,,,,,92.21463140001288,92.86500309995608,92.86500309995608,93.34970839996822,45,45,93.34970839996822,93.34970839996822,93.34970839996822,93.34970839996822,93.34970839996822,93.34970839996822,93.34970839996822,93.34970839996822,93.34970839996822,93.7160687999567,93.7160687999567,93.7160687999567,93.7160687999567,93.7160687999567,93.7160687999567,93.7160687999567,93.7160687999567,93.7160687999567,23,0,,,93.7160687999567,93.91848559997743,1000,93.91848559997743,1000,1000,1000,1000,1,num_2,0.9373195000225678,,26,5,2026-03-05_10h39.58.363,2026A_exp2,2022.2.4,60.08752348862524,
1,0,0.0,0.0,1,0,17,17,38,,,,,94.88385320000816,95.5345987000037,95.5345987000037,96.03582260000985,315,45,96.03582260000985,96.03582260000985,96.03582260000985,96.03582260000985,96.03582260000985,96.03582260000985,96.03582260000985,96.03582260000985,96.03582260000985,96.3853994999663,96.3853994999663,96.3853994999663,96.3853994999663,96.3853994999663,96.3853994999663,96.3853994999663,96.3853994999663,96.3853994999663,22,0,,,96.3853994999663,96.5860080999555,0.0,96.60232879995601,1,0.0,0,0,1000,num_4,0.7735388999572024,,26,5,2026-03-05_10h39.58.363,2026A_exp2,2022.2.4,60.08752348862524,
1000,1,0.0,3.7,0,0,18,18,76,,,,,97.40294289996382,98.03704789996846,98.03704789996846,98.53798600001028,315,315,98.53798600001028,98.53798600001028,98.53798600001028,98.53798600001028,98.53798600001028,98.53798600001028,98.53798600001028,98.53798600001028,98.53798600001028,98.9042903999798,98.9042903999798,98.9042903999798,98.9042903999798,98.9042903999798,98.9042903999798,98.9042903999798,98.9042903999798,98.9042903999798,23,0,,,98.9042903999798,99.10480609996011,1000,99.10480609996011,1000,1000,1000,1000,1,num_2,0.6472343999776058,,26,5,2026-03-05_10h39.58.363,2026A_exp2,2022.2.4,60.08752348862524,
1,0,0.0,0.0,1,0,19,19,33,,,,,99.77228709997144,100.42257689998951,100.42257689998951,100.92397389997495,315,45,100.92397389997495,100.92397389997495,100.92397389997495,100.92397389997495,100.92397389997495,100.92397389997495,100.92397389997495,100.92397389997495,100.92397389997495,101.27334519999567,101.27334519999567,101.27334519999567,101.27334519999567,101.27334519999567,101.27334519999567,101.27334519999567,101.27334519999567,101.27334519999567,22,0,,,101.27334519999567,101.47387809999054,0.0,101.47387809999054,1,0.0,0,0,1000,num_4,0.7913300999789499,,26,5,2026-03-05_10h39.58.363,2026A_exp2,2022.2.4,60.08752348862524,
1000,1,3.7,0.0,0,0,20,20,86,,,,,102.29125969996676,102.94198679999681,102.94198679999681,103.42636370001128,315,315,103.42636370001128,103.42636370001128,103.42636370001128,103.42636370001128,103.42636370001128,103.42636370001128,103.42636370001128,103.42636370001128,103.42636370001128,103.7930711999652,103.7930711999652,103.7930711999652,103.7930711999652,103.7930711999652,103.7930711999652,103.7930711999652,103.7930711999652,103.7930711999652,23,0,,,103.7930711999652,103.99488389998442,1000,103.99488389998442,1000,1000,1000,1000,1,num_2,1.6136324999970384,,26,5,2026-03-05_10h39.58.363,2026A_exp2,2022.2.4,60.08752348862524,
0,0,0.0,0.0,1,0,21,21,44,,,,,105.62804589996813,106.2785938999732,106.2785938999732,106.77982110000448,315,45,106.77982110000448,106.77982110000448,106.77982110000448,106.77982110000448,106.77982110000448,106.77982110000448,106.77982110000448,106.77982110000448,106.77982110000448,107.14621059998171,107.14621059998171,107.14621059998171,107.14621059998171,107.14621059998171,107.14621059998171,107.14621059998171,107.14621059998171,107.14621059998171,23,0,,,107.14621059998171,107.34641090000514,0.0,107.34641090000514,1,0.0,0,0,1000,num_4,1.1414130000048317,,26,5,2026-03-05_10h39.58.363,2026A_exp2,2022.2.4,60.08752348862524,
1000,1,0.0,0.0,1,0,22,22,2,,,,,108.51414509996539,109.16485299996566,109.16485299996566,109.64922229998047,45,315,109.64922229998047,109.64922229998047,109.64922229998047,109.64922229998047,109.64922229998047,109.64922229998047,109.64922229998047,109.64922229998047,109.64922229998047,110.01581479999004,110.01581479999004,110.01581479999004,110.01581479999004,110.01581479999004,110.01581479999004,110.01581479999004,110.01581479999004,110.01581479999004,23,0,,,110.01581479999004,110.21833709999919,1000,110.21833709999919,1000,1000,1000,1000,1,num_2,0.7734887000406161,,26,5,2026-03-05_10h39.58.363,2026A_exp2,2022.2.4,60.08752348862524,
1,0,0.0,0.0,1,0,23,23,6,,,,,111.01659189997008,111.66759309999179,111.66759309999179,112.1685143999639,315,315,112.1685143999639,112.1685143999639,112.1685143999639,112.1685143999639,112.1685143999639,112.1685143999639,112.1685143999639,112.1685143999639,112.1685143999639,112.5350066999672,112.5350066999672,112.5350066999672,112.5350066999672,112.5350066999672,112.5350066999672,112.5350066999672,112.5350066999672,112.5350066999672,23,0,,,112.5350066999672,112.73506519995863,0.0,112.73506519995863,1,0.0,0,0,1000,num_4,0.880784599983599,,26,5,2026-03-05_10h39.58.363,2026A_exp2,2022.2.4,60.08752348862524,
1,0,3.7,6.1,1,0,24,24,68,,,,,113.63589179998962,114.2868146999972,114.2868146999972,114.77097369998228,315,315,114.77097369998228,114.77097369998228,114.77097369998228,114.77097369998228,114.77097369998228,114.77097369998228,114.77097369998228,114.77097369998228,114.77097369998228,115.13760819996241,115.13760819996241,115.13760819996241,115.13760819996241,115.13760819996241,115.13760819996241,115.13760819996241,115.13760819996241,115.13760819996241,23,0,,,115.13760819996241,115.33769539999776,6.1,115.33769539999776,1,6.1,1,1,1000,num_4,0.6147724000038579,,26,5,2026-03-05_10h39.58.363,2026A_exp2,2022.2.4,60.08752348862524,
1,0,0.0,0.0,1,0,25,25,31,,,,,115.9715550999972,116.62241109996103,116.62241109996103,117.10679569997592,315,45,117.10679569997592,117.10679569997592,117.10679569997592,117.10679569997592,117.10679569997592,117.10679569997592,117.10679569997592,117.10679569997592,117.10679569997592,117.47325679997448,117.47325679997448,117.47325679997448,117.47325679997448,117.47325679997448,117.47325679997448,117.47325679997448,117.47325679997448,117.47325679997448,23,0,,,117.47325679997448,117.6733125000028,0.0,117.6733125000028,1,0.0,0,0,1000,num_4,1.039069299993571,,26,5,2026-03-05_10h39.58.363,2026A_exp2,2022.2.4,60.08752348862524,
1000,1,0.0,4.9,0,0,26,26,0,,,,,118.741037699976,119.39194519998273,119.39194519998273,119.8760612999904,315,45,119.8760612999904,119.8760612999904,119.8760612999904,119.8760612999904,119.8760612999904,119.8760612999904,119.8760612999904,119.8760612999904,119.8760612999904,120.24255379999522,120.24255379999522,120.24255379999522,120.24255379999522,120.24255379999522,120.24255379999522,120.24255379999522,120.24255379999522,120.24255379999522,23,0,,,120.24255379999522,120.44496549997712,1000,120.44496549997712,1000,1000,1000,1000,1,num_2,0.9241108000278473,,26,5,2026-03-05_10h39.58.363,2026A_exp2,2022.2.4,60.08752348862524,
0,0,3.7,0.0,1,0,27,27,1,,,,,121.39376459998311,122.04442879999988,122.04442879999988,122.54564699996263,45,45,122.54564699996263,122.54564699996263,122.54564699996263,122.54564699996263,122.54564699996263,122.54564699996263,122.54564699996263,122.54564699996263,122.54564699996263,122.91206359997159,122.91206359997159,122.91206359997159,122.91206359997159,122.91206359997159,122.91206359997159,122.91206359997159,122.91206359997159,122.91206359997159,23,0,,,122.91206359997159,123.11228479997953,3.7,123.11228479997953,1,3.7,1,1,1000,num_4,1.7673875000327826,,26,5,2026-03-05_10h39.58.363,2026A_exp2,2022.2.4,60.08752348862524,
1000,1,0.0,3.7,0,0,28,28,43,,,,,124.89719549997244,125.54797399998643,125.54797399998643,126.0491619000095,315,45,126.0491619000095,126.0491619000095,126.0491619000095,126.0491619000095,126.0491619000095,126.0491619000095,126.0491619000095,126.0491619000095,126.0491619000095,126.41546150000067,126.41546150000067,126.41546150000067,126.41546150000067,126.41546150000067,126.41546150000067,126.41546150000067,126.41546150000067,126.41546150000067,23,0,,,126.41546150000067,126.61787189997267,1000,126.61787189997267,1000,1000,1000,1000,1,num_2,0.5269390000030398,,26,5,2026-03-05_10h39.58.363,2026A_exp2,2022.2.4,60.08752348862524,
1000,1,0.0,6.1,0,0,29,29,61,,,,,127.16625000000931,127.8170334000024,127.8170334000024,128.31810029997723,45,45,128.31810029997723,128.31810029997723,128.31810029997723,128.31810029997723,128.31810029997723,128.31810029997723,128.31810029997723,128.31810029997723,128.31810029997723,128.66782029997557,128.66782029997557,128.66782029997557,128.66782029997557,128.66782029997557,128.66782029997557,128.66782029997557,128.66782029997557,128.66782029997557,22,0,,,128.66782029997557,128.869784599985,1000,128.88465630001156,1000,1000,1000,1000,1,num_2,0.6039479000028223,,26,5,2026-03-05_10h39.58.363,2026A_exp2,2022.2.4,60.08752348862524,
1000,1,4.9,6.1,1,0,30,30,5,,,,,129.51852939999662,130.1692501999787,130.1692501999787,130.67447299999185,315,45,130.67447299999185,130.67447299999185,130.67447299999185,130.67447299999185,130.67447299999185,130.67447299999185,130.67447299999185,130.67447299999185,130.67447299999185,131.0367183999624,131.0367183999624,131.0367183999624,131.0367183999624,131.0367183999624,131.0367183999624,131.0367183999624,131.0367183999624,131.0367183999624,23,0,,,131.0367183999624,131.24010249995627,1000,131.24010249995627,1000,1000,1000,1000,0,num_3,1.096859899989795,,26,5,2026-03-05_10h39.58.363,2026A_exp2,2022.2.4,60.08752348862524,
1000,1,3.7,4.9,1,0,31,31,71,,,,,132.35489269997925,133.00550709996605,133.00550709996605,133.50635189999593,45,45,133.50635189999593,133.50635189999593,133.50635189999593,133.50635189999593,133.50635189999593,133.50635189999593,133.50635189999593,133.50635189999593,133.50635189999593,133.87281819997588,133.87281819997588,133.87281819997588,133.87281819997588,133.87281819997588,133.87281819997588,133.87281819997588,133.87281819997588,133.87281819997588,23,0,,,133.87281819997588,134.07339360000333,1000,134.07339360000333,1000,1000,1000,1000,1,num_2,0.5663921000086702,,26,5,2026-03-05_10h39.58.363,2026A_exp2,2022.2.4,60.08752348862524,
1000,1,6.1,4.9,0,0,32,32,51,,,,,134.6570145000005,135.30792659998406,135.30792659998406,135.80866239999887,315,45,135.80866239999887,135.80866239999887,135.80866239999887,135.80866239999887,135.80866239999887,135.80866239999887,135.80866239999887,135.80866239999887,135.80866239999887,136.17534739995608,136.17534739995608,136.17534739995608,136.17534739995608,136.17534739995608,136.17534739995608,136.17534739995608,136.17534739995608,136.17534739995608,19,3,"[0.0017507000011391938, 0.25020109995966777, 0.31686489999992773]","[0.01718359999358654, 0.283293699962087, 0.3334828999941237]",136.17534739995608,136.37708710000152,1000,136.37708710000152,1000,1000,1000,1000,0,num_3,0.6149891000241041,,26,5,2026-03-05_10h39.58.363,2026A_exp2,2022.2.4,60.08752348862524,
1000,1,0.0,6.1,1,0,33,33,74,,,,,137.00952039996628,137.65995070000645,137.65995070000645,138.16116959997453,45,45,138.16116959997453,138.16116959997453,138.16116959997453,138.16116959997453,138.16116959997453,138.16116959997453,138.16116959997453,138.16116959997453,138.16116959997453,138.5276409999933,138.5276409999933,138.5276409999933,138.5276409999933,138.5276409999933,138.5276409999933,138.5276409999933,138.5276409999933,138.5276409999933,23,0,,,138.5276409999933,138.7299525999697,1000,138.7299525999697,1000,1000,1000,1000,1,num_2,0.4137095000478439,,26,5,2026-03-05_10h39.58.363,2026A_exp2,2022.2.4,60.08752348862524,
1000,1,0.0,3.7,0,0,34,34,63,,,,,139.16145730001153,139.81241879996378,139.81241879996378,140.3142125000013,315,45,140.3142125000013,140.3142125000013,140.3142125000013,140.3142125000013,140.3142125000013,140.3142125000013,140.3142125000013,140.3142125000013,140.3142125000013,140.67979079997167,140.67979079997167,140.67979079997167,140.67979079997167,140.67979079997167,140.67979079997167,140.67979079997167,140.67979079997167,140.67979079997167,23,0,,,140.67979079997167,140.88195369997993,1000,140.88195369997993,1000,1000,1000,1000,1,num_2,0.5977975999703631,,26,5,2026-03-05_10h39.58.363,2026A_exp2,2022.2.4,60.08752348862524,
1000,1,0.0,0.0,0,0,35,35,72,,,,,141.49716400000034,142.14789369999198,142.14789369999198,142.64903909998247,45,45,142.64903909998247,142.64903909998247,142.64903909998247,142.64903909998247,142.64903909998247,142.64903909998247,142.64903909998247,142.64903909998247,142.64903909998247,143.0155126999598,143.0155126999598,143.0155126999598,143.0155126999598,143.0155126999598,143.0155126999598,143.0155126999598,143.0155126999598,143.0155126999598,23,0,,,143.0155126999598,143.21735180000542,1000,143.21735180000542,1000,1000,1000,1000,1,num_2,0.7831364000448957,,26,5,2026-03-05_10h39.58.363,2026A_exp2,2022.2.4,60.08752348862524,
1000,1,0.0,6.1,0,0,36,36,20,,,,,144.01657279999927,144.6672597999568,144.6672597999568,145.15156099997694,45,45,145.15156099997694,145.15156099997694,145.15156099997694,145.15156099997694,145.15156099997694,145.15156099997694,145.15156099997694,145.15156099997694,145.15156099997694,145.517970099987,145.517970099987,145.517970099987,145.517970099987,145.517970099987,145.517970099987,145.517970099987,145.517970099987,145.517970099987,23,0,,,145.517970099987,145.7201245999895,1000,145.7201245999895,1000,1000,1000,1000,1,num_2,0.4159587000031024,,26,5,2026-03-05_10h39.58.363,2026A_exp2,2022.2.4,60.08752348862524,
1,0,0.0,4.9,1,0,37,37,54,,,,,146.1520888999803,146.80260729999281,146.80260729999281,147.28693740000017,315,45,147.28693740000017,147.28693740000017,147.28693740000017,147.28693740000017,147.28693740000017,147.28693740000017,147.28693740000017,147.28693740000017,147.28693740000017,147.65347590000601,147.65347590000601,147.65347590000601,147.65347590000601,147.65347590000601,147.65347590000601,147.65347590000601,147.65347590000601,147.65347590000601,23,0,,,147.65347590000601,147.85366139997495,4.9,147.85366139997495,1,4.9,1,1,1000,num_4,1.0661663999781013,,26,5,2026-03-05_10h39.58.363,2026A_exp2,2022.2.4,60.08752348862524,
1000,1,0.0,3.7,1,0,38,38,4,,,,,148.93786189996172,149.58868039998924,149.58868039998924,150.07308000000194,45,315,150.07308000000194,150.07308000000194,150.07308000000194,150.07308000000194,150.07308000000194,150.07308000000194,150.07308000000194,150.07308000000194,150.07308000000194,150.439578599995,150.439578599995,150.439578599995,150.439578599995,150.439578599995,150.439578599995,150.439578599995,150.439578599995,150.439578599995,23,0,,,150.439578599995,150.64163239998743,1000,150.64163239998743,1000,1000,1000,1000,1,num_2,0.31807119998848066,,26,5,2026-03-05_10h39.58.363,2026A_exp2,2022.2.4,60.08752348862524,
1000,1,0.0,3.7,0,0,39,39,23,,,,,150.99003469996387,151.64084079995519,151.64084079995519,152.14187089999905,45,315,152.14187089999905,152.14187089999905,152.14187089999905,152.14187089999905,152.14187089999905,152.14187089999905,152.14187089999905,152.14187089999905,152.14187089999905,152.50826539995614,152.50826539995614,152.50826539995614,152.50826539995614,152.50826539995614,152.50826539995614,152.50826539995614,152.50826539995614,152.50826539995614,23,0,,,152.50826539995614,152.71018479997292,1000,152.71018479997292,1000,1000,1000,1000,1,num_2,0.6337073000031523,,26,5,2026-03-05_10h39.58.363,2026A_exp2,2022.2.4,60.08752348862524,
1000,1,0.0,0.0,0,0,40,40,65,,,,,153.35913539998,154.0097570999642,154.0097570999642,154.5109456999926,45,315,154.5109456999926,154.5109456999926,154.5109456999926,154.5109456999926,154.5109456999926,154.5109456999926,154.5109456999926,154.5109456999926,154.5109456999926,154.87708780000685,154.87708780000685,154.87708780000685,154.87708780000685,154.87708780000685,154.87708780000685,154.87708780000685,154.87708780000685,154.87708780000685,23,0,,,154.87708780000685,155.07937779999338,1000,155.07937779999338,1000,1000,1000,1000,1,num_2,0.8891313999774866,,26,5,2026-03-05_10h39.58.363,2026A_exp2,2022.2.4,60.08752348862524,
1,0,6.1,0.0,1,0,41,41,17,,,,,155.9949335999554,156.64564289996633,156.64564289996633,157.14695199998096,315,45,157.14695199998096,157.14695199998096,157.14695199998096,157.14695199998096,157.14695199998096,157.14695199998096,157.14695199998096,157.14695199998096,157.14695199998096,157.51303819997702,157.51303819997702,157.51303819997702,157.51303819997702,157.51303819997702,157.51303819997702,157.51303819997702,157.51303819997702,157.51303819997702,23,0,,,157.51303819997702,157.7133125999826,0.0,157.7133125999826,0,0.0,0,1,1000,num_1,0.8557125999941491,,26,5,2026-03-05_10h39.58.363,2026A_exp2,2022.2.4,60.08752348862524,
1000,1,0.0,0.0,0,0,42,42,7,,,,,158.59756369999377,159.24823799997102,159.24823799997102,159.73294029996032,315,45,159.73294029996032,159.73294029996032,159.73294029996032,159.73294029996032,159.73294029996032,159.73294029996032,159.73294029996032,159.73294029996032,159.73294029996032,160.09922039997764,160.09922039997764,160.09922039997764,160.09922039997764,160.09922039997764,160.09922039997764,160.09922039997764,160.09922039997764,160.09922039997764,23,0,,,160.09922039997764,160.3015661999816,1000,160.3015661999816,1000,1000,1000,1000,0,num_3,0.715005400008522,,26,5,2026-03-05_10h39.58.363,2026A_exp2,2022.2.4,60.08752348862524,
0,0,6.1,0.0,1,0,43,43,25,,,,,161.03333010000642,161.68419900001027,161.68419900001027,162.18522980000125,45,315,162.18522980000125,162.18522980000125,162.18522980000125,162.18522980000125,162.18522980000125,162.18522980000125,162.18522980000125,162.18522980000125,162.18522980000125,162.55172669998137,162.55172669998137,162.55172669998137,162.55172669998137,162.55172669998137,162.55172669998137,162.55172669998137,162.55172669998137,162.55172669998137,23,0,,,162.55172669998137,162.7519080999773,6.1,162.7519080999773,1,6.1,1,1,1000,num_4,0.7365264999680221,,26,5,2026-03-05_10h39.58.363,2026A_exp2,2022.2.4,60.08752348862524,
0,0,6.1,0.0,1,0,44,44,52,,,,,163.51924180000788,164.16968389996327,164.16968389996327,164.65425500000129,45,315,164.65425500000129,164.65425500000129,164.65425500000129,164.65425500000129,164.65425500000129,164.65425500000129,164.65425500000129,164.65425500000129,164.65425500000129,165.02076759998454,165.02076759998454,165.02076759998454,165.02076759998454,165.02076759998454,165.02076759998454,165.02076759998454,165.02076759998454,165.02076759998454,23,0,,,165.02076759998454,165.2209595000022,6.1,165.2209595000022,1,6.1,1,1,1000,num_4,0.7241349000250921,,26,5,2026-03-05_10h39.58.363,2026A_exp2,2022.2.4,60.08752348862524,
1000,1,3.7,6.1,0,0,45,45,60,,,,,165.97160160000203,166.62203749996843,166.62203749996843,167.10678609996103,315,45,167.10678609996103,167.10678609996103,167.10678609996103,167.10678609996103,167.10678609996103,167.10678609996103,167.10678609996103,167.10678609996103,167.10678609996103,167.47331510001095,167.47331510001095,167.47331510001095,167.47331510001095,167.47331510001095,167.47331510001095,167.47331510001095,167.47331510001095,167.47331510001095,23,0,,,167.47331510001095,167.67341859999578,1000,167.67341859999578,1000,1000,1000,1000,1,num_2,0.5755828999681398,,26,5,2026-03-05_10h39.58.363,2026A_exp2,2022.2.4,60.08752348862524,
1000,1,6.1,4.9,0,0,46,46,81,,,,,168.2739142999635,168.92619490000652,168.92619490000652,169.42578429996502,45,45,169.42578429996502,169.42578429996502,169.42578429996502,169.42578429996502,169.42578429996502,169.42578429996502,169.42578429996502,169.42578429996502,169.42578429996502,169.79212429997278,169.79212429997278,169.79212429997278,169.79212429997278,169.79212429997278,169.79212429997278,169.79212429997278,169.79212429997278,169.79212429997278,23,0,,,169.79212429997278,170.0185683000018,1000,170.0185683000018,1000,1000,1000,1000,0,num_3,1.8297602999955416,,26,5,2026-03-05_10h39.58.363,2026A_exp2,2022.2.4,60.08752348862524,
1000,1,6.1,0.0,1,0,47,47,79,,,,,171.8776099999668,172.52828849997604,172.52828849997604,173.02933659998234,315,45,173.02933659998234,173.02933659998234,173.02933659998234,173.02933659998234,173.02933659998234,173.02933659998234,173.02933659998234,173.02933659998234,173.02933659998234,173.39588089997414,173.39588089997414,173.39588089997414,173.39588089997414,173.39588089997414,173.39588089997414,173.39588089997414,173.39588089997414,173.39588089997414,23,0,,,173.39588089997414,173.59801489999518,1000,173.59801489999518,1000,1000,1000,1000,0,num_3,0.5710102000157349,,26,5,2026-03-05_10h39.58.363,2026A_exp2,2022.2.4,60.08752348862524,
1000,1,3.7,0.0,0,0,48,48,39,,,,,174.19652920000954,174.84730699995998,174.84730699995998,175.34847319999244,315,315,175.34847319999244,175.34847319999244,175.34847319999244,175.34847319999244,175.34847319999244,175.34847319999244,175.34847319999244,175.34847319999244,175.34847319999244,175.714763499971,175.714763499971,175.714763499971,175.714763499971,175.714763499971,175.714763499971,175.714763499971,175.714763499971,175.714763499971,23,0,,,175.714763499971,175.91673419997096,1000,175.91673419997096,1000,1000,1000,1000,0,num_3,0.6275048999814317,,26,5,2026-03-05_10h39.58.363,2026A_exp2,2022.2.4,60.08752348862524,
1,0,4.9,6.1,0,0,49,49,82,,,,,176.5655640999903,177.216236200009,177.216236200009,177.71725649997825,315,45,177.71725649997825,177.71725649997825,177.71725649997825,177.71725649997825,177.71725649997825,177.71725649997825,177.71725649997825,177.71725649997825,177.71725649997825,178.06725729996106,178.06725729996106,178.06725729996106,178.06725729996106,178.06725729996106,178.06725729996106,178.06725729996106,178.06725729996106,178.06725729996106,13,4,"[0.11759619996882975, 0.1842287000035867, 0.2511311999987811, 0.35110939998412505]","[0.1343741999589838, 0.217810699949041, 0.33453609998105094, 0.35111399996094406]",178.06725729996106,178.2673070000019,4.9,178.2673070000019,1,4.9,1,1,1000,num_4,1.5410960000008345,,26,5,2026-03-05_10h39.58.363,2026A_exp2,2022.2.4,60.08752348862524,
0,0,6.1,0.0,0,0,50,50,41,,,,,179.8354032000061,180.48631710000336,180.48631710000336,180.970645399997,45,315,180.970645399997,180.970645399997,180.970645399997,180.970645399997,180.970645399997,180.970645399997,180.970645399997,180.970645399997,180.970645399997,181.33715179999126,181.33715179999126,181.33715179999126,181.33715179999126,181.33715179999126,181.33715179999126,181.33715179999126,181.33715179999126,181.33715179999126,23,0,,,181.33715179999126,181.53735399997095,0.0,181.53735399997095,0,0.0,0,1,1000,num_1,0.7822604000102729,,26,5,2026-03-05_10h39.58.363,2026A_exp2,2022.2.4,60.08752348862524,
1000,1,4.9,0.0,0,0,51,51,50,,,,,182.33799530001124,182.98864559998037,182.98864559998037,183.47306180000305,315,315,183.47306180000305,183.47306180000305,183.47306180000305,183.47306180000305,183.47306180000305,183.47306180000305,183.47306180000305,183.47306180000305,183.47306180000305,183.8396167999599,183.8396167999599,183.8396167999599,183.8396167999599,183.8396167999599,183.8396167999599,183.8396167999599,183.8396167999599,183.8396167999599,23,0,,,183.8396167999599,184.0415529999882,1000,184.0415529999882,1000,1000,1000,1000,0,num_3,0.6942303000250831,,26,5,2026-03-05_10h39.58.363,2026A_exp2,2022.2.4,60.08752348862524,
1000,1,6.1,6.1,1,0,52,52,22,,,,,184.75701969995862,185.4075906999642,185.4075906999642,185.9089260000037,315,315,185.9089260000037,185.9089260000037,185.9089260000037,185.9089260000037,185.9089260000037,185.9089260000037,185.9089260000037,185.9089260000037,185.9089260000037,186.27543129998958,186.27543129998958,186.27543129998958,186.27543129998958,186.27543129998958,186.27543129998958,186.27543129998958,186.27543129998958,186.27543129998958,14,1,[0.001206899993121624],[0.15031009999802336],186.27543129998958,186.4775753999711,1000,186.4775753999711,1000,1000,1000,1000,0,num_3,0.6103970000403933,,26,5,2026-03-05_10h39.58.363,2026A_exp2,2022.2.4,60.08752348862524,
1,0,6.1,0.0,0,0,53,53,85,,,,,187.10976269998355,187.75969470001291,187.75969470001291,188.26105530001223,45,315,188.26105530001223,188.26105530001223,188.26105530001223,188.26105530001223,188.26105530001223,188.26105530001223,188.26105530001223,188.26105530001223,188.26105530001223,188.6109562999918,188.6109562999918,188.6109562999918,188.6109562999918,188.6109562999918,188.6109562999918,188.6109562999918,188.6109562999918,188.6109562999918,22,0,,,188.6109562999918,188.81114909995813,6.1,188.81114909995813,1,6.1,1,1,1000,num_4,0.7409766999771819,,26,5,2026-03-05_10h39.58.363,2026A_exp2,2022.2.4,60.08752348862524,
1000,1,4.9,0.0,1,0,54,54,12,,,,,189.5784782000119,190.22936080000363,190.22936080000363,190.7304332999629,45,315,190.7304332999629,190.7304332999629,190.7304332999629,190.7304332999629,190.7304332999629,190.7304332999629,190.7304332999629,190.7304332999629,190.7304332999629,191.0966590999742,191.0966590999742,191.0966590999742,191.0966590999742,191.0966590999742,191.0966590999742,191.0966590999742,191.0966590999742,191.0966590999742,23,0,,,191.0966590999742,191.298924600007,1000,191.298924600007,1000,1000,1000,1000,1,num_2,0.7169730000314303,,26,5,2026-03-05_10h39.58.363,2026A_exp2,2022.2.4,60.08752348862524,
1000,1,3.7,0.0,0,0,55,55,35,,,,,192.03127079998376,192.6818595000077,192.6818595000077,193.1828661999898,315,315,193.1828661999898,193.1828661999898,193.1828661999898,193.1828661999898,193.1828661999898,193.1828661999898,193.1828661999898,193.1828661999898,193.1828661999898,193.5493693999597,193.5493693999597,193.5493693999597,193.5493693999597,193.5493693999597,193.5493693999597,193.5493693999597,193.5493693999597,193.5493693999597,23,0,,,193.5493693999597,193.74955879995832,1000,193.74955879995832,1000,1000,1000,1000,0,num_3,1.3867245999863371,,26,5,2026-03-05_10h39.58.363,2026A_exp2,2022.2.4,60.08752348862524,
1000,1,4.9,0.0,1,0,56,56,48,,,,,195.16748770000413,195.8180845999741,195.8180845999741,196.30277299997397,315,315,196.30277299997397,196.30277299997397,196.30277299997397,196.30277299997397,196.30277299997397,196.30277299997397,196.30277299997397,196.30277299997397,196.30277299997397,196.66907459998038,196.66907459998038,196.66907459998038,196.66907459998038,196.66907459998038,196.66907459998038,196.66907459998038,196.66907459998038,196.66907459998038,23,0,,,196.66907459998038,196.87123280001106,1000,196.87123280001106,1000,1000,1000,1000,0,num_3,1.1126799000194296,,26,5,2026-03-05_10h39.58.363,2026A_exp2,2022.2.4,60.08752348862524,
1000,1,0.0,0.0,0,0,57,57,45,,,,,198.0036712999572,198.6543926000013,198.6543926000013,199.1555868999567,315,315,199.1555868999567,199.1555868999567,199.1555868999567,199.1555868999567,199.1555868999567,199.1555868999567,199.1555868999567,199.1555868999567,199.1555868999567,199.5219360999763,199.5219360999763,199.5219360999763,199.5219360999763,199.5219360999763,199.5219360999763,199.5219360999763,199.5219360999763,199.5219360999763,23,0,,,199.5219360999763,199.72377539996523,1000,199.72377539996523,1000,1000,1000,1000,0,num_3,0.7081961000221781,,26,5,2026-03-05_10h39.58.363,2026A_exp2,2022.2.4,60.08752348862524,
1,0,0.0,4.9,0,0,58,58,32,,,,,200.45603479997953,201.10676529997727,201.10676529997727,201.60798779997276,315,315,201.60798779997276,201.60798779997276,201.60798779997276,201.60798779997276,201.60798779997276,201.60798779997276,201.60798779997276,201.60798779997276,201.60798779997276,201.97436870000092,201.97436870000092,201.97436870000092,201.97436870000092,201.97436870000092,201.97436870000092,201.97436870000092,201.97436870000092,201.97436870000092,23,0,,,201.97436870000092,202.17455579998204,0.0,202.17455579998204,0,0.0,0,1,1000,num_1,1.0816779999877326,,26,5,2026-03-05_10h39.58.363,2026A_exp2,2022.2.4,60.08752348862524,
1000,1,3.7,3.7,0,0,59,59,59,,,,,203.27570719999494,203.92632359999698,203.92632359999698,204.41077620000578,45,45,204.41077620000578,204.41077620000578,204.41077620000578,204.41077620000578,204.41077620000578,204.41077620000578,204.41077620000578,204.41077620000578,204.41077620000578,204.77720989997033,204.77720989997033,204.77720989997033,204.77720989997033,204.77720989997033,204.77720989997033,204.77720989997033,204.77720989997033,204.77720989997033,23,0,,,204.77720989997033,204.98011439997936,1000,204.98011439997936,1000,1000,1000,1000,1,num_2,0.812512299977243,,26,5,2026-03-05_10h39.58.363,2026A_exp2,2022.2.4,60.08752348862524,
1000,1,4.9,3.7,1,0,60,60,78,,,,,205.81142879999243,206.4622163999593,206.4622163999593,206.9632937000133,45,45,206.9632937000133,206.9632937000133,206.9632937000133,206.9632937000133,206.9632937000133,206.9632937000133,206.9632937000133,206.9632937000133,206.9632937000133,207.32978559995536,207.32978559995536,207.32978559995536,207.32978559995536,207.32978559995536,207.32978559995536,207.32978559995536,207.32978559995536,207.32978559995536,23,0,,,207.32978559995536,207.53000570001313,1000,207.53000570001313,1000,1000,1000,1000,1,num_2,0.5581926999730058,,26,5,2026-03-05_10h39.58.363,2026A_exp2,2022.2.4,60.08752348862524,
1,0,0.0,4.9,0,0,61,61,70,,,,,208.11374449997675,208.76459659996908,208.76459659996908,209.26556540001184,315,45,209.26556540001184,209.26556540001184,209.26556540001184,209.26556540001184,209.26556540001184,209.26556540001184,209.26556540001184,209.26556540001184,209.26556540001184,209.6154035999789,209.6154035999789,209.6154035999789,209.6154035999789,209.6154035999789,209.6154035999789,209.6154035999789,209.6154035999789,209.6154035999789,22,0,,,209.6154035999789,209.8155410999898,0.0,209.83225939999102,0,0.0,0,1,1000,num_1,0.7929459000006318,,26,5,2026-03-05_10h39.58.363,2026A_exp2,2022.2.4,60.08752348862524,
0,0,3.7,0.0,0,0,62,62,18,,,,,210.64958639995893,211.3003514999873,211.3003514999873,211.7847441000049,315,315,211.7847441000049,211.7847441000049,211.7847441000049,211.7847441000049,211.7847441000049,211.7847441000049,211.7847441000049,211.7847441000049,211.7847441000049,212.151276199962,212.151276199962,212.151276199962,212.151276199962,212.151276199962,212.151276199962,212.151276199962,212.151276199962,212.151276199962,23,0,,,212.151276199962,212.35199369996553,0.0,212.35199369996553,0,0.0,0,1,1000,num_1,1.5129336999962106,,26,5,2026-03-05_10h39.58.363,2026A_exp2,2022.2.4,60.08752348862524,
1,0,0.0,6.1,0,0,63,63,24,,,,,213.88614939997206,214.53695629996946,214.53695629996946,215.03705260000424,45,45,215.03705260000424,215.03705260000424,215.03705260000424,215.03705260000424,215.03705260000424,215.03705260000424,215.03705260000424,215.03705260000424,215.03705260000424,215.38790249999147,215.38790249999147,215.38790249999147,215.38790249999147,215.38790249999147,215.38790249999147,215.38790249999147,215.38790249999147,215.38790249999147,23,0,,,215.38790249999147,215.58789829997113,0.0,215.58789829997113,0,0.0,0,1,1000,num_1,0.7158486999687739,,26,5,2026-03-05_10h39.58.363,2026A_exp2,2022.2.4,60.08752348862524,
1,0,3.7,0.0,1,0,64,64,30,,,,,216.32188110001152,216.97277849999955,216.97277849999955,217.45724580000388,315,45,217.45724580000388,217.45724580000388,217.45724580000388,217.45724580000388,217.45724580000388,217.45724580000388,217.45724580000388,217.45724580000388,217.45724580000388,217.823588499974,217.823588499974,217.823588499974,217.823588499974,217.823588499974,217.823588499974,217.823588499974,217.823588499974,217.823588499974,23,0,,,217.823588499974,218.02384310000343,0.0,218.02384310000343,0,0.0,0,1,1000,num_1,0.8242857999866828,,26,5,2026-03-05_10h39.58.363,2026A_exp2,2022.2.4,60.08752348862524,
1000,1,0.0,0.0,1,0,65,65,3,,,,,218.87450450001052,219.52520430000732,219.52520430000732,220.0097250000108,45,315,220.0097250000108,220.0097250000108,220.0097250000108,220.0097250000108,220.0097250000108,220.0097250000108,220.0097250000108,220.0097250000108,220.0097250000108,220.37618429999566,220.37618429999566,220.37618429999566,220.37618429999566,220.37618429999566,220.37618429999566,220.37618429999566,220.37618429999566,220.37618429999566,22,1,[0.13320999999996275],[0.1501381999696605],220.37618429999566,220.57819619996008,1000,220.57819619996008,1000,1000,1000,1000,0,num_3,0.7100923000252806,,26,5,2026-03-05_10h39.58.363,2026A_exp2,2022.2.4,60.08752348862524,
1,0,0.0,4.9,0,0,66,66,14,,,,,221.310333899979,221.94441299996106,221.94441299996106,222.44542409997666,45,45,222.44542409997666,222.44542409997666,222.44542409997666,222.44542409997666,222.44542409997666,222.44542409997666,222.44542409997666,222.44542409997666,222.44542409997666,222.8118276000023,222.8118276000023,222.8118276000023,222.8118276000023,222.8118276000023,222.8118276000023,222.8118276000023,222.8118276000023,222.8118276000023,13,5,"[0.017362600017804652, 0.08367110003018752, 0.11709569999948144, 0.2170944000245072, 0.30022550001740456]","[0.03360160003649071, 0.10024440003326163, 0.13365880004130304, 0.28349170001456514, 0.3501793000032194]",222.8118276000023,223.01200089999475,0.0,223.01200089999475,0,0.0,0,1,1000,num_1,0.707785300037358,,26,5,2026-03-05_10h39.58.363,2026A_exp2,2022.2.4,60.08752348862524,
0,0,0.0,0.0,0,0,67,67,15,,,,,223.74629119999008,224.3801153000095,224.3801153000095,224.8813475999632,315,45,224.8813475999632,224.8813475999632,224.8813475999632,224.8813475999632,224.8813475999632,224.8813475999632,224.8813475999632,224.8813475999632,224.8813475999632,225.24766120000277,225.24766120000277,225.24766120000277,225.24766120000277,225.24766120000277,225.24766120000277,225.24766120000277,225.24766120000277,225.24766120000277,23,0,,,225.24766120000277,225.4478739000042,0.0,225.4478739000042,1,0.0,0,0,1000,num_4,1.5528093000175431,,26,5,2026-03-05_10h39.58.363,2026A_exp2,2022.2.4,60.08752348862524,
1,0,0.0,6.1,1,0,68,68,19,,,,,227.03281770000467,227.6667526999954,227.6667526999954,228.16797559999395,45,315,228.16797559999395,228.16797559999395,228.16797559999395,228.16797559999395,228.16797559999395,228.16797559999395,228.16797559999395,228.16797559999395,228.16797559999395,228.53431239997735,228.53431239997735,228.53431239997735,228.53431239997735,228.53431239997735,228.53431239997735,228.53431239997735,228.53431239997735,228.53431239997735,23,0,,,228.53431239997735,228.73451689997455,6.1,228.73451689997455,1,6.1,1,1,1000,num_4,0.5458414999884553,,26,5,2026-03-05_10h39.58.363,2026A_exp2,2022.2.4,60.08752348862524,
1000,1,0.0,6.1,1,0,69,69,13,,,,,229.30154259997653,229.95233309996547,229.95233309996547,230.43694519996643,315,45,230.43694519996643,230.43694519996643,230.43694519996643,230.43694519996643,230.43694519996643,230.43694519996643,230.43694519996643,230.43694519996643,230.43694519996643,230.80328449996887,230.80328449996887,230.80328449996887,230.80328449996887,230.80328449996887,230.80328449996887,230.80328449996887,230.80328449996887,230.80328449996887,23,0,,,230.80328449996887,231.0050312000094,1000,231.0050312000094,1000,1000,1000,1000,1,num_2,0.8029314000159502,,26,5,2026-03-05_10h39.58.363,2026A_exp2,2022.2.4,60.08752348862524,
1000,1,0.0,6.1,0,0,70,70,16,,,,,231.83766289998312,232.47155789996032,232.47155789996032,232.97262059996137,315,45,232.97262059996137,232.97262059996137,232.97262059996137,232.97262059996137,232.97262059996137,232.97262059996137,232.97262059996137,232.97262059996137,232.97262059996137,233.3391483000014,233.3391483000014,233.3391483000014,233.3391483000014,233.3391483000014,233.3391483000014,233.3391483000014,233.3391483000014,233.3391483000014,23,0,,,233.3391483000014,233.54088149999734,1000,233.54088149999734,1000,1000,1000,1000,1,num_2,0.5472410999936983,,26,5,2026-03-05_10h39.58.363,2026A_exp2,2022.2.4,60.08752348862524,
0,0,3.7,4.9,0,0,71,71,77,,,,,234.10640519997105,234.75709619995905,234.75709619995905,235.25824259995716,315,45,235.25824259995716,235.25824259995716,235.25824259995716,235.25824259995716,235.25824259995716,235.25824259995716,235.25824259995716,235.25824259995716,235.25824259995716,235.62477339996258,235.62477339996258,235.62477339996258,235.62477339996258,235.62477339996258,235.62477339996258,235.62477339996258,235.62477339996258,235.62477339996258,23,0,,,235.62477339996258,235.82499639998423,4.9,235.82499639998423,1,4.9,1,1,1000,num_4,1.0318162000039592,,26,5,2026-03-05_10h39.58.363,2026A_exp2,2022.2.4,60.08752348862524,
1,0,3.7,0.0,0,0,72,72,26,,,,,236.87603009998566,237.52656069997465,237.52656069997465,238.01103349996265,45,315,238.01103349996265,238.01103349996265,238.01103349996265,238.01103349996265,238.01103349996265,238.01103349996265,238.01103349996265,238.01103349996265,238.01103349996265,238.3775156000047,238.3775156000047,238.3775156000047,238.3775156000047,238.3775156000047,238.3775156000047,238.3775156000047,238.3775156000047,238.3775156000047,23,0,,,238.3775156000047,238.57763569999952,3.7,238.57763569999952,0,3.7,1,0,1000,num_1,0.9982392000383697,,26,5,2026-03-05_10h39.58.363,2026A_exp2,2022.2.4,60.08752348862524,
1000,1,6.1,3.7,1,0,73,73,11,,,,,239.59516739996616,240.24596039997414,240.24596039997414,240.7304382000002,315,45,240.7304382000002,240.7304382000002,240.7304382000002,240.7304382000002,240.7304382000002,240.7304382000002,240.7304382000002,240.7304382000002,240.7304382000002,241.09687079995638,241.09687079995638,241.09687079995638,241.09687079995638,241.09687079995638,241.09687079995638,241.09687079995638,241.09687079995638,241.09687079995638,23,0,,,241.09687079995638,241.29895759996725,1000,241.29895759996725,1000,1000,1000,1000,0,num_3,0.6607134999940172,,26,5,2026-03-05_10h39.58.363,2026A_exp2,2022.2.4,60.08752348862524,
1000,1,0.0,0.0,0,0,74,74,64,,,,,241.98094149999088,242.63182539999252,242.63182539999252,243.1328993999632,45,315,243.1328993999632,243.1328993999632,243.1328993999632,243.1328993999632,243.1328993999632,243.1328993999632,243.1328993999632,243.1328993999632,243.1328993999632,243.49928579997504,243.49928579997504,243.49928579997504,243.49928579997504,243.49928579997504,243.49928579997504,243.49928579997504,243.49928579997504,243.49928579997504,23,0,,,243.49928579997504,243.70138519996544,1000,243.70138519996544,1000,1000,1000,1000,0,num_3,0.6904966000001878,,26,5,2026-03-05_10h39.58.363,2026A_exp2,2022.2.4,60.08752348862524,
1000,1,0.0,0.0,0,0,75,75,57,,,,,244.41673029999947,245.06750060000923,245.06750060000923,245.55192180001177,45,315,245.55192180001177,245.55192180001177,245.55192180001177,245.55192180001177,245.55192180001177,245.55192180001177,245.55192180001177,245.55192180001177,245.55192180001177,245.93498109997017,245.93498109997017,245.93498109997017,245.93498109997017,245.93498109997017,245.93498109997017,245.93498109997017,245.93498109997017,245.93498109997017,24,0,,,245.93498109997017,246.13702309998916,1000,246.13702309998916,1000,1000,1000,1000,1,num_2,0.6952347999904305,,26,5,2026-03-05_10h39.58.363,2026A_exp2,2022.2.4,60.08752348862524,
1000,1,0.0,0.0,0,0,76,76,89,,,,,246.85282249999,247.50340759998653,247.50340759998653,248.0043336999952,315,315,248.0043336999952,248.0043336999952,248.0043336999952,248.0043336999952,248.0043336999952,248.0043336999952,248.0043336999952,248.0043336999952,248.0043336999952,248.3707480999874,248.3707480999874,248.3707480999874,248.3707480999874,248.3707480999874,248.3707480999874,248.3707480999874,248.3707480999874,248.3707480999874,2,1,[0.001263700018171221],[0.35041960002854466],248.3707480999874,248.57294859999092,1000,248.57294859999092,1000,1000,1000,1000,1,num_2,0.6280441000126302,,26,5,2026-03-05_10h39.58.363,2026A_exp2,2022.2.4,60.08752348862524,
0,0,0.0,3.7,1,0,77,77,53,,,,,249.22166049998486,249.87230879999697,249.87230879999697,250.3736932000029,45,315,250.3736932000029,250.3736932000029,250.3736932000029,250.3736932000029,250.3736932000029,250.3736932000029,250.3736932000029,250.3736932000029,250.3736932000029,250.73975229996722,250.73975229996722,250.73975229996722,250.73975229996722,250.73975229996722,250.73975229996722,250.73975229996722,250.73975229996722,250.73975229996722,23,0,,,250.73975229996722,250.94009409996215,0.0,250.94009409996215,0,0.0,0,1,1000,num_1,0.7397244999883696,,26,5,2026-03-05_10h39.58.363,2026A_exp2,2022.2.4,60.08752348862524,
1,0,0.0,0.0,1,0,78,78,83,,,,,251.70740489999298,252.35800999996718,252.35800999996718,252.84243509999942,45,315,252.84243509999942,252.84243509999942,252.84243509999942,252.84243509999942,252.84243509999942,252.84243509999942,252.84243509999942,252.84243509999942,252.84243509999942,253.2088752000127,253.2088752000127,253.2088752000127,253.2088752000127,253.2088752000127,253.2088752000127,253.2088752000127,253.2088752000127,253.2088752000127,23,0,,,253.2088752000127,253.409242899972,0.0,253.409242899972,1,0.0,0,0,1000,num_4,0.9515107999905013,,26,5,2026-03-05_10h39.58.363,2026A_exp2,2022.2.4,60.08752348862524,
1000,1,0.0,0.0,1,0,79,79,55,,,,,254.3766525000101,255.027425999986,255.027425999986,255.51193689997308,45,45,255.51193689997308,255.51193689997308,255.51193689997308,255.51193689997308,255.51193689997308,255.51193689997308,255.51193689997308,255.51193689997308,255.51193689997308,255.87824019999243,255.87824019999243,255.87824019999243,255.87824019999243,255.87824019999243,255.87824019999243,255.87824019999243,255.87824019999243,255.87824019999243,23,0,,,255.87824019999243,256.1069012999651,1000,256.1069012999651,1000,1000,1000,1000,1,num_2,0.47683080000570044,,26,5,2026-03-05_10h39.58.363,2026A_exp2,2022.2.4,60.08752348862524,
1000,1,4.9,6.1,0,0,80,80,36,,,,,256.6125166999991,257.2629383999738,257.2629383999738,257.7641867999919,45,45,257.7641867999919,257.7641867999919,257.7641867999919,257.7641867999919,257.7641867999919,257.7641867999919,257.7641867999919,257.7641867999919,257.7641867999919,258.13056510000024,258.13056510000024,258.13056510000024,258.13056510000024,258.13056510000024,258.13056510000024,258.13056510000024,258.13056510000024,258.13056510000024,23,0,,,258.13056510000024,258.3322801999748,1000,258.3322801999748,1000,1000,1000,1000,1,num_2,0.5643833000212908,,26,5,2026-03-05_10h39.58.363,2026A_exp2,2022.2.4,60.08752348862524,
1000,1,0.0,0.0,1,0,81,81,73,,,,,258.91456379997544,259.5653309999616,259.5653309999616,260.0665503999917,315,315,260.0665503999917,260.0665503999917,260.0665503999917,260.0665503999917,260.0665503999917,260.0665503999917,260.0665503999917,260.0665503999917,260.0665503999917,260.4328951999778,260.4328951999778,260.4328951999778,260.4328951999778,260.4328951999778,260.4328951999778,260.4328951999778,260.4328951999778,260.4328951999778,23,0,,,260.4328951999778,260.63450310000917,1000,260.63450310000917,1000,1000,1000,1000,0,num_3,0.7423830000334419,,26,5,2026-03-05_10h39.58.363,2026A_exp2,2022.2.4,60.08752348862524,
1,0,0.0,6.1,1,0,82,82,46,,,,,261.4004521999741,262.05117379996227,262.05117379996227,262.55232389998855,315,45,262.55232389998855,262.55232389998855,262.55232389998855,262.55232389998855,262.55232389998855,262.55232389998855,262.55232389998855,262.55232389998855,262.55232389998855,262.90197909995914,262.90197909995914,262.90197909995914,262.90197909995914,262.90197909995914,262.90197909995914,262.90197909995914,262.90197909995914,262.90197909995914,22,0,,,262.90197909995914,263.1021824000054,6.1,263.1021824000054,1,6.1,1,1,1000,num_4,0.7221089000231586,,26,5,2026-03-05_10h39.58.363,2026A_exp2,2022.2.4,60.08752348862524,
0,0,6.1,3.7,0,0,83,83,49,,,,,263.8531842000084,264.50364189996617,264.50364189996617,264.98799890000373,315,315,264.98799890000373,264.98799890000373,264.98799890000373,264.98799890000373,264.98799890000373,264.98799890000373,264.98799890000373,264.98799890000373,264.98799890000373,265.3542985999957,265.3542985999957,265.3542985999957,265.3542985999957,265.3542985999957,265.3542985999957,265.3542985999957,265.3542985999957,265.3542985999957,23,0,,,265.3542985999957,265.55453809996834,3.7,265.55453809996834,0,3.7,1,0,1000,num_1,1.669433199975174,,26,5,2026-03-05_10h39.58.363,2026A_exp2,2022.2.4,60.08752348862524,
1000,1,4.9,3.7,0,0,84,84,28,,,,,267.2396560999914,267.89118269999744,267.89118269999744,268.39154649997363,315,45,268.39154649997363,268.39154649997363,268.39154649997363,268.39154649997363,268.39154649997363,268.39154649997363,268.39154649997363,268.39154649997363,268.39154649997363,268.7577963999938,268.7577963999938,268.7577963999938,268.7577963999938,268.7577963999938,268.7577963999938,268.7577963999938,268.7577963999938,268.7577963999938,23,0,,,268.7577963999938,268.9599847999634,1000,268.9599847999634,1000,1000,1000,1000,0,num_3,0.8014172000112012,,26,5,2026-03-05_10h39.58.363,2026A_exp2,2022.2.4,60.08752348862524,
1000,1,0.0,3.7,0,0,85,85,21,,,,,269.7924185000011,270.44309409998823,270.44309409998823,270.9403287000023,315,315,270.9403287000023,270.9403287000023,270.9403287000023,270.9403287000023,270.9403287000023,270.9403287000023,270.9403287000023,270.9403287000023,270.9403287000023,271.2938856999972,271.2938856999972,271.2938856999972,271.2938856999972,271.2938856999972,271.2938856999972,271.2938856999972,271.2938856999972,271.2938856999972,23,0,,,271.2938856999972,271.51393739995547,1000,271.51393739995547,1000,1000,1000,1000,1,num_2,0.47830890002660453,,26,5,2026-03-05_10h39.58.363,2026A_exp2,2022.2.4,60.08752348862524,
1000,1,0.0,0.0,0,0,86,86,62,,,,,272.0110897999839,272.6617514999816,272.6617514999816,273.16282819997286,315,45,273.16282819997286,273.16282819997286,273.16282819997286,273.16282819997286,273.16282819997286,273.16282819997286,273.16282819997286,273.16282819997286,273.16282819997286,273.52929859998403,273.52929859998403,273.52929859998403,273.52929859998403,273.52929859998403,273.52929859998403,273.52929859998403,273.52929859998403,273.52929859998403,23,0,,,273.52929859998403,273.7312681999756,1000,273.7312681999756,1000,1000,1000,1000,0,num_3,0.5725925000151619,,26,5,2026-03-05_10h39.58.363,2026A_exp2,2022.2.4,60.08752348862524,
1,0,6.1,6.1,1,0,87,87,47,,,,,274.33001749997493,274.9807538999594,274.9807538999594,275.48175759997685,315,45,275.48175759997685,275.48175759997685,275.48175759997685,275.48175759997685,275.48175759997685,275.48175759997685,275.48175759997685,275.48175759997685,275.48175759997685,275.8483571999823,275.8483571999823,275.8483571999823,275.8483571999823,275.8483571999823,275.8483571999823,275.8483571999823,275.8483571999823,275.8483571999823,23,0,,,275.8483571999823,276.04843049997,6.1,276.04843049997,1,6.1,1,1,1000,num_4,0.9443328999914229,,26,5,2026-03-05_10h39.58.363,2026A_exp2,2022.2.4,60.08752348862524,
1,0,0.0,0.0,0,0,88,88,87,,,,,277.0160205999855,277.66695240000263,277.66695240000263,278.15111259999685,315,315,278.15111259999685,278.15111259999685,278.15111259999685,278.15111259999685,278.15111259999685,278.15111259999685,278.15111259999685,278.15111259999685,278.15111259999685,278.5174745999975,278.5174745999975,278.5174745999975,278.5174745999975,278.5174745999975,278.5174745999975,278.5174745999975,278.5174745999975,278.5174745999975,23,0,,,278.5174745999975,278.7181210999843,0.0,278.7181210999843,0,0.0,0,1,1000,num_1,1.2505386000266299,,26,5,2026-03-05_10h39.58.363,2026A_exp2,2022.2.4,60.08752348862524,
0,0,4.9,0.0,0,0,89,89,40,,,,,279.98565250000684,280.63648809998995,280.63648809998995,281.12072279996937,45,315,281.12072279996937,281.12072279996937,281.12072279996937,281.12072279996937,281.12072279996937,281.12072279996937,281.12072279996937,281.12072279996937,281.12072279996937,281.4871723999968,281.4871723999968,281.4871723999968,281.4871723999968,281.4871723999968,281.4871723999968,281.4871723999968,281.4871723999968,281.4871723999968,23,0,,,281.4871723999968,281.687514499994,0.0,281.687514499994,0,0.0,0,1,1000,num_1,0.8646355000091717,,26,5,2026-03-05_10h39.58.363,2026A_exp2,2022.2.4,60.08752348862524,
,,,,,,,,,,,,,,,,,,,,,,,,,,,,,,,,,,,,,,,,,,,,,,,,,,,,282.57981490000384,,,,,,,
