validity,detectorcomp,contrastCW,contrastCCW,precueCWorCCW,block_80trials.thisRepN,block_80trials.thisTrialN,block_80trials.thisN,block_80trials.thisIndex,etRecord.started,etRecord.stopped,text.started,text.stopped,text_4.started,text_4.stopped,text_6.started,text_6.stopped,oriCW,oriCCW,roi_2.started,grating_UR.started,grating_UL.started,grating_LR.started,grating_LL.started,noise_UR.started,noise_UL.started,noise_LR.started,noise_LL.started,roi_2.stopped,grating_UR.stopped,grating_UL.stopped,grating_LR.stopped,grating_LL.stopped,noise_UR.stopped,noise_UL.stopped,noise_LR.stopped,noise_LL.stopped,outframe,roi_2.numLooks,roi_2.timesOn,roi_2.timesOff,text_2.started,text_2.stopped,probedcontrast,key_resp.started,respdetect,relevantContrast,correctDetect,TorFdetect,respCWorCCW,key_resp.keys,key_resp.rt,feedback_display_.started,participantNo,blockNo,date,expName,psychopyVersion,frameRate,
1000,1,0.0,0.0,1,0,0,0,23,4.42001037299633e-05,4.42001037299633e-05,50.13772339979187,52.14204559987411,52.14204559987411,52.774690199876204,52.774690199876204,53.29889799980447,315,315,53.29889799980447,53.29889799980447,53.29889799980447,53.29889799980447,53.29889799980447,53.29889799980447,53.29889799980447,53.29889799980447,53.29889799980447,53.64103039982729,53.64103039982729,53.64103039982729,53.64103039982729,53.64103039982729,53.64103039982729,53.64103039982729,53.64103039982729,53.64103039982729,0,1,[0.001017100177705288],[0.36562540009617805],53.64103039982729,53.841832499951124,1000,53.841832499951124,1000,1000,1000,1000,0,num_3,1.214992299908772,,35,1,2026-03-13_13h11.45.103,2026A_exp2,2022.2.4,59.830512116307276,
1000,1,0.0,0.0,0,0,1,1,72,,,,,55.075903199845925,55.726242299890146,55.726242299890146,56.22757039987482,45,45,56.22757039987482,56.22757039987482,56.22757039987482,56.22757039987482,56.22757039987482,56.22757039987482,56.22757039987482,56.22757039987482,56.22757039987482,56.57726519997232,56.57726519997232,56.57726519997232,56.57726519997232,56.57726519997232,56.57726519997232,56.57726519997232,56.57726519997232,56.57726519997232,21,1,[0.08379069995135069],[0.1003330999519676],56.57726519997232,56.777601899812,1000,56.777601899812,1000,1000,1000,1000,0,num_3,0.7991591000463814,,35,1,2026-03-13_13h11.45.103,2026A_exp2,2022.2.4,59.830512116307276,
1000,1,0.0,0.0,0,0,2,2,6,,,,,57.59490899997763,58.245953699806705,58.245953699806705,58.73094839998521,315,45,58.73094839998521,58.73094839998521,58.73094839998521,58.73094839998521,58.73094839998521,58.73094839998521,58.73094839998521,58.73094839998521,58.73094839998521,59.09667079988867,59.09667079988867,59.09667079988867,59.09667079988867,59.09667079988867,59.09667079988867,59.09667079988867,59.09667079988867,59.09667079988867,23,0,,,59.09667079988867,59.29680119990371,1000,59.29680119990371,1000,1000,1000,1000,1,num_2,0.512576200067997,,35,1,2026-03-13_13h11.45.103,2026A_exp2,2022.2.4,59.830512116307276,
1,0,4.9,4.9,0,0,3,3,39,,,,,59.83084069984034,60.48153499979526,60.48153499979526,60.9827094997745,45,315,60.9827094997745,60.9827094997745,60.9827094997745,60.9827094997745,60.9827094997745,60.9827094997745,60.9827094997745,60.9827094997745,60.9827094997745,61.33198119979352,61.33198119979352,61.33198119979352,61.33198119979352,61.33198119979352,61.33198119979352,61.33198119979352,61.33198119979352,61.33198119979352,22,0,,,61.33198119979352,61.532285699853674,4.9,61.532285699853674,0,4.9,1,0,1000,num_1,3.0368937999010086,,35,1,2026-03-13_13h11.45.103,2026A_exp2,2022.2.4,59.830512116307276,
1,0,3.7,6.1,1,0,4,4,77,,,,,64.58534049987793,65.23609199980274,65.23609199980274,65.72030299995095,315,315,65.72030299995095,65.72030299995095,65.72030299995095,65.72030299995095,65.72030299995095,65.72030299995095,65.72030299995095,65.72030299995095,65.72030299995095,66.0866181999445,66.0866181999445,66.0866181999445,66.0866181999445,66.0866181999445,66.0866181999445,66.0866181999445,66.0866181999445,66.0866181999445,20,1,[0.033608000027015805],[0.08356159995310009],66.0866181999445,66.28697989997454,6.1,66.28697989997454,1,6.1,1,1,1000,num_4,1.6020444999448955,,35,1,2026-03-13_13h11.45.103,2026A_exp2,2022.2.4,59.830512116307276,
1000,1,3.7,4.9,0,0,5,5,64,,,,,67.90544949984178,68.55596249992959,68.55596249992959,69.04020999977365,315,45,69.04020999977365,69.04020999977365,69.04020999977365,69.04020999977365,69.04020999977365,69.04020999977365,69.04020999977365,69.04020999977365,69.04020999977365,69.40685909986496,69.40685909986496,69.40685909986496,69.40685909986496,69.40685909986496,69.40685909986496,69.40685909986496,69.40685909986496,69.40685909986496,23,0,,,69.40685909986496,69.6070220998954,1000,69.6070220998954,1000,1000,1000,1000,0,num_3,2.089625399792567,,35,1,2026-03-13_13h11.45.103,2026A_exp2,2022.2.4,59.830512116307276,
0,0,3.7,6.1,0,0,6,6,73,,,,,71.72581579978578,72.37652989989147,72.37652989989147,72.8607433999423,315,315,72.8607433999423,72.8607433999423,72.8607433999423,72.8607433999423,72.8607433999423,72.8607433999423,72.8607433999423,72.8607433999423,72.8607433999423,73.22704849997535,73.22704849997535,73.22704849997535,73.22704849997535,73.22704849997535,73.22704849997535,73.22704849997535,73.22704849997535,73.22704849997535,23,0,,,73.22704849997535,73.42746409983374,6.1,73.42746409983374,1,6.1,1,1,1000,num_4,1.6374446998815984,,35,1,2026-03-13_13h11.45.103,2026A_exp2,2022.2.4,59.830512116307276,
1000,1,6.1,4.9,0,0,7,7,49,,,,,75.0958701998461,75.74651519977488,75.74651519977488,76.23084149998613,45,45,76.23084149998613,76.23084149998613,76.23084149998613,76.23084149998613,76.23084149998613,76.23084149998613,76.23084149998613,76.23084149998613,76.23084149998613,76.59725899994373,76.59725899994373,76.59725899994373,76.59725899994373,76.59725899994373,76.59725899994373,76.59725899994373,76.59725899994373,76.59725899994373,23,0,,,76.59725899994373,76.7977325997781,1000,76.7977325997781,1000,1000,1000,1000,1,num_2,1.4192469997797161,,35,1,2026-03-13_13h11.45.103,2026A_exp2,2022.2.4,59.830512116307276,
0,0,0.0,3.7,0,0,8,8,83,,,,,78.23261719988659,78.88320159981959,78.88320159981959,79.38408029987477,315,45,79.38408029987477,79.38408029987477,79.38408029987477,79.38408029987477,79.38408029987477,79.38408029987477,79.38408029987477,79.38408029987477,79.38408029987477,79.75043449993245,79.75043449993245,79.75043449993245,79.75043449993245,79.75043449993245,79.75043449993245,79.75043449993245,79.75043449993245,79.75043449993245,23,0,,,79.75043449993245,79.95066089998,3.7,79.95066089998,1,3.7,1,1,1000,num_4,1.6184553999919444,,35,1,2026-03-13_13h11.45.103,2026A_exp2,2022.2.4,59.830512116307276,
1,0,4.9,4.9,0,0,9,9,84,,,,,81.58579349983484,82.23639449989423,82.23639449989423,82.72068259981461,45,45,82.72068259981461,82.72068259981461,82.72068259981461,82.72068259981461,82.72068259981461,82.72068259981461,82.72068259981461,82.72068259981461,82.72068259981461,83.08723269985057,83.08723269985057,83.08723269985057,83.08723269985057,83.08723269985057,83.08723269985057,83.08723269985057,83.08723269985057,83.08723269985057,23,0,,,83.08723269985057,83.28740079980344,4.9,83.28740079980344,0,4.9,1,0,1000,num_1,3.2657186998985708,,35,1,2026-03-13_13h11.45.103,2026A_exp2,2022.2.4,59.830512116307276,
1,0,0.0,6.1,0,0,10,10,43,,,,,86.57400749996305,87.2244157998357,87.2244157998357,87.70904119987972,45,45,87.70904119987972,87.70904119987972,87.70904119987972,87.70904119987972,87.70904119987972,87.70904119987972,87.70904119987972,87.70904119987972,87.70904119987972,88.07524339994416,88.07524339994416,88.07524339994416,88.07524339994416,88.07524339994416,88.07524339994416,88.07524339994416,88.07524339994416,88.07524339994416,12,8,"[0.0007667001336812973, 0.04965730011463165, 0.08304639998823404, 0.11634880001656711, 0.1999252000823617, 0.2664538000244647, 0.3165742999408394, 0.34992210008203983]","[0.033052700106054544, 0.0665331999771297, 0.09991739992983639, 0.13352199993096292, 0.2336456999182701, 0.2999009999912232, 0.33329709991812706, 0.3665761000011116]",88.07524339994416,88.2755343997851,0.0,88.2755343997851,0,0.0,0,1,1000,num_1,1.1014256998896599,,35,1,2026-03-13_13h11.45.103,2026A_exp2,2022.2.4,59.830512116307276,
1,0,3.7,0.0,1,0,11,11,11,,,,,89.39343849988654,90.02777139982209,90.02777139982209,90.5286049998831,45,45,90.5286049998831,90.5286049998831,90.5286049998831,90.5286049998831,90.5286049998831,90.5286049998831,90.5286049998831,90.5286049998831,90.5286049998831,90.89483409980312,90.89483409980312,90.89483409980312,90.89483409980312,90.89483409980312,90.89483409980312,90.89483409980312,90.89483409980312,90.89483409980312,16,3,"[0.017254799837246537, 0.08344439999200404, 0.15043959999457002]","[0.06691809999756515, 0.1338002998381853, 0.16778849996626377]",90.89483409980312,91.09513949998654,0.0,91.09513949998654,0,0.0,0,1,1000,num_1,0.9136064001359046,,35,1,2026-03-13_13h11.45.103,2026A_exp2,2022.2.4,59.830512116307276,
1,0,4.9,3.7,1,0,12,12,26,,,,,92.02944159996696,92.66334849991836,92.66334849991836,93.16506569995545,315,45,93.16506569995545,93.16506569995545,93.16506569995545,93.16506569995545,93.16506569995545,93.16506569995545,93.16506569995545,93.16506569995545,93.16506569995545,93.5312664997764,93.5312664997764,93.5312664997764,93.5312664997764,93.5312664997764,93.5312664997764,93.5312664997764,93.5312664997764,93.5312664997764,10,2,"[0.05045880004763603, 0.3339998999144882]","[0.2670912998728454, 0.35101319989189506]",93.5312664997764,93.73103899997659,3.7,93.73103899997659,1,3.7,1,1,1000,num_4,0.7743251998908818,,35,1,2026-03-13_13h11.45.103,2026A_exp2,2022.2.4,59.830512116307276,
1000,1,0.0,0.0,1,0,13,13,40,,,,,94.53204639977776,95.18238719995134,95.18238719995134,95.66693449998274,45,45,95.66693449998274,95.66693449998274,95.66693449998274,95.66693449998274,95.66693449998274,95.66693449998274,95.66693449998274,95.66693449998274,95.66693449998274,96.0333349998109,96.0333349998109,96.0333349998109,96.0333349998109,96.0333349998109,96.0333349998109,96.0333349998109,96.0333349998109,96.0333349998109,17,3,"[0.0007132000755518675, 0.23400739999487996, 0.3010321999900043]","[0.06713810004293919, 0.2507199998944998, 0.3340236998628825]",96.0333349998109,96.23369409982115,1000,96.23369409982115,1000,1000,1000,1000,0,num_3,3.271476599853486,,35,1,2026-03-13_13h11.45.103,2026A_exp2,2022.2.4,59.830512116307276,
0,0,4.9,4.9,1,0,14,14,48,,,,,99.53701759991236,100.18746229982935,100.18746229982935,100.67192649981007,45,315,100.67192649981007,100.67192649981007,100.67192649981007,100.67192649981007,100.67192649981007,100.67192649981007,100.67192649981007,100.67192649981007,100.67192649981007,101.03866049996577,101.03866049996577,101.03866049996577,101.03866049996577,101.03866049996577,101.03866049996577,101.03866049996577,101.03866049996577,101.03866049996577,3,3,"[0.0007233999203890562, 0.03390199993737042, 0.15033359988592565]","[0.017649699933826923, 0.13377660000696778, 0.3673582000192255]",101.03866049996577,101.23896399978548,4.9,101.23896399978548,0,4.9,1,0,1000,num_1,3.3301344998180866,,35,1,2026-03-13_13h11.45.103,2026A_exp2,2022.2.4,59.830512116307276,
1,0,4.9,3.7,0,0,15,15,63,,,,,104.59195369994268,105.22689159982838,105.22689159982838,105.72712059994228,45,45,105.72712059994228,105.72712059994228,105.72712059994228,105.72712059994228,105.72712059994228,105.72712059994228,105.72712059994228,105.72712059994228,105.72712059994228,106.09372619981878,106.09372619981878,106.09372619981878,106.09372619981878,106.09372619981878,106.09372619981878,106.09372619981878,106.09372619981878,106.09372619981878,4,3,"[0.0008060000836849213, 0.11753090005367994, 0.18350060004740953]","[0.1003009001724422, 0.13344940007664263, 0.3688744001556188]",106.09372619981878,106.29383109998889,4.9,106.29383109998889,0,4.9,1,0,1000,num_1,1.779739199904725,,35,1,2026-03-13_13h11.45.103,2026A_exp2,2022.2.4,59.830512116307276,
1,0,6.1,3.7,0,0,16,16,31,,,,,108.09725859994069,108.74723549978808,108.74723549978808,109.24746319977567,315,315,109.24746319977567,109.24746319977567,109.24746319977567,109.24746319977567,109.24746319977567,109.24746319977567,109.24746319977567,109.24746319977567,109.24746319977567,109.61403779988177,109.61403779988177,109.61403779988177,109.61403779988177,109.61403779988177,109.61403779988177,109.61403779988177,109.61403779988177,109.61403779988177,2,1,[0.0007949999999254942],[0.3497775001451373],109.61403779988177,109.8152354999911,6.1,109.8152354999911,1,6.1,1,1,1000,num_4,0.5617069001309574,,35,1,2026-03-13_13h11.45.103,2026A_exp2,2022.2.4,59.830512116307276,
0,0,0.0,0.0,1,0,17,17,38,,,,,110.39811899978667,111.03209119988605,111.03209119988605,111.55038739996962,315,315,111.55038739996962,111.55038739996962,111.55038739996962,111.55038739996962,111.55038739996962,111.55038739996962,111.55038739996962,111.55038739996962,111.55038739996962,111.90012609981932,111.90012609981932,111.90012609981932,111.90012609981932,111.90012609981932,111.90012609981932,111.90012609981932,111.90012609981932,111.90012609981932,10,5,"[0.0010269000194966793, 0.0672615000512451, 0.1509150001220405, 0.25047920015640557, 0.33431589999236166]","[0.049787700176239014, 0.13388570002280176, 0.21727260015904903, 0.2670438000932336, 0.3506603001151234]",111.90012609981932,112.09994499990717,0.0,112.09994499990717,1,0.0,0,0,1000,num_4,1.372610499849543,,35,1,2026-03-13_13h11.45.103,2026A_exp2,2022.2.4,59.830512116307276,
1,0,0.0,0.0,0,0,18,18,17,,,,,113.50088999979198,114.13507519988343,114.13507519988343,114.6360480999574,45,315,114.6360480999574,114.6360480999574,114.6360480999574,114.6360480999574,114.6360480999574,114.6360480999574,114.6360480999574,114.6360480999574,114.6360480999574,115.0025041999761,115.0025041999761,115.0025041999761,115.0025041999761,115.0025041999761,115.0025041999761,115.0025041999761,115.0025041999761,115.0025041999761,17,6,"[0.0008743999060243368, 0.10077559994533658, 0.1669483999721706, 0.23369439993984997, 0.3004727999214083, 0.36724060005508363]","[0.01753009995445609, 0.1170443999581039, 0.2003639000467956, 0.2504159000236541, 0.3174749000463635, 0.36724379984661937]",115.0025041999761,115.2025960998144,0.0,115.2025960998144,1,0.0,0,0,1000,num_4,1.9586622999049723,,35,1,2026-03-13_13h11.45.103,2026A_exp2,2022.2.4,59.830512116307276,
1000,1,6.1,3.7,0,0,19,19,18,,,,,117.18841849989258,117.83848689985462,117.83848689985462,118.32424279977567,315,45,118.32424279977567,118.32424279977567,118.32424279977567,118.32424279977567,118.32424279977567,118.32424279977567,118.32424279977567,118.32424279977567,118.32424279977567,118.68933119997382,118.68933119997382,118.68933119997382,118.68933119997382,118.68933119997382,118.68933119997382,118.68933119997382,118.68933119997382,118.68933119997382,4,3,"[0.0007233000360429287, 0.13359420001506805, 0.2673136000521481]","[0.10027060005813837, 0.2503915000706911, 0.3672484001144767]",118.68933119997382,118.88997199991718,1000,118.88997199991718,1000,1000,1000,1000,0,num_3,1.7108730000909418,,35,1,2026-03-13_13h11.45.103,2026A_exp2,2022.2.4,59.830512116307276,
1000,1,0.0,6.1,0,0,20,20,75,,,,,120.62467950000428,121.27586099994369,121.27586099994369,121.75978159997612,45,45,121.75978159997612,121.75978159997612,121.75978159997612,121.75978159997612,121.75978159997612,121.75978159997612,121.75978159997612,121.75978159997612,121.75978159997612,122.12621679995209,122.12621679995209,122.12621679995209,122.12621679995209,122.12621679995209,122.12621679995209,122.12621679995209,122.12621679995209,122.12621679995209,19,2,"[0.0008449000306427479, 0.06683840020559728]","[0.05020340019837022, 0.08357040002010763]",122.12621679995209,122.32655589981005,1000,122.32655589981005,1000,1000,1000,1000,1,num_2,0.6587897001300007,,35,1,2026-03-13_13h11.45.103,2026A_exp2,2022.2.4,59.830512116307276,
1000,1,3.7,4.9,1,0,21,21,20,,,,,123.01064160000533,123.66108149988577,123.66108149988577,124.16236439999193,315,45,124.16236439999193,124.16236439999193,124.16236439999193,124.16236439999193,124.16236439999193,124.16236439999193,124.16236439999193,124.16236439999193,124.16236439999193,124.51178839989007,124.51178839989007,124.51178839989007,124.51178839989007,124.51178839989007,124.51178839989007,124.51178839989007,124.51178839989007,124.51178839989007,22,0,,,124.51178839989007,124.7124147999566,1000,124.7124147999566,1000,1000,1000,1000,1,num_2,0.576407500077039,,35,1,2026-03-13_13h11.45.103,2026A_exp2,2022.2.4,59.830512116307276,
1,0,0.0,0.0,0,0,22,22,34,,,,,125.31290559982881,125.96326669980772,125.96326669980772,126.46475019981153,315,45,126.46475019981153,126.46475019981153,126.46475019981153,126.46475019981153,126.46475019981153,126.46475019981153,126.46475019981153,126.46475019981153,126.46475019981153,126.81449509994127,126.81449509994127,126.81449509994127,126.81449509994127,126.81449509994127,126.81449509994127,126.81449509994127,126.81449509994127,126.81449509994127,19,2,"[0.06683570006862283, 0.3511695000343025]","[0.10076029994525015, 0.35117439995519817]",126.81449509994127,127.01461339998059,0.0,127.03138699987903,0,0.0,0,1,1000,num_1,0.7212964000646025,,35,1,2026-03-13_13h11.45.103,2026A_exp2,2022.2.4,59.830512116307276,
1,0,6.1,6.1,0,0,23,23,27,,,,,127.78215559991077,128.43273639981635,128.43273639981635,128.91741859982722,315,45,128.91741859982722,128.91741859982722,128.91741859982722,128.91741859982722,128.91741859982722,128.91741859982722,128.91741859982722,128.91741859982722,128.91741859982722,129.28354089986533,129.28354089986533,129.28354089986533,129.28354089986533,129.28354089986533,129.28354089986533,129.28354089986533,129.28354089986533,129.28354089986533,7,3,"[0.0011903999838978052, 0.2505240000318736, 0.3669787000399083]","[0.23342039994895458, 0.2668220999184996, 0.36698310007341206]",129.28354089986533,129.48387239989825,6.1,129.48387239989825,1,6.1,1,1,1000,num_4,1.2455883999355137,,35,1,2026-03-13_13h11.45.103,2026A_exp2,2022.2.4,59.830512116307276,
1000,1,4.9,0.0,0,0,24,24,50,,,,,130.75157839991152,131.40220349980518,131.40220349980518,131.8869010999333,45,315,131.8869010999333,131.8869010999333,131.8869010999333,131.8869010999333,131.8869010999333,131.8869010999333,131.8869010999333,131.8869010999333,131.8869010999333,132.25330329989083,132.25330329989083,132.25330329989083,132.25330329989083,132.25330329989083,132.25330329989083,132.25330329989083,132.25330329989083,132.25330329989083,2,2,"[0.0012608000542968512, 0.25040240003727376]","[0.2334901001304388, 0.36713250004686415]",132.25330329989083,132.45553749985993,1000,132.45553749985993,1000,1000,1000,1000,0,num_3,1.2253976999782026,,35,1,2026-03-13_13h11.45.103,2026A_exp2,2022.2.4,59.830512116307276,
1000,1,3.7,4.9,0,0,25,25,80,,,,,133.70463870000094,134.35537859983742,134.35537859983742,134.85648889979348,45,45,134.85648889979348,134.85648889979348,134.85648889979348,134.85648889979348,134.85648889979348,134.85648889979348,134.85648889979348,134.85648889979348,134.85648889979348,135.2229627999477,135.2229627999477,135.2229627999477,135.2229627999477,135.2229627999477,135.2229627999477,135.2229627999477,135.2229627999477,135.2229627999477,15,6,"[0.05032730009406805, 0.11707350006327033, 0.18380570015870035, 0.21723210019990802, 0.2672305000014603, 0.3339100000448525]","[0.0836368000600487, 0.13374090008437634, 0.20039260014891624, 0.25052510015666485, 0.2838547001592815, 0.3506004000082612]",135.2229627999477,135.4285590997897,1000,135.4285590997897,1000,1000,1000,1000,1,num_2,0.66816829983145,,35,1,2026-03-13_13h11.45.103,2026A_exp2,2022.2.4,59.830512116307276,
1000,1,0.0,6.1,1,0,26,26,19,,,,,136.1237818999216,136.77453609998338,136.77453609998338,137.27551119984128,315,45,137.27551119984128,137.27551119984128,137.27551119984128,137.27551119984128,137.27551119984128,137.27551119984128,137.27551119984128,137.27551119984128,137.27551119984128,137.64201139984652,137.64201139984652,137.64201139984652,137.64201139984652,137.64201139984652,137.64201139984652,137.64201139984652,137.64201139984652,137.64201139984652,15,6,"[0.03303699987009168, 0.1665690999943763, 0.20000669988803566, 0.233336899895221, 0.28333349991589785, 0.31663229991681874]","[0.049662399804219604, 0.18323899991810322, 0.21649019978940487, 0.24994509993121028, 0.2999446999747306, 0.36669549997895956]",137.64201139984652,137.84435109980404,1000,137.84435109980404,1000,1000,1000,1000,1,num_2,0.8685496998950839,,35,1,2026-03-13_13h11.45.103,2026A_exp2,2022.2.4,59.830512116307276,
1,0,0.0,3.7,0,0,27,27,61,,,,,138.7429863999132,139.39371069986373,139.39371069986373,139.8948411999736,45,315,139.8948411999736,139.8948411999736,139.8948411999736,139.8948411999736,139.8948411999736,139.8948411999736,139.8948411999736,139.8948411999736,139.8948411999736,140.26115559996106,140.26115559996106,140.26115559996106,140.26115559996106,140.26115559996106,140.26115559996106,140.26115559996106,140.26115559996106,140.26115559996106,14,5,"[0.001227600034326315, 0.05025349999777973, 0.15049610007554293, 0.23326219990849495, 0.3169517999049276]","[0.03355649998411536, 0.11686570011079311, 0.16752499993890524, 0.24973769998177886, 0.33362619997933507]",140.26115559996106,140.46156969992444,0.0,140.46156969992444,0,0.0,0,1,1000,num_1,1.4832645000424236,,35,1,2026-03-13_13h11.45.103,2026A_exp2,2022.2.4,59.830512116307276,
0,0,0.0,4.9,0,0,28,28,14,,,,,141.9627574000042,142.6136490998324,142.6136490998324,143.0979060998652,45,315,143.0979060998652,143.0979060998652,143.0979060998652,143.0979060998652,143.0979060998652,143.0979060998652,143.0979060998652,143.0979060998652,143.0979060998652,143.4644017999526,143.4644017999526,143.4644017999526,143.4644017999526,143.4644017999526,143.4644017999526,143.4644017999526,143.4644017999526,143.4644017999526,18,2,"[0.033243099926039577, 0.1834299999754876]","[0.09995720000006258, 0.2002258999273181]",143.4644017999526,143.66462989989668,4.9,143.66462989989668,1,4.9,1,1,1000,num_4,2.248367599910125,,35,1,2026-03-13_13h11.45.103,2026A_exp2,2022.2.4,59.830512116307276,
1000,1,0.0,0.0,0,0,29,29,67,,,,,145.93344219983555,146.58416649978608,146.58416649978608,147.06868459982798,315,315,147.06868459982798,147.06868459982798,147.06868459982798,147.06868459982798,147.06868459982798,147.06868459982798,147.06868459982798,147.06868459982798,147.06868459982798,147.43513399991207,147.43513399991207,147.43513399991207,147.43513399991207,147.43513399991207,147.43513399991207,147.43513399991207,147.43513399991207,147.43513399991207,18,4,"[0.10016799997538328, 0.21710300003178418, 0.3005906001199037, 0.33385890000499785]","[0.11684700008481741, 0.2335962001234293, 0.3171089000534266, 0.3671157001517713]",147.43513399991207,147.63717969995923,1000,147.63717969995923,1000,1000,1000,1000,1,num_2,1.1645182999782264,,35,1,2026-03-13_13h11.45.103,2026A_exp2,2022.2.4,59.830512116307276,
1000,1,0.0,4.9,0,0,30,30,74,,,,,148.81985649978742,149.47050269995816,149.47050269995816,149.97159289987758,315,45,149.97159289987758,149.97159289987758,149.97159289987758,149.97159289987758,149.97159289987758,149.97159289987758,149.97159289987758,149.97159289987758,149.97159289987758,150.32136259996332,150.32136259996332,150.32136259996332,150.32136259996332,150.32136259996332,150.32136259996332,150.32136259996332,150.32136259996332,150.32136259996332,17,4,"[0.08335829991847277, 0.16612119995988905, 0.1996853998862207, 0.3333944999612868]","[0.10003069997765124, 0.1833261998835951, 0.2331443999428302, 0.3503475000616163]",150.32136259996332,150.52341929986142,1000,150.52341929986142,1000,1000,1000,1000,1,num_2,0.5893238999415189,,35,1,2026-03-13_13h11.45.103,2026A_exp2,2022.2.4,59.830512116307276,
1,0,3.7,3.7,1,0,31,31,86,,,,,151.13872429984622,151.7894655999262,151.7894655999262,152.2904545997735,45,315,152.2904545997735,152.2904545997735,152.2904545997735,152.2904545997735,152.2904545997735,152.2904545997735,152.2904545997735,152.2904545997735,152.2904545997735,152.65702179982327,152.65702179982327,152.65702179982327,152.65702179982327,152.65702179982327,152.65702179982327,152.65702179982327,152.65702179982327,152.65702179982327,4,4,"[0.0011996000539511442, 0.11704839998856187, 0.16715730004943907, 0.3673388999886811]","[0.10043230000883341, 0.1504863000009209, 0.3339203998912126, 0.36734419991262257]",152.65702179982327,152.8573620999232,3.7,152.8573620999232,1,3.7,1,1,1000,num_4,3.671709999907762,,35,1,2026-03-13_13h11.45.103,2026A_exp2,2022.2.4,59.830512116307276,
1,0,3.7,0.0,1,0,32,32,12,,,,,156.5608844999224,157.21155979996547,157.21155979996547,157.69594149990007,315,315,157.69594149990007,157.69594149990007,157.69594149990007,157.69594149990007,157.69594149990007,157.69594149990007,157.69594149990007,157.69594149990007,157.69594149990007,158.06223109993152,158.06223109993152,158.06223109993152,158.06223109993152,158.06223109993152,158.06223109993152,158.06223109993152,158.06223109993152,158.06223109993152,19,4,"[0.21694930014200509, 0.2836263000499457, 0.33388049993664026, 0.3671039000619203]","[0.23359180008992553, 0.30030230013653636, 0.3507388001307845, 0.3671083999797702]",158.06223109993152,158.26246969983913,0.0,158.26246969983913,0,0.0,0,1,1000,num_1,1.2264785999432206,,35,1,2026-03-13_13h11.45.103,2026A_exp2,2022.2.4,59.830512116307276,
1,0,4.9,0.0,0,0,33,33,4,,,,,159.51368619990535,160.16460989997722,160.16460989997722,160.64896039990708,45,315,160.64896039990708,160.64896039990708,160.64896039990708,160.64896039990708,160.64896039990708,160.64896039990708,160.64896039990708,160.64896039990708,160.64896039990708,161.01534209982492,161.01534209982492,161.01534209982492,161.01534209982492,161.01534209982492,161.01534209982492,161.01534209982492,161.01534209982492,161.01534209982492,13,2,"[0.11690010013990104, 0.23340669996105134]","[0.18356429995037615, 0.35035470011644065]",161.01534209982492,161.215500399936,4.9,161.215500399936,0,4.9,1,0,1000,num_1,2.529239200055599,,35,1,2026-03-13_13h11.45.103,2026A_exp2,2022.2.4,59.830512116307276,
1,0,0.0,0.0,0,0,34,34,51,,,,,163.76791189983487,164.41878689988516,164.41878689988516,164.9031573999673,315,315,164.9031573999673,164.9031573999673,164.9031573999673,164.9031573999673,164.9031573999673,164.9031573999673,164.9031573999673,164.9031573999673,164.9031573999673,165.26954929996282,165.26954929996282,165.26954929996282,165.26954929996282,165.26954929996282,165.26954929996282,165.26954929996282,165.26954929996282,165.26954929996282,23,0,,,165.26954929996282,165.46979569992982,0.0,165.46979569992982,1,0.0,0,0,1000,num_4,0.7400712000671774,,35,1,2026-03-13_13h11.45.103,2026A_exp2,2022.2.4,59.830512116307276,
1000,1,0.0,4.9,0,0,35,35,5,,,,,166.23713179980405,166.88775519980118,166.88775519980118,167.3723834999837,45,45,167.3723834999837,167.3723834999837,167.3723834999837,167.3723834999837,167.3723834999837,167.3723834999837,167.3723834999837,167.3723834999837,167.3723834999837,167.73878559982404,167.73878559982404,167.73878559982404,167.73878559982404,167.73878559982404,167.73878559982404,167.73878559982404,167.73878559982404,167.73878559982404,12,6,"[0.01810360001400113, 0.06753899995237589, 0.15088610001839697, 0.18461230001412332, 0.3011326000560075, 0.3510964000597596]","[0.05083409999497235, 0.11738159996457398, 0.16766759986057878, 0.23444200004450977, 0.3177904998883605, 0.36792370001785457]",167.73878559982404,167.94084389996715,1000,167.94084389996715,1000,1000,1000,1000,1,num_2,0.900627699913457,,35,1,2026-03-13_13h11.45.103,2026A_exp2,2022.2.4,59.830512116307276,
1,0,0.0,0.0,1,0,36,36,21,,,,,168.85663539986126,169.50707449996844,169.50707449996844,170.00832489994355,45,315,170.00832489994355,170.00832489994355,170.00832489994355,170.00832489994355,170.00832489994355,170.00832489994355,170.00832489994355,170.00832489994355,170.00832489994355,170.37482029991224,170.37482029991224,170.37482029991224,170.37482029991224,170.37482029991224,170.37482029991224,170.37482029991224,170.37482029991224,170.37482029991224,18,4,"[0.06686910009011626, 0.1835938999429345, 0.2831927998922765, 0.34976019989699125]","[0.08348369994200766, 0.20023489999584854, 0.31595940003171563, 0.3666815001051873]",170.37482029991224,170.57479699980468,0.0,170.57479699980468,0,0.0,0,1,1000,num_1,1.282563199987635,,35,1,2026-03-13_13h11.45.103,2026A_exp2,2022.2.4,59.830512116307276,
1000,1,0.0,0.0,0,0,37,37,15,,,,,171.87620399985462,172.52676009992138,172.52676009992138,173.0278745999094,45,315,173.0278745999094,173.0278745999094,173.0278745999094,173.0278745999094,173.0278745999094,173.0278745999094,173.0278745999094,173.0278745999094,173.0278745999094,173.3778445997741,173.3778445997741,173.3778445997741,173.3778445997741,173.3778445997741,173.3778445997741,173.3778445997741,173.3778445997741,173.3778445997741,17,2,"[0.01753579988144338, 0.11720209987834096]","[0.06678949994966388, 0.15054699988104403]",173.3778445997741,173.5780045997817,1000,173.5780045997817,1000,1000,1000,1000,0,num_3,1.9588025000412017,,35,1,2026-03-13_13h11.45.103,2026A_exp2,2022.2.4,59.830512116307276,
1000,1,0.0,6.1,0,0,38,38,35,,,,,175.5633894999046,176.21389819984324,176.21389819984324,176.71490369993262,45,45,176.71490369993262,176.71490369993262,176.71490369993262,176.71490369993262,176.71490369993262,176.71490369993262,176.71490369993262,176.71490369993262,176.71490369993262,177.0814503999427,177.0814503999427,177.0814503999427,177.0814503999427,177.0814503999427,177.0814503999427,177.0814503999427,177.0814503999427,177.0814503999427,18,3,"[0.11684079980477691, 0.16688309982419014, 0.3170433999039233]","[0.13353160000406206, 0.2169381999410689, 0.33375099999830127]",177.0814503999427,177.28352949977852,1000,177.28352949977852,1000,1000,1000,1000,1,num_2,0.9978169000241905,,35,1,2026-03-13_13h11.45.103,2026A_exp2,2022.2.4,59.830512116307276,
1,0,4.9,0.0,1,0,39,39,25,,,,,178.2991056998726,178.9498600999359,178.9498600999359,179.4510323998984,45,45,179.4510323998984,179.4510323998984,179.4510323998984,179.4510323998984,179.4510323998984,179.4510323998984,179.4510323998984,179.4510323998984,179.4510323998984,179.8175018997863,179.8175018997863,179.8175018997863,179.8175018997863,179.8175018997863,179.8175018997863,179.8175018997863,179.8175018997863,179.8175018997863,21,1,[0.06690460001118481],[0.10016059991903603],179.8175018997863,180.0176587998867,0.0,180.0176587998867,0,0.0,0,1,1000,num_1,0.7829162999987602,,35,1,2026-03-13_13h11.45.103,2026A_exp2,2022.2.4,59.830512116307276,
1,0,0.0,6.1,0,0,40,40,82,,,,,180.8183202999644,181.46897699986584,181.46897699986584,181.95362619985826,315,315,181.95362619985826,181.95362619985826,181.95362619985826,181.95362619985826,181.95362619985826,181.95362619985826,181.95362619985826,181.95362619985826,181.95362619985826,182.31998719996773,182.31998719996773,182.31998719996773,182.31998719996773,182.31998719996773,182.31998719996773,182.31998719996773,182.31998719996773,182.31998719996773,4,3,"[0.001228200038895011, 0.03341070003807545, 0.3004370001144707]","[0.01740440004505217, 0.26711180014535785, 0.3671057999599725]",182.31998719996773,182.52013619989157,0.0,182.52013619989157,1,0.0,0,0,1000,num_4,2.137447400018573,,35,1,2026-03-13_13h11.45.103,2026A_exp2,2022.2.4,59.830512116307276,
1,0,4.9,3.7,0,0,41,41,9,,,,,184.6888310997747,185.33963459986262,185.33963459986262,185.82412449992262,315,315,185.82412449992262,185.82412449992262,185.82412449992262,185.82412449992262,185.82412449992262,185.82412449992262,185.82412449992262,185.82412449992262,185.82412449992262,186.19053909997456,186.19053909997456,186.19053909997456,186.19053909997456,186.19053909997456,186.19053909997456,186.19053909997456,186.19053909997456,186.19053909997456,21,2,"[0.13382009998895228, 0.26695819990709424]","[0.1504503998439759, 0.28369039995595813]",186.19053909997456,186.39078399981372,4.9,186.39078399981372,1,4.9,1,1,1000,num_4,2.2663558998610824,,35,1,2026-03-13_13h11.45.103,2026A_exp2,2022.2.4,59.830512116307276,
1,0,0.0,0.0,0,0,42,42,44,,,,,188.67622189992107,189.32696829992346,189.32696829992346,189.82811809983104,45,45,189.82811809983104,189.82811809983104,189.82811809983104,189.82811809983104,189.82811809983104,189.82811809983104,189.82811809983104,189.82811809983104,189.82811809983104,190.17765059997328,190.17765059997328,190.17765059997328,190.17765059997328,190.17765059997328,190.17765059997328,190.17765059997328,190.17765059997328,190.17765059997328,11,5,"[0.06674510007724166, 0.11682059988379478, 0.16687759989872575, 0.30025659990496933, 0.333808199968189]","[0.10014269989915192, 0.15013800002634525, 0.25027840002439916, 0.31694189994595945, 0.3501855998765677]",190.17765059997328,190.37790369987488,0.0,190.37790369987488,0,0.0,0,1,1000,num_1,0.6308950001839548,,35,1,2026-03-13_13h11.45.103,2026A_exp2,2022.2.4,59.830512116307276,
1000,1,0.0,6.1,1,0,43,43,3,,,,,191.02840159996413,191.67943789996207,191.67943789996207,192.16404939978383,315,315,192.16404939978383,192.16404939978383,192.16404939978383,192.16404939978383,192.16404939978383,192.16404939978383,192.16404939978383,192.16404939978383,192.16404939978383,192.53015729994513,192.53015729994513,192.53015729994513,192.53015729994513,192.53015729994513,192.53015729994513,192.53015729994513,192.53015729994513,192.53015729994513,22,1,[0.3670377000235021],[0.36704300018027425],192.53015729994513,192.73243289999664,1000,192.73243289999664,1000,1000,1000,1000,1,num_2,0.7163058998994529,,35,1,2026-03-13_13h11.45.103,2026A_exp2,2022.2.4,59.830512116307276,
1000,1,3.7,6.1,1,0,44,44,29,,,,,193.46459339978173,194.1151023998391,194.1151023998391,194.61609519994818,45,45,194.61609519994818,194.61609519994818,194.61609519994818,194.61609519994818,194.61609519994818,194.61609519994818,194.61609519994818,194.61609519994818,194.61609519994818,194.98258129996248,194.98258129996248,194.98258129996248,194.98258129996248,194.98258129996248,194.98258129996248,194.98258129996248,194.98258129996248,194.98258129996248,13,2,"[0.0011960999108850956, 0.18377489992417395]","[0.13365840003825724, 0.21724050003103912]",194.98258129996248,195.18444289988838,1000,195.18444289988838,1000,1000,1000,1000,1,num_2,2.1371501001995057,,35,1,2026-03-13_13h11.45.103,2026A_exp2,2022.2.4,59.830512116307276,
1000,1,0.0,0.0,1,0,45,45,56,,,,,197.3515921998769,198.0022050999105,198.0022050999105,198.50342019996606,315,45,198.50342019996606,198.50342019996606,198.50342019996606,198.50342019996606,198.50342019996606,198.50342019996606,198.50342019996606,198.50342019996606,198.50342019996606,198.86987259984016,198.86987259984016,198.86987259984016,198.86987259984016,198.86987259984016,198.86987259984016,198.86987259984016,198.86987259984016,198.86987259984016,22,1,[0.36727880011312664],[0.367284000152722],198.86987259984016,199.0721371998079,1000,199.0721371998079,1000,1000,1000,1000,0,num_3,0.9206389999017119,,35,1,2026-03-13_13h11.45.103,2026A_exp2,2022.2.4,59.830512116307276,
1000,1,0.0,6.1,1,0,46,46,62,,,,,200.02087429980747,200.67159639997408,200.67159639997408,201.17275609984063,45,315,201.17275609984063,201.17275609984063,201.17275609984063,201.17275609984063,201.17275609984063,201.17275609984063,201.17275609984063,201.17275609984063,201.17275609984063,201.53913119994104,201.53913119994104,201.53913119994104,201.53913119994104,201.53913119994104,201.53913119994104,201.53913119994104,201.53913119994104,201.53913119994104,23,0,,,201.53913119994104,201.7478198998142,1000,201.7478198998142,1000,1000,1000,1000,1,num_2,0.7256222998257726,,35,1,2026-03-13_13h11.45.103,2026A_exp2,2022.2.4,59.830512116307276,
1000,1,6.1,0.0,0,0,47,47,89,,,,,202.49053799989633,203.14075799984857,203.14075799984857,203.64178559998982,45,45,203.64178559998982,203.64178559998982,203.64178559998982,203.64178559998982,203.64178559998982,203.64178559998982,203.64178559998982,203.64178559998982,203.64178559998982,204.0083533998113,204.0083533998113,204.0083533998113,204.0083533998113,204.0083533998113,204.0083533998113,204.0083533998113,204.0083533998113,204.0083533998113,21,2,"[0.04982240009121597, 0.26709940005093813]","[0.06671139993704855, 0.283712400123477]",204.0083533998113,204.21060479991138,1000,204.21060479991138,1000,1000,1000,1000,0,num_3,1.0869328998960555,,35,1,2026-03-13_13h11.45.103,2026A_exp2,2022.2.4,59.830512116307276,
1000,1,0.0,4.9,0,0,48,48,53,,,,,205.32622549985535,205.97704409994185,205.97704409994185,206.48174909991212,45,45,206.48174909991212,206.48174909991212,206.48174909991212,206.48174909991212,206.48174909991212,206.48174909991212,206.48174909991212,206.48174909991212,206.48174909991212,206.84446619986556,206.84446619986556,206.84446619986556,206.84446619986556,206.84446619986556,206.84446619986556,206.84446619986556,206.84446619986556,206.84446619986556,0,1,[0.0024235998280346394],[0.3659963998943567],206.84446619986556,207.04656940000132,1000,207.04656940000132,1000,1000,1000,1000,1,num_2,0.6588934999890625,,35,1,2026-03-13_13h11.45.103,2026A_exp2,2022.2.4,59.830512116307276,
1000,1,0.0,0.0,1,0,49,49,60,,,,,207.7285602998454,208.37933369982056,208.37933369982056,208.88046629983,45,45,208.88046629983,208.88046629983,208.88046629983,208.88046629983,208.88046629983,208.88046629983,208.88046629983,208.88046629983,208.88046629983,209.23025849997066,209.23025849997066,209.23025849997066,209.23025849997066,209.23025849997066,209.23025849997066,209.23025849997066,209.23025849997066,209.23025849997066,10,5,"[0.03369259997271001, 0.10059619997628033, 0.150584900053218, 0.23394459998235106, 0.3011390999890864]","[0.08400240004993975, 0.11711400002241135, 0.20068680006079376, 0.26735419989563525, 0.3508750998880714]",209.23025849997066,209.4322539998684,1000,209.4322539998684,1000,1000,1000,1000,1,num_2,1.0890132999047637,,35,1,2026-03-13_13h11.45.103,2026A_exp2,2022.2.4,59.830512116307276,
1,0,0.0,0.0,1,0,50,50,41,,,,,210.54848050000146,211.1987842998933,211.1987842998933,211.69987649982795,315,45,211.69987649982795,211.69987649982795,211.69987649982795,211.69987649982795,211.69987649982795,211.69987649982795,211.69987649982795,211.69987649982795,211.69987649982795,212.06644029985182,212.06644029985182,212.06644029985182,212.06644029985182,212.06644029985182,212.06644029985182,212.06644029985182,212.06644029985182,212.06644029985182,11,3,"[0.08362430008128285, 0.13375860010273755, 0.3170434001367539]","[0.11659820005297661, 0.21706779999658465, 0.367118300171569]",212.06644029985182,212.26652759988792,0.0,212.26652759988792,0,0.0,0,1,1000,num_1,1.942380900029093,,35,1,2026-03-13_13h11.45.103,2026A_exp2,2022.2.4,59.830512116307276,
1,0,0.0,0.0,1,0,51,51,24,,,,,214.23528819996864,214.88592949998565,214.88592949998565,215.38705099979416,315,315,215.38705099979416,215.38705099979416,215.38705099979416,215.38705099979416,215.38705099979416,215.38705099979416,215.38705099979416,215.38705099979416,215.38705099979416,215.7367598998826,215.7367598998826,215.7367598998826,215.7367598998826,215.7367598998826,215.7367598998826,215.7367598998826,215.7367598998826,215.7367598998826,15,4,"[0.11701170005835593, 0.15023400005884469, 0.2002077999059111, 0.35040599992498755]","[0.13347080000676215, 0.1669487999752164, 0.2670442999806255, 0.3504111000802368]",215.7367598998826,215.93691299995407,0.0,215.93691299995407,0,0.0,0,1,1000,num_1,0.8157142999116331,,35,1,2026-03-13_13h11.45.103,2026A_exp2,2022.2.4,59.830512116307276,
1000,1,3.7,0.0,1,0,52,52,88,,,,,216.77100499998778,217.42174409981817,217.42174409981817,217.92276269989088,315,315,217.92276269989088,217.92276269989088,217.92276269989088,217.92276269989088,217.92276269989088,217.92276269989088,217.92276269989088,217.92276269989088,217.92276269989088,218.2726400999818,218.2726400999818,218.2726400999818,218.2726400999818,218.2726400999818,218.2726400999818,218.2726400999818,218.2726400999818,218.2726400999818,12,8,"[0.0011998999398201704, 0.03368839994072914, 0.06701839994639158, 0.1171061999630183, 0.16722219996154308, 0.21720750001259148, 0.26730860001407564, 0.35077220015227795]","[0.01748859998770058, 0.05050210002809763, 0.08375820005312562, 0.1505720999557525, 0.1839044000953436, 0.25036070006899536, 0.28399110003374517, 0.35077690007165074]",218.2726400999818,218.47489939979278,1000,218.47489939979278,1000,1000,1000,1000,1,num_2,0.8705373001284897,,35,1,2026-03-13_13h11.45.103,2026A_exp2,2022.2.4,59.830512116307276,
1,0,3.7,0.0,1,0,53,53,28,,,,,219.36079249996692,220.0079089999199,220.0079089999199,220.5136412999127,315,315,220.5136412999127,220.5136412999127,220.5136412999127,220.5136412999127,220.5136412999127,220.5136412999127,220.5136412999127,220.5136412999127,220.5136412999127,220.87519199983217,220.87519199983217,220.87519199983217,220.87519199983217,220.87519199983217,220.87519199983217,220.87519199983217,220.87519199983217,220.87519199983217,18,3,"[0.0667781000956893, 0.13348580012097955, 0.231954799965024]","[0.1003052000887692, 0.16531640011817217, 0.24860920011997223]",220.87519199983217,221.07533939997666,0.0,221.07533939997666,0,0.0,0,1,1000,num_1,1.670357999857515,,35,1,2026-03-13_13h11.45.103,2026A_exp2,2022.2.4,59.830512116307276,
1000,1,0.0,6.1,0,0,54,54,85,,,,,222.77701759990305,223.42777329985984,223.42777329985984,223.91212969995104,45,315,223.91212969995104,223.91212969995104,223.91212969995104,223.91212969995104,223.91212969995104,223.91212969995104,223.91212969995104,223.91212969995104,223.91212969995104,224.27865459979512,224.27865459979512,224.27865459979512,224.27865459979512,224.27865459979512,224.27865459979512,224.27865459979512,224.27865459979512,224.27865459979512,23,0,,,224.27865459979512,224.480425799964,1000,224.480425799964,1000,1000,1000,1000,1,num_2,0.8967703999951482,,35,1,2026-03-13_13h11.45.103,2026A_exp2,2022.2.4,59.830512116307276,
1000,1,0.0,0.0,0,0,55,55,36,,,,,225.39626769977622,226.04710429999977,226.04710429999977,226.5481698999647,315,45,226.5481698999647,226.5481698999647,226.5481698999647,226.5481698999647,226.5481698999647,226.5481698999647,226.5481698999647,226.5481698999647,226.5481698999647,226.89780089980923,226.89780089980923,226.89780089980923,226.89780089980923,226.89780089980923,226.89780089980923,226.89780089980923,226.89780089980923,226.89780089980923,22,0,,,226.89780089980923,227.09947209991515,1000,227.11481279996224,1000,1000,1000,1000,0,num_3,1.5343871999066323,,35,1,2026-03-13_13h11.45.103,2026A_exp2,2022.2.4,59.830512116307276,
1000,1,3.7,0.0,0,0,56,56,32,,,,,228.6662843998056,229.31699639977887,229.31699639977887,229.8180617999751,315,315,229.8180617999751,229.8180617999751,229.8180617999751,229.8180617999751,229.8180617999751,229.8180617999751,229.8180617999751,229.8180617999751,229.8180617999751,230.184496199945,230.184496199945,230.184496199945,230.184496199945,230.184496199945,230.184496199945,230.184496199945,230.184496199945,230.184496199945,10,2,"[0.1169240998569876, 0.18353659985587]","[0.15029309992678463, 0.36685549980029464]",230.184496199945,230.3864759998396,1000,230.3864759998396,1000,1000,1000,1000,0,num_3,1.6230772999115288,,35,1,2026-03-13_13h11.45.103,2026A_exp2,2022.2.4,59.830512116307276,
1000,1,0.0,6.1,1,0,57,57,52,,,,,232.03630219982006,232.68706859997474,232.68706859997474,233.18805529992096,45,315,233.18805529992096,233.18805529992096,233.18805529992096,233.18805529992096,233.18805529992096,233.18805529992096,233.18805529992096,233.18805529992096,233.18805529992096,233.55419619986787,233.55419619986787,233.55419619986787,233.55419619986787,233.55419619986787,233.55419619986787,233.55419619986787,233.55419619986787,233.55419619986787,14,4,"[0.1834838001523167, 0.21682079997844994, 0.28364729997701943, 0.3170867001172155]","[0.2002775000873953, 0.2668904000893235, 0.30032930010929704, 0.3670212000142783]",233.55419619986787,233.75655819987878,1000,233.75655819987878,1000,1000,1000,1000,1,num_2,1.9886940999422222,,35,1,2026-03-13_13h11.45.103,2026A_exp2,2022.2.4,59.830512116307276,
1,0,0.0,4.9,1,0,58,58,1,,,,,235.7737696999684,236.42412439989857,236.42412439989857,236.9252737998031,315,45,236.9252737998031,236.9252737998031,236.9252737998031,236.9252737998031,236.9252737998031,236.9252737998031,236.9252737998031,236.9252737998031,236.9252737998031,237.29158159997314,237.29158159997314,237.29158159997314,237.29158159997314,237.29158159997314,237.29158159997314,237.29158159997314,237.29158159997314,237.29158159997314,23,0,,,237.29158159997314,237.49177469988354,4.9,237.49177469988354,1,4.9,1,1,1000,num_4,0.9659630001988262,,35,1,2026-03-13_13h11.45.103,2026A_exp2,2022.2.4,59.830512116307276,
1000,1,0.0,4.9,1,0,59,59,78,,,,,238.4759611999616,239.126775899902,239.126775899902,239.61119399988092,45,315,239.61119399988092,239.61119399988092,239.61119399988092,239.61119399988092,239.61119399988092,239.61119399988092,239.61119399988092,239.61119399988092,239.61119399988092,239.97770099993795,239.97770099993795,239.97770099993795,239.97770099993795,239.97770099993795,239.97770099993795,239.97770099993795,239.97770099993795,239.97770099993795,22,1,[0.08368139993399382],[0.10020949994213879],239.97770099993795,240.1796203998383,1000,240.1796203998383,1000,1000,1000,1000,1,num_2,0.7817972998600453,,35,1,2026-03-13_13h11.45.103,2026A_exp2,2022.2.4,59.830512116307276,
1,0,4.9,6.1,0,0,60,60,33,,,,,240.97865809989162,241.62924549984746,241.62924549984746,242.13051879988052,45,45,242.13051879988052,242.13051879988052,242.13051879988052,242.13051879988052,242.13051879988052,242.13051879988052,242.13051879988052,242.13051879988052,242.13051879988052,242.49678899999708,242.49678899999708,242.49678899999708,242.49678899999708,242.49678899999708,242.49678899999708,242.49678899999708,242.49678899999708,242.49678899999708,23,0,,,242.49678899999708,242.69703599996865,4.9,242.69703599996865,1,4.9,1,1,1000,num_4,1.7598004001192749,,35,1,2026-03-13_13h11.45.103,2026A_exp2,2022.2.4,59.830512116307276,
1000,1,6.1,4.9,0,0,61,61,68,,,,,244.4822929999791,245.13274379982613,245.13274379982613,245.61707349983044,315,315,245.61707349983044,245.61707349983044,245.61707349983044,245.61707349983044,245.61707349983044,245.61707349983044,245.61707349983044,245.61707349983044,245.61707349983044,245.98350489977747,245.98350489977747,245.98350489977747,245.98350489977747,245.98350489977747,245.98350489977747,245.98350489977747,245.98350489977747,245.98350489977747,15,5,"[0.033526499988511205, 0.1836009998805821, 0.23365719988942146, 0.30031839990988374, 0.35049499990418553]","[0.10027689998969436, 0.21702169999480247, 0.25035509979352355, 0.3171838999260217, 0.3671035999432206]",245.98350489977747,246.18388099991716,1000,246.18388099991716,1000,1000,1000,1000,0,num_3,0.7934167000930756,,35,1,2026-03-13_13h11.45.103,2026A_exp2,2022.2.4,59.830512116307276,
1000,1,0.0,4.9,1,0,62,62,55,,,,,247.00120139983483,247.65185049991123,247.65185049991123,248.15307769994251,315,45,248.15307769994251,248.15307769994251,248.15307769994251,248.15307769994251,248.15307769994251,248.15307769994251,248.15307769994251,248.15307769994251,248.15307769994251,248.51955379988067,248.51955379988067,248.51955379988067,248.51955379988067,248.51955379988067,248.51955379988067,248.51955379988067,248.51955379988067,248.51955379988067,10,6,"[0.0012348000891506672, 0.099994600052014, 0.15029680007137358, 0.20027630007825792, 0.26686830003745854, 0.33374870009720325]","[0.08335590013302863, 0.11689299996942282, 0.16701400000602007, 0.2332454000134021, 0.3171670001465827, 0.3671433001291007]",248.51955379988067,248.7224111999385,1000,248.7224111999385,1000,1000,1000,1000,1,num_2,1.0552027998492122,,35,1,2026-03-13_13h11.45.103,2026A_exp2,2022.2.4,59.830512116307276,
1000,1,6.1,0.0,0,0,63,63,59,,,,,249.80398689978756,250.45473589980975,250.45473589980975,250.9559297999367,315,315,250.9559297999367,250.9559297999367,250.9559297999367,250.9559297999367,250.9559297999367,250.9559297999367,250.9559297999367,250.9559297999367,250.9559297999367,251.32196089997888,251.32196089997888,251.32196089997888,251.32196089997888,251.32196089997888,251.32196089997888,251.32196089997888,251.32196089997888,251.32196089997888,21,2,"[0.08351229992695153, 0.2004025001078844]","[0.10033789998851717, 0.21668999991379678]",251.32196089997888,251.52284119999968,1000,251.52284119999968,1000,1000,1000,1000,0,num_3,0.6308519002050161,,35,1,2026-03-13_13h11.45.103,2026A_exp2,2022.2.4,59.830512116307276,
1000,1,0.0,0.0,1,0,64,64,16,,,,,252.17303039995022,252.82366239978,252.82366239978,253.32497169985436,45,45,253.32497169985436,253.32497169985436,253.32497169985436,253.32497169985436,253.32497169985436,253.32497169985436,253.32497169985436,253.32497169985436,253.32497169985436,253.69130519987084,253.69130519987084,253.69130519987084,253.69130519987084,253.69130519987084,253.69130519987084,253.69130519987084,253.69130519987084,253.69130519987084,7,5,"[0.0012183000799268484, 0.08366580004803836, 0.1837428999133408, 0.28387290006503463, 0.33399079996161163]","[0.0669497000053525, 0.15047140000388026, 0.250458599999547, 0.30045720003545284, 0.3673396999947727]",253.69130519987084,253.89349859999493,1000,253.89349859999493,1000,1000,1000,1000,1,num_2,0.8756335000507534,,35,1,2026-03-13_13h11.45.103,2026A_exp2,2022.2.4,59.830512116307276,
0,0,6.1,0.0,1,0,65,65,30,,,,,254.79222379997373,255.4429688998498,255.4429688998498,255.94412289978936,315,45,255.94412289978936,255.94412289978936,255.94412289978936,255.94412289978936,255.94412289978936,255.94412289978936,255.94412289978936,255.94412289978936,255.94412289978936,256.29395639989525,256.29395639989525,256.29395639989525,256.29395639989525,256.29395639989525,256.29395639989525,256.29395639989525,256.29395639989525,256.29395639989525,3,4,"[0.001231200061738491, 0.1669870000332594, 0.21701410016976297, 0.3337401000317186]","[0.15027110022492707, 0.20018430007621646, 0.3170293001458049, 0.3503050000872463]",256.29395639989525,256.4941972999368,6.1,256.4941972999368,1,6.1,1,1,1000,num_4,1.1796538000926375,,35,1,2026-03-13_13h11.45.103,2026A_exp2,2022.2.4,59.830512116307276,
1000,1,0.0,6.1,1,0,66,66,69,,,,,257.69510769983754,258.3460465997923,258.3460465997923,258.83034989982843,45,45,258.83034989982843,258.83034989982843,258.83034989982843,258.83034989982843,258.83034989982843,258.83034989982843,258.83034989982843,258.83034989982843,258.83034989982843,259.1968443999067,259.1968443999067,259.1968443999067,259.1968443999067,259.1968443999067,259.1968443999067,259.1968443999067,259.1968443999067,259.1968443999067,11,5,"[0.001231699949130416, 0.06672129989601672, 0.18366080010309815, 0.2336202000733465, 0.3507987998891622]","[0.0333986000623554, 0.08349879994057119, 0.20055749989114702, 0.3170566998887807, 0.36719350004568696]",259.1968443999067,259.3988069999032,1000,259.3988069999032,1000,1000,1000,1000,0,num_3,1.5781875001266599,,35,1,2026-03-13_13h11.45.103,2026A_exp2,2022.2.4,59.830512116307276,
1,0,3.7,4.9,0,0,67,67,76,,,,,260.9989212998189,261.6492036997806,261.6492036997806,262.1336085998919,315,45,262.1336085998919,262.1336085998919,262.1336085998919,262.1336085998919,262.1336085998919,262.1336085998919,262.1336085998919,262.1336085998919,262.1336085998919,262.50012280000374,262.50012280000374,262.50012280000374,262.50012280000374,262.50012280000374,262.50012280000374,262.50012280000374,262.50012280000374,262.50012280000374,9,3,"[0.0012216002214699984, 0.13355350005440414, 0.24994760006666183]","[0.017193700186908245, 0.2169101000763476, 0.36705400003120303]",262.50012280000374,262.7001911997795,3.7,262.7001911997795,0,3.7,1,0,1000,num_1,2.157476000022143,,35,1,2026-03-13_13h11.45.103,2026A_exp2,2022.2.4,59.830512116307276,
1,0,3.7,0.0,1,0,68,68,13,,,,,264.88580609997734,265.53644449985586,265.53644449985586,266.02083669998683,45,45,266.02083669998683,266.02083669998683,266.02083669998683,266.02083669998683,266.02083669998683,266.02083669998683,266.02083669998683,266.02083669998683,266.02083669998683,266.3874078998342,266.3874078998342,266.3874078998342,266.3874078998342,266.3874078998342,266.3874078998342,266.3874078998342,266.3874078998342,266.3874078998342,11,6,"[0.0013685000594705343, 0.10032720002345741, 0.15032140002585948, 0.18381309998221695, 0.23371340008452535, 0.3173956999089569]","[0.05019159987568855, 0.1335503999143839, 0.16701869992539287, 0.20041910000145435, 0.2838256999384612, 0.3504583998583257]",266.3874078998342,266.5875950998161,0.0,266.5875950998161,0,0.0,0,1,1000,num_1,0.9650509001221508,,35,1,2026-03-13_13h11.45.103,2026A_exp2,2022.2.4,59.830512116307276,
1000,1,3.7,0.0,1,0,69,69,54,,,,,267.5717579999473,268.2225685999729,268.2225685999729,268.70686939987354,45,45,268.70686939987354,268.70686939987354,268.70686939987354,268.70686939987354,268.70686939987354,268.70686939987354,268.70686939987354,268.70686939987354,268.70686939987354,269.0733592999168,269.0733592999168,269.0733592999168,269.0733592999168,269.0733592999168,269.0733592999168,269.0733592999168,269.0733592999168,269.0733592999168,10,7,"[0.01729960017837584, 0.1170445999596268, 0.15006890008226037, 0.18379859998822212, 0.23316260008141398, 0.2832140000537038, 0.33358000009320676]","[0.06695979996584356, 0.13358690007589757, 0.167003900045529, 0.21679940004833043, 0.26689840015023947, 0.316867999965325, 0.367213899968192]",269.0733592999168,269.2755056999158,1000,269.2755056999158,1000,1000,1000,1000,0,num_3,0.7977020000107586,,35,1,2026-03-13_13h11.45.103,2026A_exp2,2022.2.4,59.830512116307276,
1000,1,0.0,4.9,1,0,70,70,79,,,,,270.09085449995473,270.7417506999336,270.7417506999336,271.2427536000032,315,315,271.2427536000032,271.2427536000032,271.2427536000032,271.2427536000032,271.2427536000032,271.2427536000032,271.2427536000032,271.2427536000032,271.2427536000032,271.60919939982705,271.60919939982705,271.60919939982705,271.60919939982705,271.60919939982705,271.60919939982705,271.60919939982705,271.60919939982705,271.60919939982705,1,2,"[0.0012151000555604696, 0.3505398998968303]","[0.333890900015831, 0.3674238999374211]",271.60919939982705,271.81099329981953,1000,271.81099329981953,1000,1000,1000,1000,1,num_2,0.7422662999015301,,35,1,2026-03-13_13h11.45.103,2026A_exp2,2022.2.4,59.830512116307276,
1,0,3.7,4.9,1,0,71,71,71,,,,,272.57681329990737,273.2275362999644,273.2275362999644,273.7285121998284,315,45,273.7285121998284,273.7285121998284,273.7285121998284,273.7285121998284,273.7285121998284,273.7285121998284,273.7285121998284,273.7285121998284,273.7285121998284,274.09508099989034,274.09508099989034,274.09508099989034,274.09508099989034,274.09508099989034,274.09508099989034,274.09508099989034,274.09508099989034,274.09508099989034,15,5,"[0.033523499965667725, 0.15032160002738237, 0.23305030004121363, 0.28341639996506274, 0.3169245000462979]","[0.06663740007206798, 0.16651480016298592, 0.26669450011104345, 0.30001320014707744, 0.3669110001064837]",274.09508099989034,274.2953675999306,4.9,274.2953675999306,1,4.9,1,1,1000,num_4,0.9621866999659687,,35,1,2026-03-13_13h11.45.103,2026A_exp2,2022.2.4,59.830512116307276,
1000,1,0.0,0.0,1,0,72,72,46,,,,,275.27940019988455,275.93035819986835,275.93035819986835,276.4146015997976,45,45,276.4146015997976,276.4146015997976,276.4146015997976,276.4146015997976,276.4146015997976,276.4146015997976,276.4146015997976,276.4146015997976,276.4146015997976,276.7811368999537,276.7811368999537,276.7811368999537,276.7811368999537,276.7811368999537,276.7811368999537,276.7811368999537,276.7811368999537,276.7811368999537,15,4,"[0.06682280008681118, 0.1335400000680238, 0.18367630010470748, 0.2670564001891762]","[0.10012660012580454, 0.15011200006119907, 0.23356610001064837, 0.30039580003358424]",276.7811368999537,276.98279329994693,1000,276.9980687999632,1000,1000,1000,1000,0,num_3,0.7231715000234544,,35,1,2026-03-13_13h11.45.103,2026A_exp2,2022.2.4,59.830512116307276,
1,0,4.9,3.7,1,0,73,73,10,,,,,277.74869079981,278.3993592998013,278.3993592998013,278.9003616999835,45,315,278.9003616999835,278.9003616999835,278.9003616999835,278.9003616999835,278.9003616999835,278.9003616999835,278.9003616999835,278.9003616999835,278.9003616999835,279.26687679998577,279.26687679998577,279.26687679998577,279.26687679998577,279.26687679998577,279.26687679998577,279.26687679998577,279.26687679998577,279.26687679998577,18,2,"[0.0835132000502199, 0.2835537001956254]","[0.11679580016061664, 0.3338203001767397]",279.26687679998577,279.4671197999269,3.7,279.4671197999269,0,3.7,1,0,1000,num_1,1.2543267000000924,,35,1,2026-03-13_13h11.45.103,2026A_exp2,2022.2.4,59.830512116307276,
1000,1,0.0,0.0,0,0,74,74,45,,,,,280.75169309997,281.4022416998632,281.4022416998632,281.9035379998386,315,315,281.9035379998386,281.9035379998386,281.9035379998386,281.9035379998386,281.9035379998386,281.9035379998386,281.9035379998386,281.9035379998386,281.9035379998386,282.2532099999953,282.2532099999953,282.2532099999953,282.2532099999953,282.2532099999953,282.2532099999953,282.2532099999953,282.2532099999953,282.2532099999953,20,3,"[0.0011970000341534615, 0.1171171001624316, 0.2503176999744028]","[0.017424300080165267, 0.13359430013224483, 0.26706710015423596]",282.2532099999953,282.45511209988035,1000,282.45511209988035,1000,1000,1000,1000,0,num_3,0.7548989001661539,,35,1,2026-03-13_13h11.45.103,2026A_exp2,2022.2.4,59.830512116307276,
0,0,0.0,0.0,0,0,75,75,70,,,,,283.2374669997953,283.8882026998326,283.8882026998326,284.38925749994814,315,315,284.38925749994814,284.38925749994814,284.38925749994814,284.38925749994814,284.38925749994814,284.38925749994814,284.38925749994814,284.38925749994814,284.38925749994814,284.7557319998741,284.7557319998741,284.7557319998741,284.7557319998741,284.7557319998741,284.7557319998741,284.7557319998741,284.7557319998741,284.7557319998741,23,0,,,284.7557319998741,284.95599589985795,0.0,284.95599589985795,1,0.0,0,0,1000,num_4,1.725290299858898,,35,1,2026-03-13_13h11.45.103,2026A_exp2,2022.2.4,59.830512116307276,
1000,1,0.0,0.0,0,0,76,76,37,,,,,286.7075695998501,287.3583504999988,287.3583504999988,287.8427077999804,315,315,287.8427077999804,287.8427077999804,287.8427077999804,287.8427077999804,287.8427077999804,287.8427077999804,287.8427077999804,287.8427077999804,287.8427077999804,288.20922709978186,288.20922709978186,288.20922709978186,288.20922709978186,288.20922709978186,288.20922709978186,288.20922709978186,288.20922709978186,288.20922709978186,13,5,"[0.017388599924743176, 0.15028439997695386, 0.20048610004596412, 0.2504978000652045, 0.300576499896124]","[0.06740029994398355, 0.18400909984484315, 0.23369410005398095, 0.26716269995085895, 0.33391929999925196]",288.20922709978186,288.4096392998472,1000,288.4096392998472,1000,1000,1000,1000,0,num_3,0.8243979001417756,,35,1,2026-03-13_13h11.45.103,2026A_exp2,2022.2.4,59.830512116307276,
1,0,0.0,3.7,1,0,77,77,0,,,,,289.2601355998777,289.9108953999821,289.9108953999821,290.41191379982047,315,45,290.41191379982047,290.41191379982047,290.41191379982047,290.41191379982047,290.41191379982047,290.41191379982047,290.41191379982047,290.41191379982047,290.41191379982047,290.7784387997817,290.7784387997817,290.7784387997817,290.7784387997817,290.7784387997817,290.7784387997817,290.7784387997817,290.7784387997817,290.7784387997817,17,4,"[0.0011992000509053469, 0.20044320006854832, 0.3006774999666959, 0.3340515000745654]","[0.03379740007221699, 0.2172433000523597, 0.3172281999140978, 0.3504707000683993]",290.7784387997817,290.97866259980947,3.7,290.97866259980947,1,3.7,1,1,1000,num_4,0.9109708999749273,,35,1,2026-03-13_13h11.45.103,2026A_exp2,2022.2.4,59.830512116307276,
1,0,6.1,4.9,0,0,78,78,81,,,,,291.91282199998386,292.5634836999234,292.5634836999234,293.0479869998526,315,45,293.0479869998526,293.0479869998526,293.0479869998526,293.0479869998526,293.0479869998526,293.0479869998526,293.0479869998526,293.0479869998526,293.0479869998526,293.4144393999595,293.4144393999595,293.4144393999595,293.4144393999595,293.4144393999595,293.4144393999595,293.4144393999595,293.4144393999595,293.4144393999595,23,0,,,293.4144393999595,293.61463399999775,6.1,293.61463399999775,1,6.1,1,1,1000,num_4,1.3062544001732022,,35,1,2026-03-13_13h11.45.103,2026A_exp2,2022.2.4,59.830512116307276,
1000,1,0.0,3.7,1,0,79,79,65,,,,,294.9491144998465,295.5999305997975,295.5999305997975,296.0843979998026,315,45,296.0843979998026,296.0843979998026,296.0843979998026,296.0843979998026,296.0843979998026,296.0843979998026,296.0843979998026,296.0843979998026,296.0843979998026,296.45062499982305,296.45062499982305,296.45062499982305,296.45062499982305,296.45062499982305,296.45062499982305,296.45062499982305,296.45062499982305,296.45062499982305,14,4,"[0.1170165000949055, 0.21716860006563365, 0.3004676999989897, 0.33387570013292134]","[0.183802800020203, 0.2671054000966251, 0.3171788000036031, 0.35059299995191395]",296.45062499982305,296.65290479990654,1000,296.65290479990654,1000,1000,1000,1000,0,num_3,0.9807932002004236,,35,1,2026-03-13_13h11.45.103,2026A_exp2,2022.2.4,59.830512116307276,
1,0,3.7,0.0,0,0,80,80,8,,,,,297.65184349985793,298.30260459985584,298.30260459985584,298.80363349989057,45,315,298.80363349989057,298.80363349989057,298.80363349989057,298.80363349989057,298.80363349989057,298.80363349989057,298.80363349989057,298.80363349989057,298.80363349989057,299.1702071998734,299.1702071998734,299.1702071998734,299.1702071998734,299.1702071998734,299.1702071998734,299.1702071998734,299.1702071998734,299.1702071998734,21,2,"[0.001206899993121624, 0.1502096001058817]","[0.01727000018581748, 0.16692910017445683]",299.1702071998734,299.3703601998277,3.7,299.3703601998277,0,3.7,1,0,1000,num_1,0.8548187001142651,,35,1,2026-03-13_13h11.45.103,2026A_exp2,2022.2.4,59.830512116307276,
1000,1,0.0,0.0,0,0,81,81,7,,,,,300.2544572998304,300.90521389991045,300.90521389991045,301.3896767999977,315,315,301.3896767999977,301.3896767999977,301.3896767999977,301.3896767999977,301.3896767999977,301.3896767999977,301.3896767999977,301.3896767999977,301.3896767999977,301.75602659978904,301.75602659978904,301.75602659978904,301.75602659978904,301.75602659978904,301.75602659978904,301.75602659978904,301.75602659978904,301.75602659978904,5,4,"[0.0012046999763697386, 0.04956359998323023, 0.1001850999891758, 0.15032429993152618]","[0.01738510001450777, 0.06682540010660887, 0.13363820011727512, 0.36721549998037517]",301.75602659978904,301.95805829996243,1000,301.95805829996243,1000,1000,1000,1000,1,num_2,1.0592080999631435,,35,1,2026-03-13_13h11.45.103,2026A_exp2,2022.2.4,59.830512116307276,
1000,1,0.0,0.0,0,0,82,82,87,,,,,303.0406628998462,303.6913295998238,303.6913295998238,304.1926169998478,315,315,304.1926169998478,304.1926169998478,304.1926169998478,304.1926169998478,304.1926169998478,304.1926169998478,304.1926169998478,304.1926169998478,304.1926169998478,304.55895679979585,304.55895679979585,304.55895679979585,304.55895679979585,304.55895679979585,304.55895679979585,304.55895679979585,304.55895679979585,304.55895679979585,21,1,[0.0008132001385092735],[0.03473299997858703],304.55895679979585,304.7677725998219,1000,304.7677725998219,1000,1000,1000,1000,0,num_3,0.818277700105682,,35,1,2026-03-13_13h11.45.103,2026A_exp2,2022.2.4,59.830512116307276,
0,0,6.1,6.1,0,0,83,83,42,,,,,305.60973859997466,306.26049819984473,306.26049819984473,306.76154829980806,45,315,306.76154829980806,306.76154829980806,306.76154829980806,306.76154829980806,306.76154829980806,306.76154829980806,306.76154829980806,306.76154829980806,306.76154829980806,307.12802099995315,307.12802099995315,307.12802099995315,307.12802099995315,307.12802099995315,307.12802099995315,307.12802099995315,307.12802099995315,307.12802099995315,23,0,,,307.12802099995315,307.3281305998098,6.1,307.3281305998098,1,6.1,1,1,1000,num_4,0.8415606999769807,,35,1,2026-03-13_13h11.45.103,2026A_exp2,2022.2.4,59.830512116307276,
1000,1,0.0,3.7,0,0,84,84,57,,,,,308.1956370999105,308.84640669985674,308.84640669985674,309.33094799984246,45,315,309.33094799984246,309.33094799984246,309.33094799984246,309.33094799984246,309.33094799984246,309.33094799984246,309.33094799984246,309.33094799984246,309.33094799984246,309.6973653999157,309.6973653999157,309.6973653999157,309.6973653999157,309.6973653999157,309.6973653999157,309.6973653999157,309.6973653999157,309.6973653999157,12,5,"[0.0012169999536126852, 0.0500749999191612, 0.18354410002939403, 0.24971859995275736, 0.3002072998788208]","[0.017187600024044514, 0.1334373999852687, 0.21693670004606247, 0.26689659990370274, 0.33357289992272854]",309.6973653999157,309.89920759992674,1000,309.89920759992674,1000,1000,1000,1000,1,num_2,1.4534394000656903,,35,1,2026-03-13_13h11.45.103,2026A_exp2,2022.2.4,59.830512116307276,
0,0,0.0,3.7,0,0,85,85,47,,,,,311.38251349981874,312.03345189988613,312.03345189988613,312.52077039983124,315,315,312.52077039983124,312.52077039983124,312.52077039983124,312.52077039983124,312.52077039983124,312.52077039983124,312.52077039983124,312.52077039983124,312.52077039983124,312.8837358998135,312.8837358998135,312.8837358998135,312.8837358998135,312.8837358998135,312.8837358998135,312.8837358998135,312.8837358998135,312.8837358998135,7,5,"[0.002400999888777733, 0.04943459993228316, 0.21621569991111755, 0.2996590998955071, 0.34957499988377094]","[0.020211399998515844, 0.18288209987804294, 0.2829074999317527, 0.3328088999260217, 0.366343499859795]",312.8837358998135,313.08398469979875,3.7,313.08398469979875,0,3.7,1,0,1000,num_1,1.6856249999254942,,35,1,2026-03-13_13h11.45.103,2026A_exp2,2022.2.4,59.830512116307276,
1000,1,3.7,0.0,0,0,86,86,66,,,,,314.7858816999942,315.44214659999125,315.44214659999125,315.9373667999171,45,315,315.9373667999171,315.9373667999171,315.9373667999171,315.9373667999171,315.9373667999171,315.9373667999171,315.9373667999171,315.9373667999171,315.9373667999171,316.3039738999214,316.3039738999214,316.3039738999214,316.3039738999214,316.3039738999214,316.3039738999214,316.3039738999214,316.3039738999214,316.3039738999214,5,6,"[0.001205699983984232, 0.05032679997384548, 0.18362429994158447, 0.2338369998615235, 0.3005695999599993, 0.3339193998835981]","[0.03361299983225763, 0.15029599983245134, 0.21705319988541305, 0.2837157000321895, 0.3171779999975115, 0.3672225000336766]",316.3039738999214,316.505981199909,1000,316.505981199909,1000,1000,1000,1000,0,num_3,1.9191298000514507,,35,1,2026-03-13_13h11.45.103,2026A_exp2,2022.2.4,59.830512116307276,
1000,1,0.0,6.1,0,0,87,87,58,,,,,318.45637909998186,319.1068173998501,319.1068173998501,319.5911292999517,315,45,319.5911292999517,319.5911292999517,319.5911292999517,319.5911292999517,319.5911292999517,319.5911292999517,319.5911292999517,319.5911292999517,319.5911292999517,319.9575251999777,319.9575251999777,319.9575251999777,319.9575251999777,319.9575251999777,319.9575251999777,319.9575251999777,319.9575251999777,319.9575251999777,2,1,[0.0012755999341607094],[0.35057689994573593],319.9575251999777,320.1594803999178,1000,320.1594803999178,1000,1000,1000,1000,1,num_2,0.8418156001716852,,35,1,2026-03-13_13h11.45.103,2026A_exp2,2022.2.4,59.830512116307276,
0,0,0.0,0.0,0,0,88,88,22,,,,,321.0252329998184,321.67591579980217,321.67591579980217,322.1771829999052,45,45,322.1771829999052,322.1771829999052,322.1771829999052,322.1771829999052,322.1771829999052,322.1771829999052,322.1771829999052,322.1771829999052,322.1771829999052,322.5436273999512,322.5436273999512,322.5436273999512,322.5436273999512,322.5436273999512,322.5436273999512,322.5436273999512,322.5436273999512,322.5436273999512,23,0,,,322.5436273999512,322.74364939983934,0.0,322.74364939983934,0,0.0,0,1,1000,num_1,1.3533150998409837,,35,1,2026-03-13_13h11.45.103,2026A_exp2,2022.2.4,59.830512116307276,
1000,1,0.0,6.1,0,0,89,89,2,,,,,324.128276999807,324.77910889987834,324.77910889987834,325.263428399805,45,315,325.263428399805,325.263428399805,325.263428399805,325.263428399805,325.263428399805,325.263428399805,325.263428399805,325.263428399805,325.263428399805,325.6300099999644,325.6300099999644,325.6300099999644,325.6300099999644,325.6300099999644,325.6300099999644,325.6300099999644,325.6300099999644,325.6300099999644,23,0,,,325.6300099999644,325.83188589988276,1000,325.83188589988276,1000,1000,1000,1000,1,num_2,1.4416162997949868,,35,1,2026-03-13_13h11.45.103,2026A_exp2,2022.2.4,59.830512116307276,
,,,,,,,,,,,,,,,,,,,,,,,,,,,,,,,,,,,,,,,,,,,,,,,,,,,,327.3008230999112,,,,,,,
