validity,detectorcomp,contrastCW,contrastCCW,precueCWorCCW,block_80trials.thisRepN,block_80trials.thisTrialN,block_80trials.thisN,block_80trials.thisIndex,etRecord.started,etRecord.stopped,text.started,text.stopped,text_4.started,text_4.stopped,text_6.started,text_6.stopped,oriCW,oriCCW,roi_2.started,grating_UR.started,grating_UL.started,grating_LR.started,grating_LL.started,noise_UR.started,noise_UL.started,noise_LR.started,noise_LL.started,roi_2.stopped,grating_UR.stopped,grating_UL.stopped,grating_LR.stopped,grating_LL.stopped,noise_UR.stopped,noise_UL.stopped,noise_LR.stopped,noise_LL.stopped,outframe,roi_2.numLooks,roi_2.timesOn,roi_2.timesOff,text_2.started,text_2.stopped,probedcontrast,key_resp.started,respdetect,relevantContrast,correctDetect,TorFdetect,respCWorCCW,key_resp.keys,key_resp.rt,feedback_display_.started,participantNo,blockNo,date,expName,psychopyVersion,frameRate,
0,0,4.9,4.9,0,0,0,0,88,3.4599972423166037e-05,3.4599972423166037e-05,49.718981500016525,51.724031699995976,51.724031699995976,52.356311800016556,52.356311800016556,52.8785875000176,45,45,52.8785875000176,52.8785875000176,52.8785875000176,52.8785875000176,52.8785875000176,52.8785875000176,52.8785875000176,52.8785875000176,52.8785875000176,53.22402810002677,53.22402810002677,53.22402810002677,53.22402810002677,53.22402810002677,53.22402810002677,53.22402810002677,53.22402810002677,53.22402810002677,0,1,[0.0009527000365778804],[0.367151600017678],53.22402810002677,53.42410340002971,4.9,53.42410340002971,0,4.9,1,0,1000,num_1,0.7818058999837376,,22,6,2026-03-04_11h08.58.968,2026A_exp2,2022.2.4,59.72716629889714,
1000,1,0.0,0.0,1,0,1,1,8,,,,,54.22507659997791,54.87562589999288,54.87562589999288,55.36007440002868,45,45,55.36007440002868,55.36007440002868,55.36007440002868,55.36007440002868,55.36007440002868,55.36007440002868,55.36007440002868,55.36007440002868,55.36007440002868,55.72613279998768,55.72613279998768,55.72613279998768,55.72613279998768,55.72613279998768,55.72613279998768,55.72613279998768,55.72613279998768,55.72613279998768,23,0,,,55.72613279998768,55.931573599984404,1000,55.931573599984404,1000,1000,1000,1000,0,num_3,0.649554600007832,,22,6,2026-03-04_11h08.58.968,2026A_exp2,2022.2.4,59.72716629889714,
1,0,6.1,0.0,1,0,2,2,53,,,,,56.610828900011256,57.26136360003147,57.26136360003147,57.762484100006986,315,45,57.762484100006986,57.762484100006986,57.762484100006986,57.762484100006986,57.762484100006986,57.762484100006986,57.762484100006986,57.762484100006986,57.762484100006986,58.1122778999852,58.1122778999852,58.1122778999852,58.1122778999852,58.1122778999852,58.1122778999852,58.1122778999852,58.1122778999852,58.1122778999852,22,0,,,58.1122778999852,58.312356400012504,0.0,58.312356400012504,0,0.0,0,1,1000,num_1,0.9172355000046082,,22,6,2026-03-04_11h08.58.968,2026A_exp2,2022.2.4,59.72716629889714,
1000,1,0.0,4.9,1,0,3,3,51,,,,,59.24654510000255,59.8803959999932,59.8803959999932,60.381585200026166,315,315,60.381585200026166,60.381585200026166,60.381585200026166,60.381585200026166,60.381585200026166,60.381585200026166,60.381585200026166,60.381585200026166,60.381585200026166,60.74797949998174,60.74797949998174,60.74797949998174,60.74797949998174,60.74797949998174,60.74797949998174,60.74797949998174,60.74797949998174,60.74797949998174,23,0,,,60.74797949998174,60.94836270000087,1000,60.94836270000087,1000,1000,1000,1000,1,num_2,0.4810700000380166,,22,6,2026-03-04_11h08.58.968,2026A_exp2,2022.2.4,59.72716629889714,
1,0,0.0,0.0,1,0,4,4,42,,,,,61.44900409999536,62.09971089998726,62.09971089998726,62.60053599998355,315,45,62.60053599998355,62.60053599998355,62.60053599998355,62.60053599998355,62.60053599998355,62.60053599998355,62.60053599998355,62.60053599998355,62.60053599998355,62.96674659999553,62.96674659999553,62.96674659999553,62.96674659999553,62.96674659999553,62.96674659999553,62.96674659999553,62.96674659999553,62.96674659999553,23,0,,,62.96674659999553,63.16757960000541,0.0,63.16757960000541,1,0.0,0,0,1000,num_4,1.8774214999866672,,22,6,2026-03-04_11h08.58.968,2026A_exp2,2022.2.4,59.72716629889714,
1,0,3.7,0.0,0,0,5,5,15,,,,,65.06899579998571,65.70323149999604,65.70323149999604,66.20428519998677,45,45,66.20428519998677,66.20428519998677,66.20428519998677,66.20428519998677,66.20428519998677,66.20428519998677,66.20428519998677,66.20428519998677,66.20428519998677,66.57073749997653,66.57073749997653,66.57073749997653,66.57073749997653,66.57073749997653,66.57073749997653,66.57073749997653,66.57073749997653,66.57073749997653,23,0,,,66.57073749997653,66.77080489997752,3.7,66.77080489997752,1,3.7,1,1,1000,num_4,0.8189970999956131,,22,6,2026-03-04_11h08.58.968,2026A_exp2,2022.2.4,59.72716629889714,
0,0,3.7,0.0,1,0,6,6,0,,,,,67.62167700001737,68.27238270000089,68.27238270000089,68.75687510002172,45,45,68.75687510002172,68.75687510002172,68.75687510002172,68.75687510002172,68.75687510002172,68.75687510002172,68.75687510002172,68.75687510002172,68.75687510002172,69.1232103999937,69.1232103999937,69.1232103999937,69.1232103999937,69.1232103999937,69.1232103999937,69.1232103999937,69.1232103999937,69.1232103999937,23,0,,,69.1232103999937,69.32351210003253,3.7,69.32351210003253,1,3.7,1,1,1000,num_4,1.5782883000210859,,22,6,2026-03-04_11h08.58.968,2026A_exp2,2022.2.4,59.72716629889714,
1,0,3.7,3.7,0,0,7,7,69,,,,,70.92512680002255,71.57551450002939,71.57551450002939,72.06014750001486,315,45,72.06014750001486,72.06014750001486,72.06014750001486,72.06014750001486,72.06014750001486,72.06014750001486,72.06014750001486,72.06014750001486,72.06014750001486,72.42653160000918,72.42653160000918,72.42653160000918,72.42653160000918,72.42653160000918,72.42653160000918,72.42653160000918,72.42653160000918,72.42653160000918,23,0,,,72.42653160000918,72.6267419999931,3.7,72.6267419999931,1,3.7,1,1,1000,num_4,0.5224013999686576,,22,6,2026-03-04_11h08.58.968,2026A_exp2,2022.2.4,59.72716629889714,
0,0,0.0,0.0,0,0,8,8,20,,,,,73.17696349998005,73.8279760000296,73.8279760000296,74.31227430002764,315,315,74.31227430002764,74.31227430002764,74.31227430002764,74.31227430002764,74.31227430002764,74.31227430002764,74.31227430002764,74.31227430002764,74.31227430002764,74.67880689998856,74.67880689998856,74.67880689998856,74.67880689998856,74.67880689998856,74.67880689998856,74.67880689998856,74.67880689998856,74.67880689998856,23,0,,,74.67880689998856,74.87901640002383,0.0,74.87901640002383,0,0.0,0,1,1000,num_1,0.9427640000358224,,22,6,2026-03-04_11h08.58.968,2026A_exp2,2022.2.4,59.72716629889714,
1000,1,6.1,0.0,1,0,9,9,71,,,,,75.84640819998458,76.48059079999803,76.48059079999803,76.98149929998908,315,45,76.98149929998908,76.98149929998908,76.98149929998908,76.98149929998908,76.98149929998908,76.98149929998908,76.98149929998908,76.98149929998908,76.98149929998908,77.34812420001253,77.34812420001253,77.34812420001253,77.34812420001253,77.34812420001253,77.34812420001253,77.34812420001253,77.34812420001253,77.34812420001253,23,0,,,77.34812420001253,77.55035229999339,1000,77.55035229999339,1000,1000,1000,1000,0,num_3,0.6788265000213869,,22,6,2026-03-04_11h08.58.968,2026A_exp2,2022.2.4,59.72716629889714,
1,0,6.1,0.0,1,0,10,10,41,,,,,78.24893419997534,78.89973639999516,78.89973639999516,79.40084020001814,315,45,79.40084020001814,79.40084020001814,79.40084020001814,79.40084020001814,79.40084020001814,79.40084020001814,79.40084020001814,79.40084020001814,79.40084020001814,79.76726639998378,79.76726639998378,79.76726639998378,79.76726639998378,79.76726639998378,79.76726639998378,79.76726639998378,79.76726639998378,79.76726639998378,23,0,,,79.76726639998378,79.9801988999825,0.0,79.9801988999825,0,0.0,0,1,1000,num_1,0.6734173999866471,,22,6,2026-03-04_11h08.58.968,2026A_exp2,2022.2.4,59.72716629889714,
1000,1,4.9,4.9,0,0,11,11,6,,,,,80.68460620002588,81.33533010003157,81.33533010003157,81.82004720001714,45,45,81.82004720001714,81.82004720001714,81.82004720001714,81.82004720001714,81.82004720001714,81.82004720001714,81.82004720001714,81.82004720001714,81.82004720001714,82.18627970002126,82.18627970002126,82.18627970002126,82.18627970002126,82.18627970002126,82.18627970002126,82.18627970002126,82.18627970002126,82.18627970002126,23,0,,,82.18627970002126,82.38853840000229,1000,82.38853840000229,1000,1000,1000,1000,0,num_3,0.6570926000131294,,22,6,2026-03-04_11h08.58.968,2026A_exp2,2022.2.4,59.72716629889714,
1,0,0.0,0.0,1,0,12,12,60,,,,,83.0705609000288,83.72106549999444,83.72106549999444,84.22219360002782,45,45,84.22219360002782,84.22219360002782,84.22219360002782,84.22219360002782,84.22219360002782,84.22219360002782,84.22219360002782,84.22219360002782,84.22219360002782,84.5885966999922,84.5885966999922,84.5885966999922,84.5885966999922,84.5885966999922,84.5885966999922,84.5885966999922,84.5885966999922,84.5885966999922,23,0,,,84.5885966999922,84.78894030000083,0.0,84.78894030000083,0,0.0,0,1,1000,num_1,0.9135627999785356,,22,6,2026-03-04_11h08.58.968,2026A_exp2,2022.2.4,59.72716629889714,
0,0,6.1,0.0,0,0,13,13,65,,,,,85.7232207999914,86.37389799999073,86.37389799999073,86.8581656999886,45,45,86.8581656999886,86.8581656999886,86.8581656999886,86.8581656999886,86.8581656999886,86.8581656999886,86.8581656999886,86.8581656999886,86.8581656999886,87.2246817999985,87.2246817999985,87.2246817999985,87.2246817999985,87.2246817999985,87.2246817999985,87.2246817999985,87.2246817999985,87.2246817999985,23,0,,,87.2246817999985,87.42488830001093,0.0,87.42488830001093,0,0.0,0,1,1000,num_1,0.6453881000052206,,22,6,2026-03-04_11h08.58.968,2026A_exp2,2022.2.4,59.72716629889714,
1000,1,3.7,0.0,0,0,14,14,28,,,,,88.09231189999264,88.74289930000668,88.74289930000668,89.24403449997772,45,45,89.24403449997772,89.24403449997772,89.24403449997772,89.24403449997772,89.24403449997772,89.24403449997772,89.24403449997772,89.24403449997772,89.24403449997772,89.61036809999496,89.61036809999496,89.61036809999496,89.61036809999496,89.61036809999496,89.61036809999496,89.61036809999496,89.61036809999496,89.61036809999496,23,0,,,89.61036809999496,89.81289509998169,1000,89.81289509998169,1000,1000,1000,1000,0,num_3,0.577375499997288,,22,6,2026-03-04_11h08.58.968,2026A_exp2,2022.2.4,59.72716629889714,
1,0,3.7,0.0,1,0,15,15,73,,,,,90.4110222000163,91.06173700001091,91.06173700001091,91.5630128000048,45,45,91.5630128000048,91.5630128000048,91.5630128000048,91.5630128000048,91.5630128000048,91.5630128000048,91.5630128000048,91.5630128000048,91.5630128000048,91.92928709997796,91.92928709997796,91.92928709997796,91.92928709997796,91.92928709997796,91.92928709997796,91.92928709997796,91.92928709997796,91.92928709997796,23,0,,,91.92928709997796,92.12950290000299,0.0,92.12950290000299,0,0.0,0,1,1000,num_1,0.6928158000227995,,22,6,2026-03-04_11h08.58.968,2026A_exp2,2022.2.4,59.72716629889714,
1,0,0.0,0.0,0,0,16,16,87,,,,,92.84690669999691,93.48092870000983,93.48092870000983,93.9818858000217,45,45,93.9818858000217,93.9818858000217,93.9818858000217,93.9818858000217,93.9818858000217,93.9818858000217,93.9818858000217,93.9818858000217,93.9818858000217,94.34847070003161,94.34847070003161,94.34847070003161,94.34847070003161,94.34847070003161,94.34847070003161,94.34847070003161,94.34847070003161,94.34847070003161,23,0,,,94.34847070003161,94.54871519998414,0.0,94.54871519998414,1,0.0,0,0,1000,num_4,0.7295354999951087,,22,6,2026-03-04_11h08.58.968,2026A_exp2,2022.2.4,59.72716629889714,
1000,1,0.0,3.7,1,0,17,17,7,,,,,95.29940740001621,95.95002109999768,95.95002109999768,96.43454799999017,315,45,96.43454799999017,96.43454799999017,96.43454799999017,96.43454799999017,96.43454799999017,96.43454799999017,96.43454799999017,96.43454799999017,96.43454799999017,96.80101599998306,96.80101599998306,96.80101599998306,96.80101599998306,96.80101599998306,96.80101599998306,96.80101599998306,96.80101599998306,96.80101599998306,23,0,,,96.80101599998306,97.00296780001372,1000,97.00296780001372,1000,1000,1000,1000,0,num_3,0.9788901999709196,,22,6,2026-03-04_11h08.58.968,2026A_exp2,2022.2.4,59.72716629889714,
1000,1,3.7,3.7,0,0,18,18,76,,,,,98.00210009998409,98.65273149998393,98.65273149998393,99.15390189999016,45,45,99.15390189999016,99.15390189999016,99.15390189999016,99.15390189999016,99.15390189999016,99.15390189999016,99.15390189999016,99.15390189999016,99.15390189999016,99.52022280002711,99.52022280002711,99.52022280002711,99.52022280002711,99.52022280002711,99.52022280002711,99.52022280002711,99.52022280002711,99.52022280002711,23,0,,,99.52022280002711,99.72225579997757,1000,99.72225579997757,1000,1000,1000,1000,0,num_3,0.5390122000244446,,22,6,2026-03-04_11h08.58.968,2026A_exp2,2022.2.4,59.72716629889714,
1000,1,4.9,4.9,1,0,19,19,67,,,,,100.28772550000576,100.93833829998039,100.93833829998039,101.43954920000397,45,45,101.43954920000397,101.43954920000397,101.43954920000397,101.43954920000397,101.43954920000397,101.43954920000397,101.43954920000397,101.43954920000397,101.43954920000397,101.8056196999969,101.8056196999969,101.8056196999969,101.8056196999969,101.8056196999969,101.8056196999969,101.8056196999969,101.8056196999969,101.8056196999969,23,0,,,101.8056196999969,102.00804320001043,1000,102.00804320001043,1000,1000,1000,1000,0,num_3,0.5091738000046462,,22,6,2026-03-04_11h08.58.968,2026A_exp2,2022.2.4,59.72716629889714,
1000,1,0.0,3.7,1,0,20,20,81,,,,,102.53994430002058,103.19053660001373,103.19053660001373,103.69169250002597,315,315,103.69169250002597,103.69169250002597,103.69169250002597,103.69169250002597,103.69169250002597,103.69169250002597,103.69169250002597,103.69169250002597,103.69169250002597,104.041520400031,104.041520400031,104.041520400031,104.041520400031,104.041520400031,104.041520400031,104.041520400031,104.041520400031,104.041520400031,22,0,,,104.041520400031,104.24399089999497,1000,104.24399089999497,1000,1000,1000,1000,1,num_2,1.161000200023409,,22,6,2026-03-04_11h08.58.968,2026A_exp2,2022.2.4,59.72716629889714,
0,0,0.0,0.0,0,0,21,21,10,,,,,105.42626670002937,106.07650399999693,106.07650399999693,106.57801190001192,45,45,106.57801190001192,106.57801190001192,106.57801190001192,106.57801190001192,106.57801190001192,106.57801190001192,106.57801190001192,106.57801190001192,106.57801190001192,106.92770000000019,106.92770000000019,106.92770000000019,106.92770000000019,106.92770000000019,106.92770000000019,106.92770000000019,106.92770000000019,106.92770000000019,22,0,,,106.92770000000019,107.1278843000182,0.0,107.14461419999134,0,0.0,0,1,1000,num_1,0.8051146999932826,,22,6,2026-03-04_11h08.58.968,2026A_exp2,2022.2.4,59.72716629889714,
1000,1,0.0,0.0,1,0,22,22,63,,,,,107.97874009999214,108.6292214000132,108.6292214000132,109.11376620002557,45,45,109.11376620002557,109.11376620002557,109.11376620002557,109.11376620002557,109.11376620002557,109.11376620002557,109.11376620002557,109.11376620002557,109.11376620002557,109.48017809999874,109.48017809999874,109.48017809999874,109.48017809999874,109.48017809999874,109.48017809999874,109.48017809999874,109.48017809999874,109.48017809999874,23,0,,,109.48017809999874,109.68212610000046,1000,109.68212610000046,1000,1000,1000,1000,0,num_3,0.4668540999991819,,22,6,2026-03-04_11h08.58.968,2026A_exp2,2022.2.4,59.72716629889714,
1,0,6.1,3.7,1,0,23,23,45,,,,,110.1642467000056,110.81497589999344,110.81497589999344,111.31592199997976,315,315,111.31592199997976,111.31592199997976,111.31592199997976,111.31592199997976,111.31592199997976,111.31592199997976,111.31592199997976,111.31592199997976,111.31592199997976,111.68254080001498,111.68254080001498,111.68254080001498,111.68254080001498,111.68254080001498,111.68254080001498,111.68254080001498,111.68254080001498,111.68254080001498,20,2,"[0.0013098000199534, 0.06683250004425645]","[0.03343390004010871, 0.08348970004590228]",111.68254080001498,111.88262480002595,3.7,111.88262480002595,0,3.7,1,0,1000,num_1,0.7471614999813028,,22,6,2026-03-04_11h08.58.968,2026A_exp2,2022.2.4,59.72716629889714,
1,0,4.9,4.9,1,0,24,24,32,,,,,112.65002699999604,113.30067460000282,113.30067460000282,113.78509489999851,315,315,113.78509489999851,113.78509489999851,113.78509489999851,113.78509489999851,113.78509489999851,113.78509489999851,113.78509489999851,113.78509489999851,113.78509489999851,114.15163849998498,114.15163849998498,114.15163849998498,114.15163849998498,114.15163849998498,114.15163849998498,114.15163849998498,114.15163849998498,114.15163849998498,23,0,,,114.15163849998498,114.35183420003159,4.9,114.35183420003159,1,4.9,1,1,1000,num_4,1.5021851999918,,22,6,2026-03-04_11h08.58.968,2026A_exp2,2022.2.4,59.72716629889714,
1,0,4.9,0.0,0,0,25,25,57,,,,,115.86997100000735,116.52068970003165,116.52068970003165,117.00496619998012,45,315,117.00496619998012,117.00496619998012,117.00496619998012,117.00496619998012,117.00496619998012,117.00496619998012,117.00496619998012,117.00496619998012,117.00496619998012,117.37141710001742,117.37141710001742,117.37141710001742,117.37141710001742,117.37141710001742,117.37141710001742,117.37141710001742,117.37141710001742,117.37141710001742,23,0,,,117.37141710001742,117.57168880000245,4.9,117.57168880000245,1,4.9,1,1,1000,num_4,0.8900600999477319,,22,6,2026-03-04_11h08.58.968,2026A_exp2,2022.2.4,59.72716629889714,
1000,1,4.9,0.0,0,0,26,26,82,,,,,118.4892771000159,119.13998550001998,119.13998550001998,119.62440470000729,315,45,119.62440470000729,119.62440470000729,119.62440470000729,119.62440470000729,119.62440470000729,119.62440470000729,119.62440470000729,119.62440470000729,119.62440470000729,119.99065160000464,119.99065160000464,119.99065160000464,119.99065160000464,119.99065160000464,119.99065160000464,119.99065160000464,119.99065160000464,119.99065160000464,23,0,,,119.99065160000464,120.19318010000279,1000,120.19318010000279,1000,1000,1000,1000,0,num_3,0.9161735000088811,,22,6,2026-03-04_11h08.58.968,2026A_exp2,2022.2.4,59.72716629889714,
1000,1,0.0,6.1,1,0,27,27,40,,,,,121.12520920002135,121.7759874999756,121.7759874999756,122.27709450002294,45,45,122.27709450002294,122.27709450002294,122.27709450002294,122.27709450002294,122.27709450002294,122.27709450002294,122.27709450002294,122.27709450002294,122.27709450002294,122.62679050001316,122.62679050001316,122.62679050001316,122.62679050001316,122.62679050001316,122.62679050001316,122.62679050001316,122.62679050001316,122.62679050001316,22,0,,,122.62679050001316,122.82787049998296,1000,122.84385290002683,1000,1000,1000,1000,1,num_2,0.4656773000024259,,22,6,2026-03-04_11h08.58.968,2026A_exp2,2022.2.4,59.72716629889714,
1000,1,3.7,3.7,1,0,28,28,25,,,,,123.32732630003011,123.97807860001922,123.97807860001922,124.47910870000487,45,315,124.47910870000487,124.47910870000487,124.47910870000487,124.47910870000487,124.47910870000487,124.47910870000487,124.47910870000487,124.47910870000487,124.47910870000487,124.82901180000044,124.82901180000044,124.82901180000044,124.82901180000044,124.82901180000044,124.82901180000044,124.82901180000044,124.82901180000044,124.82901180000044,22,0,,,124.82901180000044,125.03129610000178,1000,125.03129610000178,1000,1000,1000,1000,1,num_2,0.518461900006514,,22,6,2026-03-04_11h08.58.968,2026A_exp2,2022.2.4,59.72716629889714,
1,0,0.0,0.0,1,0,29,29,56,,,,,125.57977850001771,126.23026640003081,126.23026640003081,126.71472910000011,45,45,126.71472910000011,126.71472910000011,126.71472910000011,126.71472910000011,126.71472910000011,126.71472910000011,126.71472910000011,126.71472910000011,126.71472910000011,127.08126230002381,127.08126230002381,127.08126230002381,127.08126230002381,127.08126230002381,127.08126230002381,127.08126230002381,127.08126230002381,127.08126230002381,23,0,,,127.08126230002381,127.28146600001492,0.0,127.28146600001492,0,0.0,0,1,1000,num_1,1.587493600032758,,22,6,2026-03-04_11h08.58.968,2026A_exp2,2022.2.4,59.72716629889714,
0,0,0.0,6.1,0,0,30,30,30,,,,,128.89950659999158,129.55037020001328,129.55037020001328,130.0513735000277,315,45,130.0513735000277,130.0513735000277,130.0513735000277,130.0513735000277,130.0513735000277,130.0513735000277,130.0513735000277,130.0513735000277,130.0513735000277,130.40105330001097,130.40105330001097,130.40105330001097,130.40105330001097,130.40105330001097,130.40105330001097,130.40105330001097,130.40105330001097,130.40105330001097,22,0,,,130.40105330001097,130.60126949998084,6.1,130.60126949998084,1,6.1,1,1,1000,num_4,1.3478334000101313,,22,6,2026-03-04_11h08.58.968,2026A_exp2,2022.2.4,59.72716629889714,
1000,1,0.0,0.0,1,0,31,31,37,,,,,131.9694548000116,132.6201719000237,132.6201719000237,133.10439360002056,45,315,133.10439360002056,133.10439360002056,133.10439360002056,133.10439360002056,133.10439360002056,133.10439360002056,133.10439360002056,133.10439360002056,133.10439360002056,133.47088779998012,133.47088779998012,133.47088779998012,133.47088779998012,133.47088779998012,133.47088779998012,133.47088779998012,133.47088779998012,133.47088779998012,23,0,,,133.47088779998012,133.6728353999788,1000,133.6728353999788,1000,1000,1000,1000,1,num_2,1.596809500013478,,22,6,2026-03-04_11h08.58.968,2026A_exp2,2022.2.4,59.72716629889714,
1000,1,0.0,3.7,1,0,32,32,86,,,,,135.28936460003024,135.9401835000026,135.9401835000026,136.4411025000154,45,45,136.4411025000154,136.4411025000154,136.4411025000154,136.4411025000154,136.4411025000154,136.4411025000154,136.4411025000154,136.4411025000154,136.4411025000154,136.80748080002377,136.80748080002377,136.80748080002377,136.80748080002377,136.80748080002377,136.80748080002377,136.80748080002377,136.80748080002377,136.80748080002377,23,0,,,136.80748080002377,137.00992390001193,1000,137.00992390001193,1000,1000,1000,1000,0,num_3,0.9633082000073045,,22,6,2026-03-04_11h08.58.968,2026A_exp2,2022.2.4,59.72716629889714,
1000,1,0.0,0.0,1,0,33,33,80,,,,,137.9920201000059,138.64276760001667,138.64276760001667,139.12714789999882,315,315,139.12714789999882,139.12714789999882,139.12714789999882,139.12714789999882,139.12714789999882,139.12714789999882,139.12714789999882,139.12714789999882,139.12714789999882,139.4936656000209,139.4936656000209,139.4936656000209,139.4936656000209,139.4936656000209,139.4936656000209,139.4936656000209,139.4936656000209,139.4936656000209,23,0,,,139.4936656000209,139.69616029999452,1000,139.69616029999452,1000,1000,1000,1000,0,num_3,0.7571217999793589,,22,6,2026-03-04_11h08.58.968,2026A_exp2,2022.2.4,59.72716629889714,
0,0,3.7,0.0,0,0,34,34,16,,,,,140.4778639000142,141.12866779998876,141.12866779998876,141.62958120001713,45,45,141.62958120001713,141.62958120001713,141.62958120001713,141.62958120001713,141.62958120001713,141.62958120001713,141.62958120001713,141.62958120001713,141.62958120001713,141.99613779998617,141.99613779998617,141.99613779998617,141.99613779998617,141.99613779998617,141.99613779998617,141.99613779998617,141.99613779998617,141.99613779998617,23,0,,,141.99613779998617,142.19633130001603,0.0,142.19633130001603,1,0.0,0,0,1000,num_4,1.8979091999935918,,22,6,2026-03-04_11h08.58.968,2026A_exp2,2022.2.4,59.72716629889714,
1000,1,4.9,3.7,1,0,35,35,46,,,,,144.11482170003,144.7655636999989,144.7655636999989,145.24992460000794,315,45,145.24992460000794,145.24992460000794,145.24992460000794,145.24992460000794,145.24992460000794,145.24992460000794,145.24992460000794,145.24992460000794,145.24992460000794,145.61629819998052,145.61629819998052,145.61629819998052,145.61629819998052,145.61629819998052,145.61629819998052,145.61629819998052,145.61629819998052,145.61629819998052,23,0,,,145.61629819998052,145.81879470002605,1000,145.81879470002605,1000,1000,1000,1000,0,num_3,1.3708016999880783,,22,6,2026-03-04_11h08.58.968,2026A_exp2,2022.2.4,59.72716629889714,
1,0,3.7,0.0,1,0,36,36,55,,,,,147.21791230002418,147.86859219998587,147.86859219998587,148.3699124000268,45,45,148.3699124000268,148.3699124000268,148.3699124000268,148.3699124000268,148.3699124000268,148.3699124000268,148.3699124000268,148.3699124000268,148.3699124000268,148.7361376999761,148.7361376999761,148.7361376999761,148.7361376999761,148.7361376999761,148.7361376999761,148.7361376999761,148.7361376999761,148.7361376999761,23,0,,,148.7361376999761,148.9363680999959,0.0,148.9363680999959,0,0.0,0,1,1000,num_1,0.7577593000023626,,22,6,2026-03-04_11h08.58.968,2026A_exp2,2022.2.4,59.72716629889714,
1,0,4.9,0.0,1,0,37,37,52,,,,,149.72042700002203,150.37105630000588,150.37105630000588,150.85563669999829,45,315,150.85563669999829,150.85563669999829,150.85563669999829,150.85563669999829,150.85563669999829,150.85563669999829,150.85563669999829,150.85563669999829,150.85563669999829,151.22200900001917,151.22200900001917,151.22200900001917,151.22200900001917,151.22200900001917,151.22200900001917,151.22200900001917,151.22200900001917,151.22200900001917,23,0,,,151.22200900001917,151.42222629999742,0.0,151.42222629999742,1,0.0,0,0,1000,num_4,0.983822499983944,,22,6,2026-03-04_11h08.58.968,2026A_exp2,2022.2.4,59.72716629889714,
0,0,4.9,6.1,0,0,38,38,1,,,,,152.4230460000108,153.07393760001287,153.07393760001287,153.5582905000192,45,315,153.5582905000192,153.5582905000192,153.5582905000192,153.5582905000192,153.5582905000192,153.5582905000192,153.5582905000192,153.5582905000192,153.5582905000192,153.9247315999819,153.9247315999819,153.9247315999819,153.9247315999819,153.9247315999819,153.9247315999819,153.9247315999819,153.9247315999819,153.9247315999819,23,0,,,153.9247315999819,154.12480140000116,6.1,154.12480140000116,1,6.1,1,1,1000,num_4,0.7205739000346512,,22,6,2026-03-04_11h08.58.968,2026A_exp2,2022.2.4,59.72716629889714,
1,0,0.0,6.1,1,0,39,39,39,,,,,154.87553110002773,155.5261999000213,155.5261999000213,156.01063789997716,315,315,156.01063789997716,156.01063789997716,156.01063789997716,156.01063789997716,156.01063789997716,156.01063789997716,156.01063789997716,156.01063789997716,156.01063789997716,156.3773353000288,156.3773353000288,156.3773353000288,156.3773353000288,156.3773353000288,156.3773353000288,156.3773353000288,156.3773353000288,156.3773353000288,23,0,,,156.3773353000288,156.57740000000922,6.1,156.57740000000922,1,6.1,1,1,1000,num_4,0.5563300999929197,,22,6,2026-03-04_11h08.58.968,2026A_exp2,2022.2.4,59.72716629889714,
0,0,4.9,3.7,1,0,40,40,13,,,,,157.16132299997844,157.81206730002305,157.81206730002305,158.29634110000916,315,45,158.29634110000916,158.29634110000916,158.29634110000916,158.29634110000916,158.29634110000916,158.29634110000916,158.29634110000916,158.29634110000916,158.29634110000916,158.6626531999791,158.6626531999791,158.6626531999791,158.6626531999791,158.6626531999791,158.6626531999791,158.6626531999791,158.6626531999791,158.6626531999791,23,0,,,158.6626531999791,158.86298380000517,4.9,158.86298380000517,0,4.9,1,0,1000,num_1,0.7754087999928743,,22,6,2026-03-04_11h08.58.968,2026A_exp2,2022.2.4,59.72716629889714,
1000,1,3.7,0.0,1,0,41,41,54,,,,,159.66385740000987,160.31425659998786,160.31425659998786,160.79888339998433,45,315,160.79888339998433,160.79888339998433,160.79888339998433,160.79888339998433,160.79888339998433,160.79888339998433,160.79888339998433,160.79888339998433,160.79888339998433,161.1652190000168,161.1652190000168,161.1652190000168,161.1652190000168,161.1652190000168,161.1652190000168,161.1652190000168,161.1652190000168,161.1652190000168,23,0,,,161.1652190000168,161.36754830001155,1000,161.36754830001155,1000,1000,1000,1000,0,num_3,0.5582413999945857,,22,6,2026-03-04_11h08.58.968,2026A_exp2,2022.2.4,59.72716629889714,
1,0,0.0,4.9,0,0,42,42,9,,,,,161.94929489999777,162.60008820000803,162.60008820000803,163.1012510000146,45,45,163.1012510000146,163.1012510000146,163.1012510000146,163.1012510000146,163.1012510000146,163.1012510000146,163.1012510000146,163.1012510000146,163.1012510000146,163.4675468999776,163.4675468999776,163.4675468999776,163.4675468999776,163.4675468999776,163.4675468999776,163.4675468999776,163.4675468999776,163.4675468999776,23,0,,,163.4675468999776,163.66777559998445,0.0,163.66777559998445,1,0.0,0,0,1000,num_4,0.9378813999937847,,22,6,2026-03-04_11h08.58.968,2026A_exp2,2022.2.4,59.72716629889714,
1000,1,4.9,6.1,0,0,43,43,35,,,,,164.63556700001936,165.28598530002637,165.28598530002637,165.7703614999773,45,315,165.7703614999773,165.7703614999773,165.7703614999773,165.7703614999773,165.7703614999773,165.7703614999773,165.7703614999773,165.7703614999773,165.7703614999773,166.13691629999084,166.13691629999084,166.13691629999084,166.13691629999084,166.13691629999084,166.13691629999084,166.13691629999084,166.13691629999084,166.13691629999084,23,0,,,166.13691629999084,166.33907909999834,1000,166.33907909999834,1000,1000,1000,1000,1,num_2,0.4822917999699712,,22,6,2026-03-04_11h08.58.968,2026A_exp2,2022.2.4,59.72716629889714,
1000,1,0.0,0.0,0,0,44,44,33,,,,,166.83763929997804,167.4882611000212,167.4882611000212,167.98944149998715,315,45,167.98944149998715,167.98944149998715,167.98944149998715,167.98944149998715,167.98944149998715,167.98944149998715,167.98944149998715,167.98944149998715,167.98944149998715,168.35570620000362,168.35570620000362,168.35570620000362,168.35570620000362,168.35570620000362,168.35570620000362,168.35570620000362,168.35570620000362,168.35570620000362,23,0,,,168.35570620000362,168.55796910001663,1000,168.55796910001663,1000,1000,1000,1000,1,num_2,1.1277961999876425,,22,6,2026-03-04_11h08.58.968,2026A_exp2,2022.2.4,59.72716629889714,
1,0,3.7,6.1,0,0,45,45,74,,,,,169.707432300027,170.35780390002765,170.35780390002765,170.85898219997762,315,45,170.85898219997762,170.85898219997762,170.85898219997762,170.85898219997762,170.85898219997762,170.85898219997762,170.85898219997762,170.85898219997762,170.85898219997762,171.20878340001218,171.20878340001218,171.20878340001218,171.20878340001218,171.20878340001218,171.20878340001218,171.20878340001218,171.20878340001218,171.20878340001218,22,0,,,171.20878340001218,171.40870450000511,3.7,171.40870450000511,0,3.7,1,0,1000,num_1,0.9002978000207804,,22,6,2026-03-04_11h08.58.968,2026A_exp2,2022.2.4,59.72716629889714,
1,0,6.1,0.0,1,0,46,46,23,,,,,172.3265265999944,172.97705929999938,172.97705929999938,173.46141470002476,45,45,173.46141470002476,173.46141470002476,173.46141470002476,173.46141470002476,173.46141470002476,173.46141470002476,173.46141470002476,173.46141470002476,173.46141470002476,173.82797610003036,173.82797610003036,173.82797610003036,173.82797610003036,173.82797610003036,173.82797610003036,173.82797610003036,173.82797610003036,173.82797610003036,23,0,,,173.82797610003036,174.02815700002247,0.0,174.02815700002247,0,0.0,0,1,1000,num_1,0.9941261999774724,,22,6,2026-03-04_11h08.58.968,2026A_exp2,2022.2.4,59.72716629889714,
1000,1,0.0,4.9,0,0,47,47,50,,,,,175.04573469999013,175.6963759000064,175.6963759000064,176.1809632999939,315,45,176.1809632999939,176.1809632999939,176.1809632999939,176.1809632999939,176.1809632999939,176.1809632999939,176.1809632999939,176.1809632999939,176.1809632999939,176.54729740001494,176.54729740001494,176.54729740001494,176.54729740001494,176.54729740001494,176.54729740001494,176.54729740001494,176.54729740001494,176.54729740001494,23,0,,,176.54729740001494,176.74945519998437,1000,176.74945519998437,1000,1000,1000,1000,1,num_2,0.5767711999942549,,22,6,2026-03-04_11h08.58.968,2026A_exp2,2022.2.4,59.72716629889714,
1000,1,0.0,3.7,0,0,48,48,18,,,,,177.3481463000062,177.9986704000039,177.9986704000039,178.49993990000803,45,315,178.49993990000803,178.49993990000803,178.49993990000803,178.49993990000803,178.49993990000803,178.49993990000803,178.49993990000803,178.49993990000803,178.49993990000803,178.86620520002907,178.86620520002907,178.86620520002907,178.86620520002907,178.86620520002907,178.86620520002907,178.86620520002907,178.86620520002907,178.86620520002907,23,0,,,178.86620520002907,179.06847820000257,1000,179.06847820000257,1000,1000,1000,1000,1,num_2,0.5057346999528818,,22,6,2026-03-04_11h08.58.968,2026A_exp2,2022.2.4,59.72716629889714,
1,0,6.1,0.0,1,0,49,49,29,,,,,179.6002513000276,180.25109400000656,180.25109400000656,180.75218349997886,315,315,180.75218349997886,180.75218349997886,180.75218349997886,180.75218349997886,180.75218349997886,180.75218349997886,180.75218349997886,180.75218349997886,180.75218349997886,181.10156809998443,181.10156809998443,181.10156809998443,181.10156809998443,181.10156809998443,181.10156809998443,181.10156809998443,181.10156809998443,181.10156809998443,22,0,,,181.10156809998443,181.3021054000128,0.0,181.3187210999895,1,0.0,0,0,1000,num_4,2.063629399985075,,22,6,2026-03-04_11h08.58.968,2026A_exp2,2022.2.4,59.72716629889714,
1,0,0.0,0.0,0,0,50,50,75,,,,,183.4040503000142,184.05450979998568,184.05450979998568,184.5393150000018,315,315,184.5393150000018,184.5393150000018,184.5393150000018,184.5393150000018,184.5393150000018,184.5393150000018,184.5393150000018,184.5393150000018,184.5393150000018,184.90574980003294,184.90574980003294,184.90574980003294,184.90574980003294,184.90574980003294,184.90574980003294,184.90574980003294,184.90574980003294,184.90574980003294,23,0,,,184.90574980003294,185.10595639998792,0.0,185.10595639998792,1,0.0,0,0,1000,num_4,1.7313687999849208,,22,6,2026-03-04_11h08.58.968,2026A_exp2,2022.2.4,59.72716629889714,
1,0,3.7,3.7,1,0,51,51,11,,,,,186.8575757999788,187.50814659998287,187.50814659998287,187.99264040001435,315,45,187.99264040001435,187.99264040001435,187.99264040001435,187.99264040001435,187.99264040001435,187.99264040001435,187.99264040001435,187.99264040001435,187.99264040001435,188.35911439999472,188.35911439999472,188.35911439999472,188.35911439999472,188.35911439999472,188.35911439999472,188.35911439999472,188.35911439999472,188.35911439999472,23,0,,,188.35911439999472,188.55928180000046,3.7,188.55928180000046,1,3.7,1,1,1000,num_4,0.8146925999899395,,22,6,2026-03-04_11h08.58.968,2026A_exp2,2022.2.4,59.72716629889714,
1,0,0.0,0.0,1,0,52,52,77,,,,,189.39341229997808,190.04403879999882,190.04403879999882,190.52865579997888,45,45,190.52865579997888,190.52865579997888,190.52865579997888,190.52865579997888,190.52865579997888,190.52865579997888,190.52865579997888,190.52865579997888,190.52865579997888,190.89503720001085,190.89503720001085,190.89503720001085,190.89503720001085,190.89503720001085,190.89503720001085,190.89503720001085,190.89503720001085,190.89503720001085,23,0,,,190.89503720001085,191.09528409998165,0.0,191.09528409998165,0,0.0,0,1,1000,num_1,1.3177126999944448,,22,6,2026-03-04_11h08.58.968,2026A_exp2,2022.2.4,59.72716629889714,
1,0,0.0,0.0,1,0,53,53,66,,,,,192.42988760001026,193.08057350001764,193.08057350001764,193.56502550002187,315,45,193.56502550002187,193.56502550002187,193.56502550002187,193.56502550002187,193.56502550002187,193.56502550002187,193.56502550002187,193.56502550002187,193.56502550002187,193.93140719999792,193.93140719999792,193.93140719999792,193.93140719999792,193.93140719999792,193.93140719999792,193.93140719999792,193.93140719999792,193.93140719999792,23,0,,,193.93140719999792,194.13163620000705,0.0,194.13163620000705,0,0.0,0,1,1000,num_1,0.6666721000219695,,22,6,2026-03-04_11h08.58.968,2026A_exp2,2022.2.4,59.72716629889714,
1,0,0.0,0.0,1,0,54,54,68,,,,,194.81720150000183,195.46632639999734,195.46632639999734,195.96738510002615,315,45,195.96738510002615,195.96738510002615,195.96738510002615,195.96738510002615,195.96738510002615,195.96738510002615,195.96738510002615,195.96738510002615,195.96738510002615,196.33394550002413,196.33394550002413,196.33394550002413,196.33394550002413,196.33394550002413,196.33394550002413,196.33394550002413,196.33394550002413,196.33394550002413,23,0,,,196.33394550002413,196.5378386999946,0.0,196.5378386999946,1,0.0,0,0,1000,num_4,0.64403530000709,,22,6,2026-03-04_11h08.58.968,2026A_exp2,2022.2.4,59.72716629889714,
1000,1,6.1,0.0,1,0,55,55,61,,,,,197.20106819999637,197.85181900003226,197.85181900003226,198.3362772000255,45,315,198.3362772000255,198.3362772000255,198.3362772000255,198.3362772000255,198.3362772000255,198.3362772000255,198.3362772000255,198.3362772000255,198.3362772000255,198.7028081000317,198.7028081000317,198.7028081000317,198.7028081000317,198.7028081000317,198.7028081000317,198.7028081000317,198.7028081000317,198.7028081000317,23,0,,,198.7028081000317,198.90501839999342,1000,198.90501839999342,1000,1000,1000,1000,0,num_3,1.3246029000147246,,22,6,2026-03-04_11h08.58.968,2026A_exp2,2022.2.4,59.72716629889714,
1,0,4.9,0.0,0,0,56,56,47,,,,,200.2541558999801,200.90492439997615,200.90492439997615,201.40613730001496,315,315,201.40613730001496,201.40613730001496,201.40613730001496,201.40613730001496,201.40613730001496,201.40613730001496,201.40613730001496,201.40613730001496,201.40613730001496,201.7556969000143,201.7556969000143,201.7556969000143,201.7556969000143,201.7556969000143,201.7556969000143,201.7556969000143,201.7556969000143,201.7556969000143,22,0,,,201.7556969000143,201.9560982999974,4.9,201.97277039999608,1,4.9,1,1,1000,num_4,1.504610900010448,,22,6,2026-03-04_11h08.58.968,2026A_exp2,2022.2.4,59.72716629889714,
1,0,0.0,6.1,1,0,57,57,17,,,,,203.50746749999234,204.15819759998703,204.15819759998703,204.64261570002418,45,45,204.64261570002418,204.64261570002418,204.64261570002418,204.64261570002418,204.64261570002418,204.64261570002418,204.64261570002418,204.64261570002418,204.64261570002418,205.00912330002757,205.00912330002757,205.00912330002757,205.00912330002757,205.00912330002757,205.00912330002757,205.00912330002757,205.00912330002757,205.00912330002757,23,0,,,205.00912330002757,205.20935269998154,6.1,205.20935269998154,1,6.1,1,1,1000,num_4,1.2277047999668866,,22,6,2026-03-04_11h08.58.968,2026A_exp2,2022.2.4,59.72716629889714,
1,0,0.0,4.9,0,0,58,58,48,,,,,206.46057150000706,207.09456840000348,207.09456840000348,207.59560030000284,315,315,207.59560030000284,207.59560030000284,207.59560030000284,207.59560030000284,207.59560030000284,207.59560030000284,207.59560030000284,207.59560030000284,207.59560030000284,207.96196089999285,207.96196089999285,207.96196089999285,207.96196089999285,207.96196089999285,207.96196089999285,207.96196089999285,207.96196089999285,207.96196089999285,23,0,,,207.96196089999285,208.16220989997964,0.0,208.16220989997964,1,0.0,0,0,1000,num_4,1.1868286000099033,,22,6,2026-03-04_11h08.58.968,2026A_exp2,2022.2.4,59.72716629889714,
1000,1,6.1,3.7,0,0,59,59,43,,,,,209.38002839998808,210.03086250001797,210.03086250001797,210.53184359997977,315,315,210.53184359997977,210.53184359997977,210.53184359997977,210.53184359997977,210.53184359997977,210.53184359997977,210.53184359997977,210.53184359997977,210.53184359997977,210.8984691000078,210.8984691000078,210.8984691000078,210.8984691000078,210.8984691000078,210.8984691000078,210.8984691000078,210.8984691000078,210.8984691000078,23,0,,,210.8984691000078,211.10059869999532,1000,211.10059869999532,1000,1000,1000,1000,0,num_3,0.5368594999890774,,22,6,2026-03-04_11h08.58.968,2026A_exp2,2022.2.4,59.72716629889714,
1000,1,4.9,3.7,0,0,60,60,26,,,,,211.6657310000155,212.3164729999844,212.3164729999844,212.81746739998925,315,315,212.81746739998925,212.81746739998925,212.81746739998925,212.81746739998925,212.81746739998925,212.81746739998925,212.81746739998925,212.81746739998925,212.81746739998925,213.1838579000323,213.1838579000323,213.1838579000323,213.1838579000323,213.1838579000323,213.1838579000323,213.1838579000323,213.1838579000323,213.1838579000323,23,0,,,213.1838579000323,213.3862346999813,1000,213.3862346999813,1000,1000,1000,1000,0,num_3,0.6671825000084937,,22,6,2026-03-04_11h08.58.968,2026A_exp2,2022.2.4,59.72716629889714,
1,0,0.0,0.0,1,0,61,61,24,,,,,214.08497460000217,214.735543399991,214.735543399991,215.2365237000049,315,315,215.2365237000049,215.2365237000049,215.2365237000049,215.2365237000049,215.2365237000049,215.2365237000049,215.2365237000049,215.2365237000049,215.2365237000049,215.5862089000293,215.5862089000293,215.5862089000293,215.5862089000293,215.5862089000293,215.5862089000293,215.5862089000293,215.5862089000293,215.5862089000293,22,0,,,215.5862089000293,215.78642630000832,0.0,215.80327129998477,1,0.0,0,0,1000,num_4,1.1058831000118516,,22,6,2026-03-04_11h08.58.968,2026A_exp2,2022.2.4,59.72716629889714,
1,0,0.0,6.1,0,0,62,62,3,,,,,216.93760000000475,217.57178420003038,217.57178420003038,218.07270930003142,315,45,218.07270930003142,218.07270930003142,218.07270930003142,218.07270930003142,218.07270930003142,218.07270930003142,218.07270930003142,218.07270930003142,218.07270930003142,218.4392239000299,218.4392239000299,218.4392239000299,218.4392239000299,218.4392239000299,218.4392239000299,218.4392239000299,218.4392239000299,218.4392239000299,23,0,,,218.4392239000299,218.63930300000357,0.0,218.63930300000357,0,0.0,0,1,1000,num_1,1.213927899952978,,22,6,2026-03-04_11h08.58.968,2026A_exp2,2022.2.4,59.72716629889714,
1,0,4.9,0.0,0,0,63,63,14,,,,,219.87384230003227,220.50801709998632,220.50801709998632,221.00900740001816,315,315,221.00900740001816,221.00900740001816,221.00900740001816,221.00900740001816,221.00900740001816,221.00900740001816,221.00900740001816,221.00900740001816,221.00900740001816,221.37550680001732,221.37550680001732,221.37550680001732,221.37550680001732,221.37550680001732,221.37550680001732,221.37550680001732,221.37550680001732,221.37550680001732,23,0,,,221.37550680001732,221.57575989997713,4.9,221.57575989997713,1,4.9,1,1,1000,num_4,0.8303289000177756,,22,6,2026-03-04_11h08.58.968,2026A_exp2,2022.2.4,59.72716629889714,
1,0,0.0,0.0,0,0,64,64,64,,,,,222.42639490001602,223.06039539998164,223.06039539998164,223.5617075000191,315,315,223.5617075000191,223.5617075000191,223.5617075000191,223.5617075000191,223.5617075000191,223.5617075000191,223.5617075000191,223.5617075000191,223.5617075000191,223.92801319999853,223.92801319999853,223.92801319999853,223.92801319999853,223.92801319999853,223.92801319999853,223.92801319999853,223.92801319999853,223.92801319999853,23,0,,,223.92801319999853,224.1283010999905,0.0,224.1283010999905,1,0.0,0,0,1000,num_4,0.8851607999531552,,22,6,2026-03-04_11h08.58.968,2026A_exp2,2022.2.4,59.72716629889714,
1,0,6.1,3.7,0,0,65,65,79,,,,,225.02906510001048,225.67983300000196,225.67983300000196,226.1810762999812,45,315,226.1810762999812,226.1810762999812,226.1810762999812,226.1810762999812,226.1810762999812,226.1810762999812,226.1810762999812,226.1810762999812,226.1810762999812,226.53060820000246,226.53060820000246,226.53060820000246,226.53060820000246,226.53060820000246,226.53060820000246,226.53060820000246,226.53060820000246,226.53060820000246,22,0,,,226.53060820000246,226.73095519997878,6.1,226.73095519997878,1,6.1,1,1,1000,num_4,0.5231835999875329,,22,6,2026-03-04_11h08.58.968,2026A_exp2,2022.2.4,59.72716629889714,
1,0,0.0,0.0,0,0,66,66,31,,,,,227.2813455000287,227.93218250002246,227.93218250002246,228.4161815000116,45,315,228.4161815000116,228.4161815000116,228.4161815000116,228.4161815000116,228.4161815000116,228.4161815000116,228.4161815000116,228.4161815000116,228.4161815000116,228.78294850001112,228.78294850001112,228.78294850001112,228.78294850001112,228.78294850001112,228.78294850001112,228.78294850001112,228.78294850001112,228.78294850001112,23,0,,,228.78294850001112,228.98285979998764,0.0,228.98285979998764,1,0.0,0,0,1000,num_4,0.6064719000132754,,22,6,2026-03-04_11h08.58.968,2026A_exp2,2022.2.4,59.72716629889714,
1,0,6.1,0.0,0,0,67,67,22,,,,,229.61692060000496,230.26761270000134,230.26761270000134,230.75217039999552,315,45,230.75217039999552,230.75217039999552,230.75217039999552,230.75217039999552,230.75217039999552,230.75217039999552,230.75217039999552,230.75217039999552,230.75217039999552,231.1184436000185,231.1184436000185,231.1184436000185,231.1184436000185,231.1184436000185,231.1184436000185,231.1184436000185,231.1184436000185,231.1184436000185,23,0,,,231.1184436000185,231.31907339999452,6.1,231.31907339999452,1,6.1,1,1,1000,num_4,0.4462072000023909,,22,6,2026-03-04_11h08.58.968,2026A_exp2,2022.2.4,59.72716629889714,
1,0,0.0,3.7,1,0,68,68,83,,,,,231.78605270001572,232.43649140000343,232.43649140000343,232.92083509999793,45,45,232.92083509999793,232.92083509999793,232.92083509999793,232.92083509999793,232.92083509999793,232.92083509999793,232.92083509999793,232.92083509999793,232.92083509999793,233.28739349998068,233.28739349998068,233.28739349998068,233.28739349998068,233.28739349998068,233.28739349998068,233.28739349998068,233.28739349998068,233.28739349998068,23,0,,,233.28739349998068,233.48761700000614,3.7,233.48761700000614,0,3.7,1,0,1000,num_1,0.7426429999759421,,22,6,2026-03-04_11h08.58.968,2026A_exp2,2022.2.4,59.72716629889714,
1000,1,4.9,6.1,0,0,69,69,49,,,,,234.25499220000347,234.9057423999766,234.9057423999766,235.39002230000915,315,45,235.39002230000915,235.39002230000915,235.39002230000915,235.39002230000915,235.39002230000915,235.39002230000915,235.39002230000915,235.39002230000915,235.39002230000915,235.75641530001303,235.75641530001303,235.75641530001303,235.75641530001303,235.75641530001303,235.75641530001303,235.75641530001303,235.75641530001303,235.75641530001303,23,0,,,235.75641530001303,235.95875350001734,1000,235.95875350001734,1000,1000,1000,1000,0,num_3,0.5437344000092708,,22,6,2026-03-04_11h08.58.968,2026A_exp2,2022.2.4,59.72716629889714,
1,0,6.1,4.9,1,0,70,70,38,,,,,236.52390339999693,237.17457720002858,237.17457720002858,237.69136240001535,45,315,237.69136240001535,237.69136240001535,237.69136240001535,237.69136240001535,237.69136240001535,237.69136240001535,237.69136240001535,237.69136240001535,237.69136240001535,238.0256606999901,238.0256606999901,238.0256606999901,238.0256606999901,238.0256606999901,238.0256606999901,238.0256606999901,238.0256606999901,238.0256606999901,22,0,,,238.0256606999901,238.22559520002687,4.9,238.24225210002623,1,4.9,1,1,1000,num_4,0.6843073000200093,,22,6,2026-03-04_11h08.58.968,2026A_exp2,2022.2.4,59.72716629889714,
1,0,4.9,6.1,1,0,71,71,62,,,,,238.94336189999012,239.59359409997705,239.59359409997705,240.09488729998702,315,315,240.09488729998702,240.09488729998702,240.09488729998702,240.09488729998702,240.09488729998702,240.09488729998702,240.09488729998702,240.09488729998702,240.09488729998702,240.46123860002263,240.46123860002263,240.46123860002263,240.46123860002263,240.46123860002263,240.46123860002263,240.46123860002263,240.46123860002263,240.46123860002263,23,0,,,240.46123860002263,240.6613101999974,6.1,240.6613101999974,1,6.1,1,1,1000,num_4,0.5286921999650076,,22,6,2026-03-04_11h08.58.968,2026A_exp2,2022.2.4,59.72716629889714,
0,0,0.0,6.1,0,0,72,72,12,,,,,241.21194120001746,241.86258700001054,241.86258700001054,242.3471255999757,45,45,242.3471255999757,242.3471255999757,242.3471255999757,242.3471255999757,242.3471255999757,242.3471255999757,242.3471255999757,242.3471255999757,242.3471255999757,242.71339089999674,242.71339089999674,242.71339089999674,242.71339089999674,242.71339089999674,242.71339089999674,242.71339089999674,242.71339089999674,242.71339089999674,23,0,,,242.71339089999674,242.91358250001213,6.1,242.91358250001213,0,6.1,1,0,1000,num_1,0.7567832000204362,,22,6,2026-03-04_11h08.58.968,2026A_exp2,2022.2.4,59.72716629889714,
1,0,4.9,0.0,0,0,73,73,19,,,,,243.69772699999157,244.34840660000918,244.34840660000918,244.8329473999911,45,45,244.8329473999911,244.8329473999911,244.8329473999911,244.8329473999911,244.8329473999911,244.8329473999911,244.8329473999911,244.8329473999911,244.8329473999911,245.19934819999617,245.19934819999617,245.19934819999617,245.19934819999617,245.19934819999617,245.19934819999617,245.19934819999617,245.19934819999617,245.19934819999617,23,0,,,245.19934819999617,245.39959570002975,4.9,245.39959570002975,1,4.9,1,1,1000,num_4,0.7822247000294738,,22,6,2026-03-04_11h08.58.968,2026A_exp2,2022.2.4,59.72716629889714,
1,0,3.7,4.9,0,0,74,74,70,,,,,246.2001310000196,246.8510561999865,246.8510561999865,247.33542710001348,45,315,247.33542710001348,247.33542710001348,247.33542710001348,247.33542710001348,247.33542710001348,247.33542710001348,247.33542710001348,247.33542710001348,247.33542710001348,247.70181940001203,247.70181940001203,247.70181940001203,247.70181940001203,247.70181940001203,247.70181940001203,247.70181940001203,247.70181940001203,247.70181940001203,23,0,,,247.70181940001203,247.90199899999425,3.7,247.90199899999425,1,3.7,1,1,1000,num_4,0.6713680999819189,,22,6,2026-03-04_11h08.58.968,2026A_exp2,2022.2.4,59.72716629889714,
1000,1,0.0,0.0,1,0,75,75,78,,,,,248.60266640002374,249.2534338000114,249.2534338000114,249.73776940000243,315,315,249.73776940000243,249.73776940000243,249.73776940000243,249.73776940000243,249.73776940000243,249.73776940000243,249.73776940000243,249.73776940000243,249.73776940000243,250.10431929997867,250.10431929997867,250.10431929997867,250.10431929997867,250.10431929997867,250.10431929997867,250.10431929997867,250.10431929997867,250.10431929997867,23,0,,,250.10431929997867,250.306747500028,1000,250.306747500028,1000,1000,1000,1000,0,num_3,0.6024767000344582,,22,6,2026-03-04_11h08.58.968,2026A_exp2,2022.2.4,59.72716629889714,
1000,1,4.9,6.1,1,0,76,76,4,,,,,250.93831850000424,251.58896429999731,251.58896429999731,252.09000630001538,315,315,252.09000630001538,252.09000630001538,252.09000630001538,252.09000630001538,252.09000630001538,252.09000630001538,252.09000630001538,252.09000630001538,252.09000630001538,252.4564317999757,252.4564317999757,252.4564317999757,252.4564317999757,252.4564317999757,252.4564317999757,252.4564317999757,252.4564317999757,252.4564317999757,23,0,,,252.4564317999757,252.65913679997902,1000,252.65913679997902,1000,1000,1000,1000,1,num_2,0.45040419994620606,,22,6,2026-03-04_11h08.58.968,2026A_exp2,2022.2.4,59.72716629889714,
1000,1,0.0,3.7,0,0,77,77,21,,,,,253.14053309999872,253.79115449998062,253.79115449998062,254.29004779999377,315,45,254.29004779999377,254.29004779999377,254.29004779999377,254.29004779999377,254.29004779999377,254.29004779999377,254.29004779999377,254.29004779999377,254.29004779999377,254.64213019999443,254.64213019999443,254.64213019999443,254.64213019999443,254.64213019999443,254.64213019999443,254.64213019999443,254.64213019999443,254.64213019999443,23,0,,,254.64213019999443,254.8443765999982,1000,254.8443765999982,1000,1000,1000,1000,0,num_3,0.7209796999813989,,22,6,2026-03-04_11h08.58.968,2026A_exp2,2022.2.4,59.72716629889714,
1000,1,0.0,0.0,1,0,78,78,27,,,,,255.59296819998417,256.24359800003003,256.24359800003003,256.7448539999896,315,315,256.7448539999896,256.7448539999896,256.7448539999896,256.7448539999896,256.7448539999896,256.7448539999896,256.7448539999896,256.7448539999896,256.7448539999896,257.11127779999515,257.11127779999515,257.11127779999515,257.11127779999515,257.11127779999515,257.11127779999515,257.11127779999515,257.11127779999515,257.11127779999515,23,0,,,257.11127779999515,257.3138490000274,1000,257.3138490000274,1000,1000,1000,1000,0,num_3,0.7882814999902621,,22,6,2026-03-04_11h08.58.968,2026A_exp2,2022.2.4,59.72716629889714,
1,0,0.0,4.9,1,0,79,79,44,,,,,258.1288543000119,258.77967469999567,258.77967469999567,259.2805786000099,45,45,259.2805786000099,259.2805786000099,259.2805786000099,259.2805786000099,259.2805786000099,259.2805786000099,259.2805786000099,259.2805786000099,259.2805786000099,259.6303699000273,259.6303699000273,259.6303699000273,259.6303699000273,259.6303699000273,259.6303699000273,259.6303699000273,259.6303699000273,259.6303699000273,22,0,,,259.6303699000273,259.8306545999949,4.9,259.8473435000051,1,4.9,1,1,1000,num_4,0.9024662000010721,,22,6,2026-03-04_11h08.58.968,2026A_exp2,2022.2.4,59.72716629889714,
1000,1,0.0,6.1,0,0,80,80,85,,,,,260.78138830000535,261.4321766999783,261.4321766999783,261.9166836999939,45,45,261.9166836999939,261.9166836999939,261.9166836999939,261.9166836999939,261.9166836999939,261.9166836999939,261.9166836999939,261.9166836999939,261.9166836999939,262.2829882000224,262.2829882000224,262.2829882000224,262.2829882000224,262.2829882000224,262.2829882000224,262.2829882000224,262.2829882000224,262.2829882000224,23,0,,,262.2829882000224,262.48512229998596,1000,262.48512229998596,1000,1000,1000,1000,1,num_2,0.4720974999945611,,22,6,2026-03-04_11h08.58.968,2026A_exp2,2022.2.4,59.72716629889714,
0,0,0.0,6.1,1,0,81,81,84,,,,,262.98367580003105,263.63438160001533,263.63438160001533,264.1354491999955,45,315,264.1354491999955,264.1354491999955,264.1354491999955,264.1354491999955,264.1354491999955,264.1354491999955,264.1354491999955,264.1354491999955,264.1354491999955,264.5017290000105,264.5017290000105,264.5017290000105,264.5017290000105,264.5017290000105,264.5017290000105,264.5017290000105,264.5017290000105,264.5017290000105,23,0,,,264.5017290000105,264.7020993999904,0.0,264.7020993999904,0,0.0,0,1,1000,num_1,0.703913300007116,,22,6,2026-03-04_11h08.58.968,2026A_exp2,2022.2.4,59.72716629889714,
1,0,4.9,3.7,0,0,82,82,89,,,,,265.43607019999763,266.08691539999563,266.08691539999563,266.57112759997835,315,315,266.57112759997835,266.57112759997835,266.57112759997835,266.57112759997835,266.57112759997835,266.57112759997835,266.57112759997835,266.57112759997835,266.57112759997835,266.93773579999106,266.93773579999106,266.93773579999106,266.93773579999106,266.93773579999106,266.93773579999106,266.93773579999106,266.93773579999106,266.93773579999106,23,0,,,266.93773579999106,267.13775039999746,4.9,267.13775039999746,0,4.9,1,0,1000,num_1,0.6200324000092223,,22,6,2026-03-04_11h08.58.968,2026A_exp2,2022.2.4,59.72716629889714,
1000,1,0.0,6.1,0,0,83,83,5,,,,,267.7887535999762,268.43927520001307,268.43927520001307,268.92364639998414,315,315,268.92364639998414,268.92364639998414,268.92364639998414,268.92364639998414,268.92364639998414,268.92364639998414,268.92364639998414,268.92364639998414,268.92364639998414,269.29006750002736,269.29006750002736,269.29006750002736,269.29006750002736,269.29006750002736,269.29006750002736,269.29006750002736,269.29006750002736,269.29006750002736,0,1,[0.0008756999741308391],[0.3675007999991067],269.29006750002736,269.4919735000003,1000,269.4919735000003,1000,1000,1000,1000,1,num_2,0.6018490999704227,,22,6,2026-03-04_11h08.58.968,2026A_exp2,2022.2.4,59.72716629889714,
1,0,6.1,0.0,0,0,84,84,58,,,,,270.1242138000089,270.77493249997497,270.77493249997497,271.27598710003076,315,45,271.27598710003076,271.27598710003076,271.27598710003076,271.27598710003076,271.27598710003076,271.27598710003076,271.27598710003076,271.27598710003076,271.27598710003076,271.6424619000172,271.6424619000172,271.6424619000172,271.6424619000172,271.6424619000172,271.6424619000172,271.6424619000172,271.6424619000172,271.6424619000172,23,0,,,271.6424619000172,271.84268210001756,6.1,271.84268210001756,1,6.1,1,1,1000,num_4,0.714860400010366,,22,6,2026-03-04_11h08.58.968,2026A_exp2,2022.2.4,59.72716629889714,
1,0,0.0,3.7,0,0,85,85,34,,,,,272.5766057000146,273.22721119999187,273.22721119999187,273.71180879999883,315,315,273.71180879999883,273.71180879999883,273.71180879999883,273.71180879999883,273.71180879999883,273.71180879999883,273.71180879999883,273.71180879999883,273.71180879999883,274.07821900001727,274.07821900001727,274.07821900001727,274.07821900001727,274.07821900001727,274.07821900001727,274.07821900001727,274.07821900001727,274.07821900001727,23,0,,,274.07821900001727,274.2784050999908,0.0,274.2784050999908,0,0.0,0,1,1000,num_1,0.6308247999986634,,22,6,2026-03-04_11h08.58.968,2026A_exp2,2022.2.4,59.72716629889714,
1,0,0.0,4.9,1,0,86,86,2,,,,,274.9289278999786,275.5740151000209,275.5740151000209,276.0724728999776,45,45,276.0724728999776,276.0724728999776,276.0724728999776,276.0724728999776,276.0724728999776,276.0724728999776,276.0724728999776,276.0724728999776,276.0724728999776,276.43071869999403,276.43071869999403,276.43071869999403,276.43071869999403,276.43071869999403,276.43071869999403,276.43071869999403,276.43071869999403,276.43071869999403,23,0,,,276.43071869999403,276.6372061999864,4.9,276.6372061999864,0,4.9,1,0,1000,num_1,1.1053095000097528,,22,6,2026-03-04_11h08.58.968,2026A_exp2,2022.2.4,59.72716629889714,
1000,1,0.0,0.0,1,0,87,87,72,,,,,277.7651368000079,278.4159222000162,278.4159222000162,278.91689539997606,315,315,278.91689539997606,278.91689539997606,278.91689539997606,278.91689539997606,278.91689539997606,278.91689539997606,278.91689539997606,278.91689539997606,278.91689539997606,279.2834528000094,279.2834528000094,279.2834528000094,279.2834528000094,279.2834528000094,279.2834528000094,279.2834528000094,279.2834528000094,279.2834528000094,23,0,,,279.2834528000094,279.4854827999952,1000,279.4854827999952,1000,1000,1000,1000,1,num_2,0.9525696000200696,,22,6,2026-03-04_11h08.58.968,2026A_exp2,2022.2.4,59.72716629889714,
1000,1,4.9,4.9,0,0,88,88,36,,,,,280.4678331000032,281.1184099999955,281.1184099999955,281.61970119999023,45,45,281.61970119999023,281.61970119999023,281.61970119999023,281.61970119999023,281.61970119999023,281.61970119999023,281.61970119999023,281.61970119999023,281.61970119999023,281.96943390002707,281.96943390002707,281.96943390002707,281.96943390002707,281.96943390002707,281.96943390002707,281.96943390002707,281.96943390002707,281.96943390002707,22,0,,,281.96943390002707,282.1714272000245,1000,282.1714272000245,1000,1000,1000,1000,1,num_2,0.4823266000021249,,22,6,2026-03-04_11h08.58.968,2026A_exp2,2022.2.4,59.72716629889714,
1000,1,4.9,6.1,0,0,89,89,59,,,,,282.67013109999243,283.3207391999895,283.3207391999895,283.821905800025,45,315,283.821905800025,283.821905800025,283.821905800025,283.821905800025,283.821905800025,283.821905800025,283.821905800025,283.821905800025,283.821905800025,284.18862919998355,284.18862919998355,284.18862919998355,284.18862919998355,284.18862919998355,284.18862919998355,284.18862919998355,284.18862919998355,284.18862919998355,23,0,,,284.18862919998355,284.3905983000295,1000,284.3905983000295,1000,1000,1000,1000,1,num_2,0.46282320003956556,,22,6,2026-03-04_11h08.58.968,2026A_exp2,2022.2.4,59.72716629889714,
,,,,,,,,,,,,,,,,,,,,,,,,,,,,,,,,,,,,,,,,,,,,,,,,,,,,284.8803060000064,,,,,,,
