validity,detectorcomp,contrastCW,contrastCCW,precueCWorCCW,block_80trials.thisRepN,block_80trials.thisTrialN,block_80trials.thisN,block_80trials.thisIndex,etRecord.started,etRecord.stopped,text.started,text.stopped,text_4.started,text_4.stopped,text_6.started,text_6.stopped,oriCW,oriCCW,roi_2.started,grating_UR.started,grating_UL.started,grating_LR.started,grating_LL.started,noise_UR.started,noise_UL.started,noise_LR.started,noise_LL.started,roi_2.stopped,grating_UR.stopped,grating_UL.stopped,grating_LR.stopped,grating_LL.stopped,noise_UR.stopped,noise_UL.stopped,noise_LR.stopped,noise_LL.stopped,outframe,roi_2.numLooks,roi_2.timesOn,roi_2.timesOff,text_2.started,text_2.stopped,probedcontrast,key_resp.started,respdetect,relevantContrast,correctDetect,TorFdetect,respCWorCCW,key_resp.keys,key_resp.rt,feedback_display_.started,participantNo,blockNo,date,expName,psychopyVersion,frameRate,
1000,1,0.0,0.0,1,0,0,0,56,3.339996328577399e-05,3.339996328577399e-05,68.52431280002929,70.54487810004503,70.54487810004503,71.17770920001203,71.17770920001203,71.6911989999935,45,45,71.6911989999935,71.6911989999935,71.6911989999935,71.6911989999935,71.6911989999935,71.6911989999935,71.6911989999935,71.6911989999935,71.6911989999935,72.03626100003021,72.03626100003021,72.03626100003021,72.03626100003021,72.03626100003021,72.03626100003021,72.03626100003021,72.03626100003021,72.03626100003021,20,1,[0.3512574000051245],[0.36704300000565127],72.03626100003021,72.2457279000082,1000,72.2457279000082,1000,1000,1000,1000,0,num_3,1.631454800022766,,24,1,2026-03-04_15h11.08.470,2026A_exp2,2022.2.4,59.85812426668536,
1,0,6.1,3.7,0,0,1,1,31,,,,,73.90493439999409,74.55527720000828,74.55527720000828,75.05660730000818,45,45,75.05660730000818,75.05660730000818,75.05660730000818,75.05660730000818,75.05660730000818,75.05660730000818,75.05660730000818,75.05660730000818,75.05660730000818,75.42310660000658,75.42310660000658,75.42310660000658,75.42310660000658,75.42310660000658,75.42310660000658,75.42310660000658,75.42310660000658,75.42310660000658,23,0,,,75.42310660000658,75.62341300002299,6.1,75.62341300002299,1,6.1,1,1,1000,num_4,1.2375027999514714,,24,1,2026-03-04_15h11.08.470,2026A_exp2,2022.2.4,59.85812426668536,
1000,1,0.0,4.9,1,0,2,2,55,,,,,76.89100350002991,77.5250887000002,77.5250887000002,78.02549500000896,45,315,78.02549500000896,78.02549500000896,78.02549500000896,78.02549500000896,78.02549500000896,78.02549500000896,78.02549500000896,78.02549500000896,78.02549500000896,78.39246689999709,78.39246689999709,78.39246689999709,78.39246689999709,78.39246689999709,78.39246689999709,78.39246689999709,78.39246689999709,78.39246689999709,5,3,"[0.0010988999856635928, 0.2840309999883175, 0.334072700003162]","[0.26726399996550754, 0.30031089996919036, 0.35068209999008104]",78.39246689999709,78.59448150004027,1000,78.59448150004027,1000,1000,1000,1000,1,num_2,1.106563599954825,,24,1,2026-03-04_15h11.08.470,2026A_exp2,2022.2.4,59.85812426668536,
1,0,3.7,4.9,0,0,3,3,76,,,,,79.72738350002328,80.37799470004393,80.37799470004393,80.8625461999909,315,315,80.8625461999909,80.8625461999909,80.8625461999909,80.8625461999909,80.8625461999909,80.8625461999909,80.8625461999909,80.8625461999909,80.8625461999909,81.22888130001957,81.22888130001957,81.22888130001957,81.22888130001957,81.22888130001957,81.22888130001957,81.22888130001957,81.22888130001957,81.22888130001957,23,0,,,81.22888130001957,81.42935019999277,3.7,81.42935019999277,1,3.7,1,1,1000,num_4,6.759811499970965,,24,1,2026-03-04_15h11.08.470,2026A_exp2,2022.2.4,59.85812426668536,
1000,1,0.0,0.0,0,0,4,4,7,,,,,88.21944600000279,88.87008480000077,88.87008480000077,89.35444389999611,315,45,89.35444389999611,89.35444389999611,89.35444389999611,89.35444389999611,89.35444389999611,89.35444389999611,89.35444389999611,89.35444389999611,89.35444389999611,89.72056020004675,89.72056020004675,89.72056020004675,89.72056020004675,89.72056020004675,89.72056020004675,89.72056020004675,89.72056020004675,89.72056020004675,23,0,,,89.72056020004675,89.92140640004072,1000,89.92140640004072,1000,1000,1000,1000,0,num_3,1.2750865999842063,,24,1,2026-03-04_15h11.08.470,2026A_exp2,2022.2.4,59.85812426668536,
0,0,0.0,0.0,1,0,5,5,38,,,,,91.22218159999466,91.87281319999602,91.87281319999602,,45,315,92.387804900005,92.387804900005,92.387804900005,92.387804900005,92.387804900005,92.387804900005,92.387804900005,92.387804900005,92.387804900005,92.73181760002626,92.73181760002626,92.73181760002626,92.73181760002626,92.73181760002626,92.73181760002626,92.73181760002626,92.73181760002626,92.73181760002626,21,0,,,92.73181760002626,92.9404901000089,0.0,92.9404901000089,1,0.0,0,0,1000,num_4,1.545203399960883,,24,1,2026-03-04_15h11.08.470,2026A_exp2,2022.2.4,59.85812426668536,
1000,1,0.0,0.0,1,0,6,6,60,,,,,94.50916580000194,95.15940629999386,95.15940629999386,95.64392880001105,45,45,95.64392880001105,95.64392880001105,95.64392880001105,95.64392880001105,95.64392880001105,95.64392880001105,95.64392880001105,95.64392880001105,95.64392880001105,96.01033230003668,96.01033230003668,96.01033230003668,96.01033230003668,96.01033230003668,96.01033230003668,96.01033230003668,96.01033230003668,96.01033230003668,23,0,,,96.01033230003668,96.21089420001954,1000,96.21089420001954,1000,1000,1000,1000,0,num_3,1.8977303999708965,,24,1,2026-03-04_15h11.08.470,2026A_exp2,2022.2.4,59.85812426668536,
1000,1,0.0,4.9,0,0,7,7,74,,,,,98.12957190000452,98.76647380000213,98.76647380000213,99.2818438000395,45,315,99.2818438000395,99.2818438000395,99.2818438000395,99.2818438000395,99.2818438000395,99.2818438000395,99.2818438000395,99.2818438000395,99.2818438000395,99.64720050001051,99.64720050001051,99.64720050001051,99.64720050001051,99.64720050001051,99.64720050001051,99.64720050001051,99.64720050001051,99.64720050001051,23,0,,,99.64720050001051,99.84775220003212,1000,99.84775220003212,1000,1000,1000,1000,1,num_2,1.7971011999761686,,24,1,2026-03-04_15h11.08.470,2026A_exp2,2022.2.4,59.85812426668536,
1,0,3.7,0.0,1,0,8,8,28,,,,,101.66608520003501,102.31654690002324,102.31654690002324,102.80023130000336,45,315,102.80023130000336,102.80023130000336,102.80023130000336,102.80023130000336,102.80023130000336,102.80023130000336,102.80023130000336,102.80023130000336,102.80023130000336,103.16766920004738,103.16766920004738,103.16766920004738,103.16766920004738,103.16766920004738,103.16766920004738,103.16766920004738,103.16766920004738,103.16766920004738,0,1,[0.000907599984202534],[0.3674583000247367],103.16766920004738,103.36750110000139,0.0,103.36750110000139,0,0.0,0,1,1000,num_1,2.0061328999581747,,24,1,2026-03-04_15h11.08.470,2026A_exp2,2022.2.4,59.85812426668536,
1,0,3.7,3.7,1,0,9,9,86,,,,,105.4033616000088,106.05388990003848,106.05388990003848,106.5547865999979,315,45,106.5547865999979,106.5547865999979,106.5547865999979,106.5547865999979,106.5547865999979,106.5547865999979,106.5547865999979,106.5547865999979,106.5547865999979,106.90465420001419,106.90465420001419,106.90465420001419,106.90465420001419,106.90465420001419,106.90465420001419,106.90465420001419,106.90465420001419,106.90465420001419,22,0,,,106.90465420001419,107.10491340002045,3.7,107.10491340002045,1,3.7,1,1,1000,num_4,1.6041459999978542,,24,1,2026-03-04_15h11.08.470,2026A_exp2,2022.2.4,59.85812426668536,
1000,1,6.1,3.7,0,0,10,10,18,,,,,108.73985720000928,109.3736836000462,109.3736836000462,109.87485080002807,315,315,109.87485080002807,109.87485080002807,109.87485080002807,109.87485080002807,109.87485080002807,109.87485080002807,109.87485080002807,109.87485080002807,109.87485080002807,110.24131650000345,110.24131650000345,110.24131650000345,110.24131650000345,110.24131650000345,110.24131650000345,110.24131650000345,110.24131650000345,110.24131650000345,0,1,[0.0012602999922819436],[0.36645279999356717],110.24131650000345,110.44149420002941,1000,110.44149420002941,1000,1000,1000,1000,1,num_2,1.7956834000069648,,24,1,2026-03-04_15h11.08.470,2026A_exp2,2022.2.4,59.85812426668536,
1,0,6.1,6.1,0,0,11,11,27,,,,,112.26021820004098,112.91048180003418,112.91048180003418,113.41170300001977,45,315,113.41170300001977,113.41170300001977,113.41170300001977,113.41170300001977,113.41170300001977,113.41170300001977,113.41170300001977,113.41170300001977,113.41170300001977,113.77817510004388,113.77817510004388,113.77817510004388,113.77817510004388,113.77817510004388,113.77817510004388,113.77817510004388,113.77817510004388,113.77817510004388,23,0,,,113.77817510004388,113.97829739999725,6.1,113.97829739999725,1,6.1,1,1,1000,num_4,1.090102400048636,,24,1,2026-03-04_15h11.08.470,2026A_exp2,2022.2.4,59.85812426668536,
1000,1,0.0,4.9,1,0,12,12,78,,,,,115.09605920000467,115.74737090000417,115.74737090000417,116.23117530002492,45,45,116.23117530002492,116.23117530002492,116.23117530002492,116.23117530002492,116.23117530002492,116.23117530002492,116.23117530002492,116.23117530002492,116.23117530002492,116.59748190001119,116.59748190001119,116.59748190001119,116.59748190001119,116.59748190001119,116.59748190001119,116.59748190001119,116.59748190001119,116.59748190001119,23,0,,,116.59748190001119,116.79818050004542,1000,116.79818050004542,1000,1000,1000,1000,0,num_3,1.1665918999933638,,24,1,2026-03-04_15h11.08.470,2026A_exp2,2022.2.4,59.85812426668536,
1,0,0.0,0.0,0,0,13,13,17,,,,,117.98214720003307,118.63294320000568,118.63294320000568,119.1341522000148,45,315,119.1341522000148,119.1341522000148,119.1341522000148,119.1341522000148,119.1341522000148,119.1341522000148,119.1341522000148,119.1341522000148,119.1341522000148,119.48370199999772,119.48370199999772,119.48370199999772,119.48370199999772,119.48370199999772,119.48370199999772,119.48370199999772,119.48370199999772,119.48370199999772,22,0,,,119.48370199999772,119.6839283000445,0.0,119.6839283000445,0,0.0,0,1,1000,num_1,1.34476020000875,,24,1,2026-03-04_15h11.08.470,2026A_exp2,2022.2.4,59.85812426668536,
0,0,0.0,3.7,0,0,14,14,47,,,,,121.05240790004609,121.70266920002177,121.70266920002177,122.18727870000293,45,315,122.18727870000293,122.18727870000293,122.18727870000293,122.18727870000293,122.18727870000293,122.18727870000293,122.18727870000293,122.18727870000293,122.18727870000293,122.55322649999289,122.55322649999289,122.55322649999289,122.55322649999289,122.55322649999289,122.55322649999289,122.55322649999289,122.55322649999289,122.55322649999289,23,0,,,122.55322649999289,122.75356320000719,3.7,122.75356320000719,1,3.7,1,1,1000,num_4,1.323542800033465,,24,1,2026-03-04_15h11.08.470,2026A_exp2,2022.2.4,59.85812426668536,
1,0,4.9,3.7,1,0,15,15,10,,,,,124.10509600001387,124.75590859999647,124.75590859999647,125.24052849999862,315,315,125.24052849999862,125.24052849999862,125.24052849999862,125.24052849999862,125.24052849999862,125.24052849999862,125.24052849999862,125.24052849999862,125.24052849999862,125.60663200001,125.60663200001,125.60663200001,125.60663200001,125.60663200001,125.60663200001,125.60663200001,125.60663200001,125.60663200001,23,0,,,125.60663200001,125.80659100000048,3.7,125.80659100000048,1,3.7,1,1,1000,num_4,1.2298268000013195,,24,1,2026-03-04_15h11.08.470,2026A_exp2,2022.2.4,59.85812426668536,
1,0,4.9,0.0,1,0,16,16,25,,,,,127.05841960001271,127.70851620001486,127.70851620001486,128.1930422000005,315,45,128.1930422000005,128.1930422000005,128.1930422000005,128.1930422000005,128.1930422000005,128.1930422000005,128.1930422000005,128.1930422000005,128.1930422000005,128.5594618000323,128.5594618000323,128.5594618000323,128.5594618000323,128.5594618000323,128.5594618000323,128.5594618000323,128.5594618000323,128.5594618000323,0,1,[0.0012406999594531953],[0.36669749999418855],128.5594618000323,128.75981030002004,0.0,128.75981030002004,0,0.0,0,1,1000,num_1,1.1415527000208385,,24,1,2026-03-04_15h11.08.470,2026A_exp2,2022.2.4,59.85812426668536,
1000,1,0.0,0.0,1,0,17,17,46,,,,,129.9272780000465,130.56129580002744,130.56129580002744,131.06250480003655,315,315,131.06250480003655,131.06250480003655,131.06250480003655,131.06250480003655,131.06250480003655,131.06250480003655,131.06250480003655,131.06250480003655,131.06250480003655,131.42905219999375,131.42905219999375,131.42905219999375,131.42905219999375,131.42905219999375,131.42905219999375,131.42905219999375,131.42905219999375,131.42905219999375,0,1,[0.0012734000338241458],[0.3671693000360392],131.42905219999375,131.63277000002563,1000,131.63277000002563,1000,1000,1000,1000,0,num_3,1.4838271000189707,,24,1,2026-03-04_15h11.08.470,2026A_exp2,2022.2.4,59.85812426668536,
1,0,0.0,4.9,1,0,18,18,1,,,,,133.1474955000449,133.7978843000019,133.7978843000019,134.28804770001443,315,315,134.28804770001443,134.28804770001443,134.28804770001443,134.28804770001443,134.28804770001443,134.28804770001443,134.28804770001443,134.28804770001443,134.28804770001443,134.6656462000101,134.6656462000101,134.6656462000101,134.6656462000101,134.6656462000101,134.6656462000101,134.6656462000101,134.6656462000101,134.6656462000101,0,1,[0.0023581000277772546],[0.38185850001173094],134.6656462000101,134.86564309999812,4.9,134.86564309999812,1,4.9,1,1,1000,num_4,1.7717219000332989,,24,1,2026-03-04_15h11.08.470,2026A_exp2,2022.2.4,59.85812426668536,
0,0,0.0,0.0,0,0,19,19,70,,,,,136.66805300000124,137.31870830000844,137.31870830000844,137.8194768000394,45,315,137.8194768000394,137.8194768000394,137.8194768000394,137.8194768000394,137.8194768000394,137.8194768000394,137.8194768000394,137.8194768000394,137.8194768000394,138.18581709999125,138.18581709999125,138.18581709999125,138.18581709999125,138.18581709999125,138.18581709999125,138.18581709999125,138.18581709999125,138.18581709999125,0,1,[0.001213700044900179],[0.3664598999894224],138.18581709999125,138.38566150004044,0.0,138.38566150004044,1,0.0,0,0,1000,num_4,1.898762299970258,,24,1,2026-03-04_15h11.08.470,2026A_exp2,2022.2.4,59.85812426668536,
0,0,0.0,0.0,0,0,20,20,22,,,,,140.3047426000121,140.95507060003,140.95507060003,141.4561542000156,315,45,141.4561542000156,141.4561542000156,141.4561542000156,141.4561542000156,141.4561542000156,141.4561542000156,141.4561542000156,141.4561542000156,141.4561542000156,141.80611780000618,141.80611780000618,141.80611780000618,141.80611780000618,141.80611780000618,141.80611780000618,141.80611780000618,141.80611780000618,141.80611780000618,0,1,[0.001271100016310811],[0.3504610999953002],141.80611780000618,142.00636790000135,0.0,142.00636790000135,0,0.0,0,1,1000,num_1,2.838632899976801,,24,1,2026-03-04_15h11.08.470,2026A_exp2,2022.2.4,59.85812426668536,
1000,1,6.1,0.0,0,0,21,21,89,,,,,144.8759058000287,145.52631730004214,145.52631730004214,146.01111429999582,45,315,146.01111429999582,146.01111429999582,146.01111429999582,146.01111429999582,146.01111429999582,146.01111429999582,146.01111429999582,146.01111429999582,146.01111429999582,146.37736260000383,146.37736260000383,146.37736260000383,146.37736260000383,146.37736260000383,146.37736260000383,146.37736260000383,146.37736260000383,146.37736260000383,0,1,[0.0012212000438012183],[0.3670002000289969],146.37736260000383,146.5776962999953,1000,146.5776962999953,1000,1000,1000,1000,0,num_3,1.6986742000444792,,24,1,2026-03-04_15h11.08.470,2026A_exp2,2022.2.4,59.85812426668536,
1000,1,3.7,0.0,0,0,22,22,66,,,,,148.29635020002024,148.94667540001683,148.94667540001683,149.44768520002253,315,315,149.44768520002253,149.44768520002253,149.44768520002253,149.44768520002253,149.44768520002253,149.44768520002253,149.44768520002253,149.44768520002253,149.44768520002253,149.81411330000265,149.81411330000265,149.81411330000265,149.81411330000265,149.81411330000265,149.81411330000265,149.81411330000265,149.81411330000265,149.81411330000265,0,1,[0.0012514999834820628],[0.3669613999663852],149.81411330000265,150.01455580000766,1000,150.01455580000766,1000,1000,1000,1000,0,num_3,1.645741000014823,,24,1,2026-03-04_15h11.08.470,2026A_exp2,2022.2.4,59.85812426668536,
1000,1,0.0,6.1,1,0,23,23,62,,,,,151.68309579999186,152.3331901000347,152.3331901000347,152.83363490004558,45,45,152.83363490004558,152.83363490004558,152.83363490004558,152.83363490004558,152.83363490004558,152.83363490004558,152.83363490004558,152.83363490004558,152.83363490004558,153.20079920004355,153.20079920004355,153.20079920004355,153.20079920004355,153.20079920004355,153.20079920004355,153.20079920004355,153.20079920004355,153.20079920004355,23,0,,,153.20079920004355,153.40125980001176,1000,153.40125980001176,1000,1000,1000,1000,1,num_2,1.0830755999777466,,24,1,2026-03-04_15h11.08.470,2026A_exp2,2022.2.4,59.85812426668536,
1,0,4.9,4.9,0,0,24,24,39,,,,,154.50214630004484,155.1527100999956,155.1527100999956,155.65393600001698,45,45,155.65393600001698,155.65393600001698,155.65393600001698,155.65393600001698,155.65393600001698,155.65393600001698,155.65393600001698,155.65393600001698,155.65393600001698,156.02025970001705,156.02025970001705,156.02025970001705,156.02025970001705,156.02025970001705,156.02025970001705,156.02025970001705,156.02025970001705,156.02025970001705,20,1,[0.0012040999718010426],[0.05019239999819547],156.02025970001705,156.22035810002126,4.9,156.22035810002126,1,4.9,1,1,1000,num_4,1.2643314999877475,,24,1,2026-03-04_15h11.08.470,2026A_exp2,2022.2.4,59.85812426668536,
1,0,4.9,0.0,0,0,25,25,4,,,,,157.5055132000125,158.1559200999909,158.1559200999909,158.6402638000436,315,315,158.6402638000436,158.6402638000436,158.6402638000436,158.6402638000436,158.6402638000436,158.6402638000436,158.6402638000436,158.6402638000436,158.6402638000436,159.00647240004037,159.00647240004037,159.00647240004037,159.00647240004037,159.00647240004037,159.00647240004037,159.00647240004037,159.00647240004037,159.00647240004037,23,0,,,159.00647240004037,159.20689140004106,4.9,159.20689140004106,1,4.9,1,1,1000,num_4,1.101465800020378,,24,1,2026-03-04_15h11.08.470,2026A_exp2,2022.2.4,59.85812426668536,
1000,1,0.0,0.0,0,0,26,26,67,,,,,160.32449910003925,160.975202600006,160.975202600006,161.45971180003835,315,315,161.45971180003835,161.45971180003835,161.45971180003835,161.45971180003835,161.45971180003835,161.45971180003835,161.45971180003835,161.45971180003835,161.45971180003835,161.82612640003208,161.82612640003208,161.82612640003208,161.82612640003208,161.82612640003208,161.82612640003208,161.82612640003208,161.82612640003208,161.82612640003208,0,1,[0.0010348999639973044],[0.36717839998891577],161.82612640003208,162.0278902000282,1000,162.0278902000282,1000,1000,1000,1000,1,num_2,2.8089316999539733,,24,1,2026-03-04_15h11.08.470,2026A_exp2,2022.2.4,59.85812426668536,
1,0,0.0,0.0,1,0,27,27,21,,,,,164.8626326000085,165.5129169000429,165.5129169000429,165.997032400046,45,45,165.997032400046,165.997032400046,165.997032400046,165.997032400046,165.997032400046,165.997032400046,165.997032400046,165.997032400046,165.997032400046,166.38071870000567,166.38071870000567,166.38071870000567,166.38071870000567,166.38071870000567,166.38071870000567,166.38071870000567,166.38071870000567,166.38071870000567,0,1,[0.00120749999769032],[0.38358600001083687],166.38071870000567,166.58106840000255,0.0,166.58106840000255,0,0.0,0,1,1000,num_1,1.3118723999941722,,24,1,2026-03-04_15h11.08.470,2026A_exp2,2022.2.4,59.85812426668536,
1000,1,0.0,0.0,0,0,28,28,36,,,,,167.91588620003313,168.56640710000647,168.56640710000647,169.067409100011,45,45,169.067409100011,169.067409100011,169.067409100011,169.067409100011,169.067409100011,169.067409100011,169.067409100011,169.067409100011,169.067409100011,169.43378190003568,169.43378190003568,169.43378190003568,169.43378190003568,169.43378190003568,169.43378190003568,169.43378190003568,169.43378190003568,169.43378190003568,0,1,[0.0011999999987892807],[0.3668744000024162],169.43378190003568,169.63465399999404,1000,169.63465399999404,1000,1000,1000,1000,1,num_2,2.2264614999876358,,24,1,2026-03-04_15h11.08.470,2026A_exp2,2022.2.4,59.85812426668536,
1,0,3.7,0.0,0,0,29,29,8,,,,,171.8861894000438,172.53707040002337,172.53707040002337,173.0213902000105,315,45,173.0213902000105,173.0213902000105,173.0213902000105,173.0213902000105,173.0213902000105,173.0213902000105,173.0213902000105,173.0213902000105,173.0213902000105,173.4040749000269,173.4040749000269,173.4040749000269,173.4040749000269,173.4040749000269,173.4040749000269,173.4040749000269,173.4040749000269,173.4040749000269,0,1,[0.0012455999967642128],[0.3831793999997899],173.4040749000269,173.60464440000942,3.7,173.60464440000942,1,3.7,1,1,1000,num_4,1.031798499985598,,24,1,2026-03-04_15h11.08.470,2026A_exp2,2022.2.4,59.85812426668536,
0,0,0.0,3.7,0,0,30,30,83,,,,,174.65595159999793,175.30610680003883,175.30610680003883,175.78989830001956,315,45,175.78989830001956,175.78989830001956,175.78989830001956,175.78989830001956,175.78989830001956,175.78989830001956,175.78989830001956,175.78989830001956,175.78989830001956,176.1570972999907,176.1570972999907,176.1570972999907,176.1570972999907,176.1570972999907,176.1570972999907,176.1570972999907,176.1570972999907,176.1570972999907,0,1,[0.0007820000173524022],[0.36705719999736175],176.1570972999907,176.35727730003418,3.7,176.35727730003418,1,3.7,1,1,1000,num_4,2.1675222999765538,,24,1,2026-03-04_15h11.08.470,2026A_exp2,2022.2.4,59.85812426668536,
1000,1,3.7,4.9,0,0,31,31,64,,,,,178.54317180003272,179.19333189999452,179.19333189999452,179.67787730001146,45,45,179.67787730001146,179.67787730001146,179.67787730001146,179.67787730001146,179.67787730001146,179.67787730001146,179.67787730001146,179.67787730001146,179.67787730001146,180.04426719999174,180.04426719999174,180.04426719999174,180.04426719999174,180.04426719999174,180.04426719999174,180.04426719999174,180.04426719999174,180.04426719999174,7,4,"[0.0012407999602146447, 0.18318379996344447, 0.2835344999912195, 0.3501067999750376]","[0.13316259998828173, 0.23326599999563769, 0.3333341999677941, 0.36651480000000447]",180.04426719999174,180.24480690003838,1000,180.24480690003838,1000,1000,1000,1000,0,num_3,2.9999916999950074,,24,1,2026-03-04_15h11.08.470,2026A_exp2,2022.2.4,59.85812426668536,
1,0,0.0,0.0,0,0,32,32,44,,,,,183.26470820000395,183.91480880003655,183.91480880003655,184.4159869000432,45,315,184.4159869000432,184.4159869000432,184.4159869000432,184.4159869000432,184.4159869000432,184.4159869000432,184.4159869000432,184.4159869000432,184.4159869000432,184.78233890002593,184.78233890002593,184.78233890002593,184.78233890002593,184.78233890002593,184.78233890002593,184.78233890002593,184.78233890002593,184.78233890002593,22,1,[0.08341700001619756],[0.10015760001260787],184.78233890002593,184.9827854000032,0.0,184.9827854000032,0,0.0,0,1,1000,num_1,2.5823308000108227,,24,1,2026-03-04_15h11.08.470,2026A_exp2,2022.2.4,59.85812426668536,
1000,1,0.0,0.0,0,0,33,33,15,,,,,187.58559299999615,188.2357085000258,188.2357085000258,188.720649600029,45,315,188.720649600029,188.720649600029,188.720649600029,188.720649600029,188.720649600029,188.720649600029,188.720649600029,188.720649600029,188.720649600029,189.08670260000508,189.08670260000508,189.08670260000508,189.08670260000508,189.08670260000508,189.08670260000508,189.08670260000508,189.08670260000508,189.08670260000508,23,0,,,189.08670260000508,189.2923279000097,1000,189.2923279000097,1000,1000,1000,1000,1,num_2,1.720437399984803,,24,1,2026-03-04_15h11.08.470,2026A_exp2,2022.2.4,59.85812426668536,
1,0,3.7,0.0,1,0,34,34,12,,,,,191.03864760004217,191.68919550004648,191.68919550004648,192.18958190002013,315,315,192.18958190002013,192.18958190002013,192.18958190002013,192.18958190002013,192.18958190002013,192.18958190002013,192.18958190002013,192.18958190002013,192.18958190002013,192.5567813999951,192.5567813999951,192.5567813999951,192.5567813999951,192.5567813999951,192.5567813999951,192.5567813999951,192.5567813999951,192.5567813999951,23,0,,,192.5567813999951,192.75693239999237,0.0,192.75693239999237,0,0.0,0,1,1000,num_1,2.832133000018075,,24,1,2026-03-04_15h11.08.470,2026A_exp2,2022.2.4,59.85812426668536,
1,0,4.9,3.7,0,0,35,35,9,,,,,195.61044449999463,196.26036630000453,196.26036630000453,196.74536510003963,45,45,196.74536510003963,196.74536510003963,196.74536510003963,196.74536510003963,196.74536510003963,196.74536510003963,196.74536510003963,196.74536510003963,196.74536510003963,197.11139040003764,197.11139040003764,197.11139040003764,197.11139040003764,197.11139040003764,197.11139040003764,197.11139040003764,197.11139040003764,197.11139040003764,23,0,,,197.11139040003764,197.31140370003413,4.9,197.31140370003413,1,4.9,1,1,1000,num_4,0.8939274000003934,,24,1,2026-03-04_15h11.08.470,2026A_exp2,2022.2.4,59.85812426668536,
1000,1,0.0,0.0,0,0,36,36,72,,,,,198.22943579999264,198.8795968000195,198.8795968000195,199.36380019999342,45,315,199.36380019999342,199.36380019999342,199.36380019999342,199.36380019999342,199.36380019999342,199.36380019999342,199.36380019999342,199.36380019999342,199.36380019999342,199.73072450002655,199.73072450002655,199.73072450002655,199.73072450002655,199.73072450002655,199.73072450002655,199.73072450002655,199.73072450002655,199.73072450002655,8,2,"[0.0010244000004604459, 0.20025539997732267]","[0.06646840000757948, 0.3670742000103928]",199.73072450002655,199.93397519999417,1000,199.93397519999417,1000,1000,1000,1000,1,num_2,2.231208899989724,,24,1,2026-03-04_15h11.08.470,2026A_exp2,2022.2.4,59.85812426668536,
1000,1,0.0,6.1,1,0,37,37,69,,,,,202.1831071000197,202.83392810000805,202.83392810000805,203.31831530004274,45,45,203.31831530004274,203.31831530004274,203.31831530004274,203.31831530004274,203.31831530004274,203.31831530004274,203.31831530004274,203.31831530004274,203.31831530004274,203.68470350001007,203.68470350001007,203.68470350001007,203.68470350001007,203.68470350001007,203.68470350001007,203.68470350001007,203.68470350001007,203.68470350001007,0,1,[0.0012360999826341867],[0.3668114999891259],203.68470350001007,203.8856245999923,1000,203.8856245999923,1000,1000,1000,1000,1,num_2,1.22355279995827,,24,1,2026-03-04_15h11.08.470,2026A_exp2,2022.2.4,59.85812426668536,
1,0,3.7,0.0,1,0,38,38,13,,,,,205.13632200000575,205.77053650002927,205.77053650002927,206.27137190004578,45,45,206.27137190004578,206.27137190004578,206.27137190004578,206.27137190004578,206.27137190004578,206.27137190004578,206.27137190004578,206.27137190004578,206.27137190004578,206.6375713000307,206.6375713000307,206.6375713000307,206.6375713000307,206.6375713000307,206.6375713000307,206.6375713000307,206.6375713000307,206.6375713000307,0,1,[0.0012059000437147915],[0.366635300044436],206.6375713000307,206.83766260003904,0.0,206.83766260003904,0,0.0,0,1,1000,num_1,2.0072355999727733,,24,1,2026-03-04_15h11.08.470,2026A_exp2,2022.2.4,59.85812426668536,
1000,1,0.0,4.9,1,0,39,39,79,,,,,208.87458510004217,209.52369170001475,209.52369170001475,210.0248253000318,45,315,210.0248253000318,210.0248253000318,210.0248253000318,210.0248253000318,210.0248253000318,210.0248253000318,210.0248253000318,210.0248253000318,210.0248253000318,210.37469200004125,210.37469200004125,210.37469200004125,210.37469200004125,210.37469200004125,210.37469200004125,210.37469200004125,210.37469200004125,210.37469200004125,22,0,,,210.37469200004125,210.57495000003837,1000,210.57495000003837,1000,1000,1000,1000,1,num_2,1.2779012999963015,,24,1,2026-03-04_15h11.08.470,2026A_exp2,2022.2.4,59.85812426668536,
1,0,4.9,3.7,1,0,40,40,26,,,,,211.87643770000432,212.51001810003072,212.51001810003072,213.01071770000271,45,315,213.01071770000271,213.01071770000271,213.01071770000271,213.01071770000271,213.01071770000271,213.01071770000271,213.01071770000271,213.01071770000271,213.01071770000271,213.37758890003897,213.37758890003897,213.37758890003897,213.37758890003897,213.37758890003897,213.37758890003897,213.37758890003897,213.37758890003897,213.37758890003897,23,0,,,213.37758890003897,213.57805690000532,3.7,213.57805690000532,0,3.7,1,0,1000,num_1,1.1150695999967866,,24,1,2026-03-04_15h11.08.470,2026A_exp2,2022.2.4,59.85812426668536,
0,0,6.1,0.0,1,0,41,41,30,,,,,214.71215600002324,215.36301740002818,215.36301740002818,215.8465404000017,45,45,215.8465404000017,215.8465404000017,215.8465404000017,215.8465404000017,215.8465404000017,215.8465404000017,215.8465404000017,215.8465404000017,215.8465404000017,216.21387880004477,216.21387880004477,216.21387880004477,216.21387880004477,216.21387880004477,216.21387880004477,216.21387880004477,216.21387880004477,216.21387880004477,23,0,,,216.21387880004477,216.41419610002777,6.1,216.41419610002777,1,6.1,1,1,1000,num_4,1.3906949000083841,,24,1,2026-03-04_15h11.08.470,2026A_exp2,2022.2.4,59.85812426668536,
1000,1,3.7,0.0,1,0,42,42,88,,,,,217.8320633000112,218.4659506000462,218.4659506000462,218.96657350001624,315,315,218.96657350001624,218.96657350001624,218.96657350001624,218.96657350001624,218.96657350001624,218.96657350001624,218.96657350001624,218.96657350001624,218.96657350001624,219.33357590000378,219.33357590000378,219.33357590000378,219.33357590000378,219.33357590000378,219.33357590000378,219.33357590000378,219.33357590000378,219.33357590000378,8,3,"[0.06668220000574365, 0.11688039998989552, 0.1834658000152558]","[0.08335870003793389, 0.14997790002962574, 0.36709569999948144]",219.33357590000378,219.53459500003373,1000,219.53459500003373,1000,1000,1000,1000,0,num_3,1.2542443000129424,,24,1,2026-03-04_15h11.08.470,2026A_exp2,2022.2.4,59.85812426668536,
1000,1,0.0,6.1,1,0,43,43,52,,,,,220.81823979999172,221.4692131000338,221.4692131000338,221.9533764999942,315,315,221.9533764999942,221.9533764999942,221.9533764999942,221.9533764999942,221.9533764999942,221.9533764999942,221.9533764999942,221.9533764999942,221.9533764999942,222.32001070003025,222.32001070003025,222.32001070003025,222.32001070003025,222.32001070003025,222.32001070003025,222.32001070003025,222.32001070003025,222.32001070003025,0,1,[0.0012430999777279794],[0.36716269998578355],222.32001070003025,222.52358280000044,1000,222.52358280000044,1000,1000,1000,1000,1,num_2,1.4967580999946222,,24,1,2026-03-04_15h11.08.470,2026A_exp2,2022.2.4,59.85812426668536,
0,0,4.9,4.9,1,0,44,44,48,,,,,224.0383839000133,224.68883900000947,224.68883900000947,225.18933020002441,45,45,225.18933020002441,225.18933020002441,225.18933020002441,225.18933020002441,225.18933020002441,225.18933020002441,225.18933020002441,225.18933020002441,225.18933020002441,225.55650730000343,225.55650730000343,225.55650730000343,225.55650730000343,225.55650730000343,225.55650730000343,225.55650730000343,225.55650730000343,225.55650730000343,22,1,[0.11717049998696893],[0.13394759997026995],225.55650730000343,225.75721750000957,4.9,225.75721750000957,1,4.9,1,1,1000,num_4,1.6151451999903657,,24,1,2026-03-04_15h11.08.470,2026A_exp2,2022.2.4,59.85812426668536,
1,0,0.0,0.0,0,0,45,45,51,,,,,227.39164250000613,228.04215310001746,228.04215310001746,228.52663400000893,315,45,228.52663400000893,228.52663400000893,228.52663400000893,228.52663400000893,228.52663400000893,228.52663400000893,228.52663400000893,228.52663400000893,228.52663400000893,228.8932511000312,228.8932511000312,228.8932511000312,228.8932511000312,228.8932511000312,228.8932511000312,228.8932511000312,228.8932511000312,228.8932511000312,0,1,[0.0012162000057287514],[0.3669825000106357],228.8932511000312,229.09326110000256,0.0,229.09326110000256,0,0.0,0,1,1000,num_1,0.9284656000090763,,24,1,2026-03-04_15h11.08.470,2026A_exp2,2022.2.4,59.85812426668536,
1,0,4.9,3.7,0,0,46,46,63,,,,,230.0446916000219,230.69473129999824,230.69473129999824,231.17918630002532,315,315,231.17918630002532,231.17918630002532,231.17918630002532,231.17918630002532,231.17918630002532,231.17918630002532,231.17918630002532,231.17918630002532,231.17918630002532,231.54580790002365,231.54580790002365,231.54580790002365,231.54580790002365,231.54580790002365,231.54580790002365,231.54580790002365,231.54580790002365,231.54580790002365,1,1,[0.0012066999915987253],[0.3669057000079192],231.54580790002365,231.74655209999764,4.9,231.74655209999764,1,4.9,1,1,1000,num_4,1.1548210000037216,,24,1,2026-03-04_15h11.08.470,2026A_exp2,2022.2.4,59.85812426668536,
1000,1,3.7,6.1,1,0,47,47,29,,,,,232.93073810002534,233.5811306000105,233.5811306000105,234.0655253000441,45,315,234.0655253000441,234.0655253000441,234.0655253000441,234.0655253000441,234.0655253000441,234.0655253000441,234.0655253000441,234.0655253000441,234.0655253000441,234.43210070003988,234.43210070003988,234.43210070003988,234.43210070003988,234.43210070003988,234.43210070003988,234.43210070003988,234.43210070003988,234.43210070003988,23,0,,,234.43210070003988,234.63252859999193,1000,234.63252859999193,1000,1000,1000,1000,1,num_2,1.108593299984932,,24,1,2026-03-04_15h11.08.470,2026A_exp2,2022.2.4,59.85812426668536,
1000,1,3.7,0.0,1,0,48,48,54,,,,,235.76715190004325,236.40067580004688,236.40067580004688,236.90194519999204,315,45,236.90194519999204,236.90194519999204,236.90194519999204,236.90194519999204,236.90194519999204,236.90194519999204,236.90194519999204,236.90194519999204,236.90194519999204,237.2683212000411,237.2683212000411,237.2683212000411,237.2683212000411,237.2683212000411,237.2683212000411,237.2683212000411,237.2683212000411,237.2683212000411,23,0,,,237.2683212000411,237.47051489999285,1000,237.47051489999285,1000,1000,1000,1000,0,num_3,1.142119299969636,,24,1,2026-03-04_15h11.08.470,2026A_exp2,2022.2.4,59.85812426668536,
1000,1,0.0,6.1,0,0,49,49,58,,,,,238.63635929999873,239.2867591000395,239.2867591000395,239.78746080002747,45,315,239.78746080002747,239.78746080002747,239.78746080002747,239.78746080002747,239.78746080002747,239.78746080002747,239.78746080002747,239.78746080002747,239.78746080002747,240.13762110000243,240.13762110000243,240.13762110000243,240.13762110000243,240.13762110000243,240.13762110000243,240.13762110000243,240.13762110000243,240.13762110000243,22,0,,,240.13762110000243,240.34110860002693,1000,240.34110860002693,1000,1000,1000,1000,1,num_2,0.983218899986241,,24,1,2026-03-04_15h11.08.470,2026A_exp2,2022.2.4,59.85812426668536,
0,0,6.1,6.1,0,0,50,50,42,,,,,241.35559200000716,242.00609229999827,242.00609229999827,242.4903200000408,45,45,242.4903200000408,242.4903200000408,242.4903200000408,242.4903200000408,242.4903200000408,242.4903200000408,242.4903200000408,242.4903200000408,242.4903200000408,242.85713310004212,242.85713310004212,242.85713310004212,242.85713310004212,242.85713310004212,242.85713310004212,242.85713310004212,242.85713310004212,242.85713310004212,6,4,"[0.03316040005302057, 0.06661220005480573, 0.11675660003675148, 0.28360590001102537]","[0.04984380002133548, 0.10028010001406074, 0.2502095000236295, 0.36710600001970306]",242.85713310004212,243.0572259000037,6.1,243.0572259000037,1,6.1,1,1,1000,num_4,1.5159315000055358,,24,1,2026-03-04_15h11.08.470,2026A_exp2,2022.2.4,59.85812426668536,
1000,1,3.7,4.9,1,0,51,51,20,,,,,244.59225109999534,245.24274670000887,245.24274670000887,245.72649840003578,315,315,245.72649840003578,245.72649840003578,245.72649840003578,245.72649840003578,245.72649840003578,245.72649840003578,245.72649840003578,245.72649840003578,245.72649840003578,246.09344540000893,246.09344540000893,246.09344540000893,246.09344540000893,246.09344540000893,246.09344540000893,246.09344540000893,246.09344540000893,246.09344540000893,23,0,,,246.09344540000893,246.29432600003202,1000,246.29432600003202,1000,1000,1000,1000,0,num_3,1.9344309999723919,,24,1,2026-03-04_15h11.08.470,2026A_exp2,2022.2.4,59.85812426668536,
1,0,3.7,0.0,1,0,52,52,11,,,,,248.24612050002906,248.8962629000307,248.8962629000307,249.39758740004618,315,45,249.39758740004618,249.39758740004618,249.39758740004618,249.39758740004618,249.39758740004618,249.39758740004618,249.39758740004618,249.39758740004618,249.39758740004618,249.76397930004168,249.76397930004168,249.76397930004168,249.76397930004168,249.76397930004168,249.76397930004168,249.76397930004168,249.76397930004168,249.76397930004168,23,0,,,249.76397930004168,249.9638518000138,0.0,249.9638518000138,0,0.0,0,1,1000,num_1,0.8974386000190862,,24,1,2026-03-04_15h11.08.470,2026A_exp2,2022.2.4,59.85812426668536,
1000,1,3.7,4.9,0,0,53,53,80,,,,,250.88222710002447,251.5326469000429,251.5326469000429,252.01655780000146,45,45,252.01655780000146,252.01655780000146,252.01655780000146,252.01655780000146,252.01655780000146,252.01655780000146,252.01655780000146,252.01655780000146,252.01655780000146,252.38339170004474,252.38339170004474,252.38339170004474,252.38339170004474,252.38339170004474,252.38339170004474,252.38339170004474,252.38339170004474,252.38339170004474,23,0,,,252.38339170004474,252.58530020003673,1000,252.58530020003673,1000,1000,1000,1000,1,num_2,1.4989758000010625,,24,1,2026-03-04_15h11.08.470,2026A_exp2,2022.2.4,59.85812426668536,
1000,1,0.0,0.0,0,0,54,54,37,,,,,254.10166190000018,254.74770940002054,254.74770940002054,255.25412120000692,315,315,255.25412120000692,255.25412120000692,255.25412120000692,255.25412120000692,255.25412120000692,255.25412120000692,255.25412120000692,255.25412120000692,255.25412120000692,255.6199740000302,255.6199740000302,255.6199740000302,255.6199740000302,255.6199740000302,255.6199740000302,255.6199740000302,255.6199740000302,255.6199740000302,23,0,,,255.6199740000302,255.82067580003059,1000,255.82067580003059,1000,1000,1000,1000,0,num_3,1.6166382000083104,,24,1,2026-03-04_15h11.08.470,2026A_exp2,2022.2.4,59.85812426668536,
1,0,0.0,6.1,0,0,55,55,43,,,,,257.45511090004584,258.10568340000464,258.10568340000464,258.60624069999903,45,315,258.60624069999903,258.60624069999903,258.60624069999903,258.60624069999903,258.60624069999903,258.60624069999903,258.60624069999903,258.60624069999903,258.60624069999903,258.9731621000101,258.9731621000101,258.9731621000101,258.9731621000101,258.9731621000101,258.9731621000101,258.9731621000101,258.9731621000101,258.9731621000101,23,0,,,258.9731621000101,259.1736491000047,0.0,259.1736491000047,0,0.0,0,1,1000,num_1,1.1507534999982454,,24,1,2026-03-04_15h11.08.470,2026A_exp2,2022.2.4,59.85812426668536,
1000,1,0.0,6.1,0,0,56,56,85,,,,,260.34129880002,260.992152300023,260.992152300023,261.49320650001755,45,45,261.49320650001755,261.49320650001755,261.49320650001755,261.49320650001755,261.49320650001755,261.49320650001755,261.49320650001755,261.49320650001755,261.49320650001755,261.8428460000432,261.8428460000432,261.8428460000432,261.8428460000432,261.8428460000432,261.8428460000432,261.8428460000432,261.8428460000432,261.8428460000432,22,0,,,261.8428460000432,262.0439374000416,1000,262.0439374000416,1000,1000,1000,1000,1,num_2,1.024536499986425,,24,1,2026-03-04_15h11.08.470,2026A_exp2,2022.2.4,59.85812426668536,
1,0,0.0,6.1,0,0,57,57,82,,,,,263.09406860003946,263.7457245000405,263.7457245000405,264.24579529999755,315,315,264.24579529999755,264.24579529999755,264.24579529999755,264.24579529999755,264.24579529999755,264.24579529999755,264.24579529999755,264.24579529999755,264.24579529999755,264.61231610004324,264.61231610004324,264.61231610004324,264.61231610004324,264.61231610004324,264.61231610004324,264.61231610004324,264.61231610004324,264.61231610004324,23,0,,,264.61231610004324,264.8123099000077,0.0,264.8123099000077,0,0.0,0,1,1000,num_1,1.1527445000247099,,24,1,2026-03-04_15h11.08.470,2026A_exp2,2022.2.4,59.85812426668536,
1000,1,0.0,3.7,1,0,58,58,65,,,,,265.99801959999604,266.6472979999962,266.6472979999962,267.1320355000207,315,315,267.1320355000207,267.1320355000207,267.1320355000207,267.1320355000207,267.1320355000207,267.1320355000207,267.1320355000207,267.1320355000207,267.1320355000207,267.49848270002985,267.49848270002985,267.49848270002985,267.49848270002985,267.49848270002985,267.49848270002985,267.49848270002985,267.49848270002985,267.49848270002985,11,1,[0.18336429999908432],[0.36692300002323464],267.49848270002985,267.69902480003657,1000,267.69902480003657,1000,1000,1000,1000,1,num_2,2.2341828999924473,,24,1,2026-03-04_15h11.08.470,2026A_exp2,2022.2.4,59.85812426668536,
1,0,6.1,4.9,0,0,59,59,81,,,,,269.95091529999627,270.6166696000146,270.6166696000146,271.0895356000401,315,315,271.0895356000401,271.0895356000401,271.0895356000401,271.0895356000401,271.0895356000401,271.0895356000401,271.0895356000401,271.0895356000401,271.0895356000401,271.46897500002524,271.46897500002524,271.46897500002524,271.46897500002524,271.46897500002524,271.46897500002524,271.46897500002524,271.46897500002524,271.46897500002524,24,0,,,271.46897500002524,271.6692036000313,6.1,271.6692036000313,1,6.1,1,1,1000,num_4,1.4476927000214346,,24,1,2026-03-04_15h11.08.470,2026A_exp2,2022.2.4,59.85812426668536,
1000,1,0.0,4.9,0,0,60,60,53,,,,,273.13767690001987,273.788075199991,273.788075199991,274.27227160002803,45,315,274.27227160002803,274.27227160002803,274.27227160002803,274.27227160002803,274.27227160002803,274.27227160002803,274.27227160002803,274.27227160002803,274.27227160002803,274.63887150003575,274.63887150003575,274.63887150003575,274.63887150003575,274.63887150003575,274.63887150003575,274.63887150003575,274.63887150003575,274.63887150003575,23,0,,,274.63887150003575,274.84140480001224,1000,274.84140480001224,1000,1000,1000,1000,1,num_2,0.9316498999833129,,24,1,2026-03-04_15h11.08.470,2026A_exp2,2022.2.4,59.85812426668536,
1000,1,0.0,6.1,1,0,61,61,3,,,,,275.79017390002264,276.44067060004454,276.44067060004454,276.9410494000185,45,315,276.9410494000185,276.9410494000185,276.9410494000185,276.9410494000185,276.9410494000185,276.9410494000185,276.9410494000185,276.9410494000185,276.9410494000185,277.30822290002834,277.30822290002834,277.30822290002834,277.30822290002834,277.30822290002834,277.30822290002834,277.30822290002834,277.30822290002834,277.30822290002834,23,0,,,277.30822290002834,277.50929020001786,1000,277.50929020001786,1000,1000,1000,1000,1,num_2,1.4398068999871612,,24,1,2026-03-04_15h11.08.470,2026A_exp2,2022.2.4,59.85812426668536,
1,0,4.9,6.1,0,0,62,62,33,,,,,278.9652631999925,279.6104991000029,279.6104991000029,280.11185530002695,315,315,280.11185530002695,280.11185530002695,280.11185530002695,280.11185530002695,280.11185530002695,280.11185530002695,280.11185530002695,280.11185530002695,280.11185530002695,280.4780442000483,280.4780442000483,280.4780442000483,280.4780442000483,280.4780442000483,280.4780442000483,280.4780442000483,280.4780442000483,280.4780442000483,23,0,,,280.4780442000483,280.67828430002555,4.9,280.67828430002555,1,4.9,1,1,1000,num_4,1.0624735000310466,,24,1,2026-03-04_15h11.08.470,2026A_exp2,2022.2.4,59.85812426668536,
1000,1,6.1,0.0,0,0,63,63,59,,,,,281.76313620002475,282.41320440004347,282.41320440004347,282.9138433000189,45,45,282.9138433000189,282.9138433000189,282.9138433000189,282.9138433000189,282.9138433000189,282.9138433000189,282.9138433000189,282.9138433000189,282.9138433000189,283.2809194000438,283.2809194000438,283.2809194000438,283.2809194000438,283.2809194000438,283.2809194000438,283.2809194000438,283.2809194000438,283.2809194000438,23,0,,,283.2809194000438,283.4812071000342,1000,283.4812071000342,1000,1000,1000,1000,0,num_3,1.1480002999887802,,24,1,2026-03-04_15h11.08.470,2026A_exp2,2022.2.4,59.85812426668536,
1000,1,6.1,4.9,0,0,64,64,68,,,,,284.6487668000045,285.28315100003965,285.28315100003965,285.78421950002667,45,45,285.78421950002667,285.78421950002667,285.78421950002667,285.78421950002667,285.78421950002667,285.78421950002667,285.78421950002667,285.78421950002667,285.78421950002667,286.1503762000357,286.1503762000357,286.1503762000357,286.1503762000357,286.1503762000357,286.1503762000357,286.1503762000357,286.1503762000357,286.1503762000357,23,0,,,286.1503762000357,286.3511894000112,1000,286.3511894000112,1000,1000,1000,1000,0,num_3,1.4454316000337712,,24,1,2026-03-04_15h11.08.470,2026A_exp2,2022.2.4,59.85812426668536,
1,0,0.0,0.0,1,0,65,65,41,,,,,287.8185017000069,288.46933540003374,288.46933540003374,288.9705360000371,315,315,288.9705360000371,288.9705360000371,288.9705360000371,288.9705360000371,288.9705360000371,288.9705360000371,288.9705360000371,288.9705360000371,288.9705360000371,289.3368448000401,289.3368448000401,289.3368448000401,289.3368448000401,289.3368448000401,289.3368448000401,289.3368448000401,289.3368448000401,289.3368448000401,23,0,,,289.3368448000401,289.5372061000089,0.0,289.5372061000089,0,0.0,0,1,1000,num_1,1.1552821000223048,,24,1,2026-03-04_15h11.08.470,2026A_exp2,2022.2.4,59.85812426668536,
1,0,0.0,0.0,0,0,66,66,34,,,,,290.7216671000351,291.37226490001194,291.37226490001194,291.8567890000413,45,315,291.8567890000413,291.8567890000413,291.8567890000413,291.8567890000413,291.8567890000413,291.8567890000413,291.8567890000413,291.8567890000413,291.8567890000413,292.2228931999998,292.2228931999998,292.2228931999998,292.2228931999998,292.2228931999998,292.2228931999998,292.2228931999998,292.2228931999998,292.2228931999998,23,0,,,292.2228931999998,292.4233317000326,0.0,292.4233317000326,0,0.0,0,1,1000,num_1,1.2131137999822386,,24,1,2026-03-04_15h11.08.470,2026A_exp2,2022.2.4,59.85812426668536,
1,0,0.0,3.7,1,0,67,67,0,,,,,293.65840760001447,294.30883270001505,294.30883270001505,294.7929652000312,315,45,294.7929652000312,294.7929652000312,294.7929652000312,294.7929652000312,294.7929652000312,294.7929652000312,294.7929652000312,294.7929652000312,294.7929652000312,295.1592939000111,295.1592939000111,295.1592939000111,295.1592939000111,295.1592939000111,295.1592939000111,295.1592939000111,295.1592939000111,295.1592939000111,23,0,,,295.1592939000111,295.3597217000206,3.7,295.3597217000206,1,3.7,1,1,1000,num_4,0.8695613000309095,,24,1,2026-03-04_15h11.08.470,2026A_exp2,2022.2.4,59.85812426668536,
1000,1,0.0,4.9,0,0,68,68,5,,,,,296.2606642000028,296.91111650003586,296.91111650003586,297.3955139000318,315,315,297.3955139000318,297.3955139000318,297.3955139000318,297.3955139000318,297.3955139000318,297.3955139000318,297.3955139000318,297.3955139000318,297.3955139000318,297.7619798000087,297.7619798000087,297.7619798000087,297.7619798000087,297.7619798000087,297.7619798000087,297.7619798000087,297.7619798000087,297.7619798000087,23,0,,,297.7619798000087,297.9622725000372,1000,297.9622725000372,1000,1000,1000,1000,1,num_2,1.0592772000236437,,24,1,2026-03-04_15h11.08.470,2026A_exp2,2022.2.4,59.85812426668536,
1,0,3.7,6.1,1,0,69,69,77,,,,,299.0466892000404,299.68350330000976,299.68350330000976,300.1816548000206,45,315,300.1816548000206,300.1816548000206,300.1816548000206,300.1816548000206,300.1816548000206,300.1816548000206,300.1816548000206,300.1816548000206,300.1816548000206,300.54827359999763,300.54827359999763,300.54827359999763,300.54827359999763,300.54827359999763,300.54827359999763,300.54827359999763,300.54827359999763,300.54827359999763,23,0,,,300.54827359999763,300.74817690002965,6.1,300.74817690002965,1,6.1,1,1,1000,num_4,2.6161408000043593,,24,1,2026-03-04_15h11.08.470,2026A_exp2,2022.2.4,59.85812426668536,
1,0,0.0,0.0,1,0,70,70,24,,,,,303.3848249000148,304.0348636000417,304.0348636000417,304.51941390003776,315,315,304.51941390003776,304.51941390003776,304.51941390003776,304.51941390003776,304.51941390003776,304.51941390003776,304.51941390003776,304.51941390003776,304.51941390003776,304.885770199995,304.885770199995,304.885770199995,304.885770199995,304.885770199995,304.885770199995,304.885770199995,304.885770199995,304.885770199995,23,0,,,304.885770199995,305.0859427000396,0.0,305.0859427000396,0,0.0,0,1,1000,num_1,1.2792064999812283,,24,1,2026-03-04_15h11.08.470,2026A_exp2,2022.2.4,59.85812426668536,
1000,1,0.0,0.0,1,0,71,71,40,,,,,306.387661100016,307.0378194000223,307.0378194000223,307.52244960004464,315,315,307.52244960004464,307.52244960004464,307.52244960004464,307.52244960004464,307.52244960004464,307.52244960004464,307.52244960004464,307.52244960004464,307.52244960004464,307.8887865000288,307.8887865000288,307.8887865000288,307.8887865000288,307.8887865000288,307.8887865000288,307.8887865000288,307.8887865000288,307.8887865000288,12,4,"[0.0012943000183440745, 0.06671909999568015, 0.11651780002284795, 0.2000096999690868]","[0.03331259998958558, 0.09996720001799986, 0.18332979996921495, 0.250400000018999]",307.8887865000288,308.08953190001193,1000,308.08953190001193,1000,1000,1000,1000,0,num_3,1.874904600030277,,24,1,2026-03-04_15h11.08.470,2026A_exp2,2022.2.4,59.85812426668536,
1000,1,0.0,0.0,0,0,72,72,6,,,,,309.9909058000194,310.64151020004647,310.64151020004647,311.1259479,45,45,311.1259479,311.1259479,311.1259479,311.1259479,311.1259479,311.1259479,311.1259479,311.1259479,311.1259479,311.49229090003064,311.49229090003064,311.49229090003064,311.49229090003064,311.49229090003064,311.49229090003064,311.49229090003064,311.49229090003064,311.49229090003064,23,0,,,311.49229090003064,311.6935932000051,1000,311.6935932000051,1000,1000,1000,1000,1,num_2,1.6234091999940574,,24,1,2026-03-04_15h11.08.470,2026A_exp2,2022.2.4,59.85812426668536,
1000,1,0.0,0.0,0,0,73,73,45,,,,,313.3442917999928,313.9947600000305,313.9947600000305,314.49609860003693,315,315,314.49609860003693,314.49609860003693,314.49609860003693,314.49609860003693,314.49609860003693,314.49609860003693,314.49609860003693,314.49609860003693,314.49609860003693,314.8624861999997,314.8624861999997,314.8624861999997,314.8624861999997,314.8624861999997,314.8624861999997,314.8624861999997,314.8624861999997,314.8624861999997,23,0,,,314.8624861999997,315.0625960000325,1000,315.0625960000325,1000,1000,1000,1000,1,num_2,1.5497365000192076,,24,1,2026-03-04_15h11.08.470,2026A_exp2,2022.2.4,59.85812426668536,
1000,1,0.0,0.0,1,0,74,74,16,,,,,316.63102480000816,317.2814361000201,317.2814361000201,317.7825221000239,45,315,317.7825221000239,317.7825221000239,317.7825221000239,317.7825221000239,317.7825221000239,317.7825221000239,317.7825221000239,317.7825221000239,317.7825221000239,318.14891859999625,318.14891859999625,318.14891859999625,318.14891859999625,318.14891859999625,318.14891859999625,318.14891859999625,318.14891859999625,318.14891859999625,10,4,"[0.033278999966569245, 0.16658279998227954, 0.23340809997171164, 0.3499506000080146]","[0.08333029999630526, 0.2001029999810271, 0.31629919999977574, 0.3664215999888256]",318.14891859999625,318.3496970999986,1000,318.3496970999986,1000,1000,1000,1000,0,num_3,1.2553789999801666,,24,1,2026-03-04_15h11.08.470,2026A_exp2,2022.2.4,59.85812426668536,
1000,1,0.0,0.0,0,0,75,75,87,,,,,319.63389330002246,320.28459600004135,320.28459600004135,320.78566970000975,315,315,320.78566970000975,320.78566970000975,320.78566970000975,320.78566970000975,320.78566970000975,320.78566970000975,320.78566970000975,320.78566970000975,320.78566970000975,321.1518948000157,321.1518948000157,321.1518948000157,321.1518948000157,321.1518948000157,321.1518948000157,321.1518948000157,321.1518948000157,321.1518948000157,13,4,"[0.01763110002502799, 0.16692170000169426, 0.2504151000175625, 0.35040809999918565]","[0.11670000001322478, 0.20029549999162555, 0.2836511000059545, 0.3670134000130929]",321.1518948000157,321.35240920004435,1000,321.35240920004435,1000,1000,1000,1000,1,num_2,1.4043783999513835,,24,1,2026-03-04_15h11.08.470,2026A_exp2,2022.2.4,59.85812426668536,
1000,1,0.0,6.1,0,0,76,76,75,,,,,322.7885301000206,323.4375406000181,323.4375406000181,323.93861960002687,315,45,323.93861960002687,323.93861960002687,323.93861960002687,323.93861960002687,323.93861960002687,323.93861960002687,323.93861960002687,323.93861960002687,323.93861960002687,324.30522270000074,324.30522270000074,324.30522270000074,324.30522270000074,324.30522270000074,324.30522270000074,324.30522270000074,324.30522270000074,324.30522270000074,23,0,,,324.30522270000074,324.50546499999473,1000,324.50546499999473,1000,1000,1000,1000,1,num_2,1.0440336999599822,,24,1,2026-03-04_15h11.08.470,2026A_exp2,2022.2.4,59.85812426668536,
1000,1,0.0,6.1,1,0,77,77,19,,,,,325.57342850003624,326.22367209999356,326.22367209999356,326.7250467000413,315,315,326.7250467000413,326.7250467000413,326.7250467000413,326.7250467000413,326.7250467000413,326.7250467000413,326.7250467000413,326.7250467000413,326.7250467000413,327.0746348000248,327.0746348000248,327.0746348000248,327.0746348000248,327.0746348000248,327.0746348000248,327.0746348000248,327.0746348000248,327.0746348000248,22,0,,,327.0746348000248,327.2761793000391,1000,327.2761793000391,1000,1000,1000,1000,1,num_2,1.3924566999776289,,24,1,2026-03-04_15h11.08.470,2026A_exp2,2022.2.4,59.85812426668536,
1000,1,3.7,0.0,0,0,78,78,32,,,,,328.6930798999965,329.34378890000517,329.34378890000517,329.82793730002595,45,45,329.82793730002595,329.82793730002595,329.82793730002595,329.82793730002595,329.82793730002595,329.82793730002595,329.82793730002595,329.82793730002595,329.82793730002595,330.19454210001277,330.19454210001277,330.19454210001277,330.19454210001277,330.19454210001277,330.19454210001277,330.19454210001277,330.19454210001277,330.19454210001277,23,0,,,330.19454210001277,330.3963556000381,1000,330.3963556000381,1000,1000,1000,1000,1,num_2,1.6648611999698915,,24,1,2026-03-04_15h11.08.470,2026A_exp2,2022.2.4,59.85812426668536,
0,0,0.0,4.9,0,0,79,79,14,,,,,332.0797263000277,332.73028419999173,332.73028419999173,333.2308958999929,315,315,333.2308958999929,333.2308958999929,333.2308958999929,333.2308958999929,333.2308958999929,333.2308958999929,333.2308958999929,333.2308958999929,333.2308958999929,333.5813938000356,333.5813938000356,333.5813938000356,333.5813938000356,333.5813938000356,333.5813938000356,333.5813938000356,333.5813938000356,333.5813938000356,22,0,,,333.5813938000356,333.78151200001594,4.9,333.78151200001594,1,4.9,1,1,1000,num_4,1.1513755000196397,,24,1,2026-03-04_15h11.08.470,2026A_exp2,2022.2.4,59.85812426668536,
1,0,0.0,3.7,0,0,80,80,61,,,,,334.9491707000416,335.59983250004007,335.59983250004007,336.08423390000826,315,315,336.08423390000826,336.08423390000826,336.08423390000826,336.08423390000826,336.08423390000826,336.08423390000826,336.08423390000826,336.08423390000826,336.08423390000826,336.4506867000018,336.4506867000018,336.4506867000018,336.4506867000018,336.4506867000018,336.4506867000018,336.4506867000018,336.4506867000018,336.4506867000018,23,0,,,336.4506867000018,336.650820400042,0.0,336.650820400042,0,0.0,0,1,1000,num_1,1.0897810000460595,,24,1,2026-03-04_15h11.08.470,2026A_exp2,2022.2.4,59.85812426668536,
1000,1,0.0,6.1,0,0,81,81,35,,,,,337.76870040001813,338.41917710000416,338.41917710000416,338.9035732000484,315,315,338.9035732000484,338.9035732000484,338.9035732000484,338.9035732000484,338.9035732000484,338.9035732000484,338.9035732000484,338.9035732000484,338.9035732000484,339.27021340001374,339.27021340001374,339.27021340001374,339.27021340001374,339.27021340001374,339.27021340001374,339.27021340001374,339.27021340001374,339.27021340001374,23,0,,,339.27021340001374,339.47072520002257,1000,339.47072520002257,1000,1000,1000,1000,1,num_2,1.2388326000072993,,24,1,2026-03-04_15h11.08.470,2026A_exp2,2022.2.4,59.85812426668536,
1000,1,0.0,3.7,0,0,82,82,57,,,,,340.738365600002,341.38873980002245,341.38873980002245,341.88953899999615,45,315,341.88953899999615,341.88953899999615,341.88953899999615,341.88953899999615,341.88953899999615,341.88953899999615,341.88953899999615,341.88953899999615,341.88953899999615,342.25652210001135,342.25652210001135,342.25652210001135,342.25652210001135,342.25652210001135,342.25652210001135,342.25652210001135,342.25652210001135,342.25652210001135,23,0,,,342.25652210001135,342.45679409999866,1000,342.45679409999866,1000,1000,1000,1000,1,num_2,1.2843784999568015,,24,1,2026-03-04_15h11.08.470,2026A_exp2,2022.2.4,59.85812426668536,
1000,1,0.0,0.0,1,0,83,83,23,,,,,343.75798930000747,344.40842140000314,344.40842140000314,344.90976670000236,315,315,344.90976670000236,344.90976670000236,344.90976670000236,344.90976670000236,344.90976670000236,344.90976670000236,344.90976670000236,344.90976670000236,344.90976670000236,345.27635090000695,345.27635090000695,345.27635090000695,345.27635090000695,345.27635090000695,345.27635090000695,345.27635090000695,345.27635090000695,345.27635090000695,4,1,[0.0012309000012464821],[0.31650290003744885],345.27635090000695,345.476727100031,1000,345.476727100031,1000,1000,1000,1000,1,num_2,1.3124453999917023,,24,1,2026-03-04_15h11.08.470,2026A_exp2,2022.2.4,59.85812426668536,
1000,1,6.1,4.9,0,0,84,84,49,,,,,346.8108912000316,347.4448523000465,347.4448523000465,347.94532090000575,45,45,347.94532090000575,347.94532090000575,347.94532090000575,347.94532090000575,347.94532090000575,347.94532090000575,347.94532090000575,347.94532090000575,347.94532090000575,348.3123978000367,348.3123978000367,348.3123978000367,348.3123978000367,348.3123978000367,348.3123978000367,348.3123978000367,348.3123978000367,348.3123978000367,23,0,,,348.3123978000367,348.5136957000359,1000,348.5136957000359,1000,1000,1000,1000,0,num_3,1.0347931999713182,,24,1,2026-03-04_15h11.08.470,2026A_exp2,2022.2.4,59.85812426668536,
1,0,3.7,4.9,1,0,85,85,71,,,,,349.58047950000037,350.23106970003573,350.23106970003573,350.7316703000106,315,45,350.7316703000106,350.7316703000106,350.7316703000106,350.7316703000106,350.7316703000106,350.7316703000106,350.7316703000106,350.7316703000106,350.7316703000106,351.09856810001656,351.09856810001656,351.09856810001656,351.09856810001656,351.09856810001656,351.09856810001656,351.09856810001656,351.09856810001656,351.09856810001656,7,2,"[0.0010816000285558403, 0.2666550000431016]","[0.2331646000384353, 0.30054810002911836]",351.09856810001656,351.29862310003955,4.9,351.29862310003955,1,4.9,1,1,1000,num_4,1.6098494000034407,,24,1,2026-03-04_15h11.08.470,2026A_exp2,2022.2.4,59.85812426668536,
1000,1,0.0,6.1,0,0,86,86,2,,,,,352.933932200016,353.58422980003525,353.58422980003525,354.06841310003074,45,45,354.06841310003074,354.06841310003074,354.06841310003074,354.06841310003074,354.06841310003074,354.06841310003074,354.06841310003074,354.06841310003074,354.06841310003074,354.43532789999153,354.43532789999153,354.43532789999153,354.43532789999153,354.43532789999153,354.43532789999153,354.43532789999153,354.43532789999153,354.43532789999153,9,1,[0.1502288999618031],[0.3671027999953367],354.43532789999153,354.63715480000246,1000,354.63715480000246,1000,1000,1000,1000,0,num_3,2.6719411000376567,,24,1,2026-03-04_15h11.08.470,2026A_exp2,2022.2.4,59.85812426668536,
1,0,4.9,4.9,0,0,87,87,84,,,,,357.33827619999647,357.9887918000459,357.9887918000459,358.4734472000273,315,45,358.4734472000273,358.4734472000273,358.4734472000273,358.4734472000273,358.4734472000273,358.4734472000273,358.4734472000273,358.4734472000273,358.4734472000273,358.83961880003335,358.83961880003335,358.83961880003335,358.83961880003335,358.83961880003335,358.83961880003335,358.83961880003335,358.83961880003335,358.83961880003335,1,1,[0.017597900005057454],[0.3667998999590054],358.83961880003335,359.03986489999807,4.9,359.03986489999807,1,4.9,1,1,1000,num_4,1.0853378000319935,,24,1,2026-03-04_15h11.08.470,2026A_exp2,2022.2.4,59.85812426668536,
1000,1,4.9,0.0,0,0,88,88,50,,,,,360.14111750002485,360.7917639000225,360.7917639000225,361.2762393000303,45,45,361.2762393000303,361.2762393000303,361.2762393000303,361.2762393000303,361.2762393000303,361.2762393000303,361.2762393000303,361.2762393000303,361.2762393000303,361.6425046999939,361.6425046999939,361.6425046999939,361.6425046999939,361.6425046999939,361.6425046999939,361.6425046999939,361.6425046999939,361.6425046999939,23,0,,,361.6425046999939,361.84441630000947,1000,361.84441630000947,1000,1000,1000,1000,0,num_3,1.064810999960173,,24,1,2026-03-04_15h11.08.470,2026A_exp2,2022.2.4,59.85812426668536,
0,0,3.7,6.1,0,0,89,89,73,,,,,362.9270927000325,363.5780207000207,363.5780207000207,364.06233380001504,45,45,364.06233380001504,364.06233380001504,364.06233380001504,364.06233380001504,364.06233380001504,364.06233380001504,364.06233380001504,364.06233380001504,364.06233380001504,364.44501100003254,364.44501100003254,364.44501100003254,364.44501100003254,364.44501100003254,364.44501100003254,364.44501100003254,364.44501100003254,364.44501100003254,24,0,,,364.44501100003254,364.6451559000416,6.1,364.6451559000416,1,6.1,1,1,1000,num_4,1.079913800000213,,24,1,2026-03-04_15h11.08.470,2026A_exp2,2022.2.4,59.85812426668536,
,,,,,,,,,,,,,,,,,,,,,,,,,,,,,,,,,,,,,,,,,,,,,,,,,,,,365.75343520002207,,,,,,,
