validity,detectorcomp,contrastCW,contrastCCW,precueCWorCCW,block_80trials.thisRepN,block_80trials.thisTrialN,block_80trials.thisN,block_80trials.thisIndex,etRecord.started,etRecord.stopped,text.started,text.stopped,text_4.started,text_4.stopped,text_6.started,text_6.stopped,oriCW,oriCCW,roi_2.started,grating_UR.started,grating_UL.started,grating_LR.started,grating_LL.started,noise_UR.started,noise_UL.started,noise_LR.started,noise_LL.started,roi_2.stopped,grating_UR.stopped,grating_UL.stopped,grating_LR.stopped,grating_LL.stopped,noise_UR.stopped,noise_UL.stopped,noise_LR.stopped,noise_LL.stopped,outframe,roi_2.numLooks,roi_2.timesOn,roi_2.timesOff,text_2.started,text_2.stopped,probedcontrast,key_resp.started,respdetect,relevantContrast,correctDetect,TorFdetect,respCWorCCW,key_resp.keys,key_resp.rt,feedback_display_.started,participantNo,blockNo,date,expName,psychopyVersion,frameRate,
1000,1,3.7,6.1,1,0,0,0,48,6.13001175224781e-05,6.13001175224781e-05,49.33222320000641,51.344490399817005,51.344490399817005,51.986189199844375,51.986189199844375,52.5085958999116,45,45,52.5085958999116,52.5085958999116,52.5085958999116,52.5085958999116,52.5085958999116,52.5085958999116,52.5085958999116,52.5085958999116,52.5085958999116,52.837034199852496,52.837034199852496,52.837034199852496,52.837034199852496,52.837034199852496,52.837034199852496,52.837034199852496,52.837034199852496,52.837034199852496,0,1,[0.0009593002032488585],[0.3509433001745492],52.837034199852496,53.037159299943596,1000,53.037159299943596,1000,1000,1000,1000,1,num_2,0.432178899878636,,33,4,2026-03-12_17h26.35.975,2026A_exp2,2022.2.4,59.9049906587533,
1000,1,0.0,0.0,1,0,1,1,1,,,,,53.48768599983305,54.13826759997755,54.13826759997755,54.63945329980925,315,45,54.63945329980925,54.63945329980925,54.63945329980925,54.63945329980925,54.63945329980925,54.63945329980925,54.63945329980925,54.63945329980925,54.63945329980925,54.98911299998872,54.98911299998872,54.98911299998872,54.98911299998872,54.98911299998872,54.98911299998872,54.98911299998872,54.98911299998872,54.98911299998872,0,1,[0.0012462998274713755],[0.3504654997959733],54.98911299998872,55.19113099994138,1000,55.19113099994138,1000,1000,1000,1000,0,num_3,0.3429740001447499,,33,4,2026-03-12_17h26.35.975,2026A_exp2,2022.2.4,59.9049906587533,
1000,1,0.0,0.0,0,0,2,2,7,,,,,55.55648939986713,56.20702639990486,56.20702639990486,56.7081356998533,315,45,56.7081356998533,56.7081356998533,56.7081356998533,56.7081356998533,56.7081356998533,56.7081356998533,56.7081356998533,56.7081356998533,56.7081356998533,57.07448549987748,57.07448549987748,57.07448549987748,57.07448549987748,57.07448549987748,57.07448549987748,57.07448549987748,57.07448549987748,57.07448549987748,0,1,[0.0012407999020069838],[0.3671852999832481],57.07448549987748,57.27678049984388,1000,57.27678049984388,1000,1000,1000,1000,0,num_3,0.6489563998766243,,33,4,2026-03-12_17h26.35.975,2026A_exp2,2022.2.4,59.9049906587533,
1000,1,4.9,4.9,1,0,3,3,68,,,,,57.94236180000007,58.59265369991772,58.59265369991772,59.07726309983991,315,45,59.07726309983991,59.07726309983991,59.07726309983991,59.07726309983991,59.07726309983991,59.07726309983991,59.07726309983991,59.07726309983991,59.07726309983991,59.44346609991044,59.44346609991044,59.44346609991044,59.44346609991044,59.44346609991044,59.44346609991044,59.44346609991044,59.44346609991044,59.44346609991044,0,1,[0.0007161998655647039],[0.367601600009948],59.44346609991044,59.64563209982589,1000,59.64563209982589,1000,1000,1000,1000,1,num_2,0.37604730017483234,,33,4,2026-03-12_17h26.35.975,2026A_exp2,2022.2.4,59.9049906587533,
1,0,3.7,0.0,0,0,4,4,87,,,,,60.04423939995468,60.69490909995511,60.69490909995511,61.179123000008985,45,45,61.179123000008985,61.179123000008985,61.179123000008985,61.179123000008985,61.179123000008985,61.179123000008985,61.179123000008985,61.179123000008985,61.179123000008985,61.54568879981525,61.54568879981525,61.54568879981525,61.54568879981525,61.54568879981525,61.54568879981525,61.54568879981525,61.54568879981525,61.54568879981525,0,1,[0.0012091000098735094],[0.366925299866125],61.54568879981525,61.74587640003301,3.7,61.74587640003301,1,3.7,1,1,1000,num_4,0.7078210001345724,,33,4,2026-03-12_17h26.35.975,2026A_exp2,2022.2.4,59.9049906587533,
1000,1,0.0,4.9,0,0,5,5,61,,,,,62.480060199974105,63.130616899812594,63.130616899812594,63.614963699830696,45,315,63.614963699830696,63.614963699830696,63.614963699830696,63.614963699830696,63.614963699830696,63.614963699830696,63.614963699830696,63.614963699830696,63.614963699830696,63.98154910001904,63.98154910001904,63.98154910001904,63.98154910001904,63.98154910001904,63.98154910001904,63.98154910001904,63.98154910001904,63.98154910001904,0,1,[0.001321299932897091],[0.3672915999777615],63.98154910001904,64.18351829983294,1000,64.18351829983294,1000,1000,1000,1000,1,num_2,0.5015562998596579,,33,4,2026-03-12_17h26.35.975,2026A_exp2,2022.2.4,59.9049906587533,
1,0,4.9,0.0,0,0,6,6,53,,,,,64.71537270001136,65.36627009999938,65.36627009999938,65.8672554998193,45,315,65.8672554998193,65.8672554998193,65.8672554998193,65.8672554998193,65.8672554998193,65.8672554998193,65.8672554998193,65.8672554998193,65.8672554998193,66.234143699985,66.234143699985,66.234143699985,66.234143699985,66.234143699985,66.234143699985,66.234143699985,66.234143699985,66.234143699985,0,1,[0.0013252999633550644],[0.3669600998982787],66.234143699985,66.43369009997696,4.9,66.43369009997696,1,4.9,1,1,1000,num_4,0.6286742000374943,,33,4,2026-03-12_17h26.35.975,2026A_exp2,2022.2.4,59.9049906587533,
1,0,6.1,4.9,1,0,7,7,64,,,,,67.08440199983306,67.73532959981821,67.73532959981821,68.21970999985933,315,315,68.21970999985933,68.21970999985933,68.21970999985933,68.21970999985933,68.21970999985933,68.21970999985933,68.21970999985933,68.21970999985933,68.21970999985933,68.58610239997506,68.58610239997506,68.58610239997506,68.58610239997506,68.58610239997506,68.58610239997506,68.58610239997506,68.58610239997506,68.58610239997506,0,1,[0.0012198998592793941],[0.3673115000128746],68.58610239997506,68.78636849997565,4.9,68.78636849997565,1,4.9,1,1,1000,num_4,0.9232898000627756,,33,4,2026-03-12_17h26.35.975,2026A_exp2,2022.2.4,59.9049906587533,
1000,1,0.0,3.7,1,0,8,8,84,,,,,69.73730729985982,70.38762529985979,70.38762529985979,70.87220219988376,315,45,70.87220219988376,70.87220219988376,70.87220219988376,70.87220219988376,70.87220219988376,70.87220219988376,70.87220219988376,70.87220219988376,70.87220219988376,71.23872959986329,71.23872959986329,71.23872959986329,71.23872959986329,71.23872959986329,71.23872959986329,71.23872959986329,71.23872959986329,71.23872959986329,0,1,[0.0015162997879087925],[0.36691399989649653],71.23872959986329,71.44097219989635,1000,71.44097219989635,1000,1000,1000,1000,1,num_2,0.46114659984596074,,33,4,2026-03-12_17h26.35.975,2026A_exp2,2022.2.4,59.9049906587533,
1,0,4.9,0.0,1,0,9,9,65,,,,,71.92270979983732,72.57339969999157,72.57339969999157,73.07444019988179,45,315,73.07444019988179,73.07444019988179,73.07444019988179,73.07444019988179,73.07444019988179,73.07444019988179,73.07444019988179,73.07444019988179,73.07444019988179,73.44089820003137,73.44089820003137,73.44089820003137,73.44089820003137,73.44089820003137,73.44089820003137,73.44089820003137,73.44089820003137,73.44089820003137,0,1,[0.0012052999809384346],[0.36737660015933216],73.44089820003137,73.64121040003374,0.0,73.64121040003374,0,0.0,0,1,1000,num_1,0.6439902000129223,,33,4,2026-03-12_17h26.35.975,2026A_exp2,2022.2.4,59.9049906587533,
1000,1,0.0,0.0,1,0,10,10,85,,,,,74.30826699989848,74.9592207998503,74.9592207998503,75.44361829990521,315,45,75.44361829990521,75.44361829990521,75.44361829990521,75.44361829990521,75.44361829990521,75.44361829990521,75.44361829990521,75.44361829990521,75.44361829990521,75.80996329989284,75.80996329989284,75.80996329989284,75.80996329989284,75.80996329989284,75.80996329989284,75.80996329989284,75.80996329989284,75.80996329989284,0,1,[0.0012019001878798008],[0.3670797001104802],75.80996329989284,76.012154399883,1000,76.012154399883,1000,1000,1000,1000,1,num_2,0.9373590999748558,,33,4,2026-03-12_17h26.35.975,2026A_exp2,2022.2.4,59.9049906587533,
1000,1,0.0,4.9,1,0,11,11,66,,,,,76.97794010001235,77.62852439982817,77.62852439982817,78.12964379996993,315,315,78.12964379996993,78.12964379996993,78.12964379996993,78.12964379996993,78.12964379996993,78.12964379996993,78.12964379996993,78.12964379996993,78.12964379996993,78.49594199983403,78.49594199983403,78.49594199983403,78.49594199983403,78.49594199983403,78.49594199983403,78.49594199983403,78.49594199983403,78.49594199983403,0,1,[0.00125070009380579],[0.3671437001321465],78.49594199983403,78.69812259986065,1000,78.69812259986065,1000,1000,1000,1000,1,num_2,0.4193739998154342,,33,4,2026-03-12_17h26.35.975,2026A_exp2,2022.2.4,59.9049906587533,
1000,1,3.7,3.7,0,0,12,12,72,,,,,79.14657909981906,79.79726989986375,79.79726989986375,80.29842210002244,315,45,80.29842210002244,80.29842210002244,80.29842210002244,80.29842210002244,80.29842210002244,80.29842210002244,80.29842210002244,80.29842210002244,80.29842210002244,80.6647120998241,80.6647120998241,80.6647120998241,80.6647120998241,80.6647120998241,80.6647120998241,80.6647120998241,80.6647120998241,80.6647120998241,0,1,[0.0013041999191045761],[0.3677725000306964],80.6647120998241,80.8650169998873,1000,80.8650169998873,1000,1000,1000,1000,0,num_3,0.44499689992517233,,33,4,2026-03-12_17h26.35.975,2026A_exp2,2022.2.4,59.9049906587533,
1,0,0.0,0.0,0,0,13,13,88,,,,,81.33205519989133,81.98273649998009,81.98273649998009,82.48398789996281,45,315,82.48398789996281,82.48398789996281,82.48398789996281,82.48398789996281,82.48398789996281,82.48398789996281,82.48398789996281,82.48398789996281,82.48398789996281,82.85010449984111,82.85010449984111,82.85010449984111,82.85010449984111,82.85010449984111,82.85010449984111,82.85010449984111,82.85010449984111,82.85010449984111,0,1,[0.0012284000404179096],[0.3669372999574989],82.85010449984111,83.05063329986297,0.0,83.05063329986297,0,0.0,0,1,1000,num_1,0.914709699805826,,33,4,2026-03-12_17h26.35.975,2026A_exp2,2022.2.4,59.9049906587533,
0,0,3.7,0.0,0,0,14,14,62,,,,,83.98480440001003,84.63551029982045,84.63551029982045,85.11970319994725,45,315,85.11970319994725,85.11970319994725,85.11970319994725,85.11970319994725,85.11970319994725,85.11970319994725,85.11970319994725,85.11970319994725,85.11970319994725,85.4863628000021,85.4863628000021,85.4863628000021,85.4863628000021,85.4863628000021,85.4863628000021,85.4863628000021,85.4863628000021,85.4863628000021,0,1,[0.0012054999824613333],[0.3671763997990638],85.4863628000021,85.68652440002188,0.0,85.68652440002188,0,0.0,0,1,1000,num_1,0.8546074000187218,,33,4,2026-03-12_17h26.35.975,2026A_exp2,2022.2.4,59.9049906587533,
1000,1,0.0,0.0,1,0,15,15,78,,,,,86.57061579986475,87.22131839999929,87.22131839999929,87.70572399999946,45,315,87.70572399999946,87.70572399999946,87.70572399999946,87.70572399999946,87.70572399999946,87.70572399999946,87.70572399999946,87.70572399999946,87.70572399999946,88.07224689982831,88.07224689982831,88.07224689982831,88.07224689982831,88.07224689982831,88.07224689982831,88.07224689982831,88.07224689982831,88.07224689982831,0,1,[0.001245599938556552],[0.36718249996192753],88.07224689982831,88.27427219995297,1000,88.27427219995297,1000,1000,1000,1000,0,num_3,0.5959832998923957,,33,4,2026-03-12_17h26.35.975,2026A_exp2,2022.2.4,59.9049906587533,
1,0,4.9,3.7,0,0,16,16,44,,,,,88.88965899986215,89.54036320000887,89.54036320000887,90.0415614999365,45,315,90.0415614999365,90.0415614999365,90.0415614999365,90.0415614999365,90.0415614999365,90.0415614999365,90.0415614999365,90.0415614999365,90.0415614999365,90.40793689992279,90.40793689992279,90.40793689992279,90.40793689992279,90.40793689992279,90.40793689992279,90.40793689992279,90.40793689992279,90.40793689992279,0,1,[0.0012095000129193068],[0.3673380999825895],90.40793689992279,90.6080411998555,4.9,90.6080411998555,1,4.9,1,1,1000,num_4,0.7650460000149906,,33,4,2026-03-12_17h26.35.975,2026A_exp2,2022.2.4,59.9049906587533,
1000,1,0.0,0.0,0,0,17,17,86,,,,,91.39208899997175,92.04294930002652,92.04294930002652,92.5272488000337,45,45,92.5272488000337,92.5272488000337,92.5272488000337,92.5272488000337,92.5272488000337,92.5272488000337,92.5272488000337,92.5272488000337,92.5272488000337,92.89377660001628,92.89377660001628,92.89377660001628,92.89377660001628,92.89377660001628,92.89377660001628,92.89377660001628,92.89377660001628,92.89377660001628,0,1,[0.0012225001119077206],[0.3671794000547379],92.89377660001628,93.0955762998201,1000,93.0955762998201,1000,1000,1000,1000,0,num_3,1.0776211998891085,,33,4,2026-03-12_17h26.35.975,2026A_exp2,2022.2.4,59.9049906587533,
0,0,0.0,0.0,1,0,18,18,2,,,,,94.19522570003755,94.84556139982305,94.84556139982305,95.33047949988395,315,315,95.33047949988395,95.33047949988395,95.33047949988395,95.33047949988395,95.33047949988395,95.33047949988395,95.33047949988395,95.33047949988395,95.33047949988395,95.6964883999899,95.6964883999899,95.6964883999899,95.6964883999899,95.6964883999899,95.6964883999899,95.6964883999899,95.6964883999899,95.6964883999899,0,1,[0.0012757000513374805],[0.3671464999206364],95.6964883999899,95.89679239992984,0.0,95.89679239992984,1,0.0,0,0,1000,num_4,0.7567396000958979,,33,4,2026-03-12_17h26.35.975,2026A_exp2,2022.2.4,59.9049906587533,
1000,1,0.0,3.7,1,0,19,19,13,,,,,96.68069870001636,97.32467719982378,97.32467719982378,97.81599179981276,315,315,97.81599179981276,97.81599179981276,97.81599179981276,97.81599179981276,97.81599179981276,97.81599179981276,97.81599179981276,97.81599179981276,97.81599179981276,98.18237039982341,98.18237039982341,98.18237039982341,98.18237039982341,98.18237039982341,98.18237039982341,98.18237039982341,98.18237039982341,98.18237039982341,15,1,[0.25043020001612604],[0.3673429999034852],98.18237039982341,98.38436189992353,1000,98.38436189992353,1000,1000,1000,1000,1,num_2,0.46146400016732514,,33,4,2026-03-12_17h26.35.975,2026A_exp2,2022.2.4,59.9049906587533,
1,0,0.0,0.0,1,0,20,20,69,,,,,98.8663182000164,99.51695009996183,99.51695009996183,100.01879759994335,315,315,100.01879759994335,100.01879759994335,100.01879759994335,100.01879759994335,100.01879759994335,100.01879759994335,100.01879759994335,100.01879759994335,100.01879759994335,100.36777899996378,100.36777899996378,100.36777899996378,100.36777899996378,100.36777899996378,100.36777899996378,100.36777899996378,100.36777899996378,100.36777899996378,0,1,[0.0019250998739153147],[0.3501003999263048],100.36777899996378,100.56801689998247,0.0,100.56801689998247,1,0.0,0,0,1000,num_4,1.5662370000500232,,33,4,2026-03-12_17h26.35.975,2026A_exp2,2022.2.4,59.9049906587533,
1000,1,0.0,0.0,0,0,21,21,15,,,,,102.15300799999386,102.78688469994813,102.78688469994813,103.28795429994352,45,315,103.28795429994352,103.28795429994352,103.28795429994352,103.28795429994352,103.28795429994352,103.28795429994352,103.28795429994352,103.28795429994352,103.28795429994352,103.65451639983803,103.65451639983803,103.65451639983803,103.65451639983803,103.65451639983803,103.65451639983803,103.65451639983803,103.65451639983803,103.65451639983803,0,1,[0.0012101000174880028],[0.3669915001373738],103.65451639983803,103.85722459992394,1000,103.85722459992394,1000,1000,1000,1000,1,num_2,0.48514790018089116,,33,4,2026-03-12_17h26.35.975,2026A_exp2,2022.2.4,59.9049906587533,
1000,1,3.7,0.0,0,0,22,22,56,,,,,104.3718473999761,105.0224576999899,105.0224576999899,105.5235564999748,45,315,105.5235564999748,105.5235564999748,105.5235564999748,105.5235564999748,105.5235564999748,105.5235564999748,105.5235564999748,105.5235564999748,105.5235564999748,105.8900597000029,105.8900597000029,105.8900597000029,105.8900597000029,105.8900597000029,105.8900597000029,105.8900597000029,105.8900597000029,105.8900597000029,0,1,[0.0012497000861912966],[0.36707699997350574],105.8900597000029,106.09203079994768,1000,106.09203079994768,1000,1000,1000,1000,0,num_3,0.5540253999643028,,33,4,2026-03-12_17h26.35.975,2026A_exp2,2022.2.4,59.9049906587533,
1,0,3.7,3.7,1,0,23,23,30,,,,,106.67413439997472,107.324846399948,107.324846399948,107.82579949987121,315,315,107.82579949987121,107.82579949987121,107.82579949987121,107.82579949987121,107.82579949987121,107.82579949987121,107.82579949987121,107.82579949987121,107.82579949987121,108.17565250000916,108.17565250000916,108.17565250000916,108.17565250000916,108.17565250000916,108.17565250000916,108.17565250000916,108.17565250000916,108.17565250000916,0,1,[0.0012924999464303255],[0.35064279986545444],108.17565250000916,108.37584689981304,3.7,108.39257429982536,1,3.7,1,1,1000,num_4,0.8366910999175161,,33,4,2026-03-12_17h26.35.975,2026A_exp2,2022.2.4,59.9049906587533,
1000,1,3.7,3.7,0,0,24,24,63,,,,,109.259982699994,109.91075239982456,109.91075239982456,110.39514359994791,45,315,110.39514359994791,110.39514359994791,110.39514359994791,110.39514359994791,110.39514359994791,110.39514359994791,110.39514359994791,110.39514359994791,110.39514359994791,110.761790700024,110.761790700024,110.761790700024,110.761790700024,110.761790700024,110.761790700024,110.761790700024,110.761790700024,110.761790700024,0,1,[0.0012511999811977148],[0.36721160006709397],110.761790700024,110.96388229983859,1000,110.96388229983859,1000,1000,1000,1000,1,num_2,0.45726219983771443,,33,4,2026-03-12_17h26.35.975,2026A_exp2,2022.2.4,59.9049906587533,
1,0,0.0,0.0,1,0,25,25,42,,,,,111.44555149995722,112.09630330000073,112.09630330000073,112.59739280003123,45,45,112.59739280003123,112.59739280003123,112.59739280003123,112.59739280003123,112.59739280003123,112.59739280003123,112.59739280003123,112.59739280003123,112.59739280003123,112.96351979998872,112.96351979998872,112.96351979998872,112.96351979998872,112.96351979998872,112.96351979998872,112.96351979998872,112.96351979998872,112.96351979998872,0,1,[0.001412500161677599],[0.3663815001491457],112.96351979998872,113.16396289994009,0.0,113.16396289994009,1,0.0,0,0,1000,num_4,0.7850452000275254,,33,4,2026-03-12_17h26.35.975,2026A_exp2,2022.2.4,59.9049906587533,
1,0,3.7,4.9,1,0,26,26,18,,,,,113.98127630003728,114.64458890003152,114.64458890003152,115.11654389998876,315,315,115.11654389998876,115.11654389998876,115.11654389998876,115.11654389998876,115.11654389998876,115.11654389998876,115.11654389998876,115.11654389998876,115.11654389998876,115.48293889989145,115.48293889989145,115.48293889989145,115.48293889989145,115.48293889989145,115.48293889989145,115.48293889989145,115.48293889989145,115.48293889989145,0,1,[0.0012292999308556318],[0.3670779000967741],115.48293889989145,115.68315619998612,4.9,115.68315619998612,1,4.9,1,1,1000,num_4,0.5631472999230027,,33,4,2026-03-12_17h26.35.975,2026A_exp2,2022.2.4,59.9049906587533,
1,0,0.0,6.1,1,0,27,27,31,,,,,116.2670656000264,116.91761869983748,116.91761869983748,117.40222689998336,45,315,117.40222689998336,117.40222689998336,117.40222689998336,117.40222689998336,117.40222689998336,117.40222689998336,117.40222689998336,117.40222689998336,117.40222689998336,117.76867250003852,117.76867250003852,117.76867250003852,117.76867250003852,117.76867250003852,117.76867250003852,117.76867250003852,117.76867250003852,117.76867250003852,0,1,[0.0012298000510782003],[0.3671921999193728],117.76867250003852,117.9687381000258,6.1,117.9687381000258,1,6.1,1,1,1000,num_4,0.5563576999120414,,33,4,2026-03-12_17h26.35.975,2026A_exp2,2022.2.4,59.9049906587533,
1000,1,4.9,0.0,0,0,28,28,41,,,,,118.55266609997489,119.20347259985283,119.20347259985283,119.68771279999055,45,315,119.68771279999055,119.68771279999055,119.68771279999055,119.68771279999055,119.68771279999055,119.68771279999055,119.68771279999055,119.68771279999055,119.68771279999055,120.05415089987218,120.05415089987218,120.05415089987218,120.05415089987218,120.05415089987218,120.05415089987218,120.05415089987218,120.05415089987218,120.05415089987218,0,1,[0.0012101000174880028],[0.3672621001023799],120.05415089987218,120.25634349999018,1000,120.25634349999018,1000,1000,1000,1000,0,num_3,0.5100292998831719,,33,4,2026-03-12_17h26.35.975,2026A_exp2,2022.2.4,59.9049906587533,
1000,1,6.1,0.0,1,0,29,29,57,,,,,120.78815489984117,121.43898410000838,121.43898410000838,121.93995659984648,45,45,121.93995659984648,121.93995659984648,121.93995659984648,121.93995659984648,121.93995659984648,121.93995659984648,121.93995659984648,121.93995659984648,121.93995659984648,122.28989519993775,122.28989519993775,122.28989519993775,122.28989519993775,122.28989519993775,122.28989519993775,122.28989519993775,122.28989519993775,122.28989519993775,1,1,[0.017453400185331702],[0.3508227001875639],122.28989519993775,122.49164479994215,1000,122.50671679992229,1000,1000,1000,1000,0,num_3,0.45952700008638203,,33,4,2026-03-12_17h26.35.975,2026A_exp2,2022.2.4,59.9049906587533,
1,0,6.1,3.7,1,0,30,30,51,,,,,122.99038329999894,123.64103499986231,123.64103499986231,124.14217110001482,45,45,124.14217110001482,124.14217110001482,124.14217110001482,124.14217110001482,124.14217110001482,124.14217110001482,124.14217110001482,124.14217110001482,124.14217110001482,124.49201079993509,124.49201079993509,124.49201079993509,124.49201079993509,124.49201079993509,124.49201079993509,124.49201079993509,124.49201079993509,124.49201079993509,1,2,"[0.0012454998213797808, 0.2673394999001175]","[0.2508358999621123, 0.3503533999901265]",124.49201079993509,124.69510699994862,3.7,124.69510699994862,0,3.7,1,0,1000,num_1,0.7190864998847246,,33,4,2026-03-12_17h26.35.975,2026A_exp2,2022.2.4,59.9049906587533,
0,0,0.0,0.0,0,0,31,31,59,,,,,125.44282029988244,126.09332600003108,126.09332600003108,126.57789189997129,45,315,126.57789189997129,126.57789189997129,126.57789189997129,126.57789189997129,126.57789189997129,126.57789189997129,126.57789189997129,126.57789189997129,126.57789189997129,126.9443508000113,126.9443508000113,126.9443508000113,126.9443508000113,126.9443508000113,126.9443508000113,126.9443508000113,126.9443508000113,126.9443508000113,8,3,"[0.0007253000512719154, 0.10017730016261339, 0.16716150008141994]","[0.01752920006401837, 0.11706720013171434, 0.3678144000004977]",126.9443508000113,127.1448059999384,0.0,127.1448059999384,0,0.0,0,1,1000,num_1,1.0932324000168592,,33,4,2026-03-12_17h26.35.975,2026A_exp2,2022.2.4,59.9049906587533,
1000,1,4.9,0.0,1,0,32,32,77,,,,,128.26227069995366,128.91310429992154,128.91310429992154,129.39756569988094,315,315,129.39756569988094,129.39756569988094,129.39756569988094,129.39756569988094,129.39756569988094,129.39756569988094,129.39756569988094,129.39756569988094,129.39756569988094,129.763792200014,129.763792200014,129.763792200014,129.763792200014,129.763792200014,129.763792200014,129.763792200014,129.763792200014,129.763792200014,0,1,[0.0014108000323176384],[0.3671129001304507],129.763792200014,129.96569549990818,1000,129.96569549990818,1000,1000,1000,1000,0,num_3,0.528140899958089,,33,4,2026-03-12_17h26.35.975,2026A_exp2,2022.2.4,59.9049906587533,
1000,1,0.0,0.0,1,0,33,33,9,,,,,130.5147341999691,131.16521649993956,131.16521649993956,131.66627299995162,315,45,131.66627299995162,131.66627299995162,131.66627299995162,131.66627299995162,131.66627299995162,131.66627299995162,131.66627299995162,131.66627299995162,131.66627299995162,132.0328767998144,132.0328767998144,132.0328767998144,132.0328767998144,132.0328767998144,132.0328767998144,132.0328767998144,132.0328767998144,132.0328767998144,0,1,[0.0012129000388085842],[0.36723700002767146],132.0328767998144,132.23504319996573,1000,132.23504319996573,1000,1000,1000,1000,0,num_3,0.8506559000816196,,33,4,2026-03-12_17h26.35.975,2026A_exp2,2022.2.4,59.9049906587533,
1,0,3.7,0.0,1,0,34,34,12,,,,,133.11737099988386,133.770218399819,133.770218399819,134.2688887999393,315,315,134.2688887999393,134.2688887999393,134.2688887999393,134.2688887999393,134.2688887999393,134.2688887999393,134.2688887999393,134.2688887999393,134.2688887999393,134.61881179991178,134.61881179991178,134.61881179991178,134.61881179991178,134.61881179991178,134.61881179991178,134.61881179991178,134.61881179991178,134.61881179991178,9,1,[0.001530500128865242],[0.21664240001700819],134.61881179991178,134.81902069994248,0.0,134.81902069994248,0,0.0,0,1,1000,num_1,0.64262709999457,,33,4,2026-03-12_17h26.35.975,2026A_exp2,2022.2.4,59.9049906587533,
1000,1,0.0,0.0,0,0,35,35,17,,,,,135.4861504000146,136.13702889997512,136.13702889997512,136.6217844998464,315,315,136.6217844998464,136.6217844998464,136.6217844998464,136.6217844998464,136.6217844998464,136.6217844998464,136.6217844998464,136.6217844998464,136.6217844998464,136.98777089989744,136.98777089989744,136.98777089989744,136.98777089989744,136.98777089989744,136.98777089989744,136.98777089989744,136.98777089989744,136.98777089989744,0,1,[0.0018611999694257975],[0.3666048999875784],136.98777089989744,137.19057139987126,1000,137.19057139987126,1000,1000,1000,1000,0,num_3,1.0794577000197023,,33,4,2026-03-12_17h26.35.975,2026A_exp2,2022.2.4,59.9049906587533,
1000,1,0.0,3.7,0,0,36,36,46,,,,,138.28916249983013,138.93977009993978,138.93977009993978,139.44095980003476,315,315,139.44095980003476,139.44095980003476,139.44095980003476,139.44095980003476,139.44095980003476,139.44095980003476,139.44095980003476,139.44095980003476,139.44095980003476,139.80738549982198,139.80738549982198,139.80738549982198,139.80738549982198,139.80738549982198,139.80738549982198,139.80738549982198,139.80738549982198,139.80738549982198,0,1,[0.0012399000115692616],[0.36707350006327033],139.80738549982198,140.00953279994428,1000,140.00953279994428,1000,1000,1000,1000,1,num_2,2.8923873000312597,,33,4,2026-03-12_17h26.35.975,2026A_exp2,2022.2.4,59.9049906587533,
1000,1,4.9,0.0,0,0,37,37,54,,,,,142.92707269988023,143.5776659999974,143.5776659999974,144.07878109999,315,315,144.07878109999,144.07878109999,144.07878109999,144.07878109999,144.07878109999,144.07878109999,144.07878109999,144.07878109999,144.07878109999,144.44530639983714,144.44530639983714,144.44530639983714,144.44530639983714,144.44530639983714,144.44530639983714,144.44530639983714,144.44530639983714,144.44530639983714,0,1,[0.0012577997986227274],[0.36724699987098575],144.44530639983714,144.64764690003358,1000,144.64764690003358,1000,1000,1000,1000,0,num_3,0.42953779990784824,,33,4,2026-03-12_17h26.35.975,2026A_exp2,2022.2.4,59.9049906587533,
1000,1,0.0,4.9,0,0,38,38,6,,,,,145.096259099897,145.74654289986938,145.74654289986938,146.247682799818,315,315,146.247682799818,146.247682799818,146.247682799818,146.247682799818,146.247682799818,146.247682799818,146.247682799818,146.247682799818,146.247682799818,146.6141582999844,146.6141582999844,146.6141582999844,146.6141582999844,146.6141582999844,146.6141582999844,146.6141582999844,146.6141582999844,146.6141582999844,4,5,"[0.0013177001383155584, 0.183946100063622, 0.2339719000738114, 0.28406830015592277, 0.3173844001721591]","[0.16707250010222197, 0.2173065000679344, 0.267303200205788, 0.30095810000784695, 0.3676403001882136]",146.6141582999844,146.8164770998992,1000,146.8164770998992,1000,1000,1000,1000,1,num_2,0.7415255000814795,,33,4,2026-03-12_17h26.35.975,2026A_exp2,2022.2.4,59.9049906587533,
0,0,4.9,0.0,1,0,39,39,67,,,,,147.58178299991414,148.23234179988503,148.23234179988503,148.73356089997105,45,315,148.73356089997105,148.73356089997105,148.73356089997105,148.73356089997105,148.73356089997105,148.73356089997105,148.73356089997105,148.73356089997105,148.73356089997105,149.09989199996926,149.09989199996926,149.09989199996926,149.09989199996926,149.09989199996926,149.09989199996926,149.09989199996926,149.09989199996926,149.09989199996926,0,1,[0.001220199977979064],[0.3670808000024408],149.09989199996926,149.3001881998498,4.9,149.3001881998498,1,4.9,1,1,1000,num_4,0.6019492000341415,,33,4,2026-03-12_17h26.35.975,2026A_exp2,2022.2.4,59.9049906587533,
1,0,6.1,0.0,0,0,40,40,47,,,,,149.93416259996593,150.56812169984914,150.56812169984914,151.06909979996271,45,315,151.06909979996271,151.06909979996271,151.06909979996271,151.06909979996271,151.06909979996271,151.06909979996271,151.06909979996271,151.06909979996271,151.06909979996271,151.43544070003554,151.43544070003554,151.43544070003554,151.43544070003554,151.43544070003554,151.43544070003554,151.43544070003554,151.43544070003554,151.43544070003554,0,1,[0.0012400001287460327],[0.3669797000475228],151.43544070003554,151.63566969987005,6.1,151.63566969987005,1,6.1,1,1,1000,num_4,0.9946129999589175,,33,4,2026-03-12_17h26.35.975,2026A_exp2,2022.2.4,59.9049906587533,
1000,1,6.1,6.1,1,0,41,41,8,,,,,152.65334249986336,153.28730540000834,153.28730540000834,153.7885324000381,45,315,153.7885324000381,153.7885324000381,153.7885324000381,153.7885324000381,153.7885324000381,153.7885324000381,153.7885324000381,153.7885324000381,153.7885324000381,154.1549529999029,154.1549529999029,154.1549529999029,154.1549529999029,154.1549529999029,154.1549529999029,154.1549529999029,154.1549529999029,154.1549529999029,0,1,[0.0011960999108850956],[0.3672853000462055],154.1549529999029,154.35737330000848,1000,154.35737330000848,1000,1000,1000,1000,1,num_2,1.5288688999135047,,33,4,2026-03-12_17h26.35.975,2026A_exp2,2022.2.4,59.9049906587533,
1000,1,4.9,0.0,1,0,42,42,10,,,,,155.90666149999015,156.55720759998076,156.55720759998076,157.05852199997753,45,45,157.05852199997753,157.05852199997753,157.05852199997753,157.05852199997753,157.05852199997753,157.05852199997753,157.05852199997753,157.05852199997753,157.05852199997753,157.42495999997482,157.42495999997482,157.42495999997482,157.42495999997482,157.42495999997482,157.42495999997482,157.42495999997482,157.42495999997482,157.42495999997482,0,1,[0.0010829998645931482],[0.36729149986058474],157.42495999997482,157.62698940001428,1000,157.62698940001428,1000,1000,1000,1000,0,num_3,0.49863959988579154,,33,4,2026-03-12_17h26.35.975,2026A_exp2,2022.2.4,59.9049906587533,
1,0,6.1,0.0,0,0,43,43,21,,,,,158.14222109992988,158.79333499982022,158.79333499982022,159.29411079990678,315,45,159.29411079990678,159.29411079990678,159.29411079990678,159.29411079990678,159.29411079990678,159.29411079990678,159.29411079990678,159.29411079990678,159.29411079990678,159.66047069989145,159.66047069989145,159.66047069989145,159.66047069989145,159.66047069989145,159.66047069989145,159.66047069989145,159.66047069989145,159.66047069989145,0,1,[0.001295899972319603],[0.36686339997686446],159.66047069989145,159.8606483999174,6.1,159.8606483999174,1,6.1,1,1,1000,num_4,0.7454894999973476,,33,4,2026-03-12_17h26.35.975,2026A_exp2,2022.2.4,59.9049906587533,
1,0,6.1,0.0,0,0,44,44,82,,,,,160.627955700038,161.2786554999184,161.2786554999184,161.76324599981308,45,315,161.76324599981308,161.76324599981308,161.76324599981308,161.76324599981308,161.76324599981308,161.76324599981308,161.76324599981308,161.76324599981308,161.76324599981308,162.1293317999225,162.1293317999225,162.1293317999225,162.1293317999225,162.1293317999225,162.1293317999225,162.1293317999225,162.1293317999225,162.1293317999225,0,1,[0.0012376999948173761],[0.3661426999606192],162.1293317999225,162.329688699916,6.1,162.329688699916,1,6.1,1,1,1000,num_4,0.9484023000113666,,33,4,2026-03-12_17h26.35.975,2026A_exp2,2022.2.4,59.9049906587533,
1000,1,0.0,6.1,1,0,45,45,71,,,,,163.2973095998168,163.94798629987054,163.94798629987054,164.43259049998596,315,315,164.43259049998596,164.43259049998596,164.43259049998596,164.43259049998596,164.43259049998596,164.43259049998596,164.43259049998596,164.43259049998596,164.43259049998596,164.79901969991624,164.79901969991624,164.79901969991624,164.79901969991624,164.79901969991624,164.79901969991624,164.79901969991624,164.79901969991624,164.79901969991624,0,1,[0.0012394001241773367],[0.36692719999700785],164.79901969991624,165.0009502999019,1000,165.0009502999019,1000,1000,1000,1000,1,num_2,0.7081612998154014,,33,4,2026-03-12_17h26.35.975,2026A_exp2,2022.2.4,59.9049906587533,
0,0,6.1,0.0,0,0,46,46,74,,,,,165.73319169995375,166.38373430003412,166.38373430003412,166.885027699871,45,315,166.885027699871,166.885027699871,166.885027699871,166.885027699871,166.885027699871,166.885027699871,166.885027699871,166.885027699871,166.885027699871,167.2514702999033,167.2514702999033,167.2514702999033,167.2514702999033,167.2514702999033,167.2514702999033,167.2514702999033,167.2514702999033,167.2514702999033,9,3,"[0.0012401000130921602, 0.13352249981835485, 0.25039389985613525]","[0.10025819996371865, 0.21710109990090132, 0.2835919000208378]",167.2514702999033,167.45166389993392,0.0,167.45166389993392,0,0.0,0,1,1000,num_1,0.8899920000694692,,33,4,2026-03-12_17h26.35.975,2026A_exp2,2022.2.4,59.9049906587533,
1000,1,6.1,0.0,1,0,47,47,29,,,,,168.36904949997552,169.01993329985999,169.01993329985999,169.5042039998807,315,315,169.5042039998807,169.5042039998807,169.5042039998807,169.5042039998807,169.5042039998807,169.5042039998807,169.5042039998807,169.5042039998807,169.5042039998807,169.8704464000184,169.8704464000184,169.8704464000184,169.8704464000184,169.8704464000184,169.8704464000184,169.8704464000184,169.8704464000184,169.8704464000184,0,1,[0.0011990000493824482],[0.3671526999678463],169.8704464000184,170.0808876999654,1000,170.0808876999654,1000,1000,1000,1000,0,num_3,0.48502370016649365,,33,4,2026-03-12_17h26.35.975,2026A_exp2,2022.2.4,59.9049906587533,
1,0,0.0,6.1,1,0,48,48,33,,,,,170.58798589999788,171.23893280001357,171.23893280001357,171.74001489998773,315,45,171.74001489998773,171.74001489998773,171.74001489998773,171.74001489998773,171.74001489998773,171.74001489998773,171.74001489998773,171.74001489998773,171.74001489998773,172.1064039999619,172.1064039999619,172.1064039999619,172.1064039999619,172.1064039999619,172.1064039999619,172.1064039999619,172.1064039999619,172.1064039999619,10,1,[0.16720589995384216],[0.3672948000021279],172.1064039999619,172.30634939996526,6.1,172.30634939996526,1,6.1,1,1,1000,num_4,0.5714447000063956,,33,4,2026-03-12_17h26.35.975,2026A_exp2,2022.2.4,59.9049906587533,
0,0,0.0,3.7,0,0,49,49,34,,,,,172.90693789999932,173.5410821000114,173.5410821000114,174.04221079987474,315,45,174.04221079987474,174.04221079987474,174.04221079987474,174.04221079987474,174.04221079987474,174.04221079987474,174.04221079987474,174.04221079987474,174.04221079987474,174.40860940003768,174.40860940003768,174.40860940003768,174.40860940003768,174.40860940003768,174.40860940003768,174.40860940003768,174.40860940003768,174.40860940003768,0,1,[0.0008741000201553106],[0.36746570002287626],174.40860940003768,174.60892779985443,3.7,174.60892779985443,1,3.7,1,1,1000,num_4,0.7168609998188913,,33,4,2026-03-12_17h26.35.975,2026A_exp2,2022.2.4,59.9049906587533,
1000,1,6.1,3.7,0,0,50,50,75,,,,,175.3426891998388,175.9933941999916,175.9933941999916,176.47779979999177,315,45,176.47779979999177,176.47779979999177,176.47779979999177,176.47779979999177,176.47779979999177,176.47779979999177,176.47779979999177,176.47779979999177,176.47779979999177,176.84424169990234,176.84424169990234,176.84424169990234,176.84424169990234,176.84424169990234,176.84424169990234,176.84424169990234,176.84424169990234,176.84424169990234,0,1,[0.0012262000236660242],[0.3670750998426229],176.84424169990234,177.0461939999368,1000,177.0461939999368,1000,1000,1000,1000,0,num_3,0.5677611001301557,,33,4,2026-03-12_17h26.35.975,2026A_exp2,2022.2.4,59.9049906587533,
1000,1,6.1,6.1,1,0,51,51,4,,,,,177.64509100001305,178.29575639986433,178.29575639986433,178.79685469996184,45,315,178.79685469996184,178.79685469996184,178.79685469996184,178.79685469996184,178.79685469996184,178.79685469996184,178.79685469996184,178.79685469996184,178.79685469996184,179.16330679995008,179.16330679995008,179.16330679995008,179.16330679995008,179.16330679995008,179.16330679995008,179.16330679995008,179.16330679995008,179.16330679995008,0,1,[0.001408600015565753],[0.36726460000500083],179.16330679995008,179.3653732999228,1000,179.3653732999228,1000,1000,1000,1000,1,num_2,0.6316986999008805,,33,4,2026-03-12_17h26.35.975,2026A_exp2,2022.2.4,59.9049906587533,
0,0,4.9,3.7,0,0,52,52,28,,,,,180.01410589995794,180.66485049994662,180.66485049994662,181.16583559988067,315,315,181.16583559988067,181.16583559988067,181.16583559988067,181.16583559988067,181.16583559988067,181.16583559988067,181.16583559988067,181.16583559988067,181.16583559988067,181.5323614999652,181.5323614999652,181.5323614999652,181.5323614999652,181.5323614999652,181.5323614999652,181.5323614999652,181.5323614999652,181.5323614999652,0,1,[0.0012002000585198402],[0.36714510014280677],181.5323614999652,181.7326158999931,3.7,181.7326158999931,1,3.7,1,1,1000,num_4,0.9937710999511182,,33,4,2026-03-12_17h26.35.975,2026A_exp2,2022.2.4,59.9049906587533,
1000,1,6.1,0.0,1,0,53,53,83,,,,,182.75033069984056,183.40097259986214,183.40097259986214,183.88536940002814,315,315,183.88536940002814,183.88536940002814,183.88536940002814,183.88536940002814,183.88536940002814,183.88536940002814,183.88536940002814,183.88536940002814,183.88536940002814,184.25177009985782,184.25177009985782,184.25177009985782,184.25177009985782,184.25177009985782,184.25177009985782,184.25177009985782,184.25177009985782,184.25177009985782,0,1,[0.0012175000738352537],[0.36748420004732907],184.25177009985782,184.45207490003668,1000,184.45207490003668,1000,1000,1000,1000,0,num_3,0.5690028998069465,,33,4,2026-03-12_17h26.35.975,2026A_exp2,2022.2.4,59.9049906587533,
1000,1,3.7,0.0,1,0,54,54,38,,,,,185.05269249994308,185.70316749997437,185.70316749997437,186.2046056999825,315,45,186.2046056999825,186.2046056999825,186.2046056999825,186.2046056999825,186.2046056999825,186.2046056999825,186.2046056999825,186.2046056999825,186.2046056999825,186.55442549986765,186.55442549986765,186.55442549986765,186.55442549986765,186.55442549986765,186.55442549986765,186.55442549986765,186.55442549986765,186.55442549986765,0,1,[0.000749099999666214],[0.351160200079903],186.55442549986765,186.75412339996547,1000,186.75412339996547,1000,1000,1000,1000,1,num_2,1.0515497999731451,,33,4,2026-03-12_17h26.35.975,2026A_exp2,2022.2.4,59.9049906587533,
1,0,0.0,0.0,0,0,55,55,79,,,,,187.8218276000116,188.472665600013,188.472665600013,188.97381130000576,45,315,188.97381130000576,188.97381130000576,188.97381130000576,188.97381130000576,188.97381130000576,188.97381130000576,188.97381130000576,188.97381130000576,188.97381130000576,189.34020059998147,189.34020059998147,189.34020059998147,189.34020059998147,189.34020059998147,189.34020059998147,189.34020059998147,189.34020059998147,189.34020059998147,0,1,[0.0012056000996381044],[0.3672899999655783],189.34020059998147,189.5403318000026,0.0,189.5403318000026,1,0.0,0,0,1000,num_4,0.9849056999664754,,33,4,2026-03-12_17h26.35.975,2026A_exp2,2022.2.4,59.9049906587533,
1000,1,0.0,4.9,0,0,56,56,26,,,,,190.54128809995018,191.19210290000774,191.19210290000774,191.67634440003894,315,45,191.67634440003894,191.67634440003894,191.67634440003894,191.67634440003894,191.67634440003894,191.67634440003894,191.67634440003894,191.67634440003894,191.67634440003894,192.04286109982058,192.04286109982058,192.04286109982058,192.04286109982058,192.04286109982058,192.04286109982058,192.04286109982058,192.04286109982058,192.04286109982058,16,5,"[0.10005859984084964, 0.15026480006054044, 0.18353909999132156, 0.3002678998745978, 0.3337467999663204]","[0.11690829996950924, 0.16687129996716976, 0.23374009993858635, 0.3170997998677194, 0.3504440998658538]",192.04286109982058,192.24479939998128,1000,192.24479939998128,1000,1000,1000,1000,1,num_2,0.48091819998808205,,33,4,2026-03-12_17h26.35.975,2026A_exp2,2022.2.4,59.9049906587533,
1000,1,6.1,0.0,0,0,57,57,81,,,,,192.74361200002022,193.39425679994747,193.39425679994747,193.8951838000212,45,315,193.8951838000212,193.8951838000212,193.8951838000212,193.8951838000212,193.8951838000212,193.8951838000212,193.8951838000212,193.8951838000212,193.8951838000212,194.24504149984568,194.24504149984568,194.24504149984568,194.24504149984568,194.24504149984568,194.24504149984568,194.24504149984568,194.24504149984568,194.24504149984568,1,2,"[0.0012400001287460327, 0.18372710002586246]","[0.16697490005753934, 0.3504832999315113]",194.24504149984568,194.44684859993868,1000,194.44684859993868,1000,1000,1000,1000,0,num_3,0.7750074001960456,,33,4,2026-03-12_17h26.35.975,2026A_exp2,2022.2.4,59.9049906587533,
1,0,0.0,0.0,0,0,58,58,55,,,,,195.2460908999201,195.89665649994276,195.89665649994276,196.39775949995965,315,45,196.39775949995965,196.39775949995965,196.39775949995965,196.39775949995965,196.39775949995965,196.39775949995965,196.39775949995965,196.39775949995965,196.39775949995965,196.74742809985764,196.74742809985764,196.74742809985764,196.74742809985764,196.74742809985764,196.74742809985764,196.74742809985764,196.74742809985764,196.74742809985764,10,2,"[0.01730710011906922, 0.2837877001147717]","[0.13377810013480484, 0.35075270012021065]",196.74742809985764,196.94788039987907,0.0,196.94788039987907,1,0.0,0,0,1000,num_4,1.3377324999310076,,33,4,2026-03-12_17h26.35.975,2026A_exp2,2022.2.4,59.9049906587533,
0,0,6.1,4.9,0,0,59,59,22,,,,,198.31568579981104,198.9663010998629,198.9663010998629,199.4508139998652,45,45,199.4508139998652,199.4508139998652,199.4508139998652,199.4508139998652,199.4508139998652,199.4508139998652,199.4508139998652,199.4508139998652,199.4508139998652,199.8173694999423,199.8173694999423,199.8173694999423,199.8173694999423,199.8173694999423,199.8173694999423,199.8173694999423,199.8173694999423,199.8173694999423,0,1,[0.0012495999690145254],[0.3669618999119848],199.8173694999423,200.01757519994862,4.9,200.01757519994862,0,4.9,1,0,1000,num_1,1.2834334999788553,,33,4,2026-03-12_17h26.35.975,2026A_exp2,2022.2.4,59.9049906587533,
1,0,0.0,6.1,1,0,60,60,50,,,,,201.31914159981534,201.96947909984738,201.96947909984738,202.45397739997134,45,45,202.45397739997134,202.45397739997134,202.45397739997134,202.45397739997134,202.45397739997134,202.45397739997134,202.45397739997134,202.45397739997134,202.45397739997134,202.82037199987099,202.82037199987099,202.82037199987099,202.82037199987099,202.82037199987099,202.82037199987099,202.82037199987099,202.82037199987099,202.82037199987099,13,1,[0.0012205999810248613],[0.16699070017784834],202.82037199987099,203.02050290000625,6.1,203.02050290000625,1,6.1,1,1,1000,num_4,1.3286227998323739,,33,4,2026-03-12_17h26.35.975,2026A_exp2,2022.2.4,59.9049906587533,
1,0,6.1,0.0,1,0,61,61,80,,,,,204.37167809996754,205.02252919995226,205.02252919995226,205.52014289982617,45,315,205.52014289982617,205.52014289982617,205.52014289982617,205.52014289982617,205.52014289982617,205.52014289982617,205.52014289982617,205.52014289982617,205.52014289982617,205.87339730001986,205.87339730001986,205.87339730001986,205.87339730001986,205.87339730001986,205.87339730001986,205.87339730001986,205.87339730001986,205.87339730001986,12,3,"[0.003916899906471372, 0.16544270003214478, 0.26452580001205206]","[0.05334819993004203, 0.18230460002087057, 0.36450390005484223]",205.87339730001986,206.07350299996324,0.0,206.07350299996324,0,0.0,0,1,1000,num_1,0.6680193000938743,,33,4,2026-03-12_17h26.35.975,2026A_exp2,2022.2.4,59.9049906587533,
1,0,0.0,4.9,1,0,62,62,37,,,,,206.75749240000732,207.4082493998576,207.4082493998576,207.89272050000727,45,45,207.89272050000727,207.89272050000727,207.89272050000727,207.89272050000727,207.89272050000727,207.89272050000727,207.89272050000727,207.89272050000727,207.89272050000727,208.2590889998246,208.2590889998246,208.2590889998246,208.2590889998246,208.2590889998246,208.2590889998246,208.2590889998246,208.2590889998246,208.2590889998246,2,2,"[0.01705200015567243, 0.2670830001588911]","[0.2504561999812722, 0.3673740001395345]",208.2590889998246,208.459167300025,4.9,208.459167300025,1,4.9,1,1,1000,num_4,0.5625217999331653,,33,4,2026-03-12_17h26.35.975,2026A_exp2,2022.2.4,59.9049906587533,
1,0,0.0,4.9,0,0,63,63,73,,,,,209.04332169983536,209.67715569981374,209.67715569981374,210.17830829997547,315,45,210.17830829997547,210.17830829997547,210.17830829997547,210.17830829997547,210.17830829997547,210.17830829997547,210.17830829997547,210.17830829997547,210.17830829997547,210.54465609998442,210.54465609998442,210.54465609998442,210.54465609998442,210.54465609998442,210.54465609998442,210.54465609998442,210.54465609998442,210.54465609998442,7,2,"[0.09982879995368421, 0.25093699991703033]","[0.2335344001185149, 0.36698250006884336]",210.54465609998442,210.74490079982206,0.0,210.74490079982206,0,0.0,0,1,1000,num_1,1.781050199875608,,33,4,2026-03-12_17h26.35.975,2026A_exp2,2022.2.4,59.9049906587533,
1,0,0.0,6.1,0,0,64,64,0,,,,,212.5465683999937,213.1804674998857,213.1804674998857,213.68180829985067,45,315,213.68180829985067,213.68180829985067,213.68180829985067,213.68180829985067,213.68180829985067,213.68180829985067,213.68180829985067,213.68180829985067,213.68180829985067,214.0480632998515,214.0480632998515,214.0480632998515,214.0480632998515,214.0480632998515,214.0480632998515,214.0480632998515,214.0480632998515,214.0480632998515,23,0,,,214.0480632998515,214.24858210003003,0.0,214.24858210003003,0,0.0,0,1,1000,num_1,0.8453762999270111,,33,4,2026-03-12_17h26.35.975,2026A_exp2,2022.2.4,59.9049906587533,
1000,1,3.7,0.0,0,0,65,65,76,,,,,215.11587459989823,215.76662799995393,215.76662799995393,216.25086159980856,315,45,216.25086159980856,216.25086159980856,216.25086159980856,216.25086159980856,216.25086159980856,216.25086159980856,216.25086159980856,216.25086159980856,216.25086159980856,216.61724149994552,216.61724149994552,216.61724149994552,216.61724149994552,216.61724149994552,216.61724149994552,216.61724149994552,216.61724149994552,216.61724149994552,0,1,[0.0007719001732766628],[0.3670157000888139],216.61724149994552,216.8176386000123,1000,216.8176386000123,1000,1000,1000,1000,0,num_3,0.5882109999656677,,33,4,2026-03-12_17h26.35.975,2026A_exp2,2022.2.4,59.9049906587533,
1000,1,3.7,4.9,0,0,66,66,45,,,,,217.4348412998952,218.09598400001414,218.09598400001414,218.5920777998399,315,315,218.5920777998399,218.5920777998399,218.5920777998399,218.5920777998399,218.5920777998399,218.5920777998399,218.5920777998399,218.5920777998399,218.5920777998399,218.952997099841,218.952997099841,218.952997099841,218.952997099841,218.952997099841,218.952997099841,218.952997099841,218.952997099841,218.952997099841,0,1,[0.0025356998667120934],[0.3659566000569612],218.952997099841,219.155359899858,1000,219.155359899858,1000,1000,1000,1000,1,num_2,0.5145095000043511,,33,4,2026-03-12_17h26.35.975,2026A_exp2,2022.2.4,59.9049906587533,
1,0,3.7,4.9,1,0,67,67,20,,,,,219.68754819990136,220.33782089990564,220.33782089990564,220.83906050003134,45,45,220.83906050003134,220.83906050003134,220.83906050003134,220.83906050003134,220.83906050003134,220.83906050003134,220.83906050003134,220.83906050003134,220.83906050003134,221.205373799894,221.205373799894,221.205373799894,221.205373799894,221.205373799894,221.205373799894,221.205373799894,221.205373799894,221.205373799894,0,1,[0.0007408999372273684],[0.36744780000299215],221.205373799894,221.40552259981632,4.9,221.40552259981632,1,4.9,1,1,1000,num_4,0.8728247000835836,,33,4,2026-03-12_17h26.35.975,2026A_exp2,2022.2.4,59.9049906587533,
1000,1,0.0,0.0,0,0,68,68,5,,,,,222.30634599993937,222.95704679982737,222.95704679982737,223.44162319996394,315,315,223.44162319996394,223.44162319996394,223.44162319996394,223.44162319996394,223.44162319996394,223.44162319996394,223.44162319996394,223.44162319996394,223.44162319996394,223.8078852999024,223.8078852999024,223.8078852999024,223.8078852999024,223.8078852999024,223.8078852999024,223.8078852999024,223.8078852999024,223.8078852999024,23,0,,,223.8078852999024,224.00973359984346,1000,224.00973359984346,1000,1000,1000,1000,0,num_3,0.7471911001484841,,33,4,2026-03-12_17h26.35.975,2026A_exp2,2022.2.4,59.9049906587533,
1,0,0.0,3.7,1,0,69,69,14,,,,,224.77549569983967,225.42623199988157,225.42623199988157,225.92734219995327,315,45,225.92734219995327,225.92734219995327,225.92734219995327,225.92734219995327,225.92734219995327,225.92734219995327,225.92734219995327,225.92734219995327,225.92734219995327,226.29373559984379,226.29373559984379,226.29373559984379,226.29373559984379,226.29373559984379,226.29373559984379,226.29373559984379,226.29373559984379,226.29373559984379,23,0,,,226.29373559984379,226.4938556998968,3.7,226.4938556998968,1,3.7,1,1,1000,num_4,0.8802231999579817,,33,4,2026-03-12_17h26.35.975,2026A_exp2,2022.2.4,59.9049906587533,
1000,1,6.1,6.1,0,0,70,70,16,,,,,227.39472689991817,228.04539499990642,228.04539499990642,228.53004839993082,45,45,228.53004839993082,228.53004839993082,228.53004839993082,228.53004839993082,228.53004839993082,228.53004839993082,228.53004839993082,228.53004839993082,228.53004839993082,228.89631949993782,228.89631949993782,228.89631949993782,228.89631949993782,228.89631949993782,228.89631949993782,228.89631949993782,228.89631949993782,228.89631949993782,1,2,"[0.0012833999935537577, 0.30054179998114705]","[0.28374490002170205, 0.36713530006818473]",228.89631949993782,229.09822729998268,1000,229.09822729998268,1000,1000,1000,1000,0,num_3,0.9153356999158859,,33,4,2026-03-12_17h26.35.975,2026A_exp2,2022.2.4,59.9049906587533,
1,0,0.0,0.0,0,0,71,71,24,,,,,230.03097980003804,230.66484269988723,230.66484269988723,231.1660243999213,315,45,231.1660243999213,231.1660243999213,231.1660243999213,231.1660243999213,231.1660243999213,231.1660243999213,231.1660243999213,231.1660243999213,231.1660243999213,231.532311799936,231.532311799936,231.532311799936,231.532311799936,231.532311799936,231.532311799936,231.532311799936,231.532311799936,231.532311799936,0,1,[0.0012262000236660242],[0.3672082000412047],231.532311799936,231.73252799990587,0.0,231.73252799990587,0,0.0,0,1,1000,num_1,0.7926191000733525,,33,4,2026-03-12_17h26.35.975,2026A_exp2,2022.2.4,59.9049906587533,
1,0,0.0,4.9,0,0,72,72,3,,,,,232.54986679996364,233.20056219981052,233.20056219981052,233.68517519999295,45,45,233.68517519999295,233.68517519999295,233.68517519999295,233.68517519999295,233.68517519999295,233.68517519999295,233.68517519999295,233.68517519999295,233.68517519999295,234.0515071998816,234.0515071998816,234.0515071998816,234.0515071998816,234.0515071998816,234.0515071998816,234.0515071998816,234.0515071998816,234.0515071998816,3,2,"[0.0011968000326305628, 0.350556300021708]","[0.317167199915275, 0.3670270999427885]",234.0515071998816,234.2517665999476,0.0,234.2517665999476,0,0.0,0,1,1000,num_1,1.4898635998833925,,33,4,2026-03-12_17h26.35.975,2026A_exp2,2022.2.4,59.9049906587533,
1,0,3.7,6.1,0,0,73,73,52,,,,,235.77021169988438,236.4039837999735,236.4039837999735,236.9049317999743,45,45,236.9049317999743,236.9049317999743,236.9049317999743,236.9049317999743,236.9049317999743,236.9049317999743,236.9049317999743,236.9049317999743,236.9049317999743,237.27146289986558,237.27146289986558,237.27146289986558,237.27146289986558,237.27146289986558,237.27146289986558,237.27146289986558,237.27146289986558,237.27146289986558,23,0,,,237.27146289986558,237.4716441000346,3.7,237.4716441000346,0,3.7,1,0,1000,num_1,0.8222820998635143,,33,4,2026-03-12_17h26.35.975,2026A_exp2,2022.2.4,59.9049906587533,
1,0,0.0,6.1,1,0,74,74,36,,,,,238.3226802998688,238.97300689993426,238.97300689993426,239.45744120003656,315,315,239.45744120003656,239.45744120003656,239.45744120003656,239.45744120003656,239.45744120003656,239.45744120003656,239.45744120003656,239.45744120003656,239.45744120003656,239.82385489996523,239.82385489996523,239.82385489996523,239.82385489996523,239.82385489996523,239.82385489996523,239.82385489996523,239.82385489996523,239.82385489996523,0,1,[0.0012632999569177628],[0.3669531000778079],239.82385489996523,240.0240952000022,6.1,240.0240952000022,1,6.1,1,1,1000,num_4,0.5899856998585165,,33,4,2026-03-12_17h26.35.975,2026A_exp2,2022.2.4,59.9049906587533,
1000,1,3.7,0.0,1,0,75,75,19,,,,,240.64129029982723,241.29214969999157,241.29214969999157,241.77646419988014,315,45,241.77646419988014,241.77646419988014,241.77646419988014,241.77646419988014,241.77646419988014,241.77646419988014,241.77646419988014,241.77646419988014,241.77646419988014,242.14293259987608,242.14293259987608,242.14293259987608,242.14293259987608,242.14293259987608,242.14293259987608,242.14293259987608,242.14293259987608,242.14293259987608,0,1,[0.001246799947693944],[0.3672308998648077],242.14293259987608,242.34514159988612,1000,242.34514159988612,1000,1000,1000,1000,0,num_3,0.6202909001149237,,33,4,2026-03-12_17h26.35.975,2026A_exp2,2022.2.4,59.9049906587533,
1000,1,3.7,6.1,1,0,76,76,58,,,,,242.9937876998447,243.6443989998661,243.6443989998661,244.14561329991557,315,315,244.14561329991557,244.14561329991557,244.14561329991557,244.14561329991557,244.14561329991557,244.14561329991557,244.14561329991557,244.14561329991557,244.14561329991557,244.5117168999277,244.5117168999277,244.5117168999277,244.5117168999277,244.5117168999277,244.5117168999277,244.5117168999277,244.5117168999277,244.5117168999277,0,1,[0.0012136998120695353],[0.3669631998054683],244.5117168999277,244.71384359989315,1000,244.71384359989315,1000,1000,1000,1000,1,num_2,0.6273691998794675,,33,4,2026-03-12_17h26.35.975,2026A_exp2,2022.2.4,59.9049906587533,
1,0,0.0,3.7,1,0,77,77,32,,,,,245.3628026000224,246.01348720001988,246.01348720001988,246.51423419988714,315,315,246.51423419988714,246.51423419988714,246.51423419988714,246.51423419988714,246.51423419988714,246.51423419988714,246.51423419988714,246.51423419988714,246.51423419988714,246.8807832999155,246.8807832999155,246.8807832999155,246.8807832999155,246.8807832999155,246.8807832999155,246.8807832999155,246.8807832999155,246.8807832999155,23,0,,,246.8807832999155,247.08113850001246,3.7,247.08113850001246,1,3.7,1,1,1000,num_4,0.5324293000157923,,33,4,2026-03-12_17h26.35.975,2026A_exp2,2022.2.4,59.9049906587533,
1,0,0.0,0.0,1,0,78,78,49,,,,,247.6317327998113,248.28240559995174,248.28240559995174,248.76683550002053,315,45,248.76683550002053,248.76683550002053,248.76683550002053,248.76683550002053,248.76683550002053,248.76683550002053,248.76683550002053,248.76683550002053,248.76683550002053,249.13328909990378,249.13328909990378,249.13328909990378,249.13328909990378,249.13328909990378,249.13328909990378,249.13328909990378,249.13328909990378,249.13328909990378,4,1,[0.06707910005934536],[0.3673529999796301],249.13328909990378,249.33344980003312,0.0,249.33344980003312,1,0.0,0,0,1000,num_4,0.9604702000506222,,33,4,2026-03-12_17h26.35.975,2026A_exp2,2022.2.4,59.9049906587533,
1,0,6.1,6.1,1,0,79,79,23,,,,,250.3176938998513,250.96846749982797,250.96846749982797,251.4528636999894,315,45,251.4528636999894,251.4528636999894,251.4528636999894,251.4528636999894,251.4528636999894,251.4528636999894,251.4528636999894,251.4528636999894,251.4528636999894,251.81933399988338,251.81933399988338,251.81933399988338,251.81933399988338,251.81933399988338,251.81933399988338,251.81933399988338,251.81933399988338,251.81933399988338,0,1,[0.0012244998943060637],[0.367232299875468],251.81933399988338,252.01940510002896,6.1,252.01940510002896,0,6.1,1,0,1000,num_1,0.9703164999373257,,33,4,2026-03-12_17h26.35.975,2026A_exp2,2022.2.4,59.9049906587533,
1,0,6.1,4.9,1,0,80,80,11,,,,,253.02038039988838,253.67085779993795,253.67085779993795,254.156124799978,45,315,254.156124799978,254.156124799978,254.156124799978,254.156124799978,254.156124799978,254.156124799978,254.156124799978,254.156124799978,254.156124799978,254.52168829995207,254.52168829995207,254.52168829995207,254.52168829995207,254.52168829995207,254.52168829995207,254.52168829995207,254.52168829995207,254.52168829995207,0,1,[0.0007776001002639532],[0.3661959001328796],254.52168829995207,254.7219371998217,4.9,254.7219371998217,1,4.9,1,1,1000,num_4,0.8588954000733793,,33,4,2026-03-12_17h26.35.975,2026A_exp2,2022.2.4,59.9049906587533,
1,0,6.1,0.0,1,0,81,81,70,,,,,255.6062787999399,256.2403207998723,256.2403207998723,256.74187009991147,45,45,256.74187009991147,256.74187009991147,256.74187009991147,256.74187009991147,256.74187009991147,256.74187009991147,256.74187009991147,256.74187009991147,256.74187009991147,257.1074419999495,257.1074419999495,257.1074419999495,257.1074419999495,257.1074419999495,257.1074419999495,257.1074419999495,257.1074419999495,257.1074419999495,8,2,"[0.11693260003812611, 0.1861630999483168]","[0.16882129991427064, 0.36671860003843904]",257.1074419999495,257.30769609985873,0.0,257.30769609985873,0,0.0,0,1,1000,num_1,0.6257130999583751,,33,4,2026-03-12_17h26.35.975,2026A_exp2,2022.2.4,59.9049906587533,
1,0,0.0,3.7,1,0,82,82,35,,,,,257.95835369988345,258.5922972999979,258.5922972999979,259.09352190000936,315,45,259.09352190000936,259.09352190000936,259.09352190000936,259.09352190000936,259.09352190000936,259.09352190000936,259.09352190000936,259.09352190000936,259.09352190000936,259.4599780999124,259.4599780999124,259.4599780999124,259.4599780999124,259.4599780999124,259.4599780999124,259.4599780999124,259.4599780999124,259.4599780999124,0,1,[0.0010451001580804586],[0.3678704001940787],259.4599780999124,259.6605224998202,3.7,259.6605224998202,1,3.7,1,1,1000,num_4,0.5371450998354703,,33,4,2026-03-12_17h26.35.975,2026A_exp2,2022.2.4,59.9049906587533,
1,0,6.1,0.0,1,0,83,83,89,,,,,260.2275805999525,260.87841529981233,260.87841529981233,261.36268519982696,315,45,261.36268519982696,261.36268519982696,261.36268519982696,261.36268519982696,261.36268519982696,261.36268519982696,261.36268519982696,261.36268519982696,261.36268519982696,261.7291763999965,261.7291763999965,261.7291763999965,261.7291763999965,261.7291763999965,261.7291763999965,261.7291763999965,261.7291763999965,261.7291763999965,0,1,[0.0013339000288397074],[0.3672484001144767],261.7291763999965,261.92923629982397,0.0,261.92923629982397,0,0.0,0,1,1000,num_1,1.5244611999951303,,33,4,2026-03-12_17h26.35.975,2026A_exp2,2022.2.4,59.9049906587533,
1000,1,6.1,0.0,1,0,84,84,25,,,,,263.4811454999726,264.131670899922,264.131670899922,264.61611289996654,45,315,264.61611289996654,264.61611289996654,264.61611289996654,264.61611289996654,264.61611289996654,264.61611289996654,264.61611289996654,264.61611289996654,264.61611289996654,264.98247479996644,264.98247479996644,264.98247479996644,264.98247479996644,264.98247479996644,264.98247479996644,264.98247479996644,264.98247479996644,264.98247479996644,0,1,[0.00123109994456172],[0.3668589999433607],264.98247479996644,265.18277449999005,1000,265.18277449999005,1000,1000,1000,1000,0,num_3,0.6790847999509424,,33,4,2026-03-12_17h26.35.975,2026A_exp2,2022.2.4,59.9049906587533,
1,0,4.9,3.7,1,0,85,85,27,,,,,265.88327550003305,266.53406939981505,266.53406939981505,267.03517499985173,45,45,267.03517499985173,267.03517499985173,267.03517499985173,267.03517499985173,267.03517499985173,267.03517499985173,267.03517499985173,267.03517499985173,267.03517499985173,267.40156979998574,267.40156979998574,267.40156979998574,267.40156979998574,267.40156979998574,267.40156979998574,267.40156979998574,267.40156979998574,267.40156979998574,0,1,[0.001255400013178587],[0.3670876999385655],267.40156979998574,267.6017846998293,3.7,267.6017846998293,0,3.7,1,0,1000,num_1,0.7565935999155045,,33,4,2026-03-12_17h26.35.975,2026A_exp2,2022.2.4,59.9049906587533,
1000,1,4.9,3.7,0,0,86,86,40,,,,,268.3858266999014,269.03659459995106,269.03659459995106,269.5205290999729,45,315,269.5205290999729,269.5205290999729,269.5205290999729,269.5205290999729,269.5205290999729,269.5205290999729,269.5205290999729,269.5205290999729,269.5205290999729,269.8873532998841,269.8873532998841,269.8873532998841,269.8873532998841,269.8873532998841,269.8873532998841,269.8873532998841,269.8873532998841,269.8873532998841,0,1,[0.0012423999141901731],[0.36727789998985827],269.8873532998841,270.0894438000396,1000,270.0894438000396,1000,1000,1000,1000,1,num_2,0.5887074999045581,,33,4,2026-03-12_17h26.35.975,2026A_exp2,2022.2.4,59.9049906587533,
1,0,0.0,0.0,1,0,87,87,39,,,,,270.70469609997235,271.3553230999969,271.3553230999969,271.8566288999282,45,45,271.8566288999282,271.8566288999282,271.8566288999282,271.8566288999282,271.8566288999282,271.8566288999282,271.8566288999282,271.8566288999282,271.8566288999282,272.22308869985864,272.22308869985864,272.22308869985864,272.22308869985864,272.22308869985864,272.22308869985864,272.22308869985864,272.22308869985864,272.22308869985864,0,1,[0.0012414997909218073],[0.3670610999688506],272.22308869985864,272.4232311998494,0.0,272.4232311998494,0,0.0,0,1,1000,num_1,1.0628786000888795,,33,4,2026-03-12_17h26.35.975,2026A_exp2,2022.2.4,59.9049906587533,
1000,1,0.0,4.9,0,0,88,88,60,,,,,273.5077829998918,274.1413163000252,274.1413163000252,274.64271039981395,315,315,274.64271039981395,274.64271039981395,274.64271039981395,274.64271039981395,274.64271039981395,274.64271039981395,274.64271039981395,274.64271039981395,274.64271039981395,275.00919389980845,275.00919389980845,275.00919389980845,275.00919389980845,275.00919389980845,275.00919389980845,275.00919389980845,275.00919389980845,275.00919389980845,0,1,[0.001256000017747283],[0.3670844999141991],275.00919389980845,275.21129569993354,1000,275.21129569993354,1000,1000,1000,1000,1,num_2,0.5947410000953823,,33,4,2026-03-12_17h26.35.975,2026A_exp2,2022.2.4,59.9049906587533,
1000,1,0.0,6.1,1,0,89,89,43,,,,,275.82669919985346,276.4770297999494,276.4770297999494,276.9784468000289,45,315,276.9784468000289,276.9784468000289,276.9784468000289,276.9784468000289,276.9784468000289,276.9784468000289,276.9784468000289,276.9784468000289,276.9784468000289,277.3281692999881,277.3281692999881,277.3281692999881,277.3281692999881,277.3281692999881,277.3281692999881,277.3281692999881,277.3281692999881,277.3281692999881,0,1,[0.0015357001684606075],[0.3508059000596404],277.3281692999881,277.5302483998239,1000,277.5302483998239,1000,1000,1000,1000,1,num_2,0.4830382999498397,,33,4,2026-03-12_17h26.35.975,2026A_exp2,2022.2.4,59.9049906587533,
,,,,,,,,,,,,,,,,,,,,,,,,,,,,,,,,,,,,,,,,,,,,,,,,,,,,278.03795889997855,,,,,,,
