validity,detectorcomp,contrastCW,contrastCCW,precueCWorCCW,block_80trials.thisRepN,block_80trials.thisTrialN,block_80trials.thisN,block_80trials.thisIndex,etRecord.started,etRecord.stopped,text.started,text.stopped,text_4.started,text_4.stopped,text_6.started,text_6.stopped,oriCW,oriCCW,roi_2.started,grating_UR.started,grating_UL.started,grating_LR.started,grating_LL.started,noise_UR.started,noise_UL.started,noise_LR.started,noise_LL.started,roi_2.stopped,grating_UR.stopped,grating_UL.stopped,grating_LR.stopped,grating_LL.stopped,noise_UR.stopped,noise_UL.stopped,noise_LR.stopped,noise_LL.stopped,outframe,roi_2.numLooks,roi_2.timesOn,roi_2.timesOff,text_2.started,text_2.stopped,probedcontrast,key_resp.started,respdetect,relevantContrast,correctDetect,TorFdetect,respCWorCCW,key_resp.keys,key_resp.rt,feedback_display_.started,participantNo,blockNo,date,expName,psychopyVersion,frameRate,
1000,1,0.0,6.1,0,0,0,0,16,3.460003063082695e-05,3.460003063082695e-05,52.35398070001975,54.35711450013332,54.35711450013332,54.990700100082904,54.990700100082904,55.51250820001587,315,315,55.51250820001587,55.51250820001587,55.51250820001587,55.51250820001587,55.51250820001587,55.51250820001587,55.51250820001587,55.51250820001587,55.51250820001587,55.85804160009138,55.85804160009138,55.85804160009138,55.85804160009138,55.85804160009138,55.85804160009138,55.85804160009138,55.85804160009138,55.85804160009138,10,6,"[0.0011871999595314264, 0.09835350001230836, 0.1486064000055194, 0.19867850001901388, 0.29883910017088056, 0.332545000128448]","[0.03583239996805787, 0.13187570008449256, 0.18196990014985204, 0.2655740000773221, 0.31546179996803403, 0.36568800010718405]",55.85804160009138,56.0655142001342,1000,56.0655142001342,1000,1000,1000,1000,1,num_2,0.7056087998207659,,35,13,2026-03-13_14h28.49.694,2026A_exp2,2022.2.4,59.90319639488076,
1000,1,0.0,0.0,0,0,1,1,65,,,,,56.79268300021067,57.443189200013876,57.443189200013876,57.944376500090584,315,45,57.944376500090584,57.944376500090584,57.944376500090584,57.944376500090584,57.944376500090584,57.944376500090584,57.944376500090584,57.944376500090584,57.944376500090584,58.31079930020496,58.31079930020496,58.31079930020496,58.31079930020496,58.31079930020496,58.31079930020496,58.31079930020496,58.31079930020496,58.31079930020496,22,1,[0.3343519999179989],[0.35108940000645816],58.31079930020496,58.512623300077394,1000,58.512623300077394,1000,1000,1000,1000,1,num_2,0.4027880998328328,,35,13,2026-03-13_14h28.49.694,2026A_exp2,2022.2.4,59.90319639488076,
1000,1,0.0,3.7,0,0,2,2,21,,,,,58.94486520020291,59.59551700018346,59.59551700018346,60.09645130019635,315,45,60.09645130019635,60.09645130019635,60.09645130019635,60.09645130019635,60.09645130019635,60.09645130019635,60.09645130019635,60.09645130019635,60.09645130019635,60.44627000018954,60.44627000018954,60.44627000018954,60.44627000018954,60.44627000018954,60.44627000018954,60.44627000018954,60.44627000018954,60.44627000018954,22,0,,,60.44627000018954,60.64801550004631,1000,60.66316380002536,1000,1000,1000,1000,1,num_2,0.25968719995580614,,35,13,2026-03-13_14h28.49.694,2026A_exp2,2022.2.4,59.90319639488076,
1000,1,0.0,0.0,1,0,3,3,3,,,,,60.94682420021854,61.59726220020093,61.59726220020093,62.09847430000082,315,315,62.09847430000082,62.09847430000082,62.09847430000082,62.09847430000082,62.09847430000082,62.09847430000082,62.09847430000082,62.09847430000082,62.09847430000082,62.46481560007669,62.46481560007669,62.46481560007669,62.46481560007669,62.46481560007669,62.46481560007669,62.46481560007669,62.46481560007669,62.46481560007669,14,4,"[0.0009721999522298574, 0.05031949980184436, 0.2006706998217851, 0.3173507999163121]","[0.033748399931937456, 0.08391129993833601, 0.23492089984938502, 0.36749799991957843]",62.46481560007669,62.666676399996504,1000,62.666676399996504,1000,1000,1000,1000,1,num_2,0.3043315000832081,,35,13,2026-03-13_14h28.49.694,2026A_exp2,2022.2.4,59.90319639488076,
1,0,0.0,0.0,0,0,4,4,80,,,,,62.99887240002863,63.649351600091904,63.649351600091904,64.15050130011514,315,45,64.15050130011514,64.15050130011514,64.15050130011514,64.15050130011514,64.15050130011514,64.15050130011514,64.15050130011514,64.15050130011514,64.15050130011514,64.50027800002135,64.50027800002135,64.50027800002135,64.50027800002135,64.50027800002135,64.50027800002135,64.50027800002135,64.50027800002135,64.50027800002135,15,6,"[0.0012182998470962048, 0.06674529984593391, 0.10012790001928806, 0.15032400004565716, 0.3003318998962641, 0.3504488000180572]","[0.01724849990569055, 0.08352799993008375, 0.1168953999876976, 0.18367209983989596, 0.3170812998432666, 0.3504542000591755]",64.50027800002135,64.70047340006568,0.0,64.71719640004449,1,0.0,0,0,1000,num_4,0.5106393999885768,,35,13,2026-03-13_14h28.49.694,2026A_exp2,2022.2.4,59.90319639488076,
1000,1,3.7,0.0,0,0,5,5,86,,,,,65.25070560001768,65.90170849999413,65.90170849999413,66.38603070005774,315,315,66.38603070005774,66.38603070005774,66.38603070005774,66.38603070005774,66.38603070005774,66.38603070005774,66.38603070005774,66.38603070005774,66.38603070005774,66.75258990004659,66.75258990004659,66.75258990004659,66.75258990004659,66.75258990004659,66.75258990004659,66.75258990004659,66.75258990004659,66.75258990004659,23,0,,,66.75258990004659,66.95482880016789,1000,66.95482880016789,1000,1000,1000,1000,0,num_3,0.505473799770698,,35,13,2026-03-13_14h28.49.694,2026A_exp2,2022.2.4,59.90319639488076,
1000,1,3.7,0.0,0,0,6,6,69,,,,,67.48650870006531,68.1374119000975,68.1374119000975,68.63807750004344,315,45,68.63807750004344,68.63807750004344,68.63807750004344,68.63807750004344,68.63807750004344,68.63807750004344,68.63807750004344,68.63807750004344,68.63807750004344,69.0046509001404,69.0046509001404,69.0046509001404,69.0046509001404,69.0046509001404,69.0046509001404,69.0046509001404,69.0046509001404,69.0046509001404,23,0,,,69.0046509001404,69.20697310008109,1000,69.20697310008109,1000,1000,1000,1000,0,num_3,0.5091452000197023,,35,13,2026-03-13_14h28.49.694,2026A_exp2,2022.2.4,59.90319639488076,
1,0,6.1,0.0,1,0,7,7,17,,,,,69.73876070021652,70.38946060021408,70.38946060021408,70.8906268000137,315,315,70.8906268000137,70.8906268000137,70.8906268000137,70.8906268000137,70.8906268000137,70.8906268000137,70.8906268000137,70.8906268000137,70.8906268000137,71.25704490020871,71.25704490020871,71.25704490020871,71.25704490020871,71.25704490020871,71.25704490020871,71.25704490020871,71.25704490020871,71.25704490020871,23,0,,,71.25704490020871,71.45723610022105,0.0,71.45723610022105,0,0.0,0,1,1000,num_1,0.27378079993650317,,35,13,2026-03-13_14h28.49.694,2026A_exp2,2022.2.4,59.90319639488076,
1000,1,4.9,3.7,0,0,8,8,28,,,,,71.7573023000732,72.40816240012646,72.40816240012646,72.89268970000558,45,315,72.89268970000558,72.89268970000558,72.89268970000558,72.89268970000558,72.89268970000558,72.89268970000558,72.89268970000558,72.89268970000558,72.89268970000558,73.25902150012553,73.25902150012553,73.25902150012553,73.25902150012553,73.25902150012553,73.25902150012553,73.25902150012553,73.25902150012553,73.25902150012553,17,1,[0.06693070009350777],[0.16703599994070828],73.25902150012553,73.46113020018674,1000,73.46113020018674,1000,1000,1000,1000,0,num_3,0.36586839985102415,,35,13,2026-03-13_14h28.49.694,2026A_exp2,2022.2.4,59.90319639488076,
1,0,0.0,0.0,1,0,9,9,83,,,,,73.84284840011969,74.49363630008884,74.49363630008884,74.99476970010437,45,315,74.99476970010437,74.99476970010437,74.99476970010437,74.99476970010437,74.99476970010437,74.99476970010437,74.99476970010437,74.99476970010437,74.99476970010437,75.3612759001553,75.3612759001553,75.3612759001553,75.3612759001553,75.3612759001553,75.3612759001553,75.3612759001553,75.3612759001553,75.3612759001553,23,0,,,75.3612759001553,75.56129890005104,0.0,75.56129890005104,0,0.0,0,1,1000,num_1,1.0014745998196304,,35,13,2026-03-13_14h28.49.694,2026A_exp2,2022.2.4,59.90319639488076,
1,0,6.1,0.0,0,0,10,10,85,,,,,76.57903540018015,77.22966100019403,77.22966100019403,77.71399980015121,315,45,77.71399980015121,77.71399980015121,77.71399980015121,77.71399980015121,77.71399980015121,77.71399980015121,77.71399980015121,77.71399980015121,77.71399980015121,78.08046409999952,78.08046409999952,78.08046409999952,78.08046409999952,78.08046409999952,78.08046409999952,78.08046409999952,78.08046409999952,78.08046409999952,15,3,"[0.18350739986635745, 0.31694799987599254, 0.3670588999520987]","[0.2669845998752862, 0.35036129993386567, 0.3670639998745173]",78.08046409999952,78.28079990018159,6.1,78.28079990018159,1,6.1,1,1,1000,num_4,0.5309474000241607,,35,13,2026-03-13_14h28.49.694,2026A_exp2,2022.2.4,59.90319639488076,
1,0,0.0,6.1,0,0,11,11,24,,,,,78.83113000006415,79.48207820020616,79.48207820020616,79.96641020011157,315,315,79.96641020011157,79.96641020011157,79.96641020011157,79.96641020011157,79.96641020011157,79.96641020011157,79.96641020011157,79.96641020011157,79.96641020011157,80.33279890008271,80.33279890008271,80.33279890008271,80.33279890008271,80.33279890008271,80.33279890008271,80.33279890008271,80.33279890008271,80.33279890008271,7,5,"[0.0012568000238388777, 0.0503042999189347, 0.18365499982610345, 0.23366339993663132, 0.35053379996679723]","[0.03348019998520613, 0.16712350002489984, 0.20052139996550977, 0.3168331999331713, 0.3671932998113334]",80.33279890008271,80.53300530021079,0.0,80.53300530021079,0,0.0,0,1,1000,num_1,0.5260465999599546,,35,13,2026-03-13_14h28.49.694,2026A_exp2,2022.2.4,59.90319639488076,
1,0,3.7,0.0,1,0,12,12,30,,,,,81.08348410017788,81.73419360001571,81.73419360001571,82.21871930011548,315,315,82.21871930011548,82.21871930011548,82.21871930011548,82.21871930011548,82.21871930011548,82.21871930011548,82.21871930011548,82.21871930011548,82.21871930011548,82.5851526001934,82.5851526001934,82.5851526001934,82.5851526001934,82.5851526001934,82.5851526001934,82.5851526001934,82.5851526001934,82.5851526001934,23,1,[0.23361100000329316],[0.24980190000496805],82.5851526001934,82.7852445000317,0.0,82.7852445000317,0,0.0,0,1,1000,num_1,0.6584272999316454,,35,13,2026-03-13_14h28.49.694,2026A_exp2,2022.2.4,59.90319639488076,
0,0,0.0,0.0,0,0,13,13,15,,,,,83.469142800197,84.1198602002114,84.1198602002114,84.60428380011581,315,315,84.60428380011581,84.60428380011581,84.60428380011581,84.60428380011581,84.60428380011581,84.60428380011581,84.60428380011581,84.60428380011581,84.60428380011581,84.97062030015513,84.97062030015513,84.97062030015513,84.97062030015513,84.97062030015513,84.97062030015513,84.97062030015513,84.97062030015513,84.97062030015513,23,0,,,84.97062030015513,85.17122400016524,0.0,85.17122400016524,0,0.0,0,1,1000,num_1,0.4161265997681767,,35,13,2026-03-13_14h28.49.694,2026A_exp2,2022.2.4,59.90319639488076,
1,0,4.9,0.0,1,0,14,14,34,,,,,85.60642490000464,86.25546450004913,86.25546450004913,86.7570884001907,315,315,86.7570884001907,86.7570884001907,86.7570884001907,86.7570884001907,86.7570884001907,86.7570884001907,86.7570884001907,86.7570884001907,86.7570884001907,87.12280560005456,87.12280560005456,87.12280560005456,87.12280560005456,87.12280560005456,87.12280560005456,87.12280560005456,87.12280560005456,87.12280560005456,13,6,"[0.001895700115710497, 0.03296710015274584, 0.09981429995968938, 0.21657130005769432, 0.2832190999761224, 0.33327269996516407]","[0.017593600088730454, 0.06635310011915863, 0.13309150002896786, 0.23324279999360442, 0.31667740014381707, 0.3666272000409663]",87.12280560005456,87.32303070020862,0.0,87.32303070020862,0,0.0,0,1,1000,num_1,0.6324768997728825,,35,13,2026-03-13_14h28.49.694,2026A_exp2,2022.2.4,59.90319639488076,
1000,1,0.0,0.0,0,0,15,15,72,,,,,87.97362950001843,88.62451590015553,88.62451590015553,89.10889490018599,45,315,89.10889490018599,89.10889490018599,89.10889490018599,89.10889490018599,89.10889490018599,89.10889490018599,89.10889490018599,89.10889490018599,89.10889490018599,89.47529080021195,89.47529080021195,89.47529080021195,89.47529080021195,89.47529080021195,89.47529080021195,89.47529080021195,89.47529080021195,89.47529080021195,21,2,"[0.050427500158548355, 0.3672686000354588]","[0.06680320017039776, 0.3672732000704855]",89.47529080021195,89.6773101000581,1000,89.6773101000581,1000,1000,1000,1000,0,num_3,0.5019391998648643,,35,13,2026-03-13_14h28.49.694,2026A_exp2,2022.2.4,59.90319639488076,
1000,1,0.0,0.0,1,0,16,16,2,,,,,90.20922420010902,90.8600723000709,90.8600723000709,91.36090810014866,315,45,91.36090810014866,91.36090810014866,91.36090810014866,91.36090810014866,91.36090810014866,91.36090810014866,91.36090810014866,91.36090810014866,91.36090810014866,91.72747080004774,91.72747080004774,91.72747080004774,91.72747080004774,91.72747080004774,91.72747080004774,91.72747080004774,91.72747080004774,91.72747080004774,21,2,"[0.1506503999698907, 0.3675881000235677]","[0.1840662001632154, 0.36759310006164014]",91.72747080004774,91.92932680016384,1000,91.92932680016384,1000,1000,1000,1000,1,num_2,0.5228780000470579,,35,13,2026-03-13_14h28.49.694,2026A_exp2,2022.2.4,59.90319639488076,
1000,1,6.1,0.0,1,0,17,17,79,,,,,92.47817320004106,93.1288703000173,93.1288703000173,93.62990590021946,315,315,93.62990590021946,93.62990590021946,93.62990590021946,93.62990590021946,93.62990590021946,93.62990590021946,93.62990590021946,93.62990590021946,93.62990590021946,93.97984500019811,93.97984500019811,93.97984500019811,93.97984500019811,93.97984500019811,93.97984500019811,93.97984500019811,93.97984500019811,93.97984500019811,2,2,"[0.0012164998333901167, 0.35055159986950457]","[0.3173168997745961, 0.35055599990300834]",93.97984500019811,94.18177560018376,1000,94.18177560018376,1000,1000,1000,1000,0,num_3,0.461028799880296,,35,13,2026-03-13_14h28.49.694,2026A_exp2,2022.2.4,59.90319639488076,
1000,1,0.0,3.7,0,0,18,18,63,,,,,94.66373200016096,95.31438120012172,95.31438120012172,95.7987340001855,45,45,95.7987340001855,95.7987340001855,95.7987340001855,95.7987340001855,95.7987340001855,95.7987340001855,95.7987340001855,95.7987340001855,95.7987340001855,96.16524940007366,96.16524940007366,96.16524940007366,96.16524940007366,96.16524940007366,96.16524940007366,96.16524940007366,96.16524940007366,96.16524940007366,2,2,"[0.0012852000072598457, 0.33385500009171665]","[0.3171411999501288, 0.3670425999443978]",96.16524940007366,96.36772219999693,1000,96.36772219999693,1000,1000,1000,1000,1,num_2,0.29184970003552735,,35,13,2026-03-13_14h28.49.694,2026A_exp2,2022.2.4,59.90319639488076,
1,0,6.1,6.1,1,0,19,19,47,,,,,96.68244430003688,97.33314290014096,97.33314290014096,97.83428340009414,315,315,97.83428340009414,97.83428340009414,97.83428340009414,97.83428340009414,97.83428340009414,97.83428340009414,97.83428340009414,97.83428340009414,97.83428340009414,98.1838869000785,98.1838869000785,98.1838869000785,98.1838869000785,98.1838869000785,98.1838869000785,98.1838869000785,98.1838869000785,98.1838869000785,11,5,"[0.06687119998969138, 0.10019959998317063, 0.16690360009670258, 0.20020380010828376, 0.2669953000731766]","[0.08362510008737445, 0.13359689991921186, 0.18379839998669922, 0.2503116000443697, 0.33384239999577403]",98.1838869000785,98.3841429001186,6.1,98.3841429001186,1,6.1,1,1,1000,num_4,0.4907977997791022,,35,13,2026-03-13_14h28.49.694,2026A_exp2,2022.2.4,59.90319639488076,
1000,1,6.1,6.1,1,0,20,20,22,,,,,98.90138060017489,99.53531400021166,99.53531400021166,100.03630360006355,315,315,100.03630360006355,100.03630360006355,100.03630360006355,100.03630360006355,100.03630360006355,100.03630360006355,100.03630360006355,100.03630360006355,100.03630360006355,100.40253710001707,100.40253710001707,100.40253710001707,100.40253710001707,100.40253710001707,100.40253710001707,100.40253710001707,100.40253710001707,100.40253710001707,7,7,"[0.0012048999778926373, 0.0836169000249356, 0.1337131999898702, 0.20034629991278052, 0.2503553999122232, 0.28370460006408393, 0.35024129995144904]","[0.06691780011169612, 0.11698370007798076, 0.18367439997382462, 0.21708080009557307, 0.26724070007912815, 0.317094299942255, 0.3664569000247866]",100.40253710001707,100.62768470006995,1000,100.62768470006995,1000,1000,1000,1000,0,num_3,0.4233002997934818,,35,13,2026-03-13_14h28.49.694,2026A_exp2,2022.2.4,59.90319639488076,
1000,1,4.9,0.0,1,0,21,21,48,,,,,101.07032960001379,101.72060600016266,101.72060600016266,102.22198920021765,45,45,102.22198920021765,102.22198920021765,102.22198920021765,102.22198920021765,102.22198920021765,102.22198920021765,102.22198920021765,102.22198920021765,102.22198920021765,102.5716859002132,102.5716859002132,102.5716859002132,102.5716859002132,102.5716859002132,102.5716859002132,102.5716859002132,102.5716859002132,102.5716859002132,8,8,"[0.0012423999141901731, 0.10034119989722967, 0.15038669994100928, 0.1836208999156952, 0.2169941000174731, 0.25043040001764894, 0.30030680005438626, 0.35065859998576343]","[0.08366220002062619, 0.11704259994439781, 0.1670295000076294, 0.20047149993479252, 0.233853799989447, 0.28339269990101457, 0.3338109999895096, 0.3506640999112278]",102.5716859002132,102.77179900021292,1000,102.7887254001107,1000,1000,1000,1000,0,num_3,0.3988020997494459,,35,13,2026-03-13_14h28.49.694,2026A_exp2,2022.2.4,59.90319639488076,
0,0,0.0,3.7,1,0,22,22,53,,,,,103.20559670007788,103.85633900016546,103.85633900016546,104.35748160001822,45,45,104.35748160001822,104.35748160001822,104.35748160001822,104.35748160001822,104.35748160001822,104.35748160001822,104.35748160001822,104.35748160001822,104.35748160001822,104.72371900011785,104.72371900011785,104.72371900011785,104.72371900011785,104.72371900011785,104.72371900011785,104.72371900011785,104.72371900011785,104.72371900011785,0,1,[0.0012664999812841415],[0.367373300017789],104.72371900011785,104.92402580007911,0.0,104.92402580007911,0,0.0,0,1,1000,num_1,0.6157937999814749,,35,13,2026-03-13_14h28.49.694,2026A_exp2,2022.2.4,59.90319639488076,
1,0,4.9,6.1,0,0,23,23,82,,,,,105.55802920018323,106.20859490009025,106.20859490009025,106.6930091001559,315,45,106.6930091001559,106.6930091001559,106.6930091001559,106.6930091001559,106.6930091001559,106.6930091001559,106.6930091001559,106.6930091001559,106.6930091001559,107.05948630021885,107.05948630021885,107.05948630021885,107.05948630021885,107.05948630021885,107.05948630021885,107.05948630021885,107.05948630021885,107.05948630021885,23,0,,,107.05948630021885,107.2597794001922,4.9,107.2597794001922,1,4.9,1,1,1000,num_4,0.7911945998203009,,35,13,2026-03-13_14h28.49.694,2026A_exp2,2022.2.4,59.90319639488076,
1000,1,4.9,3.7,1,0,24,24,78,,,,,108.07696020021103,108.72774820006453,108.72774820006453,109.21234270022251,45,315,109.21234270022251,109.21234270022251,109.21234270022251,109.21234270022251,109.21234270022251,109.21234270022251,109.21234270022251,109.21234270022251,109.21234270022251,109.57866860018112,109.57866860018112,109.57866860018112,109.57866860018112,109.57866860018112,109.57866860018112,109.57866860018112,109.57866860018112,109.57866860018112,23,0,,,109.57866860018112,109.78079670015723,1000,109.78079670015723,1000,1000,1000,1000,1,num_2,0.3503774998243898,,35,13,2026-03-13_14h28.49.694,2026A_exp2,2022.2.4,59.90319639488076,
1000,1,0.0,6.1,1,0,25,25,13,,,,,110.16270410013385,110.8132176999934,110.8132176999934,111.31432520016097,45,45,111.31432520016097,111.31432520016097,111.31432520016097,111.31432520016097,111.31432520016097,111.31432520016097,111.31432520016097,111.31432520016097,111.31432520016097,111.66418970003724,111.66418970003724,111.66418970003724,111.66418970003724,111.66418970003724,111.66418970003724,111.66418970003724,111.66418970003724,111.66418970003724,0,1,[0.0012116001453250647],[0.35048110014759004],111.66418970003724,111.86601870018058,1000,111.86601870018058,1000,1000,1000,1000,1,num_2,0.4015124998986721,,35,13,2026-03-13_14h28.49.694,2026A_exp2,2022.2.4,59.90319639488076,
1000,1,6.1,0.0,0,0,26,26,58,,,,,112.29800890013576,112.94866610015742,112.94866610015742,113.43321610009298,45,315,113.43321610009298,113.43321610009298,113.43321610009298,113.43321610009298,113.43321610009298,113.43321610009298,113.43321610009298,113.43321610009298,113.43321610009298,113.79964230000041,113.79964230000041,113.79964230000041,113.79964230000041,113.79964230000041,113.79964230000041,113.79964230000041,113.79964230000041,113.79964230000041,12,6,"[0.0012089000083506107, 0.06681709992699325, 0.18365489994175732, 0.23341809981502593, 0.3171198999043554, 0.3503558998927474]","[0.0173032998573035, 0.1000993000343442, 0.20025460002943873, 0.3003046999219805, 0.33378429990261793, 0.36700039985589683]",113.79964230000041,114.00167690007947,1000,114.00167690007947,1000,1000,1000,1000,0,num_3,0.08124179998412728,,35,13,2026-03-13_14h28.49.694,2026A_exp2,2022.2.4,59.90319639488076,
1,0,0.0,0.0,1,0,27,27,38,,,,,114.09996430017054,114.75059540010989,114.75059540010989,115.2349929001648,315,315,115.2349929001648,115.2349929001648,115.2349929001648,115.2349929001648,115.2349929001648,115.2349929001648,115.2349929001648,115.2349929001648,115.2349929001648,115.60127320000902,115.60127320000902,115.60127320000902,115.60127320000902,115.60127320000902,115.60127320000902,115.60127320000902,115.60127320000902,115.60127320000902,23,0,,,115.60127320000902,115.80159970000386,0.0,115.80159970000386,0,0.0,0,1,1000,num_1,0.8098389997612685,,35,13,2026-03-13_14h28.49.694,2026A_exp2,2022.2.4,59.90319639488076,
1000,1,6.1,4.9,0,0,28,28,81,,,,,116.63563420018181,117.28634040011093,117.28634040011093,117.77092330018058,315,315,117.77092330018058,117.77092330018058,117.77092330018058,117.77092330018058,117.77092330018058,117.77092330018058,117.77092330018058,117.77092330018058,117.77092330018058,118.13714660005644,118.13714660005644,118.13714660005644,118.13714660005644,118.13714660005644,118.13714660005644,118.13714660005644,118.13714660005644,118.13714660005644,23,0,,,118.13714660005644,118.33741900022142,1000,118.33741900022142,1000,1000,1000,1000,0,num_3,0.3628317997790873,,35,13,2026-03-13_14h28.49.694,2026A_exp2,2022.2.4,59.90319639488076,
1000,1,3.7,0.0,0,0,29,29,35,,,,,118.72104810015298,119.37183650000952,119.37183650000952,119.8729168002028,45,45,119.8729168002028,119.8729168002028,119.8729168002028,119.8729168002028,119.8729168002028,119.8729168002028,119.8729168002028,119.8729168002028,119.8729168002028,120.23940710001625,120.23940710001625,120.23940710001625,120.23940710001625,120.23940710001625,120.23940710001625,120.23940710001625,120.23940710001625,120.23940710001625,21,2,"[0.13356570014730096, 0.2838417999446392]","[0.1503513001371175, 0.30041190003976226]",120.23940710001625,120.44101240020245,1000,120.44101240020245,1000,1000,1000,1000,0,num_3,0.30609109974466264,,35,13,2026-03-13_14h28.49.694,2026A_exp2,2022.2.4,59.90319639488076,
1000,1,4.9,6.1,1,0,30,30,5,,,,,120.7731405000668,121.42374650016427,121.42374650016427,121.92493430012837,45,45,121.92493430012837,121.92493430012837,121.92493430012837,121.92493430012837,121.92493430012837,121.92493430012837,121.92493430012837,121.92493430012837,121.92493430012837,122.29141840012744,122.29141840012744,122.29141840012744,122.29141840012744,122.29141840012744,122.29141840012744,122.29141840012744,122.29141840012744,122.29141840012744,17,4,"[0.01721810013987124, 0.21686840010806918, 0.25030050007626414, 0.3336825000587851]","[0.03343069995753467, 0.23350800015032291, 0.28359510004520416, 0.3669746001251042]",122.29141840012744,122.49170780018903,1000,122.49170780018903,1000,1000,1000,1000,1,num_2,0.32853089994750917,,35,13,2026-03-13_14h28.49.694,2026A_exp2,2022.2.4,59.90319639488076,
1000,1,4.9,0.0,1,0,31,31,67,,,,,122.8420228001196,123.4926116000861,123.4926116000861,123.99368080007844,315,315,123.99368080007844,123.99368080007844,123.99368080007844,123.99368080007844,123.99368080007844,123.99368080007844,123.99368080007844,123.99368080007844,123.99368080007844,124.36026600003242,124.36026600003242,124.36026600003242,124.36026600003242,124.36026600003242,124.36026600003242,124.36026600003242,124.36026600003242,124.36026600003242,19,2,"[0.2834094997961074, 0.33365239994600415]","[0.3169767998624593, 0.3502322998829186]",124.36026600003242,124.56044160015881,1000,124.56044160015881,1000,1000,1000,1000,0,num_3,0.30706309992820024,,35,13,2026-03-13_14h28.49.694,2026A_exp2,2022.2.4,59.90319639488076,
1000,1,4.9,0.0,1,0,32,32,12,,,,,124.89430850022472,125.54471670021303,125.54471670021303,126.04581250017509,315,315,126.04581250017509,126.04581250017509,126.04581250017509,126.04581250017509,126.04581250017509,126.04581250017509,126.04581250017509,126.04581250017509,126.04581250017509,126.3955424001906,126.3955424001906,126.3955424001906,126.3955424001906,126.3955424001906,126.3955424001906,126.3955424001906,126.3955424001906,126.3955424001906,16,1,[0.23353479988873005],[0.3336610000114888],126.3955424001906,126.59713270002976,1000,126.61239230004139,1000,1000,1000,1000,0,num_3,0.8077294998802245,,35,13,2026-03-13_14h28.49.694,2026A_exp2,2022.2.4,59.90319639488076,
0,0,6.1,0.0,1,0,33,33,52,,,,,127.44652370014228,128.09730690019205,128.09730690019205,128.59829210001044,45,45,128.59829210001044,128.59829210001044,128.59829210001044,128.59829210001044,128.59829210001044,128.59829210001044,128.59829210001044,128.59829210001044,128.59829210001044,128.96471900003962,128.96471900003962,128.96471900003962,128.96471900003962,128.96471900003962,128.96471900003962,128.96471900003962,128.96471900003962,128.96471900003962,13,2,"[0.20042080013081431, 0.36735570011660457]","[0.3505759001709521, 0.36736030015163124]",128.96471900003962,129.1647360001225,6.1,129.1647360001225,1,6.1,1,1,1000,num_4,0.9112931999843568,,35,13,2026-03-13_14h28.49.694,2026A_exp2,2022.2.4,59.90319639488076,
1,0,3.7,0.0,0,0,34,34,10,,,,,130.09910760005005,130.7495915000327,130.7495915000327,131.23422430013306,315,45,131.23422430013306,131.23422430013306,131.23422430013306,131.23422430013306,131.23422430013306,131.23422430013306,131.23422430013306,131.23422430013306,131.23422430013306,131.60074950009584,131.60074950009584,131.60074950009584,131.60074950009584,131.60074950009584,131.60074950009584,131.60074950009584,131.60074950009584,131.60074950009584,23,0,,,131.60074950009584,131.8009368001949,3.7,131.8009368001949,0,3.7,1,0,1000,num_1,0.4660868998616934,,35,13,2026-03-13_14h28.49.694,2026A_exp2,2022.2.4,59.90319639488076,
1000,1,0.0,6.1,1,0,35,35,74,,,,,132.2845062999986,132.91853820020333,132.91853820020333,133.41989470017143,315,315,133.41989470017143,133.41989470017143,133.41989470017143,133.41989470017143,133.41989470017143,133.41989470017143,133.41989470017143,133.41989470017143,133.41989470017143,133.78621720010415,133.78621720010415,133.78621720010415,133.78621720010415,133.78621720010415,133.78621720010415,133.78621720010415,133.78621720010415,133.78621720010415,23,0,,,133.78621720010415,133.98870520014316,1000,133.98870520014316,1000,1000,1000,1000,1,num_2,0.3752452000044286,,35,13,2026-03-13_14h28.49.694,2026A_exp2,2022.2.4,59.90319639488076,
1000,1,6.1,4.9,0,0,36,36,51,,,,,134.38672050018795,135.03745210007764,135.03745210007764,135.53858770010993,45,45,135.53858770010993,135.53858770010993,135.53858770010993,135.53858770010993,135.53858770010993,135.53858770010993,135.53858770010993,135.53858770010993,135.53858770010993,135.88839370012283,135.88839370012283,135.88839370012283,135.88839370012283,135.88839370012283,135.88839370012283,135.88839370012283,135.88839370012283,135.88839370012283,20,2,"[0.08342259982600808, 0.23388749989680946]","[0.09993159980513155, 0.25036740000359714]",135.88839370012283,136.09082730021328,1000,136.09082730021328,1000,1000,1000,1000,0,num_3,0.20895970007404685,,35,13,2026-03-13_14h28.49.694,2026A_exp2,2022.2.4,59.90319639488076,
0,0,6.1,0.0,0,0,37,37,41,,,,,136.32214750000276,136.97277860017493,136.97277860017493,137.47381910006516,315,315,137.47381910006516,137.47381910006516,137.47381910006516,137.47381910006516,137.47381910006516,137.47381910006516,137.47381910006516,137.47381910006516,137.47381910006516,137.82361040008254,137.82361040008254,137.82361040008254,137.82361040008254,137.82361040008254,137.82361040008254,137.82361040008254,137.82361040008254,137.82361040008254,9,5,"[0.0333945001475513, 0.183273000176996, 0.2503076000139117, 0.3004394001327455, 0.35033600009046495]","[0.11687070014886558, 0.23362820013426244, 0.2835723999887705, 0.33360480004921556, 0.3503406001254916]",137.82361040008254,138.02369270008057,0.0,138.04036450013518,0,0.0,0,1,1000,num_1,0.6669640997424722,,35,13,2026-03-13_14h28.49.694,2026A_exp2,2022.2.4,59.90319639488076,
1,0,0.0,0.0,1,0,38,38,33,,,,,138.72440850012936,139.37527140020393,139.37527140020393,139.85951640014537,315,315,139.85951640014537,139.85951640014537,139.85951640014537,139.85951640014537,139.85951640014537,139.85951640014537,139.85951640014537,139.85951640014537,139.85951640014537,140.22596950014122,140.22596950014122,140.22596950014122,140.22596950014122,140.22596950014122,140.22596950014122,140.22596950014122,140.22596950014122,140.22596950014122,19,2,"[0.05029829987324774, 0.2837665998376906]","[0.10019230004400015, 0.30054339999333024]",140.22596950014122,140.4261497000698,0.0,140.4261497000698,0,0.0,0,1,1000,num_1,0.4978294000029564,,35,13,2026-03-13_14h28.49.694,2026A_exp2,2022.2.4,59.90319639488076,
1000,1,3.7,4.9,1,0,39,39,71,,,,,140.94346670014784,141.59408930013888,141.59408930013888,142.07836959999986,315,315,142.07836959999986,142.07836959999986,142.07836959999986,142.07836959999986,142.07836959999986,142.07836959999986,142.07836959999986,142.07836959999986,142.07836959999986,142.4448471001815,142.4448471001815,142.4448471001815,142.4448471001815,142.4448471001815,142.4448471001815,142.4448471001815,142.4448471001815,142.4448471001815,8,2,"[0.0012036999687552452, 0.2003681999631226]","[0.18369599990546703, 0.2667811999563128]",142.4448471001815,142.64668900007382,1000,142.64668900007382,1000,1000,1000,1000,1,num_2,0.40431069978512824,,35,13,2026-03-13_14h28.49.694,2026A_exp2,2022.2.4,59.90319639488076,
0,0,3.7,4.9,0,0,40,40,77,,,,,143.07877540006302,143.72962590004317,143.72962590004317,144.21391590009443,45,45,144.21391590009443,144.21391590009443,144.21391590009443,144.21391590009443,144.21391590009443,144.21391590009443,144.21391590009443,144.21391590009443,144.21391590009443,144.58037470001727,144.58037470001727,144.58037470001727,144.58037470001727,144.58037470001727,144.58037470001727,144.58037470001727,144.58037470001727,144.58037470001727,23,0,,,144.58037470001727,144.78053470002487,4.9,144.78053470002487,1,4.9,1,1,1000,num_4,0.7984647999983281,,35,13,2026-03-13_14h28.49.694,2026A_exp2,2022.2.4,59.90319639488076,
1,0,4.9,4.9,1,0,41,41,9,,,,,145.5979321000632,146.2487170000095,146.2487170000095,146.73299260018393,315,315,146.73299260018393,146.73299260018393,146.73299260018393,146.73299260018393,146.73299260018393,146.73299260018393,146.73299260018393,146.73299260018393,146.73299260018393,147.09960200008936,147.09960200008936,147.09960200008936,147.09960200008936,147.09960200008936,147.09960200008936,147.09960200008936,147.09960200008936,147.09960200008936,19,3,"[0.01709780003875494, 0.08341700001619756, 0.20018019992858171]","[0.05018589994870126, 0.10034559993073344, 0.2168757999315858]",147.09960200008936,147.29952390003018,4.9,147.29952390003018,1,4.9,1,1,1000,num_4,0.64836739981547,,35,13,2026-03-13_14h28.49.694,2026A_exp2,2022.2.4,59.90319639488076,
1000,1,0.0,3.7,0,0,42,42,43,,,,,147.9669159001205,148.61763470014557,148.61763470014557,149.10209310008213,45,315,149.10209310008213,149.10209310008213,149.10209310008213,149.10209310008213,149.10209310008213,149.10209310008213,149.10209310008213,149.10209310008213,149.10209310008213,149.4686665001791,149.4686665001791,149.4686665001791,149.4686665001791,149.4686665001791,149.4686665001791,149.4686665001791,149.4686665001791,149.4686665001791,7,6,"[0.017053999938070774, 0.08343239990063012, 0.11598380003124475, 0.1997892998624593, 0.26650610007345676, 0.36673890007659793]","[0.06668619997799397, 0.09990309993736446, 0.1830919999629259, 0.23313799989409745, 0.3499976000748575, 0.36674299999140203]",149.4686665001791,149.67071150010452,1000,149.67071150010452,1000,1000,1000,1000,1,num_2,0.4052531998604536,,35,13,2026-03-13_14h28.49.694,2026A_exp2,2022.2.4,59.90319639488076,
1,0,0.0,4.9,0,0,43,43,32,,,,,150.1024174001068,150.75308080017567,150.75308080017567,151.25426560011692,45,45,151.25426560011692,151.25426560011692,151.25426560011692,151.25426560011692,151.25426560011692,151.25426560011692,151.25426560011692,151.25426560011692,151.25426560011692,151.6041027000174,151.6041027000174,151.6041027000174,151.6041027000174,151.6041027000174,151.6041027000174,151.6041027000174,151.6041027000174,151.6041027000174,22,0,,,151.6041027000174,151.80432070000097,0.0,151.80432070000097,0,0.0,0,1,1000,num_1,0.6230686998460442,,35,13,2026-03-13_14h28.49.694,2026A_exp2,2022.2.4,59.90319639488076,
1,0,0.0,6.1,1,0,44,44,19,,,,,152.45474370010197,153.10514310002327,153.10514310002327,153.58998850011267,315,45,153.58998850011267,153.58998850011267,153.58998850011267,153.58998850011267,153.58998850011267,153.58998850011267,153.58998850011267,153.58998850011267,153.58998850011267,153.95642060018145,153.95642060018145,153.95642060018145,153.95642060018145,153.95642060018145,153.95642060018145,153.95642060018145,153.95642060018145,153.95642060018145,23,0,,,153.95642060018145,154.15647330018692,6.1,154.15647330018692,1,6.1,1,1,1000,num_4,0.7671197999734432,,35,13,2026-03-13_14h28.49.694,2026A_exp2,2022.2.4,59.90319639488076,
1000,1,3.7,0.0,0,0,45,45,39,,,,,154.94068710017018,155.59135160013102,155.59135160013102,156.0776961001102,45,315,156.0776961001102,156.0776961001102,156.0776961001102,156.0776961001102,156.0776961001102,156.0776961001102,156.0776961001102,156.0776961001102,156.0776961001102,156.4421569001861,156.4421569001861,156.4421569001861,156.4421569001861,156.4421569001861,156.4421569001861,156.4421569001861,156.4421569001861,156.4421569001861,20,3,"[0.16676459996961057, 0.2661378998309374, 0.33272830001078546]","[0.19930800003930926, 0.28279029997065663, 0.3494359999895096]",156.4421569001861,156.64477830007672,1000,156.64477830007672,1000,1000,1000,1000,1,num_2,0.49415339971892536,,35,13,2026-03-13_14h28.49.694,2026A_exp2,2022.2.4,59.90319639488076,
1000,1,0.0,0.0,1,0,46,46,73,,,,,157.15947860013694,157.81024540006183,157.81024540006183,158.31141429999843,45,45,158.31141429999843,158.31141429999843,158.31141429999843,158.31141429999843,158.31141429999843,158.31141429999843,158.31141429999843,158.31141429999843,158.31141429999843,158.67773029999807,158.67773029999807,158.67773029999807,158.67773029999807,158.67773029999807,158.67773029999807,158.67773029999807,158.67773029999807,158.67773029999807,21,1,[0.08357080002315342],[0.11684069992043078],158.67773029999807,158.87958150007762,1000,158.87958150007762,1000,1000,1000,1000,0,num_3,0.46823589969426394,,35,13,2026-03-13_14h28.49.694,2026A_exp2,2022.2.4,59.90319639488076,
1000,1,0.0,4.9,1,0,47,47,37,,,,,159.3787927001249,160.02913260017522,160.02913260017522,160.51345720002428,45,45,160.51345720002428,160.51345720002428,160.51345720002428,160.51345720002428,160.51345720002428,160.51345720002428,160.51345720002428,160.51345720002428,160.51345720002428,160.87984510022216,160.87984510022216,160.87984510022216,160.87984510022216,160.87984510022216,160.87984510022216,160.87984510022216,160.87984510022216,160.87984510022216,0,1,[0.0012556000147014856],[0.36700690002180636],160.87984510022216,161.08189010014758,1000,161.08189010014758,1000,1000,1000,1000,1,num_2,0.48985159979201853,,35,13,2026-03-13_14h28.49.694,2026A_exp2,2022.2.4,59.90319639488076,
1000,1,0.0,3.7,1,0,48,48,4,,,,,161.5973166001495,162.24803970009089,162.24803970009089,162.7492135001812,315,315,162.7492135001812,162.7492135001812,162.7492135001812,162.7492135001812,162.7492135001812,162.7492135001812,162.7492135001812,162.7492135001812,162.7492135001812,163.11561400000937,163.11561400000937,163.11561400000937,163.11561400000937,163.11561400000937,163.11561400000937,163.11561400000937,163.11561400000937,163.11561400000937,2,1,[0.0012779999524354935],[0.35066439979709685],163.11561400000937,163.31588370003738,1000,163.31588370003738,1000,1000,1000,1000,1,num_2,0.37505989987403154,,35,13,2026-03-13_14h28.49.694,2026A_exp2,2022.2.4,59.90319639488076,
1000,1,0.0,0.0,0,0,49,49,45,,,,,163.71635430003516,164.36684980010614,164.36684980010614,164.86796280019917,315,45,164.86796280019917,164.86796280019917,164.86796280019917,164.86796280019917,164.86796280019917,164.86796280019917,164.86796280019917,164.86796280019917,164.86796280019917,165.23447150015272,165.23447150015272,165.23447150015272,165.23447150015272,165.23447150015272,165.23447150015272,165.23447150015272,165.23447150015272,165.23447150015272,9,5,"[0.0012296999339014292, 0.05024149990640581, 0.1670486000366509, 0.2171869999729097, 0.267043299973011]","[0.017413999885320663, 0.11694929981604218, 0.20037569990381598, 0.25038550002500415, 0.3336276998743415]",165.23447150015272,165.43637350015342,1000,165.43637350015342,1000,1000,1000,1000,0,num_3,0.2229257000144571,,35,13,2026-03-13_14h28.49.694,2026A_exp2,2022.2.4,59.90319639488076,
1000,1,6.1,3.7,1,0,50,50,11,,,,,165.6847707000561,166.33542520017363,166.33542520017363,166.83664200012572,315,45,166.83664200012572,166.83664200012572,166.83664200012572,166.83664200012572,166.83664200012572,166.83664200012572,166.83664200012572,166.83664200012572,166.83664200012572,167.20302430004813,167.20302430004813,167.20302430004813,167.20302430004813,167.20302430004813,167.20302430004813,167.20302430004813,167.20302430004813,167.20302430004813,23,0,,,167.20302430004813,167.40496860002168,1000,167.40496860002168,1000,1000,1000,1000,0,num_3,0.4225010999944061,,35,13,2026-03-13_14h28.49.694,2026A_exp2,2022.2.4,59.90319639488076,
0,0,3.7,0.0,1,0,51,51,1,,,,,167.85351500008255,168.50429970002733,168.50429970002733,169.00547080021352,45,45,169.00547080021352,169.00547080021352,169.00547080021352,169.00547080021352,169.00547080021352,169.00547080021352,169.00547080021352,169.00547080021352,169.00547080021352,169.37178050004877,169.37178050004877,169.37178050004877,169.37178050004877,169.37178050004877,169.37178050004877,169.37178050004877,169.37178050004877,169.37178050004877,7,3,"[0.0012161999475210905, 0.18372819991782308, 0.3664349000900984]","[0.16693930001929402, 0.26703180000185966, 0.36643750010989606]",169.37178050004877,169.57211020006798,3.7,169.57211020006798,0,3.7,1,0,1000,num_1,0.7910984999034554,,35,13,2026-03-13_14h28.49.694,2026A_exp2,2022.2.4,59.90319639488076,
1000,1,0.0,0.0,0,0,52,52,7,,,,,170.38932449999265,171.0400594000239,171.0400594000239,171.5413414000068,45,315,171.5413414000068,171.5413414000068,171.5413414000068,171.5413414000068,171.5413414000068,171.5413414000068,171.5413414000068,171.5413414000068,171.5413414000068,171.89101480017416,171.89101480017416,171.89101480017416,171.89101480017416,171.89101480017416,171.89101480017416,171.89101480017416,171.89101480017416,171.89101480017416,21,1,[0.11701599997468293],[0.13365840003825724],171.89101480017416,172.09280139999464,1000,172.09280139999464,1000,1000,1000,1000,0,num_3,0.23020969983190298,,35,13,2026-03-13_14h28.49.694,2026A_exp2,2022.2.4,59.90319639488076,
1,0,3.7,0.0,0,0,53,53,26,,,,,172.34134450019337,172.99215940013528,172.99215940013528,173.49322900013067,315,315,173.49322900013067,173.49322900013067,173.49322900013067,173.49322900013067,173.49322900013067,173.49322900013067,173.49322900013067,173.49322900013067,173.49322900013067,173.859543700004,173.859543700004,173.859543700004,173.859543700004,173.859543700004,173.859543700004,173.859543700004,173.859543700004,173.859543700004,22,1,[0.333511000033468],[0.35020860005170107],173.859543700004,174.0598248001188,3.7,174.0598248001188,0,3.7,1,0,1000,num_1,0.6311185997910798,,35,13,2026-03-13_14h28.49.694,2026A_exp2,2022.2.4,59.90319639488076,
0,0,4.9,0.0,0,0,54,54,84,,,,,174.71030999999493,175.36123150005005,175.36123150005005,175.84552590013482,45,315,175.84552590013482,175.84552590013482,175.84552590013482,175.84552590013482,175.84552590013482,175.84552590013482,175.84552590013482,175.84552590013482,175.84552590013482,176.21201900020242,176.21201900020242,176.21201900020242,176.21201900020242,176.21201900020242,176.21201900020242,176.21201900020242,176.21201900020242,176.21201900020242,8,5,"[0.001209000125527382, 0.05016600014641881, 0.1335772001184523, 0.23318840004503727, 0.3501397999934852]","[0.0173723001498729, 0.11681149993091822, 0.16682090004906058, 0.3164685999508947, 0.36713230004534125]",176.21201900020242,176.41216750000603,0.0,176.41216750000603,0,0.0,0,1,1000,num_1,0.5837062997743487,,35,13,2026-03-13_14h28.49.694,2026A_exp2,2022.2.4,59.90319639488076,
1000,1,6.1,0.0,0,0,55,55,27,,,,,177.01275560003705,177.66335790022276,177.66335790022276,178.14788370020688,45,315,178.14788370020688,178.14788370020688,178.14788370020688,178.14788370020688,178.14788370020688,178.14788370020688,178.14788370020688,178.14788370020688,178.14788370020688,178.51425790018402,178.51425790018402,178.51425790018402,178.51425790018402,178.51425790018402,178.51425790018402,178.51425790018402,178.51425790018402,178.51425790018402,9,3,"[0.0012284999247640371, 0.1501966998912394, 0.26671489980071783]","[0.13356349989771843, 0.1836325000040233, 0.3333878999110311]",178.51425790018402,178.716486700112,1000,178.716486700112,1000,1000,1000,1000,0,num_3,0.22248419979587197,,35,13,2026-03-13_14h28.49.694,2026A_exp2,2022.2.4,59.90319639488076,
0,0,3.7,0.0,0,0,56,56,18,,,,,178.96468230010942,179.61537060001865,179.61537060001865,180.11641840008087,45,315,180.11641840008087,180.11641840008087,180.11641840008087,180.11641840008087,180.11641840008087,180.11641840008087,180.11641840008087,180.11641840008087,180.11641840008087,180.46626330004074,180.46626330004074,180.46626330004074,180.46626330004074,180.46626330004074,180.46626330004074,180.46626330004074,180.46626330004074,180.46626330004074,21,1,[0.05039989994838834],[0.06711909989826381],180.46626330004074,180.6665215000976,0.0,180.6665215000976,0,0.0,0,1,1000,num_1,0.35243159998208284,,35,13,2026-03-13_14h28.49.694,2026A_exp2,2022.2.4,59.90319639488076,
1000,1,0.0,0.0,1,0,57,57,56,,,,,181.0501184000168,181.7007668002043,181.7007668002043,182.18517320021056,315,315,182.18517320021056,182.18517320021056,182.18517320021056,182.18517320021056,182.18517320021056,182.18517320021056,182.18517320021056,182.18517320021056,182.18517320021056,182.55150800012052,182.55150800012052,182.55150800012052,182.55150800012052,182.55150800012052,182.55150800012052,182.55150800012052,182.55150800012052,182.55150800012052,22,1,[0.31705880002118647],[0.3337652999907732],182.55150800012052,182.7535865001846,1000,182.7535865001846,1000,1000,1000,1000,0,num_3,0.08121799980290234,,35,13,2026-03-13_14h28.49.694,2026A_exp2,2022.2.4,59.90319639488076,
1000,1,0.0,0.0,1,0,58,58,29,,,,,182.85188259999268,183.50265260017477,183.50265260017477,184.0037524001673,315,315,184.0037524001673,184.0037524001673,184.0037524001673,184.0037524001673,184.0037524001673,184.0037524001673,184.0037524001673,184.0037524001673,184.0037524001673,184.37028790009208,184.37028790009208,184.37028790009208,184.37028790009208,184.37028790009208,184.37028790009208,184.37028790009208,184.37028790009208,184.37028790009208,23,0,,,184.37028790009208,184.57212060014717,1000,184.57212060014717,1000,1000,1000,1000,0,num_3,0.47164719994179904,,35,13,2026-03-13_14h28.49.694,2026A_exp2,2022.2.4,59.90319639488076,
1,0,0.0,4.9,1,0,59,59,54,,,,,185.07073550019413,185.72145520010963,185.72145520010963,186.22266080020927,315,45,186.22266080020927,186.22266080020927,186.22266080020927,186.22266080020927,186.22266080020927,186.22266080020927,186.22266080020927,186.22266080020927,186.22266080020927,186.5723109000828,186.5723109000828,186.5723109000828,186.5723109000828,186.5723109000828,186.5723109000828,186.5723109000828,186.5723109000828,186.5723109000828,3,4,"[0.0011776001192629337, 0.21719210012815893, 0.26730960002169013, 0.35079970001243055]","[0.20069780014455318, 0.2506816000677645, 0.3339933999814093, 0.3508049000520259]",186.5723109000828,186.77268350007944,4.9,186.77268350007944,1,4.9,1,1,1000,num_4,0.5593542999122292,,35,13,2026-03-13_14h28.49.694,2026A_exp2,2022.2.4,59.90319639488076,
1,0,0.0,0.0,1,0,60,60,6,,,,,187.35633220011368,188.00707870000042,188.00707870000042,188.50391160021536,315,45,188.50391160021536,188.50391160021536,188.50391160021536,188.50391160021536,188.50391160021536,188.50391160021536,188.50391160021536,188.50391160021536,188.50391160021536,188.85778479999863,188.85778479999863,188.85778479999863,188.85778479999863,188.85778479999863,188.85778479999863,188.85778479999863,188.85778479999863,188.85778479999863,23,0,,,188.85778479999863,189.05805290001445,0.0,189.05805290001445,0,0.0,0,1,1000,num_1,0.7372863998170942,,35,13,2026-03-13_14h28.49.694,2026A_exp2,2022.2.4,59.90319639488076,
1000,1,0.0,0.0,1,0,61,61,55,,,,,189.8254794999957,190.4762350001838,190.4762350001838,190.96067710011266,315,45,190.96067710011266,190.96067710011266,190.96067710011266,190.96067710011266,190.96067710011266,190.96067710011266,190.96067710011266,190.96067710011266,190.96067710011266,191.32714150007814,191.32714150007814,191.32714150007814,191.32714150007814,191.32714150007814,191.32714150007814,191.32714150007814,191.32714150007814,191.32714150007814,23,0,,,191.32714150007814,191.52907290006988,1000,191.52907290006988,1000,1000,1000,1000,0,num_3,0.4182928998488933,,35,13,2026-03-13_14h28.49.694,2026A_exp2,2022.2.4,59.90319639488076,
1,0,4.9,0.0,0,0,62,62,66,,,,,191.97765160002746,192.62837860011496,192.62837860011496,193.1295676000882,315,45,193.1295676000882,193.1295676000882,193.1295676000882,193.1295676000882,193.1295676000882,193.1295676000882,193.1295676000882,193.1295676000882,193.1295676000882,193.49642300000414,193.49642300000414,193.49642300000414,193.49642300000414,193.49642300000414,193.49642300000414,193.49642300000414,193.49642300000414,193.49642300000414,19,3,"[0.0337915001437068, 0.133856900036335, 0.25047169998288155]","[0.05030809994786978, 0.1671587999444455, 0.26722249994054437]",193.49642300000414,193.69615600001998,4.9,193.69615600001998,0,4.9,1,0,1000,num_1,0.3960232997778803,,35,13,2026-03-13_14h28.49.694,2026A_exp2,2022.2.4,59.90319639488076,
1000,1,0.0,0.0,0,0,63,63,57,,,,,194.11302970000543,194.76387090003118,194.76387090003118,195.2483258000575,315,315,195.2483258000575,195.2483258000575,195.2483258000575,195.2483258000575,195.2483258000575,195.2483258000575,195.2483258000575,195.2483258000575,195.2483258000575,195.6145902001299,195.6145902001299,195.6145902001299,195.6145902001299,195.6145902001299,195.6145902001299,195.6145902001299,195.6145902001299,195.6145902001299,23,0,,,195.6145902001299,195.8170109000057,1000,195.8170109000057,1000,1000,1000,1000,0,num_3,0.3787472997792065,,35,13,2026-03-13_14h28.49.694,2026A_exp2,2022.2.4,59.90319639488076,
0,0,4.9,0.0,0,0,64,64,40,,,,,196.21523880003951,196.86603480018675,196.86603480018675,197.36701540020294,315,45,197.36701540020294,197.36701540020294,197.36701540020294,197.36701540020294,197.36701540020294,197.36701540020294,197.36701540020294,197.36701540020294,197.36701540020294,197.73342390009202,197.73342390009202,197.73342390009202,197.73342390009202,197.73342390009202,197.73342390009202,197.73342390009202,197.73342390009202,197.73342390009202,2,3,"[0.0012448998168110847, 0.16700699995271862, 0.2504482998047024]","[0.15032239980064332, 0.23362969979643822, 0.3671308998018503]",197.73342390009202,197.93379080016166,0.0,197.93379080016166,1,0.0,0,0,1000,num_4,0.4853367998730391,,35,13,2026-03-13_14h28.49.694,2026A_exp2,2022.2.4,59.90319639488076,
1000,1,0.0,0.0,0,0,65,65,62,,,,,198.45086130010895,199.08493370003998,199.08493370003998,199.58605260006152,45,315,199.58605260006152,199.58605260006152,199.58605260006152,199.58605260006152,199.58605260006152,199.58605260006152,199.58605260006152,199.58605260006152,199.58605260006152,199.95224190014414,199.95224190014414,199.95224190014414,199.95224190014414,199.95224190014414,199.95224190014414,199.95224190014414,199.95224190014414,199.95224190014414,23,0,,,199.95224190014414,200.15402020001784,1000,200.15402020001784,1000,1000,1000,1000,0,num_3,0.45774860004894435,,35,13,2026-03-13_14h28.49.694,2026A_exp2,2022.2.4,59.90319639488076,
1,0,0.0,6.1,1,0,66,66,46,,,,,200.63673390005715,201.28703450015746,201.28703450015746,201.77152390009724,45,45,201.77152390009724,201.77152390009724,201.77152390009724,201.77152390009724,201.77152390009724,201.77152390009724,201.77152390009724,201.77152390009724,201.77152390009724,202.13790570013225,202.13790570013225,202.13790570013225,202.13790570013225,202.13790570013225,202.13790570013225,202.13790570013225,202.13790570013225,202.13790570013225,23,0,,,202.13790570013225,202.3380071001593,6.1,202.3380071001593,1,6.1,1,1,1000,num_4,0.497311299899593,,35,13,2026-03-13_14h28.49.694,2026A_exp2,2022.2.4,59.90319639488076,
1000,1,0.0,6.1,0,0,67,67,20,,,,,202.85513370018452,203.50599560001865,203.50599560001865,203.99033980001695,45,45,203.99033980001695,203.99033980001695,203.99033980001695,203.99033980001695,203.99033980001695,203.99033980001695,203.99033980001695,203.99033980001695,203.99033980001695,204.3566802002024,204.3566802002024,204.3566802002024,204.3566802002024,204.3566802002024,204.3566802002024,204.3566802002024,204.3566802002024,204.3566802002024,23,0,,,204.3566802002024,204.55925810011104,1000,204.55925810011104,1000,1000,1000,1000,1,num_2,0.47580689983442426,,35,13,2026-03-13_14h28.49.694,2026A_exp2,2022.2.4,59.90319639488076,
1,0,0.0,4.9,0,0,68,68,14,,,,,205.0573736000806,205.70802280004136,205.70802280004136,206.20927310013212,45,45,206.20927310013212,206.20927310013212,206.20927310013212,206.20927310013212,206.20927310013212,206.20927310013212,206.20927310013212,206.20927310013212,206.20927310013212,206.55957030015998,206.55957030015998,206.55957030015998,206.55957030015998,206.55957030015998,206.55957030015998,206.55957030015998,206.55957030015998,206.55957030015998,22,0,,,206.55957030015998,206.75910710007884,0.0,206.77593300002627,0,0.0,0,1,1000,num_1,0.48322169994935393,,35,13,2026-03-13_14h28.49.694,2026A_exp2,2022.2.4,59.90319639488076,
1000,1,3.7,6.1,1,0,69,69,75,,,,,207.276199700078,207.92703680018894,207.92703680018894,208.41138390009291,315,315,208.41138390009291,208.41138390009291,208.41138390009291,208.41138390009291,208.41138390009291,208.41138390009291,208.41138390009291,208.41138390009291,208.41138390009291,208.77790700015612,208.77790700015612,208.77790700015612,208.77790700015612,208.77790700015612,208.77790700015612,208.77790700015612,208.77790700015612,208.77790700015612,23,0,,,208.77790700015612,208.9800791000016,1000,208.9800791000016,1000,1000,1000,1000,0,num_3,0.5277443998493254,,35,13,2026-03-13_14h28.49.694,2026A_exp2,2022.2.4,59.90319639488076,
1,0,0.0,0.0,0,0,70,70,87,,,,,209.52864450006746,210.17930220020935,210.17930220020935,210.68039120011963,45,45,210.68039120011963,210.68039120011963,210.68039120011963,210.68039120011963,210.68039120011963,210.68039120011963,210.68039120011963,210.68039120011963,210.68039120011963,211.04674280015752,211.04674280015752,211.04674280015752,211.04674280015752,211.04674280015752,211.04674280015752,211.04674280015752,211.04674280015752,211.04674280015752,23,0,,,211.04674280015752,211.2469949000515,0.0,211.2469949000515,0,0.0,0,1,1000,num_1,0.5719628999941051,,35,13,2026-03-13_14h28.49.694,2026A_exp2,2022.2.4,59.90319639488076,
1000,1,0.0,3.7,0,0,71,71,76,,,,,211.8475150000304,212.49818590003997,212.49818590003997,212.98262870009057,315,315,212.98262870009057,212.98262870009057,212.98262870009057,212.98262870009057,212.98262870009057,212.98262870009057,212.98262870009057,212.98262870009057,212.98262870009057,213.34910510014743,213.34910510014743,213.34910510014743,213.34910510014743,213.34910510014743,213.34910510014743,213.34910510014743,213.34910510014743,213.34910510014743,23,0,,,213.34910510014743,213.5510721001774,1000,213.5510721001774,1000,1000,1000,1000,0,num_3,1.3483516997657716,,35,13,2026-03-13_14h28.49.694,2026A_exp2,2022.2.4,59.90319639488076,
1000,1,0.0,3.7,1,0,72,72,88,,,,,214.9173447000794,215.56805390003137,215.56805390003137,216.06914920010604,45,45,216.06914920010604,216.06914920010604,216.06914920010604,216.06914920010604,216.06914920010604,216.06914920010604,216.06914920010604,216.06914920010604,216.06914920010604,216.43558910000138,216.43558910000138,216.43558910000138,216.43558910000138,216.43558910000138,216.43558910000138,216.43558910000138,216.43558910000138,216.43558910000138,23,0,,,216.43558910000138,216.63778870017268,1000,216.63778870017268,1000,1000,1000,1000,1,num_2,0.5175870000384748,,35,13,2026-03-13_14h28.49.694,2026A_exp2,2022.2.4,59.90319639488076,
1000,1,3.7,3.7,0,0,73,73,59,,,,,217.18621280021034,217.8366614000406,217.8366614000406,218.33810590021312,45,45,218.33810590021312,218.33810590021312,218.33810590021312,218.33810590021312,218.33810590021312,218.33810590021312,218.33810590021312,218.33810590021312,218.33810590021312,218.70449710008688,218.70449710008688,218.70449710008688,218.70449710008688,218.70449710008688,218.70449710008688,218.70449710008688,218.70449710008688,218.70449710008688,13,5,"[0.017471199855208397, 0.06690299999900162, 0.16701480001211166, 0.2171612000092864, 0.3169925999827683]","[0.050229799933731556, 0.10028330003842711, 0.18368509993888438, 0.28374899993650615, 0.33394719986245036]",218.70449710008688,218.90634020022117,1000,218.90634020022117,1000,1000,1000,1000,0,num_3,0.6173769996967167,,35,13,2026-03-13_14h28.49.694,2026A_exp2,2022.2.4,59.90319639488076,
0,0,6.1,0.0,1,0,74,74,25,,,,,219.55549350008368,220.20612660003826,220.20612660003826,220.69045069999993,45,45,220.69045069999993,220.69045069999993,220.69045069999993,220.69045069999993,220.69045069999993,220.69045069999993,220.69045069999993,220.69045069999993,220.69045069999993,221.05686890007928,221.05686890007928,221.05686890007928,221.05686890007928,221.05686890007928,221.05686890007928,221.05686890007928,221.05686890007928,221.05686890007928,22,1,[0.21698540006764233],[0.23364169988781214],221.05686890007928,221.25711160013452,6.1,221.25711160013452,1,6.1,1,1,1000,num_4,0.7064630000386387,,35,13,2026-03-13_14h28.49.694,2026A_exp2,2022.2.4,59.90319639488076,
1000,1,0.0,4.9,0,0,75,75,0,,,,,221.99086890020408,222.64178790012375,222.64178790012375,223.12624960020185,45,315,223.12624960020185,223.12624960020185,223.12624960020185,223.12624960020185,223.12624960020185,223.12624960020185,223.12624960020185,223.12624960020185,223.12624960020185,223.49248110014014,223.49248110014014,223.49248110014014,223.49248110014014,223.49248110014014,223.49248110014014,223.49248110014014,223.49248110014014,223.49248110014014,23,0,,,223.49248110014014,223.69520610012114,1000,223.69520610012114,1000,1000,1000,1000,1,num_2,0.42086569988168776,,35,13,2026-03-13_14h28.49.694,2026A_exp2,2022.2.4,59.90319639488076,
1000,1,4.9,6.1,0,0,76,76,36,,,,,224.14334810012951,224.77728020003997,224.77728020003997,225.2784183002077,315,315,225.2784183002077,225.2784183002077,225.2784183002077,225.2784183002077,225.2784183002077,225.2784183002077,225.2784183002077,225.2784183002077,225.2784183002077,225.6446568001993,225.6446568001993,225.6446568001993,225.6446568001993,225.6446568001993,225.6446568001993,225.6446568001993,225.6446568001993,225.6446568001993,23,0,,,225.6446568001993,225.84675860009156,1000,225.84675860009156,1000,1000,1000,1000,0,num_3,0.5009029998909682,,35,13,2026-03-13_14h28.49.694,2026A_exp2,2022.2.4,59.90319639488076,
1000,1,0.0,0.0,0,0,77,77,89,,,,,226.37889600009657,227.02960970019922,227.02960970019922,227.53053680015728,45,45,227.53053680015728,227.53053680015728,227.53053680015728,227.53053680015728,227.53053680015728,227.53053680015728,227.53053680015728,227.53053680015728,227.53053680015728,227.8969553001225,227.8969553001225,227.8969553001225,227.8969553001225,227.8969553001225,227.8969553001225,227.8969553001225,227.8969553001225,227.8969553001225,23,0,,,227.8969553001225,228.09940800000913,1000,228.09940800000913,1000,1000,1000,1000,1,num_2,0.408567399950698,,35,13,2026-03-13_14h28.49.694,2026A_exp2,2022.2.4,59.90319639488076,
1000,1,0.0,4.9,0,0,78,78,8,,,,,228.5308837001212,229.1816593001131,229.1816593001131,229.68269490008242,45,45,229.68269490008242,229.68269490008242,229.68269490008242,229.68269490008242,229.68269490008242,229.68269490008242,229.68269490008242,229.68269490008242,229.68269490008242,230.0325010002125,230.0325010002125,230.0325010002125,230.0325010002125,230.0325010002125,230.0325010002125,230.0325010002125,230.0325010002125,230.0325010002125,14,5,"[0.01727099996060133, 0.06620900006964803, 0.11639919993467629, 0.23387050000019372, 0.3171997999306768]","[0.03346800012513995, 0.0829914000350982, 0.14965160004794598, 0.267114199930802, 0.3338222000747919]",230.0325010002125,230.23450300004333,1000,230.23450300004333,1000,1000,1000,1000,0,num_3,0.4252951997332275,,35,13,2026-03-13_14h28.49.694,2026A_exp2,2022.2.4,59.90319639488076,
0,0,6.1,3.7,0,0,79,79,49,,,,,230.6830458000768,231.3337201999966,231.3337201999966,231.83484980021603,315,45,231.83484980021603,231.83484980021603,231.83484980021603,231.83484980021603,231.83484980021603,231.83484980021603,231.83484980021603,231.83484980021603,231.83484980021603,232.20136870001443,232.20136870001443,232.20136870001443,232.20136870001443,232.20136870001443,232.20136870001443,232.20136870001443,232.20136870001443,232.20136870001443,14,3,"[0.001213700044900179, 0.21715290006250143, 0.35046280012466013]","[0.11686599999666214, 0.2336866999976337, 0.3671371000818908]",232.20136870001443,232.40160980005749,3.7,232.40160980005749,0,3.7,1,0,1000,num_1,0.6980028997641057,,35,13,2026-03-13_14h28.49.694,2026A_exp2,2022.2.4,59.90319639488076,
1000,1,3.7,6.1,0,0,80,80,60,,,,,233.1187722000759,233.76949010021053,233.76949010021053,234.25393740017898,45,45,234.25393740017898,234.25393740017898,234.25393740017898,234.25393740017898,234.25393740017898,234.25393740017898,234.25393740017898,234.25393740017898,234.25393740017898,234.6204064001795,234.6204064001795,234.6204064001795,234.6204064001795,234.6204064001795,234.6204064001795,234.6204064001795,234.6204064001795,234.6204064001795,23,0,,,234.6204064001795,234.82284570019692,1000,234.82284570019692,1000,1000,1000,1000,0,num_3,0.8532069998327643,,35,13,2026-03-13_14h28.49.694,2026A_exp2,2022.2.4,59.90319639488076,
1000,1,4.9,0.0,0,0,81,81,50,,,,,235.7048996000085,236.35535500012338,236.35535500012338,236.85664720018394,45,45,236.85664720018394,236.85664720018394,236.85664720018394,236.85664720018394,236.85664720018394,236.85664720018394,236.85664720018394,236.85664720018394,236.85664720018394,237.2063687001355,237.2063687001355,237.2063687001355,237.2063687001355,237.2063687001355,237.2063687001355,237.2063687001355,237.2063687001355,237.2063687001355,22,0,,,237.2063687001355,237.40848290012218,1000,237.42317890003324,1000,1000,1000,1000,1,num_2,0.4758032998070121,,35,13,2026-03-13_14h28.49.694,2026A_exp2,2022.2.4,59.90319639488076,
1,0,0.0,0.0,1,0,82,82,31,,,,,237.9237542001065,238.57422629999928,238.57422629999928,239.0755181000568,315,45,239.0755181000568,239.0755181000568,239.0755181000568,239.0755181000568,239.0755181000568,239.0755181000568,239.0755181000568,239.0755181000568,239.0755181000568,239.44191720010713,239.44191720010713,239.44191720010713,239.44191720010713,239.44191720010713,239.44191720010713,239.44191720010713,239.44191720010713,239.44191720010713,20,3,"[0.1670165997929871, 0.23364679981023073, 0.3171602999791503]","[0.18366839992813766, 0.25038250000216067, 0.3337077999021858]",239.44191720010713,239.64197120000608,0.0,239.64197120000608,0,0.0,0,1,1000,num_1,0.5856774998828769,,35,13,2026-03-13_14h28.49.694,2026A_exp2,2022.2.4,59.90319639488076,
1000,1,0.0,3.7,0,0,83,83,23,,,,,240.25933400006033,240.91002300009131,240.91002300009131,241.39442760008387,45,45,241.39442760008387,241.39442760008387,241.39442760008387,241.39442760008387,241.39442760008387,241.39442760008387,241.39442760008387,241.39442760008387,241.39442760008387,241.76079520001076,241.76079520001076,241.76079520001076,241.76079520001076,241.76079520001076,241.76079520001076,241.76079520001076,241.76079520001076,241.76079520001076,23,0,,,241.76079520001076,241.96295660012402,1000,241.96295660012402,1000,1000,1000,1000,0,num_3,0.4413697998970747,,35,13,2026-03-13_14h28.49.694,2026A_exp2,2022.2.4,59.90319639488076,
1,0,0.0,4.9,0,0,84,84,70,,,,,242.42832550010644,243.0788316000253,243.0788316000253,243.5800683000125,45,45,243.5800683000125,243.5800683000125,243.5800683000125,243.5800683000125,243.5800683000125,243.5800683000125,243.5800683000125,243.5800683000125,243.5800683000125,243.9462440002244,243.9462440002244,243.9462440002244,243.9462440002244,243.9462440002244,243.9462440002244,243.9462440002244,243.9462440002244,243.9462440002244,10,1,[0.0012450001668184996],[0.21688640001229942],243.9462440002244,244.1464989001397,0.0,244.1464989001397,0,0.0,0,1,1000,num_1,0.600433399900794,,35,13,2026-03-13_14h28.49.694,2026A_exp2,2022.2.4,59.90319639488076,
1000,1,0.0,6.1,0,0,85,85,61,,,,,244.76364550017752,245.4145051999949,245.4145051999949,245.8990210001357,45,45,245.8990210001357,245.8990210001357,245.8990210001357,245.8990210001357,245.8990210001357,245.8990210001357,245.8990210001357,245.8990210001357,245.8990210001357,246.26524840015918,246.26524840015918,246.26524840015918,246.26524840015918,246.26524840015918,246.26524840015918,246.26524840015918,246.26524840015918,246.26524840015918,23,0,,,246.26524840015918,246.46718330006115,1000,246.46718330006115,1000,1000,1000,1000,0,num_3,0.5515778998378664,,35,13,2026-03-13_14h28.49.694,2026A_exp2,2022.2.4,59.90319639488076,
0,0,0.0,0.0,1,0,86,86,44,,,,,247.04960960010067,247.70009580021724,247.70009580021724,248.2013005001936,45,315,248.2013005001936,248.2013005001936,248.2013005001936,248.2013005001936,248.2013005001936,248.2013005001936,248.2013005001936,248.2013005001936,248.2013005001936,248.55086400010623,248.55086400010623,248.55086400010623,248.55086400010623,248.55086400010623,248.55086400010623,248.55086400010623,248.55086400010623,248.55086400010623,22,0,,,248.55086400010623,248.75111910002306,0.0,248.75111910002306,0,0.0,0,1,1000,num_1,0.6682794999796897,,35,13,2026-03-13_14h28.49.694,2026A_exp2,2022.2.4,59.90319639488076,
1000,1,0.0,6.1,1,0,87,87,42,,,,,249.4353006000165,250.08588620019145,250.08588620019145,250.57026630011387,45,315,250.57026630011387,250.57026630011387,250.57026630011387,250.57026630011387,250.57026630011387,250.57026630011387,250.57026630011387,250.57026630011387,250.57026630011387,250.93667720002122,250.93667720002122,250.93667720002122,250.93667720002122,250.93667720002122,250.93667720002122,250.93667720002122,250.93667720002122,250.93667720002122,1,2,"[0.0012436998076736927, 0.13345279986970127]","[0.11683840001933277, 0.36687339982017875]",250.93667720002122,251.13912480021827,1000,251.13912480021827,1000,1000,1000,1000,0,num_3,0.5841071996837854,,35,13,2026-03-13_14h28.49.694,2026A_exp2,2022.2.4,59.90319639488076,
1000,1,0.0,0.0,0,0,88,88,64,,,,,251.75420810002834,252.4045246001333,252.4045246001333,252.90588490013033,315,45,252.90588490013033,252.90588490013033,252.90588490013033,252.90588490013033,252.90588490013033,252.90588490013033,252.90588490013033,252.90588490013033,252.90588490013033,253.25571590010077,253.25571590010077,253.25571590010077,253.25571590010077,253.25571590010077,253.25571590010077,253.25571590010077,253.25571590010077,253.25571590010077,22,0,,,253.25571590010077,253.4578111001756,1000,253.4578111001756,1000,1000,1000,1000,1,num_2,0.5451724997255951,,35,13,2026-03-13_14h28.49.694,2026A_exp2,2022.2.4,59.90319639488076,
1,0,3.7,6.1,1,0,89,89,68,,,,,254.0229289000854,254.67384689999744,254.67384689999744,255.1749140000902,315,315,255.1749140000902,255.1749140000902,255.1749140000902,255.1749140000902,255.1749140000902,255.1749140000902,255.1749140000902,255.1749140000902,255.1749140000902,255.54127839999273,255.54127839999273,255.54127839999273,255.54127839999273,255.54127839999273,255.54127839999273,255.54127839999273,255.54127839999273,255.54127839999273,5,3,"[0.0008625001646578312, 0.06702490011230111, 0.16712130000814795]","[0.05037170019932091, 0.10060500004328787, 0.3672875000629574]",255.54127839999273,255.7415565000847,6.1,255.7415565000847,0,6.1,1,0,1000,num_1,0.550055299885571,,35,13,2026-03-13_14h28.49.694,2026A_exp2,2022.2.4,59.90319639488076,
,,,,,,,,,,,,,,,,,,,,,,,,,,,,,,,,,,,,,,,,,,,,,,,,,,,,256.31761260004714,,,,,,,
