validity,detectorcomp,contrastCW,contrastCCW,precueCWorCCW,block_80trials.thisRepN,block_80trials.thisTrialN,block_80trials.thisN,block_80trials.thisIndex,etRecord.started,etRecord.stopped,text.started,text.stopped,text_4.started,text_4.stopped,text_6.started,text_6.stopped,oriCW,oriCCW,roi_2.started,grating_UR.started,grating_UL.started,grating_LR.started,grating_LL.started,noise_UR.started,noise_UL.started,noise_LR.started,noise_LL.started,roi_2.stopped,grating_UR.stopped,grating_UL.stopped,grating_LR.stopped,grating_LL.stopped,noise_UR.stopped,noise_UL.stopped,noise_LR.stopped,noise_LL.stopped,outframe,roi_2.numLooks,roi_2.timesOn,roi_2.timesOff,text_2.started,text_2.stopped,probedcontrast,key_resp.started,respdetect,relevantContrast,correctDetect,TorFdetect,respCWorCCW,key_resp.keys,key_resp.rt,feedback_display_.started,participantNo,blockNo,date,expName,psychopyVersion,frameRate,
1000,1,0.0,0.0,0,0,0,0,17,3.749999450519681e-05,3.749999450519681e-05,55.06281710002804,57.06481180002447,57.06481180002447,57.69899320002878,57.69899320002878,58.2186103000422,315,45,58.2186103000422,58.2186103000422,58.2186103000422,58.2186103000422,58.2186103000422,58.2186103000422,58.2186103000422,58.2186103000422,58.2186103000422,58.56667580001522,58.56667580001522,58.56667580001522,58.56667580001522,58.56667580001522,58.56667580001522,58.56667580001522,58.56667580001522,58.56667580001522,23,0,,,58.56667580001522,58.77382130001206,1000,58.77382130001206,1000,1000,1000,1000,0,num_3,0.4492661000113003,,23,10,2026-03-04_14h10.19.470,2026A_exp2,2022.2.4,59.95394339292472,
1000,1,6.1,0.0,1,0,1,1,68,,,,,59.25044750003144,59.88451060000807,59.88451060000807,60.385929799987935,45,315,60.385929799987935,60.385929799987935,60.385929799987935,60.385929799987935,60.385929799987935,60.385929799987935,60.385929799987935,60.385929799987935,60.385929799987935,60.75206710002385,60.75206710002385,60.75206710002385,60.75206710002385,60.75206710002385,60.75206710002385,60.75206710002385,60.75206710002385,60.75206710002385,23,0,,,60.75206710002385,60.95439210004406,1000,60.95439210004406,1000,1000,1000,1000,0,num_3,0.44545380002819,,23,10,2026-03-04_14h10.19.470,2026A_exp2,2022.2.4,59.95394339292472,
1000,1,0.0,6.1,1,0,2,2,62,,,,,61.41961690003518,62.07026130001759,62.07026130001759,62.57131930004107,315,45,62.57131930004107,62.57131930004107,62.57131930004107,62.57131930004107,62.57131930004107,62.57131930004107,62.57131930004107,62.57131930004107,62.57131930004107,62.93769660004182,62.93769660004182,62.93769660004182,62.93769660004182,62.93769660004182,62.93769660004182,62.93769660004182,62.93769660004182,62.93769660004182,0,1,[0.0012153999996371567],[0.36747150000883266],62.93769660004182,63.13780299999053,1000,63.13780299999053,1000,1000,1000,1000,1,num_2,0.4619659999734722,,23,10,2026-03-04_14h10.19.470,2026A_exp2,2022.2.4,59.95394339292472,
0,0,0.0,0.0,1,0,3,3,71,,,,,63.62165750004351,64.27446450002026,64.27446450002026,64.77335610002046,315,45,64.77335610002046,64.77335610002046,64.77335610002046,64.77335610002046,64.77335610002046,64.77335610002046,64.77335610002046,64.77335610002046,64.77335610002046,65.13985310000135,65.13985310000135,65.13985310000135,65.13985310000135,65.13985310000135,65.13985310000135,65.13985310000135,65.13985310000135,65.13985310000135,22,1,[0.14992290001828223],[0.1668061999953352],65.13985310000135,65.34005940001225,0.0,65.34005940001225,1,0.0,0,0,1000,num_4,1.2763573999982327,,23,10,2026-03-04_14h10.19.470,2026A_exp2,2022.2.4,59.95394339292472,
1,0,0.0,0.0,0,0,4,4,29,,,,,66.64124210004229,67.2919543000171,67.2919543000171,67.77648910001153,45,45,67.77648910001153,67.77648910001153,67.77648910001153,67.77648910001153,67.77648910001153,67.77648910001153,67.77648910001153,67.77648910001153,67.77648910001153,68.14291170000797,68.14291170000797,68.14291170000797,68.14291170000797,68.14291170000797,68.14291170000797,68.14291170000797,68.14291170000797,68.14291170000797,23,0,,,68.14291170000797,68.35496950004017,0.0,68.35496950004017,0,0.0,0,1,1000,num_1,0.8533433999982662,,23,10,2026-03-04_14h10.19.470,2026A_exp2,2022.2.4,59.95394339292472,
1,0,0.0,0.0,0,0,5,5,63,,,,,69.22746240004199,69.87871310004266,69.87871310004266,70.37900419998914,315,315,70.37900419998914,70.37900419998914,70.37900419998914,70.37900419998914,70.37900419998914,70.37900419998914,70.37900419998914,70.37900419998914,70.37900419998914,70.7454001000151,70.7454001000151,70.7454001000151,70.7454001000151,70.7454001000151,70.7454001000151,70.7454001000151,70.7454001000151,70.7454001000151,22,1,[0.26778039999771863],[0.28448570001637563],70.7454001000151,70.9455226000282,0.0,70.9455226000282,1,0.0,0,0,1000,num_4,0.5506740999990143,,23,10,2026-03-04_14h10.19.470,2026A_exp2,2022.2.4,59.95394339292472,
0,0,0.0,3.7,1,0,6,6,10,,,,,71.51273439999204,72.16345460002776,72.16345460002776,72.664545800013,315,45,72.664545800013,72.664545800013,72.664545800013,72.664545800013,72.664545800013,72.664545800013,72.664545800013,72.664545800013,72.664545800013,73.03091319999658,73.03091319999658,73.03091319999658,73.03091319999658,73.03091319999658,73.03091319999658,73.03091319999658,73.03091319999658,73.03091319999658,5,1,[0.08342689997516572],[0.36689989996375516],73.03091319999658,73.23125700000674,0.0,73.23125700000674,0,0.0,0,1,1000,num_1,1.5364462999859825,,23,10,2026-03-04_14h10.19.470,2026A_exp2,2022.2.4,59.95394339292472,
1000,1,3.7,6.1,0,0,7,7,84,,,,,74.79962330003036,75.45023409998976,75.45023409998976,75.93453570001293,45,45,75.93453570001293,75.93453570001293,75.93453570001293,75.93453570001293,75.93453570001293,75.93453570001293,75.93453570001293,75.93453570001293,75.93453570001293,76.30107940000016,76.30107940000016,76.30107940000016,76.30107940000016,76.30107940000016,76.30107940000016,76.30107940000016,76.30107940000016,76.30107940000016,0,1,[0.001213699986692518],[0.36714789998950437],76.30107940000016,76.50344090000726,1000,76.50344090000726,1000,1000,1000,1000,0,num_3,1.1526500000036322,,23,10,2026-03-04_14h10.19.470,2026A_exp2,2022.2.4,59.95394339292472,
1,0,0.0,3.7,1,0,8,8,66,,,,,77.68568100000266,78.33646960003534,78.33646960003534,78.8375573999947,45,315,78.8375573999947,78.8375573999947,78.8375573999947,78.8375573999947,78.8375573999947,78.8375573999947,78.8375573999947,78.8375573999947,78.8375573999947,79.18724729999667,79.18724729999667,79.18724729999667,79.18724729999667,79.18724729999667,79.18724729999667,79.18724729999667,79.18724729999667,79.18724729999667,0,1,[0.0015287999995052814],[0.35019279998959973],79.18724729999667,79.38740569999209,3.7,79.40390550001757,1,3.7,1,1,1000,num_4,0.6118959999876097,,23,10,2026-03-04_14h10.19.470,2026A_exp2,2022.2.4,59.95394339292472,
1000,1,0.0,6.1,1,0,9,9,88,,,,,80.03793470002711,80.6883863999974,80.6883863999974,81.17330820002826,45,45,81.17330820002826,81.17330820002826,81.17330820002826,81.17330820002826,81.17330820002826,81.17330820002826,81.17330820002826,81.17330820002826,81.17330820002826,81.53975860000355,81.53975860000355,81.53975860000355,81.53975860000355,81.53975860000355,81.53975860000355,81.53975860000355,81.53975860000355,81.53975860000355,0,1,[0.0010760999866761267],[0.3683451999677345],81.53975860000355,81.7540958999889,1000,81.7540958999889,1000,1000,1000,1000,1,num_2,0.6700657999608666,,23,10,2026-03-04_14h10.19.470,2026A_exp2,2022.2.4,59.95394339292472,
1000,1,0.0,0.0,1,0,10,10,27,,,,,82.44042480003554,83.09121899999445,83.09121899999445,83.59219870000379,315,45,83.59219870000379,83.59219870000379,83.59219870000379,83.59219870000379,83.59219870000379,83.59219870000379,83.59219870000379,83.59219870000379,83.59219870000379,83.95868730003713,83.95868730003713,83.95868730003713,83.95868730003713,83.95868730003713,83.95868730003713,83.95868730003713,83.95868730003713,83.95868730003713,0,1,[0.001234400027897209],[0.36715689999982715],83.95868730003713,84.16073689999757,1000,84.16073689999757,1000,1000,1000,1000,1,num_2,0.43861449998803437,,23,10,2026-03-04_14h10.19.470,2026A_exp2,2022.2.4,59.95394339292472,
1,0,3.7,0.0,0,0,11,11,65,,,,,84.62604830000782,85.27660540002398,85.27660540002398,85.77774590003537,315,45,85.77774590003537,85.77774590003537,85.77774590003537,85.77774590003537,85.77774590003537,85.77774590003537,85.77774590003537,85.77774590003537,85.77774590003537,86.14419630001066,86.14419630001066,86.14419630001066,86.14419630001066,86.14419630001066,86.14419630001066,86.14419630001066,86.14419630001066,86.14419630001066,16,5,"[0.0012676999904215336, 0.06700660003116354, 0.15038870001444593, 0.317320300033316, 0.36726279999129474]","[0.05025640001986176, 0.08362600003601983, 0.1669285999960266, 0.3338837000192143, 0.3672680000308901]",86.14419630001066,86.34447010001168,3.7,86.34447010001168,1,3.7,1,1,1000,num_4,0.6070950999855995,,23,10,2026-03-04_14h10.19.470,2026A_exp2,2022.2.4,59.95394339292472,
0,0,0.0,0.0,1,0,12,12,89,,,,,86.97831620002398,87.6290808999911,87.6290808999911,88.11351940000895,45,315,88.11351940000895,88.11351940000895,88.11351940000895,88.11351940000895,88.11351940000895,88.11351940000895,88.11351940000895,88.11351940000895,88.11351940000895,88.4799028999987,88.4799028999987,88.4799028999987,88.4799028999987,88.4799028999987,88.4799028999987,88.4799028999987,88.4799028999987,88.4799028999987,0,1,[0.0012033000239171088],[0.36718519998248667],88.4799028999987,88.68009450001409,0.0,88.68009450001409,1,0.0,0,0,1000,num_4,0.8479604999884032,,23,10,2026-03-04_14h10.19.470,2026A_exp2,2022.2.4,59.95394339292472,
1,0,0.0,0.0,1,0,13,13,6,,,,,89.54740169999423,90.19813460001023,90.19813460001023,90.68269760004478,315,45,90.68269760004478,90.68269760004478,90.68269760004478,90.68269760004478,90.68269760004478,90.68269760004478,90.68269760004478,90.68269760004478,90.68269760004478,91.04912089998834,91.04912089998834,91.04912089998834,91.04912089998834,91.04912089998834,91.04912089998834,91.04912089998834,91.04912089998834,91.04912089998834,0,1,[0.0011989999911747873],[0.3672874000039883],91.04912089998834,91.24933770002099,0.0,91.24933770002099,1,0.0,0,0,1000,num_4,0.6700145999784581,,23,10,2026-03-04_14h10.19.470,2026A_exp2,2022.2.4,59.95394339292472,
1000,1,0.0,0.0,0,0,14,14,80,,,,,91.95003310003085,92.60052480001468,92.60052480001468,93.08520860003773,315,315,93.08520860003773,93.08520860003773,93.08520860003773,93.08520860003773,93.08520860003773,93.08520860003773,93.08520860003773,93.08520860003773,93.08520860003773,93.4516023999895,93.4516023999895,93.4516023999895,93.4516023999895,93.4516023999895,93.4516023999895,93.4516023999895,93.4516023999895,93.4516023999895,0,1,[0.001250099972821772],[0.36994769994635135],93.4516023999895,93.6774177000043,1000,93.6774177000043,1000,1000,1000,1000,1,num_2,0.38684970000758767,,23,10,2026-03-04_14h10.19.470,2026A_exp2,2022.2.4,59.95394339292472,
1,0,3.7,0.0,0,0,15,15,42,,,,,94.0853758000303,94.73607570002787,94.73607570002787,95.23716130002867,45,315,95.23716130002867,95.23716130002867,95.23716130002867,95.23716130002867,95.23716130002867,95.23716130002867,95.23716130002867,95.23716130002867,95.23716130002867,95.60364580003079,95.60364580003079,95.60364580003079,95.60364580003079,95.60364580003079,95.60364580003079,95.60364580003079,95.60364580003079,95.60364580003079,0,1,[0.0013087000115774572],[0.36716049996903166],95.60364580003079,95.80383590003476,3.7,95.80383590003476,1,3.7,1,1,1000,num_4,0.5234723000321537,,23,10,2026-03-04_14h10.19.470,2026A_exp2,2022.2.4,59.95394339292472,
1000,1,0.0,0.0,0,0,16,16,74,,,,,96.35435430001235,97.00496130000101,97.00496130000101,97.50581639999291,315,315,97.50581639999291,97.50581639999291,97.50581639999291,97.50581639999291,97.50581639999291,97.50581639999291,97.50581639999291,97.50581639999291,97.50581639999291,97.856021900021,97.856021900021,97.856021900021,97.856021900021,97.856021900021,97.856021900021,97.856021900021,97.856021900021,97.856021900021,0,1,[0.0007285000174306333],[0.35374960000626743],97.856021900021,98.05824829998892,1000,98.05824829998892,1000,1000,1000,1000,1,num_2,1.157521600020118,,23,10,2026-03-04_14h10.19.470,2026A_exp2,2022.2.4,59.95394339292472,
1,0,0.0,4.9,1,0,17,17,21,,,,,99.24054760002764,99.89128550002351,99.89128550002351,100.39271650003502,315,45,100.39271650003502,100.39271650003502,100.39271650003502,100.39271650003502,100.39271650003502,100.39271650003502,100.39271650003502,100.39271650003502,100.39271650003502,100.75879180000629,100.75879180000629,100.75879180000629,100.75879180000629,100.75879180000629,100.75879180000629,100.75879180000629,100.75879180000629,100.75879180000629,0,1,[0.0007193000055849552],[0.3680333999800496],100.75879180000629,100.95897680002963,4.9,100.95897680002963,1,4.9,1,1,1000,num_4,0.4882458000211045,,23,10,2026-03-04_14h10.19.470,2026A_exp2,2022.2.4,59.95394339292472,
1000,1,3.7,4.9,1,0,18,18,43,,,,,101.47589580004569,102.11020190001,102.11020190001,102.6111496000085,315,315,102.6111496000085,102.6111496000085,102.6111496000085,102.6111496000085,102.6111496000085,102.6111496000085,102.6111496000085,102.6111496000085,102.6111496000085,102.97765559999971,102.97765559999971,102.97765559999971,102.97765559999971,102.97765559999971,102.97765559999971,102.97765559999971,102.97765559999971,102.97765559999971,0,1,[0.001215199998114258],[0.3670718999928795],102.97765559999971,103.17965250002453,1000,103.17965250002453,1000,1000,1000,1000,1,num_2,1.3728083999594674,,23,10,2026-03-04_14h10.19.470,2026A_exp2,2022.2.4,59.95394339292472,
1000,1,4.9,0.0,0,0,19,19,54,,,,,104.5796088000061,105.23000099998899,105.23000099998899,105.74139690003358,315,45,105.74139690003358,105.74139690003358,105.74139690003358,105.74139690003358,105.74139690003358,105.74139690003358,105.74139690003358,105.74139690003358,105.74139690003358,106.08072279999033,106.08072279999033,106.08072279999033,106.08072279999033,106.08072279999033,106.08072279999033,106.08072279999033,106.08072279999033,106.08072279999033,0,1,[0.004346100031398237],[0.3472272999933921],106.08072279999033,106.28319660003763,1000,106.29761850001523,1000,1000,1000,1000,0,num_3,0.49497979995794594,,23,10,2026-03-04_14h10.19.470,2026A_exp2,2022.2.4,59.95394339292472,
1000,1,6.1,0.0,1,0,20,20,16,,,,,106.8147028000094,107.46553250000579,107.46553250000579,107.96667220001109,45,45,107.96667220001109,107.96667220001109,107.96667220001109,107.96667220001109,107.96667220001109,107.96667220001109,107.96667220001109,107.96667220001109,107.96667220001109,108.31638870004099,108.31638870004099,108.31638870004099,108.31638870004099,108.31638870004099,108.31638870004099,108.31638870004099,108.31638870004099,108.31638870004099,2,2,"[0.0012555999564938247, 0.2336434999597259]","[0.20022269996115938, 0.3504817999782972]",108.31638870004099,108.5190402000444,1000,108.5332439999911,1000,1000,1000,1000,0,num_3,0.4909911000286229,,23,10,2026-03-04_14h10.19.470,2026A_exp2,2022.2.4,59.95394339292472,
1000,1,0.0,0.0,0,0,21,21,64,,,,,109.05034700001124,109.70088590000523,109.70088590000523,110.20220940001309,315,315,110.20220940001309,110.20220940001309,110.20220940001309,110.20220940001309,110.20220940001309,110.20220940001309,110.20220940001309,110.20220940001309,110.20220940001309,110.5518979000044,110.5518979000044,110.5518979000044,110.5518979000044,110.5518979000044,110.5518979000044,110.5518979000044,110.5518979000044,110.5518979000044,0,1,[0.0012593999854288995],[0.35062649997416884],110.5518979000044,110.7543862000457,1000,110.76888550003059,1000,1000,1000,1000,1,num_2,0.5988126999582164,,23,10,2026-03-04_14h10.19.470,2026A_exp2,2022.2.4,59.95394339292472,
1,0,0.0,3.7,0,0,22,22,61,,,,,111.38605110003846,112.03665720002027,112.03665720002027,112.53791429998819,45,45,112.53791429998819,112.53791429998819,112.53791429998819,112.53791429998819,112.53791429998819,112.53791429998819,112.53791429998819,112.53791429998819,112.53791429998819,112.904340100009,112.904340100009,112.904340100009,112.904340100009,112.904340100009,112.904340100009,112.904340100009,112.904340100009,112.904340100009,3,2,"[0.017416800023056567, 0.08365179999964312]","[0.05015530000673607, 0.366941099986434]",112.904340100009,113.10457160003716,0.0,113.10457160003716,0,0.0,0,1,1000,num_1,1.1189101000200026,,23,10,2026-03-04_14h10.19.470,2026A_exp2,2022.2.4,59.95394339292472,
1000,1,6.1,0.0,1,0,23,23,69,,,,,114.25567300000694,114.88950690004276,114.88950690004276,115.39077950001229,45,315,115.39077950001229,115.39077950001229,115.39077950001229,115.39077950001229,115.39077950001229,115.39077950001229,115.39077950001229,115.39077950001229,115.39077950001229,115.75706299999729,115.75706299999729,115.75706299999729,115.75706299999729,115.75706299999729,115.75706299999729,115.75706299999729,115.75706299999729,115.75706299999729,7,2,"[0.10025320004206151, 0.18366050004260615]","[0.16705410002032295, 0.36705280002206564]",115.75706299999729,115.95746400003554,1000,115.95746400003554,1000,1000,1000,1000,0,num_3,0.41838669998105615,,23,10,2026-03-04_14h10.19.470,2026A_exp2,2022.2.4,59.95394339292472,
1000,1,3.7,4.9,1,0,24,24,44,,,,,116.39109470002586,117.04184300004272,117.04184300004272,117.54292060004082,315,315,117.54292060004082,117.54292060004082,117.54292060004082,117.54292060004082,117.54292060004082,117.54292060004082,117.54292060004082,117.54292060004082,117.54292060004082,117.90910620003706,117.90910620003706,117.90910620003706,117.90910620003706,117.90910620003706,117.90910620003706,117.90910620003706,117.90910620003706,117.90910620003706,13,8,"[0.03343350003706291, 0.06685290002496913, 0.10020390001591295, 0.15018410002812743, 0.18366370000876486, 0.21700670005520806, 0.26687849999871105, 0.35252110002329573]","[0.05027580005116761, 0.083604900049977, 0.11692240001866594, 0.16697530000237748, 0.20041710004443303, 0.24980510002933443, 0.28342130000237375, 0.3700047000311315]",117.90910620003706,118.11128300003475,1000,118.11128300003475,1000,1000,1000,1000,1,num_2,0.44843319995561615,,23,10,2026-03-04_14h10.19.470,2026A_exp2,2022.2.4,59.95394339292472,
1,0,0.0,6.1,1,0,25,25,36,,,,,118.57657209999161,119.22715739998966,119.22715739998966,119.72844780003652,45,45,119.72844780003652,119.72844780003652,119.72844780003652,119.72844780003652,119.72844780003652,119.72844780003652,119.72844780003652,119.72844780003652,119.72844780003652,120.09458030003589,120.09458030003589,120.09458030003589,120.09458030003589,120.09458030003589,120.09458030003589,120.09458030003589,120.09458030003589,120.09458030003589,23,0,,,120.09458030003589,120.2949511000188,6.1,120.2949511000188,1,6.1,1,1,1000,num_4,0.5131235000444576,,23,10,2026-03-04_14h10.19.470,2026A_exp2,2022.2.4,59.95394339292472,
1,0,3.7,0.0,1,0,26,26,19,,,,,120.82882090000203,121.47953509999206,121.47953509999206,121.97873060003622,45,315,121.97873060003622,121.97873060003622,121.97873060003622,121.97873060003622,121.97873060003622,121.97873060003622,121.97873060003622,121.97873060003622,121.97873060003622,122.33036140003242,122.33036140003242,122.33036140003242,122.33036140003242,122.33036140003242,122.33036140003242,122.33036140003242,122.33036140003242,122.33036140003242,1,2,"[0.0041683000163175166, 0.06711439997889102]","[0.05061279999790713, 0.364213099994231]",122.33036140003242,122.53052319999551,0.0,122.53052319999551,1,0.0,0,0,1000,num_4,0.565474400005769,,23,10,2026-03-04_14h10.19.470,2026A_exp2,2022.2.4,59.95394339292472,
1,0,6.1,4.9,0,0,27,27,24,,,,,123.1142661999911,123.76519360003294,123.76519360003294,124.24977070000023,315,315,124.24977070000023,124.24977070000023,124.24977070000023,124.24977070000023,124.24977070000023,124.24977070000023,124.24977070000023,124.24977070000023,124.24977070000023,124.6158729000017,124.6158729000017,124.6158729000017,124.6158729000017,124.6158729000017,124.6158729000017,124.6158729000017,124.6158729000017,124.6158729000017,16,1,[0.0007454000297002494],[0.11696310003753752],124.6158729000017,124.8161156999995,6.1,124.8161156999995,1,6.1,1,1,1000,num_4,0.680454799963627,,23,10,2026-03-04_14h10.19.470,2026A_exp2,2022.2.4,59.95394339292472,
0,0,4.9,0.0,1,0,28,28,25,,,,,125.5167858999921,126.16770270001143,126.16770270001143,126.65197940001963,315,45,126.65197940001963,126.65197940001963,126.65197940001963,126.65197940001963,126.65197940001963,126.65197940001963,126.65197940001963,126.65197940001963,126.65197940001963,127.01831960002892,127.01831960002892,127.01831960002892,127.01831960002892,127.01831960002892,127.01831960002892,127.01831960002892,127.01831960002892,127.01831960002892,23,0,,,127.01831960002892,127.21860810002545,4.9,127.21860810002545,1,4.9,1,1,1000,num_4,0.5653070000116713,,23,10,2026-03-04_14h10.19.470,2026A_exp2,2022.2.4,59.95394339292472,
1000,1,4.9,0.0,1,0,29,29,22,,,,,127.80229680001503,128.45318539999425,128.45318539999425,128.93771700002253,45,315,128.93771700002253,128.93771700002253,128.93771700002253,128.93771700002253,128.93771700002253,128.93771700002253,128.93771700002253,128.93771700002253,128.93771700002253,129.30397850001464,129.30397850001464,129.30397850001464,129.30397850001464,129.30397850001464,129.30397850001464,129.30397850001464,129.30397850001464,129.30397850001464,23,0,,,129.30397850001464,129.5062413000269,1000,129.5062413000269,1000,1000,1000,1000,0,num_3,0.5973923999699764,,23,10,2026-03-04_14h10.19.470,2026A_exp2,2022.2.4,59.95394339292472,
1000,1,0.0,3.7,0,0,30,30,51,,,,,130.12138600001344,130.77219009998953,130.77219009998953,131.2731313999975,45,45,131.2731313999975,131.2731313999975,131.2731313999975,131.2731313999975,131.2731313999975,131.2731313999975,131.2731313999975,131.2731313999975,131.2731313999975,131.63952640001662,131.63952640001662,131.63952640001662,131.63952640001662,131.63952640001662,131.63952640001662,131.63952640001662,131.63952640001662,131.63952640001662,23,0,,,131.63952640001662,131.84174629999325,1000,131.84174629999325,1000,1000,1000,1000,1,num_2,0.4137907000258565,,23,10,2026-03-04_14h10.19.470,2026A_exp2,2022.2.4,59.95394339292472,
1000,1,0.0,0.0,0,0,31,31,83,,,,,132.273383199994,132.92421690002084,132.92421690002084,133.42555560002802,45,45,133.42555560002802,133.42555560002802,133.42555560002802,133.42555560002802,133.42555560002802,133.42555560002802,133.42555560002802,133.42555560002802,133.42555560002802,133.77515599998878,133.77515599998878,133.77515599998878,133.77515599998878,133.77515599998878,133.77515599998878,133.77515599998878,133.77515599998878,133.77515599998878,2,2,"[0.01759409997612238, 0.23379049997311085]","[0.2170866999658756, 0.35053130000596866]",133.77515599998878,133.9773907000199,1000,133.9773907000199,1000,1000,1000,1000,0,num_3,0.5905583999701776,,23,10,2026-03-04_14h10.19.470,2026A_exp2,2022.2.4,59.95394339292472,
1000,1,4.9,0.0,0,0,32,32,26,,,,,134.59246410004562,135.2432894000085,135.2432894000085,135.74444450001465,45,45,135.74444450001465,135.74444450001465,135.74444450001465,135.74444450001465,135.74444450001465,135.74444450001465,135.74444450001465,135.74444450001465,135.74444450001465,136.09397490002448,136.09397490002448,136.09397490002448,136.09397490002448,136.09397490002448,136.09397490002448,136.09397490002448,136.09397490002448,136.09397490002448,0,1,[0.00125629996182397],[0.35053239995613694],136.09397490002448,136.29619990003994,1000,136.31112120003672,1000,1000,1000,1000,0,num_3,0.3933309999993071,,23,10,2026-03-04_14h10.19.470,2026A_exp2,2022.2.4,59.95394339292472,
1000,1,0.0,0.0,1,0,33,33,23,,,,,136.72829320002347,137.37864629999967,137.37864629999967,137.87989340000786,45,315,137.87989340000786,137.87989340000786,137.87989340000786,137.87989340000786,137.87989340000786,137.87989340000786,137.87989340000786,137.87989340000786,137.87989340000786,138.2463191000279,138.2463191000279,138.2463191000279,138.2463191000279,138.2463191000279,138.2463191000279,138.2463191000279,138.2463191000279,138.2463191000279,6,1,[0.09994709998136386],[0.3672958000097424],138.2463191000279,138.44813040003646,1000,138.44813040003646,1000,1000,1000,1000,0,num_3,1.5190628999844193,,23,10,2026-03-04_14h10.19.470,2026A_exp2,2022.2.4,59.95394339292472,
1000,1,4.9,3.7,0,0,34,34,32,,,,,139.99816810002085,140.64849120000144,140.64849120000144,141.14985600003274,315,315,141.14985600003274,141.14985600003274,141.14985600003274,141.14985600003274,141.14985600003274,141.14985600003274,141.14985600003274,141.14985600003274,141.14985600003274,141.4996259000036,141.4996259000036,141.4996259000036,141.4996259000036,141.4996259000036,141.4996259000036,141.4996259000036,141.4996259000036,141.4996259000036,22,0,,,141.4996259000036,141.70177580002928,1000,141.70177580002928,1000,1000,1000,1000,1,num_2,0.5461432000156492,,23,10,2026-03-04_14h10.19.470,2026A_exp2,2022.2.4,59.95394339292472,
1,0,0.0,4.9,1,0,35,35,53,,,,,142.26723639998818,142.91768900002353,142.91768900002353,143.40210060001118,315,45,143.40210060001118,143.40210060001118,143.40210060001118,143.40210060001118,143.40210060001118,143.40210060001118,143.40210060001118,143.40210060001118,143.40210060001118,143.76853780000238,143.76853780000238,143.76853780000238,143.76853780000238,143.76853780000238,143.76853780000238,143.76853780000238,143.76853780000238,143.76853780000238,23,0,,,143.76853780000238,143.9685844000196,4.9,143.9685844000196,1,4.9,1,1,1000,num_4,0.8633270999998786,,23,10,2026-03-04_14h10.19.470,2026A_exp2,2022.2.4,59.95394339292472,
1000,1,6.1,0.0,1,0,36,36,75,,,,,144.853018600028,145.50348459999077,145.50348459999077,145.98806000000332,315,315,145.98806000000332,145.98806000000332,145.98806000000332,145.98806000000332,145.98806000000332,145.98806000000332,145.98806000000332,145.98806000000332,145.98806000000332,146.3544258000329,146.3544258000329,146.3544258000329,146.3544258000329,146.3544258000329,146.3544258000329,146.3544258000329,146.3544258000329,146.3544258000329,23,0,,,146.3544258000329,146.55664020002587,1000,146.55664020002587,1000,1000,1000,1000,0,num_3,0.4988067999947816,,23,10,2026-03-04_14h10.19.470,2026A_exp2,2022.2.4,59.95394339292472,
1000,1,6.1,0.0,0,0,37,37,82,,,,,147.0717241000384,147.72238799999468,147.72238799999468,148.2234366000048,45,315,148.2234366000048,148.2234366000048,148.2234366000048,148.2234366000048,148.2234366000048,148.2234366000048,148.2234366000048,148.2234366000048,148.2234366000048,148.5734035000205,148.5734035000205,148.5734035000205,148.5734035000205,148.5734035000205,148.5734035000205,148.5734035000205,148.5734035000205,148.5734035000205,22,0,,,148.5734035000205,148.7758681999985,1000,148.7758681999985,1000,1000,1000,1000,0,num_3,0.4879176000249572,,23,10,2026-03-04_14h10.19.470,2026A_exp2,2022.2.4,59.95394339292472,
1,0,6.1,0.0,0,0,38,38,70,,,,,149.2906094000209,149.9413737000432,149.9413737000432,150.44231600000057,45,45,150.44231600000057,150.44231600000057,150.44231600000057,150.44231600000057,150.44231600000057,150.44231600000057,150.44231600000057,150.44231600000057,150.44231600000057,150.80883480003104,150.80883480003104,150.80883480003104,150.80883480003104,150.80883480003104,150.80883480003104,150.80883480003104,150.80883480003104,150.80883480003104,23,0,,,150.80883480003104,151.0091219000169,6.1,151.0091219000169,1,6.1,1,1,1000,num_4,0.7913245999952778,,23,10,2026-03-04_14h10.19.470,2026A_exp2,2022.2.4,59.95394339292472,
1000,1,0.0,4.9,1,0,39,39,76,,,,,151.82644929998787,152.47712870000396,152.47712870000396,152.9616599000292,45,45,152.9616599000292,152.9616599000292,152.9616599000292,152.9616599000292,152.9616599000292,152.9616599000292,152.9616599000292,152.9616599000292,152.9616599000292,153.3280414000037,153.3280414000037,153.3280414000037,153.3280414000037,153.3280414000037,153.3280414000037,153.3280414000037,153.3280414000037,153.3280414000037,23,0,,,153.3280414000037,153.5302182000014,1000,153.5302182000014,1000,1000,1000,1000,0,num_3,1.4931325999787077,,23,10,2026-03-04_14h10.19.470,2026A_exp2,2022.2.4,59.95394339292472,
1000,1,4.9,0.0,1,0,40,40,5,,,,,155.0463257000083,155.69713799998863,155.69713799998863,156.19814120000228,45,45,156.19814120000228,156.19814120000228,156.19814120000228,156.19814120000228,156.19814120000228,156.19814120000228,156.19814120000228,156.19814120000228,156.19814120000228,156.54798480001045,156.54798480001045,156.54798480001045,156.54798480001045,156.54798480001045,156.54798480001045,156.54798480001045,156.54798480001045,156.54798480001045,22,0,,,156.54798480001045,156.75033230002737,1000,156.75033230002737,1000,1000,1000,1000,0,num_3,0.3768980999593623,,23,10,2026-03-04_14h10.19.470,2026A_exp2,2022.2.4,59.95394339292472,
1,0,0.0,6.1,1,0,41,41,52,,,,,157.1486075000139,157.79907480004476,157.79907480004476,158.28354850003961,45,45,158.28354850003961,158.28354850003961,158.28354850003961,158.28354850003961,158.28354850003961,158.28354850003961,158.28354850003961,158.28354850003961,158.28354850003961,158.6500659000012,158.6500659000012,158.6500659000012,158.6500659000012,158.6500659000012,158.6500659000012,158.6500659000012,158.6500659000012,158.6500659000012,7,2,"[0.1002291000331752, 0.3004204999888316]","[0.2838449000264518, 0.3670937999850139]",158.6500659000012,158.85045040003024,6.1,158.85045040003024,1,6.1,1,1,1000,num_4,0.6770651999977417,,23,10,2026-03-04_14h10.19.470,2026A_exp2,2022.2.4,59.95394339292472,
1000,1,0.0,6.1,0,0,42,42,37,,,,,159.5506430999958,160.20158570003696,160.20158570003696,160.68586220004363,45,45,160.68586220004363,160.68586220004363,160.68586220004363,160.68586220004363,160.68586220004363,160.68586220004363,160.68586220004363,160.68586220004363,160.68586220004363,161.05241890001344,161.05241890001344,161.05241890001344,161.05241890001344,161.05241890001344,161.05241890001344,161.05241890001344,161.05241890001344,161.05241890001344,8,2,"[0.0011273999698460102, 0.09956369997235015]","[0.08292559999972582, 0.26730359997600317]",161.05241890001344,161.25475160003407,1000,161.25475160003407,1000,1000,1000,1000,1,num_2,0.7288444999721833,,23,10,2026-03-04_14h10.19.470,2026A_exp2,2022.2.4,59.95394339292472,
0,0,6.1,3.7,1,0,43,43,49,,,,,162.00327630003449,162.65408280002885,162.65408280002885,163.15511400002288,45,315,163.15511400002288,163.15511400002288,163.15511400002288,163.15511400002288,163.15511400002288,163.15511400002288,163.15511400002288,163.15511400002288,163.15511400002288,163.52157670003362,163.52157670003362,163.52157670003362,163.52157670003362,163.52157670003362,163.52157670003362,163.52157670003362,163.52157670003362,163.52157670003362,21,1,[0.2840668999706395],[0.3341198999551125],163.52157670003362,163.72176190000027,6.1,163.72176190000027,1,6.1,1,1,1000,num_4,0.5661132999812253,,23,10,2026-03-04_14h10.19.470,2026A_exp2,2022.2.4,59.95394339292472,
1000,1,3.7,0.0,0,0,44,44,45,,,,,164.305503999989,164.95632230001502,164.95632230001502,165.44069469999522,45,315,165.44069469999522,165.44069469999522,165.44069469999522,165.44069469999522,165.44069469999522,165.44069469999522,165.44069469999522,165.44069469999522,165.44069469999522,165.80705210001906,165.80705210001906,165.80705210001906,165.80705210001906,165.80705210001906,165.80705210001906,165.80705210001906,165.80705210001906,165.80705210001906,23,0,,,165.80705210001906,166.00910530000692,1000,166.00910530000692,1000,1000,1000,1000,0,num_3,0.911306300025899,,23,10,2026-03-04_14h10.19.470,2026A_exp2,2022.2.4,59.95394339292472,
1000,1,0.0,0.0,1,0,45,45,12,,,,,166.94146090000868,167.59229950001463,167.59229950001463,168.0934781000251,315,315,168.0934781000251,168.0934781000251,168.0934781000251,168.0934781000251,168.0934781000251,168.0934781000251,168.0934781000251,168.0934781000251,168.0934781000251,168.4431977000204,168.4431977000204,168.4431977000204,168.4431977000204,168.4431977000204,168.4431977000204,168.4431977000204,168.4431977000204,168.4431977000204,9,2,"[0.13376589998370036, 0.16707889997633174]","[0.1504838999826461, 0.3507551000220701]",168.4431977000204,168.64545579999685,1000,168.65994510002201,1000,1000,1000,1000,1,num_2,0.5716664999490604,,23,10,2026-03-04_14h10.19.470,2026A_exp2,2022.2.4,59.95394339292472,
1000,1,0.0,0.0,0,0,46,46,81,,,,,169.26055960002122,169.91131779999705,169.91131779999705,170.41248340002494,315,315,170.41248340002494,170.41248340002494,170.41248340002494,170.41248340002494,170.41248340002494,170.41248340002494,170.41248340002494,170.41248340002494,170.41248340002494,170.7787675000145,170.7787675000145,170.7787675000145,170.7787675000145,170.7787675000145,170.7787675000145,170.7787675000145,170.7787675000145,170.7787675000145,23,0,,,170.7787675000145,170.98108590004267,1000,170.98108590004267,1000,1000,1000,1000,0,num_3,0.6662718000006862,,23,10,2026-03-04_14h10.19.470,2026A_exp2,2022.2.4,59.95394339292472,
1000,1,3.7,0.0,1,0,47,47,48,,,,,171.66295600001467,172.3136420000228,172.3136420000228,172.81475940003293,45,315,172.81475940003293,172.81475940003293,172.81475940003293,172.81475940003293,172.81475940003293,172.81475940003293,172.81475940003293,172.81475940003293,172.81475940003293,173.18135720002465,173.18135720002465,173.18135720002465,173.18135720002465,173.18135720002465,173.18135720002465,173.18135720002465,173.18135720002465,173.18135720002465,23,0,,,173.18135720002465,173.39593160001095,1000,173.39593160001095,1000,1000,1000,1000,0,num_3,0.5807322999462485,,23,10,2026-03-04_14h10.19.470,2026A_exp2,2022.2.4,59.95394339292472,
1,0,3.7,0.0,1,0,48,48,50,,,,,173.99861640000017,174.64936959999613,174.64936959999613,175.15052770002512,315,315,175.15052770002512,175.15052770002512,175.15052770002512,175.15052770002512,175.15052770002512,175.15052770002512,175.15052770002512,175.15052770002512,175.15052770002512,175.5170951000182,175.5170951000182,175.5170951000182,175.5170951000182,175.5170951000182,175.5170951000182,175.5170951000182,175.5170951000182,175.5170951000182,23,0,,,175.5170951000182,175.71730360004585,0.0,175.71730360004585,0,0.0,0,1,1000,num_1,0.8911242000176571,,23,10,2026-03-04_14h10.19.470,2026A_exp2,2022.2.4,59.95394339292472,
1,0,0.0,3.7,0,0,49,49,35,,,,,176.63452050002525,177.28525140002603,177.28525140002603,177.7698306000093,45,315,177.7698306000093,177.7698306000093,177.7698306000093,177.7698306000093,177.7698306000093,177.7698306000093,177.7698306000093,177.7698306000093,177.7698306000093,178.13611910003237,178.13611910003237,178.13611910003237,178.13611910003237,178.13611910003237,178.13611910003237,178.13611910003237,178.13611910003237,178.13611910003237,23,0,,,178.13611910003237,178.33647010003915,0.0,178.33647010003915,1,0.0,0,0,1000,num_4,1.0958777000196278,,23,10,2026-03-04_14h10.19.470,2026A_exp2,2022.2.4,59.95394339292472,
0,0,0.0,6.1,0,0,50,50,7,,,,,179.45420710003236,180.10482440004125,180.10482440004125,180.60583270003553,45,315,180.60583270003553,180.60583270003553,180.60583270003553,180.60583270003553,180.60583270003553,180.60583270003553,180.60583270003553,180.60583270003553,180.60583270003553,180.97235679998994,180.97235679998994,180.97235679998994,180.97235679998994,180.97235679998994,180.97235679998994,180.97235679998994,180.97235679998994,180.97235679998994,23,0,,,180.97235679998994,181.1725174000021,6.1,181.1725174000021,1,6.1,1,1,1000,num_4,0.5959313999628648,,23,10,2026-03-04_14h10.19.470,2026A_exp2,2022.2.4,59.95394339292472,
1000,1,3.7,0.0,0,0,51,51,2,,,,,181.78970970003866,182.44059250003193,182.44059250003193,182.92497590003768,315,315,182.92497590003768,182.92497590003768,182.92497590003768,182.92497590003768,182.92497590003768,182.92497590003768,182.92497590003768,182.92497590003768,182.92497590003768,183.29124890000094,183.29124890000094,183.29124890000094,183.29124890000094,183.29124890000094,183.29124890000094,183.29124890000094,183.29124890000094,183.29124890000094,8,1,[0.1337354999850504],[0.36739259999012575],183.29124890000094,183.49396320001688,1000,183.49396320001688,1000,1000,1000,1000,0,num_3,1.0427306999918073,,23,10,2026-03-04_14h10.19.470,2026A_exp2,2022.2.4,59.95394339292472,
1,0,6.1,4.9,0,0,52,52,39,,,,,184.55916880001314,185.2098022000282,185.2098022000282,185.7108911999967,45,315,185.7108911999967,185.7108911999967,185.7108911999967,185.7108911999967,185.7108911999967,185.7108911999967,185.7108911999967,185.7108911999967,185.7108911999967,186.07743920001667,186.07743920001667,186.07743920001667,186.07743920001667,186.07743920001667,186.07743920001667,186.07743920001667,186.07743920001667,186.07743920001667,15,1,[0.16708029998699203],[0.30045680003240705],186.07743920001667,186.27768920001108,6.1,186.27768920001108,1,6.1,1,1,1000,num_4,0.6342940999893472,,23,10,2026-03-04_14h10.19.470,2026A_exp2,2022.2.4,59.95394339292472,
1,0,0.0,0.0,1,0,53,53,73,,,,,186.92819629999576,187.57905530004064,187.57905530004064,188.0633564000018,45,45,188.0633564000018,188.0633564000018,188.0633564000018,188.0633564000018,188.0633564000018,188.0633564000018,188.0633564000018,188.0633564000018,188.0633564000018,188.42974799999502,188.42974799999502,188.42974799999502,188.42974799999502,188.42974799999502,188.42974799999502,188.42974799999502,188.42974799999502,188.42974799999502,23,0,,,188.42974799999502,188.6299449999933,0.0,188.6299449999933,0,0.0,0,1,1000,num_1,0.8254030999960378,,23,10,2026-03-04_14h10.19.470,2026A_exp2,2022.2.4,59.95394339292472,
1,0,3.7,6.1,0,0,54,54,55,,,,,189.48072940000566,190.1313843000098,190.1313843000098,190.61568990000524,45,45,190.61568990000524,190.61568990000524,190.61568990000524,190.61568990000524,190.61568990000524,190.61568990000524,190.61568990000524,190.61568990000524,190.61568990000524,190.98215659998823,190.98215659998823,190.98215659998823,190.98215659998823,190.98215659998823,190.98215659998823,190.98215659998823,190.98215659998823,190.98215659998823,23,0,,,190.98215659998823,191.18254970002454,3.7,191.18254970002454,1,3.7,1,1,1000,num_4,1.8417859000037424,,23,10,2026-03-04_14h10.19.470,2026A_exp2,2022.2.4,59.95394339292472,
1,0,4.9,0.0,0,0,55,55,58,,,,,193.05097280000336,193.70176270004595,193.70176270004595,194.1862268000259,315,45,194.1862268000259,194.1862268000259,194.1862268000259,194.1862268000259,194.1862268000259,194.1862268000259,194.1862268000259,194.1862268000259,194.1862268000259,194.55254840000998,194.55254840000998,194.55254840000998,194.55254840000998,194.55254840000998,194.55254840000998,194.55254840000998,194.55254840000998,194.55254840000998,23,0,,,194.55254840000998,194.75256590003846,4.9,194.75256590003846,1,4.9,1,1,1000,num_4,0.5826815000036731,,23,10,2026-03-04_14h10.19.470,2026A_exp2,2022.2.4,59.95394339292472,
1,0,0.0,6.1,0,0,56,56,60,,,,,195.3532797000371,196.00408030004473,196.00408030004473,196.48835930001223,45,315,196.48835930001223,196.48835930001223,196.48835930001223,196.48835930001223,196.48835930001223,196.48835930001223,196.48835930001223,196.48835930001223,196.48835930001223,196.85494099999778,196.85494099999778,196.85494099999778,196.85494099999778,196.85494099999778,196.85494099999778,196.85494099999778,196.85494099999778,196.85494099999778,23,0,,,196.85494099999778,197.0550843999954,0.0,197.0550843999954,0,0.0,0,1,1000,num_1,0.7289096000022255,,23,10,2026-03-04_14h10.19.470,2026A_exp2,2022.2.4,59.95394339292472,
1000,1,4.9,6.1,0,0,57,57,20,,,,,197.80575310002314,198.45658250001725,198.45658250001725,198.94101470004534,45,45,198.94101470004534,198.94101470004534,198.94101470004534,198.94101470004534,198.94101470004534,198.94101470004534,198.94101470004534,198.94101470004534,198.94101470004534,199.30737600004068,199.30737600004068,199.30737600004068,199.30737600004068,199.30737600004068,199.30737600004068,199.30737600004068,199.30737600004068,199.30737600004068,23,0,,,199.30737600004068,199.51267020002706,1000,199.51267020002706,1000,1000,1000,1000,0,num_3,0.4785835000220686,,23,10,2026-03-04_14h10.19.470,2026A_exp2,2022.2.4,59.95394339292472,
1000,1,0.0,3.7,0,0,58,58,78,,,,,200.0079985000193,200.658699600026,200.658699600026,201.15943950001383,45,45,201.15943950001383,201.15943950001383,201.15943950001383,201.15943950001383,201.15943950001383,201.15943950001383,201.15943950001383,201.15943950001383,201.15943950001383,201.52609580004355,201.52609580004355,201.52609580004355,201.52609580004355,201.52609580004355,201.52609580004355,201.52609580004355,201.52609580004355,201.52609580004355,22,1,[0.016988700022920966],[0.03349750000052154],201.52609580004355,201.72852240002248,1000,201.72852240002248,1000,1000,1000,1000,1,num_2,0.6877198999864049,,23,10,2026-03-04_14h10.19.470,2026A_exp2,2022.2.4,59.95394339292472,
1000,1,0.0,4.9,1,0,59,59,31,,,,,202.44380040001124,203.09449220000533,203.09449220000533,203.59548030002043,45,45,203.59548030002043,203.59548030002043,203.59548030002043,203.59548030002043,203.59548030002043,203.59548030002043,203.59548030002043,203.59548030002043,203.59548030002043,203.9620675999904,203.9620675999904,203.9620675999904,203.9620675999904,203.9620675999904,203.9620675999904,203.9620675999904,203.9620675999904,203.9620675999904,3,3,"[0.0012135000433772802, 0.05027350003365427, 0.10032550001051277]","[0.03371690004132688, 0.06709720002254471, 0.36723269999492913]",203.9620675999904,204.1640734000248,1000,204.1640734000248,1000,1000,1000,1000,1,num_2,0.5084080999949947,,23,10,2026-03-04_14h10.19.470,2026A_exp2,2022.2.4,59.95394339292472,
1,0,3.7,3.7,0,0,60,60,13,,,,,204.6959385999944,205.3467960000271,205.3467960000271,205.84785320004448,45,315,205.84785320004448,205.84785320004448,205.84785320004448,205.84785320004448,205.84785320004448,205.84785320004448,205.84785320004448,205.84785320004448,205.84785320004448,206.21410839998862,206.21410839998862,206.21410839998862,206.21410839998862,206.21410839998862,206.21410839998862,206.21410839998862,206.21410839998862,206.21410839998862,23,0,,,206.21410839998862,206.41450790001545,3.7,206.41450790001545,1,3.7,1,1,1000,num_4,0.5056378999724984,,23,10,2026-03-04_14h10.19.470,2026A_exp2,2022.2.4,59.95394339292472,
1000,1,0.0,0.0,0,0,61,61,86,,,,,206.94843049999326,207.58227720001014,207.58227720001014,208.08342770003946,45,315,208.08342770003946,208.08342770003946,208.08342770003946,208.08342770003946,208.08342770003946,208.08342770003946,208.08342770003946,208.08342770003946,208.08342770003946,208.44982969999546,208.44982969999546,208.44982969999546,208.44982969999546,208.44982969999546,208.44982969999546,208.44982969999546,208.44982969999546,208.44982969999546,23,0,,,208.44982969999546,208.6520210999879,1000,208.6520210999879,1000,1000,1000,1000,0,num_3,0.5233761999988928,,23,10,2026-03-04_14h10.19.470,2026A_exp2,2022.2.4,59.95394339292472,
1,0,0.0,3.7,1,0,62,62,41,,,,,209.20052030001534,209.8513074000366,209.8513074000366,210.35224460001336,315,45,210.35224460001336,210.35224460001336,210.35224460001336,210.35224460001336,210.35224460001336,210.35224460001336,210.35224460001336,210.35224460001336,210.35224460001336,210.71883210004307,210.71883210004307,210.71883210004307,210.71883210004307,210.71883210004307,210.71883210004307,210.71883210004307,210.71883210004307,210.71883210004307,23,0,,,210.71883210004307,210.9188545999932,3.7,210.9188545999932,1,3.7,1,1,1000,num_4,0.6249767999979667,,23,10,2026-03-04_14h10.19.470,2026A_exp2,2022.2.4,59.95394339292472,
1000,1,0.0,6.1,0,0,63,63,9,,,,,211.5695299000363,212.20346879999852,212.20346879999852,212.7045736000291,315,315,212.7045736000291,212.7045736000291,212.7045736000291,212.7045736000291,212.7045736000291,212.7045736000291,212.7045736000291,212.7045736000291,212.7045736000291,213.0711179000209,213.0711179000209,213.0711179000209,213.0711179000209,213.0711179000209,213.0711179000209,213.0711179000209,213.0711179000209,213.0711179000209,22,1,[0.2335750000202097],[0.2503007000195794],213.0711179000209,213.27294890000485,1000,213.27294890000485,1000,1000,1000,1000,1,num_2,0.5584041000111029,,23,10,2026-03-04_14h10.19.470,2026A_exp2,2022.2.4,59.95394339292472,
1,0,0.0,6.1,1,0,64,64,40,,,,,213.85546859999886,214.50582359998953,214.50582359998953,215.00702710001497,315,315,215.00702710001497,215.00702710001497,215.00702710001497,215.00702710001497,215.00702710001497,215.00702710001497,215.00702710001497,215.00702710001497,215.00702710001497,215.3732854000409,215.3732854000409,215.3732854000409,215.3732854000409,215.3732854000409,215.3732854000409,215.3732854000409,215.3732854000409,215.3732854000409,23,0,,,215.3732854000409,215.5734756999882,6.1,215.5734756999882,1,6.1,1,1,1000,num_4,0.46596870000939816,,23,10,2026-03-04_14h10.19.470,2026A_exp2,2022.2.4,59.95394339292472,
1000,1,0.0,0.0,0,0,65,65,85,,,,,216.05711090000113,216.70803169999272,216.70803169999272,217.19257790001575,45,315,217.19257790001575,217.19257790001575,217.19257790001575,217.19257790001575,217.19257790001575,217.19257790001575,217.19257790001575,217.19257790001575,217.19257790001575,217.55856820003828,217.55856820003828,217.55856820003828,217.55856820003828,217.55856820003828,217.55856820003828,217.55856820003828,217.55856820003828,217.55856820003828,10,2,"[0.0013143999967724085, 0.2336414000019431]","[0.20030939998105168, 0.250338300014846]",217.55856820003828,217.75890130002517,1000,217.75890130002517,1000,1000,1000,1000,1,num_2,0.5296151000075042,,23,10,2026-03-04_14h10.19.470,2026A_exp2,2022.2.4,59.95394339292472,
1000,1,0.0,0.0,1,0,66,66,33,,,,,218.30956700001843,218.96037829999113,218.96037829999113,219.46140130003914,45,45,219.46140130003914,219.46140130003914,219.46140130003914,219.46140130003914,219.46140130003914,219.46140130003914,219.46140130003914,219.46140130003914,219.46140130003914,219.82786100002704,219.82786100002704,219.82786100002704,219.82786100002704,219.82786100002704,219.82786100002704,219.82786100002704,219.82786100002704,219.82786100002704,23,0,,,219.82786100002704,220.02976400003536,1000,220.02976400003536,1000,1000,1000,1000,1,num_2,0.46590639994246885,,23,10,2026-03-04_14h10.19.470,2026A_exp2,2022.2.4,59.95394339292472,
1000,1,4.9,6.1,1,0,67,67,28,,,,,220.51187909999862,221.16236000001663,221.16236000001663,221.66344890004257,45,45,221.66344890004257,221.66344890004257,221.66344890004257,221.66344890004257,221.66344890004257,221.66344890004257,221.66344890004257,221.66344890004257,221.66344890004257,222.0300358000095,222.0300358000095,222.0300358000095,222.0300358000095,222.0300358000095,222.0300358000095,222.0300358000095,222.0300358000095,222.0300358000095,23,0,,,222.0300358000095,222.23197190003702,1000,222.23197190003702,1000,1000,1000,1000,1,num_2,0.7838728000060655,,23,10,2026-03-04_14h10.19.470,2026A_exp2,2022.2.4,59.95394339292472,
1,0,4.9,0.0,1,0,68,68,8,,,,,223.0312976000132,223.68161339999642,223.68161339999642,224.19293590000598,45,45,224.19293590000598,224.19293590000598,224.19293590000598,224.19293590000598,224.19293590000598,224.19293590000598,224.19293590000598,224.19293590000598,224.19293590000598,224.5492508999887,224.5492508999887,224.5492508999887,224.5492508999887,224.5492508999887,224.5492508999887,224.5492508999887,224.5492508999887,224.5492508999887,23,0,,,224.5492508999887,224.74952610000037,0.0,224.74952610000037,0,0.0,0,1,1000,num_1,0.7536875000223517,,23,10,2026-03-04_14h10.19.470,2026A_exp2,2022.2.4,59.95394339292472,
1,0,3.7,0.0,0,0,69,69,3,,,,,225.53327539999736,226.19495680002728,226.19495680002728,226.6739880000241,315,315,226.6739880000241,226.6739880000241,226.6739880000241,226.6739880000241,226.6739880000241,226.6739880000241,226.6739880000241,226.6739880000241,226.6739880000241,227.0351048000157,227.0351048000157,227.0351048000157,227.0351048000157,227.0351048000157,227.0351048000157,227.0351048000157,227.0351048000157,227.0351048000157,7,1,[0.0025865999632515013],[0.2657274999655783],227.0351048000157,227.23553110001376,3.7,227.23553110001376,1,3.7,1,1,1000,num_4,0.5957038000342436,,23,10,2026-03-04_14h10.19.470,2026A_exp2,2022.2.4,59.95394339292472,
1000,1,0.0,3.7,1,0,70,70,47,,,,,227.8524349000072,228.5032033000025,228.5032033000025,228.9875348000205,45,315,228.9875348000205,228.9875348000205,228.9875348000205,228.9875348000205,228.9875348000205,228.9875348000205,228.9875348000205,228.9875348000205,228.9875348000205,229.3540429000277,229.3540429000277,229.3540429000277,229.3540429000277,229.3540429000277,229.3540429000277,229.3540429000277,229.3540429000277,229.3540429000277,0,1,[0.0011974000371992588],[0.36711360001936555],229.3540429000277,229.5562805000227,1000,229.5562805000227,1000,1000,1000,1000,1,num_2,0.6430874000070617,,23,10,2026-03-04_14h10.19.470,2026A_exp2,2022.2.4,59.95394339292472,
1000,1,6.1,0.0,1,0,71,71,30,,,,,230.22147009999026,230.87226790003479,230.87226790003479,231.37329780001892,315,315,231.37329780001892,231.37329780001892,231.37329780001892,231.37329780001892,231.37329780001892,231.37329780001892,231.37329780001892,231.37329780001892,231.37329780001892,231.72315600002185,231.72315600002185,231.72315600002185,231.72315600002185,231.72315600002185,231.72315600002185,231.72315600002185,231.72315600002185,231.72315600002185,0,1,[0.0009207999682985246],[0.3507860999670811],231.72315600002185,231.92515419999836,1000,231.92515419999836,1000,1000,1000,1000,1,num_2,0.5787422999856062,,23,10,2026-03-04_14h10.19.470,2026A_exp2,2022.2.4,59.95394339292472,
1,0,0.0,0.0,1,0,72,72,87,,,,,232.52393389999634,233.1745113999932,233.1745113999932,233.67572170001222,45,45,233.67572170001222,233.67572170001222,233.67572170001222,233.67572170001222,233.67572170001222,233.67572170001222,233.67572170001222,233.67572170001222,233.67572170001222,234.0420759000117,234.0420759000117,234.0420759000117,234.0420759000117,234.0420759000117,234.0420759000117,234.0420759000117,234.0420759000117,234.0420759000117,23,0,,,234.0420759000117,234.24237440002616,0.0,234.24237440002616,1,0.0,0,0,1000,num_4,0.7578137000091374,,23,10,2026-03-04_14h10.19.470,2026A_exp2,2022.2.4,59.95394339292472,
1000,1,3.7,6.1,0,0,73,73,0,,,,,235.02625640004408,235.6770917000249,235.6770917000249,236.16117909998866,45,315,236.16117909998866,236.16117909998866,236.16117909998866,236.16117909998866,236.16117909998866,236.16117909998866,236.16117909998866,236.16117909998866,236.16117909998866,236.52790450002067,236.52790450002067,236.52790450002067,236.52790450002067,236.52790450002067,236.52790450002067,236.52790450002067,236.52790450002067,236.52790450002067,0,1,[0.0012240000069141388],[0.3673871000064537],236.52790450002067,236.73007069999585,1000,236.73007069999585,1000,1000,1000,1000,0,num_3,0.5098002000013366,,23,10,2026-03-04_14h10.19.470,2026A_exp2,2022.2.4,59.95394339292472,
1000,1,0.0,0.0,1,0,74,74,67,,,,,237.2619278000202,237.91259480000008,237.91259480000008,238.41376429999946,315,45,238.41376429999946,238.41376429999946,238.41376429999946,238.41376429999946,238.41376429999946,238.41376429999946,238.41376429999946,238.41376429999946,238.41376429999946,238.76338350004517,238.76338350004517,238.76338350004517,238.76338350004517,238.76338350004517,238.76338350004517,238.76338350004517,238.76338350004517,238.76338350004517,20,1,[0.0012385000009089708],[0.03345749998698011],238.76338350004517,238.96527770004468,1000,238.98033180000493,1000,1000,1000,1000,1,num_2,0.37998219998553395,,23,10,2026-03-04_14h10.19.470,2026A_exp2,2022.2.4,59.95394339292472,
1000,1,6.1,0.0,0,0,75,75,14,,,,,239.38070660002995,240.03137820004486,240.03137820004486,240.5325940999901,315,45,240.5325940999901,240.5325940999901,240.5325940999901,240.5325940999901,240.5325940999901,240.5325940999901,240.5325940999901,240.5325940999901,240.5325940999901,240.89899910002714,240.89899910002714,240.89899910002714,240.89899910002714,240.89899910002714,240.89899910002714,240.89899910002714,240.89899910002714,240.89899910002714,23,0,,,240.89899910002714,241.1011090000393,1000,241.1011090000393,1000,1000,1000,1000,0,num_3,0.4500154999550432,,23,10,2026-03-04_14h10.19.470,2026A_exp2,2022.2.4,59.95394339292472,
1000,1,0.0,0.0,0,0,76,76,15,,,,,241.5662738000392,242.21709450002527,242.21709450002527,242.71804980002344,45,315,242.71804980002344,242.71804980002344,242.71804980002344,242.71804980002344,242.71804980002344,242.71804980002344,242.71804980002344,242.71804980002344,242.71804980002344,243.0842951000086,243.0842951000086,243.0842951000086,243.0842951000086,243.0842951000086,243.0842951000086,243.0842951000086,243.0842951000086,243.0842951000086,0,1,[0.001364199968520552],[0.367097600013949],243.0842951000086,243.28724919998785,1000,243.28724919998785,1000,1000,1000,1000,0,num_3,0.5931835999945179,,23,10,2026-03-04_14h10.19.470,2026A_exp2,2022.2.4,59.95394339292472,
1000,1,3.7,0.0,0,0,77,77,57,,,,,243.90201710001566,244.5525869000121,244.5525869000121,245.0537600000389,315,315,245.0537600000389,245.0537600000389,245.0537600000389,245.0537600000389,245.0537600000389,245.0537600000389,245.0537600000389,245.0537600000389,245.0537600000389,245.4201646000147,245.4201646000147,245.4201646000147,245.4201646000147,245.4201646000147,245.4201646000147,245.4201646000147,245.4201646000147,245.4201646000147,1,2,"[0.0012285999837331474, 0.3171584999654442]","[0.30052960000466555, 0.3672028000000864]",245.4201646000147,245.62234719999833,1000,245.62234719999833,1000,1000,1000,1000,1,num_2,0.41026209999108687,,23,10,2026-03-04_14h10.19.470,2026A_exp2,2022.2.4,59.95394339292472,
1,0,4.9,0.0,1,0,78,78,38,,,,,246.05402460001642,246.70479849999538,246.70479849999538,247.20580070000142,45,45,247.20580070000142,247.20580070000142,247.20580070000142,247.20580070000142,247.20580070000142,247.20580070000142,247.20580070000142,247.20580070000142,247.20580070000142,247.5723233000026,247.5723233000026,247.5723233000026,247.5723233000026,247.5723233000026,247.5723233000026,247.5723233000026,247.5723233000026,247.5723233000026,20,1,[0.0012065000482834876],[0.0502693000016734],247.5723233000026,247.77254760003416,0.0,247.77254760003416,0,0.0,0,1,1000,num_1,0.6428207000135444,,23,10,2026-03-04_14h10.19.470,2026A_exp2,2022.2.4,59.95394339292472,
1,0,0.0,6.1,0,0,79,79,11,,,,,248.43968980002683,249.09047880000435,249.09047880000435,249.57492540002568,45,45,249.57492540002568,249.57492540002568,249.57492540002568,249.57492540002568,249.57492540002568,249.57492540002568,249.57492540002568,249.57492540002568,249.57492540002568,249.94130539998878,249.94130539998878,249.94130539998878,249.94130539998878,249.94130539998878,249.94130539998878,249.94130539998878,249.94130539998878,249.94130539998878,0,1,[0.0012280000373721123],[0.3672334000002593],249.94130539998878,250.14158160000807,0.0,250.14158160000807,0,0.0,0,1,1000,num_1,1.4578263000003062,,23,10,2026-03-04_14h10.19.470,2026A_exp2,2022.2.4,59.95394339292472,
1,0,0.0,0.0,0,0,80,80,1,,,,,251.626216500008,252.27711980004096,252.27711980004096,252.76118930004304,315,45,252.76118930004304,252.76118930004304,252.76118930004304,252.76118930004304,252.76118930004304,252.76118930004304,252.76118930004304,252.76118930004304,252.76118930004304,253.12768580002012,253.12768580002012,253.12768580002012,253.12768580002012,253.12768580002012,253.12768580002012,253.12768580002012,253.12768580002012,253.12768580002012,23,0,,,253.12768580002012,253.3281201000209,0.0,253.3281201000209,0,0.0,0,1,1000,num_1,0.9118843000032939,,23,10,2026-03-04_14h10.19.470,2026A_exp2,2022.2.4,59.95394339292472,
1,0,6.1,0.0,0,0,81,81,56,,,,,254.2622665000381,254.8962399000302,254.8962399000302,255.39742270001443,45,45,255.39742270001443,255.39742270001443,255.39742270001443,255.39742270001443,255.39742270001443,255.39742270001443,255.39742270001443,255.39742270001443,255.39742270001443,255.76375580002787,255.76375580002787,255.76375580002787,255.76375580002787,255.76375580002787,255.76375580002787,255.76375580002787,255.76375580002787,255.76375580002787,18,2,"[0.26697320002131164, 0.3172781000030227]","[0.283862600044813, 0.36708930000895634]",255.76375580002787,255.96393180004088,6.1,255.96393180004088,1,6.1,1,1,1000,num_4,0.8193852999829687,,23,10,2026-03-04_14h10.19.470,2026A_exp2,2022.2.4,59.95394339292472,
1000,1,4.9,0.0,1,0,82,82,72,,,,,256.7997330999933,257.45225550001487,257.45225550001487,257.95037179999053,315,315,257.95037179999053,257.95037179999053,257.95037179999053,257.95037179999053,257.95037179999053,257.95037179999053,257.95037179999053,257.95037179999053,257.95037179999053,258.3162083000061,258.3162083000061,258.3162083000061,258.3162083000061,258.3162083000061,258.3162083000061,258.3162083000061,258.3162083000061,258.3162083000061,2,1,[0.03351829998428002],[0.3666704000206664],258.3162083000061,258.51842219999526,1000,258.51842219999526,1000,1000,1000,1000,0,num_3,0.48065600002883,,23,10,2026-03-04_14h10.19.470,2026A_exp2,2022.2.4,59.95394339292472,
1000,1,0.0,4.9,1,0,83,83,79,,,,,259.01684350002324,259.6676741000265,259.6676741000265,260.1686886000098,315,315,260.1686886000098,260.1686886000098,260.1686886000098,260.1686886000098,260.1686886000098,260.1686886000098,260.1686886000098,260.1686886000098,260.1686886000098,260.5352334000054,260.5352334000054,260.5352334000054,260.5352334000054,260.5352334000054,260.5352334000054,260.5352334000054,260.5352334000054,260.5352334000054,20,1,[0.28366190002998337],[0.3338099000393413],260.5352334000054,260.73731120000593,1000,260.73731120000593,1000,1000,1000,1000,1,num_2,0.6627722000121139,,23,10,2026-03-04_14h10.19.470,2026A_exp2,2022.2.4,59.95394339292472,
1000,1,3.7,4.9,1,0,84,84,46,,,,,261.41964860004373,262.0702020000317,262.0702020000317,262.5711107000243,45,315,262.5711107000243,262.5711107000243,262.5711107000243,262.5711107000243,262.5711107000243,262.5711107000243,262.5711107000243,262.5711107000243,262.5711107000243,262.9376949000289,262.9376949000289,262.9376949000289,262.9376949000289,262.9376949000289,262.9376949000289,262.9376949000289,262.9376949000289,262.9376949000289,23,0,,,262.9376949000289,263.1397254000185,1000,263.1397254000185,1000,1000,1000,1000,1,num_2,0.38015289994655177,,23,10,2026-03-04_14h10.19.470,2026A_exp2,2022.2.4,59.95394339292472,
1,0,0.0,6.1,0,0,85,85,34,,,,,263.53811110003153,264.18880460003857,264.18880460003857,264.689889100031,315,315,264.689889100031,264.689889100031,264.689889100031,264.689889100031,264.689889100031,264.689889100031,264.689889100031,264.689889100031,264.689889100031,265.0565087000141,265.0565087000141,265.0565087000141,265.0565087000141,265.0565087000141,265.0565087000141,265.0565087000141,265.0565087000141,265.0565087000141,21,2,"[0.31730479997349903, 0.3507151000085287]","[0.3338424999965355, 0.36734850000357255]",265.0565087000141,265.2564161000191,0.0,265.2564161000191,0,0.0,0,1,1000,num_1,0.8875551000237465,,23,10,2026-03-04_14h10.19.470,2026A_exp2,2022.2.4,59.95394339292472,
1000,1,0.0,4.9,1,0,86,86,59,,,,,266.17435480002314,266.824746600003,266.824746600003,267.3091692000162,45,315,267.3091692000162,267.3091692000162,267.3091692000162,267.3091692000162,267.3091692000162,267.3091692000162,267.3091692000162,267.3091692000162,267.3091692000162,267.6757487000432,267.6757487000432,267.6757487000432,267.6757487000432,267.6757487000432,267.6757487000432,267.6757487000432,267.6757487000432,267.6757487000432,23,0,,,267.6757487000432,267.877639000013,1000,267.877639000013,1000,1000,1000,1000,1,num_2,0.530453099985607,,23,10,2026-03-04_14h10.19.470,2026A_exp2,2022.2.4,59.95394339292472,
1000,1,0.0,0.0,0,0,87,87,18,,,,,268.4265970000415,269.0770903000375,269.0770903000375,269.57829490001313,315,45,269.57829490001313,269.57829490001313,269.57829490001313,269.57829490001313,269.57829490001313,269.57829490001313,269.57829490001313,269.57829490001313,269.57829490001313,269.94452580000507,269.94452580000507,269.94452580000507,269.94452580000507,269.94452580000507,269.94452580000507,269.94452580000507,269.94452580000507,269.94452580000507,23,0,,,269.94452580000507,270.1465089000412,1000,270.1465089000412,1000,1000,1000,1000,1,num_2,0.5893743000342511,,23,10,2026-03-04_14h10.19.470,2026A_exp2,2022.2.4,59.95394339292472,
1,0,0.0,4.9,0,0,88,88,4,,,,,270.7622571000247,271.41287659999216,271.41287659999216,271.913820900023,315,45,271.913820900023,271.913820900023,271.913820900023,271.913820900023,271.913820900023,271.913820900023,271.913820900023,271.913820900023,271.913820900023,272.2803344000131,272.2803344000131,272.2803344000131,272.2803344000131,272.2803344000131,272.2803344000131,272.2803344000131,272.2803344000131,272.2803344000131,16,1,[0.001207199995405972],[0.11684879998210818],272.2803344000131,272.48035560001153,0.0,272.48035560001153,0,0.0,0,1,1000,num_1,1.1352577999932691,,23,10,2026-03-04_14h10.19.470,2026A_exp2,2022.2.4,59.95394339292472,
1000,1,6.1,6.1,1,0,89,89,77,,,,,273.6316448000143,274.26546030002646,274.26546030002646,274.7669657000224,315,45,274.7669657000224,274.7669657000224,274.7669657000224,274.7669657000224,274.7669657000224,274.7669657000224,274.7669657000224,274.7669657000224,274.7669657000224,275.1332127000205,275.1332127000205,275.1332127000205,275.1332127000205,275.1332127000205,275.1332127000205,275.1332127000205,275.1332127000205,275.1332127000205,23,0,,,275.1332127000205,275.33506320003653,1000,275.33506320003653,1000,1000,1000,1000,1,num_2,0.4163670999696478,,23,10,2026-03-04_14h10.19.470,2026A_exp2,2022.2.4,59.95394339292472,
,,,,,,,,,,,,,,,,,,,,,,,,,,,,,,,,,,,,,,,,,,,,,,,,,,,,275.77512579999166,,,,,,,
