validity,detectorcomp,contrastCW,contrastCCW,precueCWorCCW,block_80trials.thisRepN,block_80trials.thisTrialN,block_80trials.thisN,block_80trials.thisIndex,etRecord.started,etRecord.stopped,text.started,text.stopped,text_4.started,text_4.stopped,text_6.started,text_6.stopped,oriCW,oriCCW,roi_2.started,grating_UR.started,grating_UL.started,grating_LR.started,grating_LL.started,noise_UR.started,noise_UL.started,noise_LR.started,noise_LL.started,roi_2.stopped,grating_UR.stopped,grating_UL.stopped,grating_LR.stopped,grating_LL.stopped,noise_UR.stopped,noise_UL.stopped,noise_LR.stopped,noise_LL.stopped,outframe,roi_2.numLooks,roi_2.timesOn,roi_2.timesOff,text_2.started,text_2.stopped,probedcontrast,key_resp.started,respdetect,relevantContrast,correctDetect,TorFdetect,respCWorCCW,key_resp.keys,key_resp.rt,feedback_display_.started,participantNo,blockNo,date,expName,psychopyVersion,frameRate,
1000,1,0.0,0.0,1,0,0,0,46,5.230004899203777e-05,5.230004899203777e-05,48.525793300010264,50.527959200087935,50.527959200087935,51.16209019999951,51.16209019999951,51.68384340009652,45,45,51.68384340009652,51.68384340009652,51.68384340009652,51.68384340009652,51.68384340009652,51.68384340009652,51.68384340009652,51.68384340009652,51.68384340009652,52.02989950007759,52.02989950007759,52.02989950007759,52.02989950007759,52.02989950007759,52.02989950007759,52.02989950007759,52.02989950007759,52.02989950007759,0,1,[0.0011569999624043703],[0.3656665999442339],52.02989950007759,52.236806999891996,1000,52.236806999891996,1000,1000,1000,1000,0,num_3,0.7142411002423614,,31,9,2026-03-12_14h07.10.880,2026A_exp2,2022.2.4,59.95290100526593,
1000,1,0.0,6.1,1,0,1,1,19,,,,,52.980786399915814,53.63125490001403,53.63125490001403,54.13238439988345,45,315,54.13238439988345,54.13238439988345,54.13238439988345,54.13238439988345,54.13238439988345,54.13238439988345,54.13238439988345,54.13238439988345,54.13238439988345,54.482366600073874,54.482366600073874,54.482366600073874,54.482366600073874,54.482366600073874,54.482366600073874,54.482366600073874,54.482366600073874,54.482366600073874,0,1,[0.0012678001075983047],[0.35081840003840625],54.482366600073874,54.68433229997754,1000,54.6990374000743,1000,1000,1000,1000,1,num_2,0.5567467000801116,,31,9,2026-03-12_14h07.10.880,2026A_exp2,2022.2.4,59.95290100526593,
1000,1,0.0,0.0,0,0,2,2,7,,,,,55.28293240000494,55.94222899992019,55.94222899992019,56.4346050999593,45,315,56.4346050999593,56.4346050999593,56.4346050999593,56.4346050999593,56.4346050999593,56.4346050999593,56.4346050999593,56.4346050999593,56.4346050999593,56.78434989997186,56.78434989997186,56.78434989997186,56.78434989997186,56.78434989997186,56.78434989997186,56.78434989997186,56.78434989997186,56.78434989997186,0,1,[0.0016195999924093485],[0.3500769000966102],56.78434989997186,56.98686759988777,1000,56.98686759988777,1000,1000,1000,1000,0,num_3,0.4209707002155483,,31,9,2026-03-12_14h07.10.880,2026A_exp2,2022.2.4,59.95290100526593,
1,0,4.9,4.9,0,0,3,3,84,,,,,57.435228700051084,58.08828969998285,58.08828969998285,58.58696349989623,45,315,58.58696349989623,58.58696349989623,58.58696349989623,58.58696349989623,58.58696349989623,58.58696349989623,58.58696349989623,58.58696349989623,58.58696349989623,58.9367096000351,58.9367096000351,58.9367096000351,58.9367096000351,58.9367096000351,58.9367096000351,58.9367096000351,58.9367096000351,58.9367096000351,0,1,[0.0015656000468879938],[0.3505152999423444],58.9367096000351,59.136949999956414,4.9,59.153382800053805,1,4.9,1,1,1000,num_4,0.7658683999907225,,31,9,2026-03-12_14h07.10.880,2026A_exp2,2022.2.4,59.95290100526593,
0,0,0.0,0.0,0,0,4,4,22,,,,,59.938251399900764,60.588231900008395,60.588231900008395,61.08927599992603,45,45,61.08927599992603,61.08927599992603,61.08927599992603,61.08927599992603,61.08927599992603,61.08927599992603,61.08927599992603,61.08927599992603,61.08927599992603,61.45592930004932,61.45592930004932,61.45592930004932,61.45592930004932,61.45592930004932,61.45592930004932,61.45592930004932,61.45592930004932,61.45592930004932,0,1,[0.0012564000207930803],[0.36684389994479716],61.45592930004932,61.65601889998652,0.0,61.65601889998652,0,0.0,0,1,1000,num_1,0.8150374002289027,,31,9,2026-03-12_14h07.10.880,2026A_exp2,2022.2.4,59.95290100526593,
1000,1,0.0,6.1,0,0,5,5,58,,,,,62.49017070000991,63.12420569988899,63.12420569988899,63.6253488000948,45,315,63.6253488000948,63.6253488000948,63.6253488000948,63.6253488000948,63.6253488000948,63.6253488000948,63.6253488000948,63.6253488000948,63.6253488000948,63.99175369995646,63.99175369995646,63.99175369995646,63.99175369995646,63.99175369995646,63.99175369995646,63.99175369995646,63.99175369995646,63.99175369995646,5,5,"[0.001234699971973896, 0.1501742999535054, 0.200205999892205, 0.250297199934721, 0.3169245000462979]","[0.13344860007055104, 0.1836174998898059, 0.21696089999750257, 0.3003350000362843, 0.3669545999728143]",63.99175369995646,64.19375839992426,1000,64.19375839992426,1000,1000,1000,1000,1,num_2,0.7097880002111197,,31,9,2026-03-12_14h07.10.880,2026A_exp2,2022.2.4,59.95290100526593,
1000,1,0.0,6.1,1,0,6,6,69,,,,,64.92862770007923,65.57672049989924,65.57672049989924,66.08731610001996,45,45,66.08731610001996,66.08731610001996,66.08731610001996,66.08731610001996,66.08731610001996,66.08731610001996,66.08731610001996,66.08731610001996,66.08731610001996,66.44422159995884,66.44422159995884,66.44422159995884,66.44422159995884,66.44422159995884,66.44422159995884,66.44422159995884,66.44422159995884,66.44422159995884,0,1,[0.0033478999976068735],[0.3650393998250365],66.44422159995884,66.64620890002698,1000,66.64620890002698,1000,1000,1000,1000,1,num_2,0.5212842002511024,,31,9,2026-03-12_14h07.10.880,2026A_exp2,2022.2.4,59.95290100526593,
1000,1,0.0,6.1,1,0,7,7,62,,,,,67.19473770004697,67.84561660001054,67.84561660001054,68.3466215999797,315,315,68.3466215999797,68.3466215999797,68.3466215999797,68.3466215999797,68.3466215999797,68.3466215999797,68.3466215999797,68.3466215999797,68.3466215999797,68.71305739996023,68.71305739996023,68.71305739996023,68.71305739996023,68.71305739996023,68.71305739996023,68.71305739996023,68.71305739996023,68.71305739996023,0,1,[0.0012456998229026794],[0.36661639995872974],68.71305739996023,68.91561469994485,1000,68.91561469994485,1000,1000,1000,1000,1,num_2,0.46015800000168383,,31,9,2026-03-12_14h07.10.880,2026A_exp2,2022.2.4,59.95290100526593,
1000,1,0.0,4.9,1,0,8,8,78,,,,,69.39741099998355,70.0477829000447,70.0477829000447,70.5488275999669,45,315,70.5488275999669,70.5488275999669,70.5488275999669,70.5488275999669,70.5488275999669,70.5488275999669,70.5488275999669,70.5488275999669,70.5488275999669,70.9152124999091,70.9152124999091,70.9152124999091,70.9152124999091,70.9152124999091,70.9152124999091,70.9152124999091,70.9152124999091,70.9152124999091,0,1,[0.0012105000205338001],[0.36729650013148785],70.9152124999091,71.11762919998728,1000,71.11762919998728,1000,1000,1000,1000,1,num_2,0.410651900107041,,31,9,2026-03-12_14h07.10.880,2026A_exp2,2022.2.4,59.95290100526593,
1000,1,0.0,4.9,1,0,9,9,55,,,,,71.54916390008293,72.19994030008093,72.19994030008093,72.70101439999416,45,315,72.70101439999416,72.70101439999416,72.70101439999416,72.70101439999416,72.70101439999416,72.70101439999416,72.70101439999416,72.70101439999416,72.70101439999416,73.06729830009863,73.06729830009863,73.06729830009863,73.06729830009863,73.06729830009863,73.06729830009863,73.06729830009863,73.06729830009863,73.06729830009863,0,1,[0.001205200096592307],[0.3672243000473827],73.06729830009863,73.2694719999563,1000,73.2694719999563,1000,1000,1000,1000,1,num_2,0.34640100016258657,,31,9,2026-03-12_14h07.10.880,2026A_exp2,2022.2.4,59.95290100526593,
1000,1,3.7,4.9,1,0,10,10,20,,,,,73.63477759994566,74.2854049000889,74.2854049000889,74.78646450000815,45,315,74.78646450000815,74.78646450000815,74.78646450000815,74.78646450000815,74.78646450000815,74.78646450000815,74.78646450000815,74.78646450000815,74.78646450000815,75.15253970003687,75.15253970003687,75.15253970003687,75.15253970003687,75.15253970003687,75.15253970003687,75.15253970003687,75.15253970003687,75.15253970003687,0,1,[0.0011985998135060072],[0.36651579989120364],75.15253970003687,75.35494660004042,1000,75.35494660004042,1000,1000,1000,1000,1,num_2,0.5160705002490431,,31,9,2026-03-12_14h07.10.880,2026A_exp2,2022.2.4,59.95290100526593,
1000,1,0.0,6.1,1,0,11,11,3,,,,,75.88712819991633,76.53773349989206,76.53773349989206,77.03865429991856,315,315,77.03865429991856,77.03865429991856,77.03865429991856,77.03865429991856,77.03865429991856,77.03865429991856,77.03865429991856,77.03865429991856,77.03865429991856,77.38844719994813,77.38844719994813,77.38844719994813,77.38844719994813,77.38844719994813,77.38844719994813,77.38844719994813,77.38844719994813,77.38844719994813,22,0,,,77.38844719994813,77.59063389990479,1000,77.59063389990479,1000,1000,1000,1000,1,num_2,0.37675470020622015,,31,9,2026-03-12_14h07.10.880,2026A_exp2,2022.2.4,59.95290100526593,
1,0,3.7,4.9,1,0,12,12,71,,,,,77.9892629000824,78.63972990005277,78.63972990005277,79.12410110002384,45,315,79.12410110002384,79.12410110002384,79.12410110002384,79.12410110002384,79.12410110002384,79.12410110002384,79.12410110002384,79.12410110002384,79.12410110002384,79.49058549990878,79.49058549990878,79.49058549990878,79.49058549990878,79.49058549990878,79.49058549990878,79.49058549990878,79.49058549990878,79.49058549990878,4,2,"[0.001247999956831336, 0.13369509996846318]","[0.06684300000779331, 0.36719080014154315]",79.49058549990878,79.69054570002481,4.9,79.69054570002481,1,4.9,1,1,1000,num_4,0.709710500203073,,31,9,2026-03-12_14h07.10.880,2026A_exp2,2022.2.4,59.95290100526593,
1,0,0.0,0.0,0,0,13,13,17,,,,,80.42467690003105,81.075516999932,81.075516999932,81.55982280010357,315,315,81.55982280010357,81.55982280010357,81.55982280010357,81.55982280010357,81.55982280010357,81.55982280010357,81.55982280010357,81.55982280010357,81.55982280010357,81.92638779990375,81.92638779990375,81.92638779990375,81.92638779990375,81.92638779990375,81.92638779990375,81.92638779990375,81.92638779990375,81.92638779990375,23,0,,,81.92638779990375,82.12720340001397,0.0,82.12720340001397,0,0.0,0,1,1000,num_1,0.9287752001546323,,31,9,2026-03-12_14h07.10.880,2026A_exp2,2022.2.4,59.95290100526593,
1,0,0.0,3.7,0,0,14,14,61,,,,,83.07726219994947,83.72809230000712,83.72809230000712,84.21296130004339,315,315,84.21296130004339,84.21296130004339,84.21296130004339,84.21296130004339,84.21296130004339,84.21296130004339,84.21296130004339,84.21296130004339,84.21296130004339,84.57902180007659,84.57902180007659,84.57902180007659,84.57902180007659,84.57902180007659,84.57902180007659,84.57902180007659,84.57902180007659,84.57902180007659,18,3,"[0.2005297001451254, 0.23381910007447004, 0.350491400109604]","[0.2170599999371916, 0.26720679993741214, 0.36715810000896454]",84.57902180007659,84.77926059998572,0.0,84.77926059998572,0,0.0,0,1,1000,num_1,0.7478487000335008,,31,9,2026-03-12_14h07.10.880,2026A_exp2,2022.2.4,59.95290100526593,
1000,1,0.0,3.7,0,0,15,15,57,,,,,85.54651209991425,86.18086070008576,86.18086070008576,86.68159719998948,315,315,86.68159719998948,86.68159719998948,86.68159719998948,86.68159719998948,86.68159719998948,86.68159719998948,86.68159719998948,86.68159719998948,86.68159719998948,87.04803679999895,87.04803679999895,87.04803679999895,87.04803679999895,87.04803679999895,87.04803679999895,87.04803679999895,87.04803679999895,87.04803679999895,23,0,,,87.04803679999895,87.25054939999245,1000,87.25054939999245,1000,1000,1000,1000,0,num_3,0.5325640002265573,,31,9,2026-03-12_14h07.10.880,2026A_exp2,2022.2.4,59.95290100526593,
1,0,4.9,0.0,0,0,16,16,4,,,,,87.79879839997739,88.4495594999753,88.4495594999753,88.95052350009792,315,45,88.95052350009792,88.95052350009792,88.95052350009792,88.95052350009792,88.95052350009792,88.95052350009792,88.95052350009792,88.95052350009792,88.95052350009792,89.31697970000096,89.31697970000096,89.31697970000096,89.31697970000096,89.31697970000096,89.31697970000096,89.31697970000096,89.31697970000096,89.31697970000096,23,0,,,89.31697970000096,89.51730760000646,4.9,89.51730760000646,0,4.9,1,0,1000,num_1,0.8981814000289887,,31,9,2026-03-12_14h07.10.880,2026A_exp2,2022.2.4,59.95290100526593,
1000,1,0.0,4.9,0,0,17,17,53,,,,,90.43491280009039,91.06888419995084,91.06888419995084,91.56993560004048,45,315,91.56993560004048,91.56993560004048,91.56993560004048,91.56993560004048,91.56993560004048,91.56993560004048,91.56993560004048,91.56993560004048,91.56993560004048,91.93632350000553,91.93632350000553,91.93632350000553,91.93632350000553,91.93632350000553,91.93632350000553,91.93632350000553,91.93632350000553,91.93632350000553,20,3,"[0.08364749979227781, 0.116833999985829, 0.2170227998867631]","[0.10027239983901381, 0.1336515999864787, 0.23376589990220964]",91.93632350000553,92.13994470005855,1000,92.13994470005855,1000,1000,1000,1000,1,num_2,0.9394197999499738,,31,9,2026-03-12_14h07.10.880,2026A_exp2,2022.2.4,59.95290100526593,
1,0,4.9,3.7,1,0,18,18,26,,,,,93.10396199999377,93.75480149989016,93.75480149989016,94.25597120006569,315,315,94.25597120006569,94.25597120006569,94.25597120006569,94.25597120006569,94.25597120006569,94.25597120006569,94.25597120006569,94.25597120006569,94.25597120006569,94.62248250003904,94.62248250003904,94.62248250003904,94.62248250003904,94.62248250003904,94.62248250003904,94.62248250003904,94.62248250003904,94.62248250003904,23,0,,,94.62248250003904,94.82286700000986,3.7,94.82286700000986,1,3.7,1,1,1000,num_4,0.9922206001356244,,31,9,2026-03-12_14h07.10.880,2026A_exp2,2022.2.4,59.95290100526593,
1,0,0.0,0.0,1,0,19,19,24,,,,,95.84021560009569,96.49082900001667,96.49082900001667,96.97531110001728,45,315,96.97531110001728,96.97531110001728,96.97531110001728,96.97531110001728,96.97531110001728,96.97531110001728,96.97531110001728,96.97531110001728,96.97531110001728,97.34178899996914,97.34178899996914,97.34178899996914,97.34178899996914,97.34178899996914,97.34178899996914,97.34178899996914,97.34178899996914,97.34178899996914,23,0,,,97.34178899996914,97.54200550005771,0.0,97.54200550005771,0,0.0,0,1,1000,num_1,1.0583413001149893,,31,9,2026-03-12_14h07.10.880,2026A_exp2,2022.2.4,59.95290100526593,
1000,1,0.0,0.0,1,0,20,20,56,,,,,98.626201499952,99.27709529991262,99.27709529991262,99.76149889989756,315,315,99.76149889989756,99.76149889989756,99.76149889989756,99.76149889989756,99.76149889989756,99.76149889989756,99.76149889989756,99.76149889989756,99.76149889989756,100.12782589998096,100.12782589998096,100.12782589998096,100.12782589998096,100.12782589998096,100.12782589998096,100.12782589998096,100.12782589998096,100.12782589998096,23,0,,,100.12782589998096,100.33003999991342,1000,100.33003999991342,1000,1000,1000,1000,0,num_3,0.9973906001541764,,31,9,2026-03-12_14h07.10.880,2026A_exp2,2022.2.4,59.95290100526593,
1000,1,6.1,0.0,0,0,21,21,89,,,,,101.34568909998052,101.9963644000236,101.9963644000236,102.49757239990868,45,45,102.49757239990868,102.49757239990868,102.49757239990868,102.49757239990868,102.49757239990868,102.49757239990868,102.49757239990868,102.49757239990868,102.49757239990868,102.86413859995082,102.86413859995082,102.86413859995082,102.86413859995082,102.86413859995082,102.86413859995082,102.86413859995082,102.86413859995082,102.86413859995082,23,0,,,102.86413859995082,103.06605480005965,1000,103.06605480005965,1000,1000,1000,1000,0,num_3,0.5017623000312597,,31,9,2026-03-12_14h07.10.880,2026A_exp2,2022.2.4,59.95290100526593,
1,0,3.7,0.0,0,0,22,22,8,,,,,103.59788460005075,104.24863009992987,104.24863009992987,104.7499295999296,45,45,104.7499295999296,104.7499295999296,104.7499295999296,104.7499295999296,104.7499295999296,104.7499295999296,104.7499295999296,104.7499295999296,104.7499295999296,105.09948819992132,105.09948819992132,105.09948819992132,105.09948819992132,105.09948819992132,105.09948819992132,105.09948819992132,105.09948819992132,105.09948819992132,22,0,,,105.09948819992132,105.29951949999668,3.7,105.31625790009275,1,3.7,1,1,1000,num_4,0.803416799986735,,31,9,2026-03-12_14h07.10.880,2026A_exp2,2022.2.4,59.95290100526593,
1000,1,0.0,0.0,0,0,23,23,37,,,,,106.15023140003905,106.8012502999045,106.8012502999045,107.2856344000902,45,45,107.2856344000902,107.2856344000902,107.2856344000902,107.2856344000902,107.2856344000902,107.2856344000902,107.2856344000902,107.2856344000902,107.2856344000902,107.65208659996279,107.65208659996279,107.65208659996279,107.65208659996279,107.65208659996279,107.65208659996279,107.65208659996279,107.65208659996279,107.65208659996279,15,3,"[0.21698280004784465, 0.26711979997344315, 0.367343399906531]","[0.250434200046584, 0.35067659988999367, 0.36734799994155765]",107.65208659996279,107.853940699948,1000,107.853940699948,1000,1000,1000,1000,0,num_3,0.8258258001878858,,31,9,2026-03-12_14h07.10.880,2026A_exp2,2022.2.4,59.95290100526593,
1000,1,0.0,0.0,1,0,24,24,16,,,,,108.70304629998282,109.3537534000352,109.3537534000352,109.85478659998626,315,45,109.85478659998626,109.85478659998626,109.85478659998626,109.85478659998626,109.85478659998626,109.85478659998626,109.85478659998626,109.85478659998626,109.85478659998626,110.22129889996722,110.22129889996722,110.22129889996722,110.22129889996722,110.22129889996722,110.22129889996722,110.22129889996722,110.22129889996722,110.22129889996722,11,5,"[0.0008360999636352062, 0.10064249997958541, 0.20078299986198545, 0.2674036000389606, 0.30078029981814325]","[0.06728289998136461, 0.11730529996566474, 0.21743309986777604, 0.28422979987226427, 0.36759889987297356]",110.22129889996722,110.42335429997183,1000,110.42335429997183,1000,1000,1000,1000,0,num_3,0.9128010999411345,,31,9,2026-03-12_14h07.10.880,2026A_exp2,2022.2.4,59.95290100526593,
1000,1,0.0,4.9,0,0,25,25,5,,,,,111.3592864999082,112.00635170005262,112.00635170005262,112.5073947000783,315,45,112.5073947000783,112.5073947000783,112.5073947000783,112.5073947000783,112.5073947000783,112.5073947000783,112.5073947000783,112.5073947000783,112.5073947000783,112.87377399997786,112.87377399997786,112.87377399997786,112.87377399997786,112.87377399997786,112.87377399997786,112.87377399997786,112.87377399997786,112.87377399997786,4,3,"[0.017333900090306997, 0.21717320010066032, 0.30084950011223555]","[0.2006539001595229, 0.28412170009687543, 0.3675007000565529]",112.87377399997786,113.07594250002876,1000,113.07594250002876,1000,1000,1000,1000,1,num_2,0.7000124000478536,,31,9,2026-03-12_14h07.10.880,2026A_exp2,2022.2.4,59.95290100526593,
0,0,3.7,6.1,0,0,26,26,73,,,,,113.79139250004664,114.44208330009133,114.44208330009133,114.94319620006718,45,45,114.94319620006718,114.94319620006718,114.94319620006718,114.94319620006718,114.94319620006718,114.94319620006718,114.94319620006718,114.94319620006718,114.94319620006718,115.30976289999671,115.30976289999671,115.30976289999671,115.30976289999671,115.30976289999671,115.30976289999671,115.30976289999671,115.30976289999671,115.30976289999671,23,0,,,115.30976289999671,115.50987720000558,6.1,115.50987720000558,1,6.1,1,1,1000,num_4,0.6815364002250135,,31,9,2026-03-12_14h07.10.880,2026A_exp2,2022.2.4,59.95290100526593,
1000,1,0.0,0.0,1,0,27,27,40,,,,,116.21040179999545,116.86124900006689,116.86124900006689,117.34565340005793,315,45,117.34565340005793,117.34565340005793,117.34565340005793,117.34565340005793,117.34565340005793,117.34565340005793,117.34565340005793,117.34565340005793,117.34565340005793,117.7121256000828,117.7121256000828,117.7121256000828,117.7121256000828,117.7121256000828,117.7121256000828,117.7121256000828,117.7121256000828,117.7121256000828,23,0,,,117.7121256000828,117.91417640005238,1000,117.91417640005238,1000,1000,1000,1000,0,num_3,0.7901226002722979,,31,9,2026-03-12_14h07.10.880,2026A_exp2,2022.2.4,59.95290100526593,
1,0,4.9,4.9,0,0,28,28,39,,,,,118.72990519995801,119.38020189991221,119.38020189991221,119.88142149988562,45,45,119.88142149988562,119.88142149988562,119.88142149988562,119.88142149988562,119.88142149988562,119.88142149988562,119.88142149988562,119.88142149988562,119.88142149988562,120.2311545999255,120.2311545999255,120.2311545999255,120.2311545999255,120.2311545999255,120.2311545999255,120.2311545999255,120.2311545999255,120.2311545999255,20,1,[0.24971859995275736],[0.28286759997718036],120.2311545999255,120.43149619991891,4.9,120.44891160004772,1,4.9,1,1,1000,num_4,0.7666808001231402,,31,9,2026-03-12_14h07.10.880,2026A_exp2,2022.2.4,59.95290100526593,
1,0,3.7,0.0,1,0,29,29,28,,,,,121.23397070006467,121.8829355998896,121.8829355998896,122.38403859990649,45,45,122.38403859990649,122.38403859990649,122.38403859990649,122.38403859990649,122.38403859990649,122.38403859990649,122.38403859990649,122.38403859990649,122.38403859990649,122.75041089998558,122.75041089998558,122.75041089998558,122.75041089998558,122.75041089998558,122.75041089998558,122.75041089998558,122.75041089998558,122.75041089998558,20,3,"[0.05018340004608035, 0.11645810003392398, 0.3171560000628233]","[0.06666100001893938, 0.1498962000478059, 0.33383670006878674]",122.75041089998558,122.95065120002255,0.0,122.95065120002255,0,0.0,0,1,1000,num_1,0.7925871999468654,,31,9,2026-03-12_14h07.10.880,2026A_exp2,2022.2.4,59.95290100526593,
1000,1,6.1,0.0,0,0,30,30,59,,,,,123.76798969996162,124.41867979988456,124.41867979988456,124.90320489997976,45,45,124.90320489997976,124.90320489997976,124.90320489997976,124.90320489997976,124.90320489997976,124.90320489997976,124.90320489997976,124.90320489997976,124.90320489997976,125.2696847000625,125.2696847000625,125.2696847000625,125.2696847000625,125.2696847000625,125.2696847000625,125.2696847000625,125.2696847000625,125.2696847000625,1,2,"[0.0012399000115692616, 0.26663720002397895]","[0.24984270008280873, 0.36706150020472705]",125.2696847000625,125.47193629993126,1000,125.47193629993126,1000,1000,1000,1000,0,num_3,0.5040597000624985,,31,9,2026-03-12_14h07.10.880,2026A_exp2,2022.2.4,59.95290100526593,
1,0,4.9,0.0,1,0,31,31,25,,,,,126.00360310007818,126.6543493999634,126.6543493999634,127.15550190000795,315,315,127.15550190000795,127.15550190000795,127.15550190000795,127.15550190000795,127.15550190000795,127.15550190000795,127.15550190000795,127.15550190000795,127.15550190000795,127.52191619994119,127.52191619994119,127.52191619994119,127.52191619994119,127.52191619994119,127.52191619994119,127.52191619994119,127.52191619994119,127.52191619994119,0,1,[0.0013123999815434217],[0.3670357000082731],127.52191619994119,127.72183570009656,0.0,127.72183570009656,0,0.0,0,1,1000,num_1,0.7820600001141429,,31,9,2026-03-12_14h07.10.880,2026A_exp2,2022.2.4,59.95290100526593,
1000,1,0.0,0.0,0,0,32,32,87,,,,,128.52300509996712,129.1568624000065,129.1568624000065,129.65795879997313,315,45,129.65795879997313,129.65795879997313,129.65795879997313,129.65795879997313,129.65795879997313,129.65795879997313,129.65795879997313,129.65795879997313,129.65795879997313,130.02433210005984,130.02433210005984,130.02433210005984,130.02433210005984,130.02433210005984,130.02433210005984,130.02433210005984,130.02433210005984,130.02433210005984,0,1,[0.0013125999830663204],[0.3672476999927312],130.02433210005984,130.22649700008333,1000,130.22649700008333,1000,1000,1000,1000,0,num_3,0.8046298001427203,,31,9,2026-03-12_14h07.10.880,2026A_exp2,2022.2.4,59.95290100526593,
1000,1,0.0,0.0,1,0,33,33,23,,,,,131.05902260006405,131.70948079996742,131.70948079996742,132.21056999987923,315,315,132.21056999987923,132.21056999987923,132.21056999987923,132.21056999987923,132.21056999987923,132.21056999987923,132.21056999987923,132.21056999987923,132.21056999987923,132.57674590009265,132.57674590009265,132.57674590009265,132.57674590009265,132.57674590009265,132.57674590009265,132.57674590009265,132.57674590009265,132.57674590009265,1,2,"[0.0012252000160515308, 0.3663971999194473]","[0.3494688000064343, 0.36639990005642176]",132.57674590009265,132.7789745000191,1000,132.7789745000191,1000,1000,1000,1000,0,num_3,0.7161876000463963,,31,9,2026-03-12_14h07.10.880,2026A_exp2,2022.2.4,59.95290100526593,
1,0,0.0,0.0,1,0,34,34,21,,,,,133.5111664000433,134.16192009998485,134.16192009998485,134.66291789989918,45,315,134.66291789989918,134.66291789989918,134.66291789989918,134.66291789989918,134.66291789989918,134.66291789989918,134.66291789989918,134.66291789989918,134.66291789989918,135.02951180003583,135.02951180003583,135.02951180003583,135.02951180003583,135.02951180003583,135.02951180003583,135.02951180003583,135.02951180003583,135.02951180003583,6,3,"[0.0012216998729854822, 0.23340049991384149, 0.3168909999076277]","[0.16732460004277527, 0.28336740005761385, 0.3671053999569267]",135.02951180003583,135.22982280002907,0.0,135.22982280002907,0,0.0,0,1,1000,num_1,0.7452560001984239,,31,9,2026-03-12_14h07.10.880,2026A_exp2,2022.2.4,59.95290100526593,
1000,1,0.0,6.1,0,0,35,35,35,,,,,135.99692180007696,136.6476582000032,136.6476582000032,137.1321821999736,315,45,137.1321821999736,137.1321821999736,137.1321821999736,137.1321821999736,137.1321821999736,137.1321821999736,137.1321821999736,137.1321821999736,137.1321821999736,137.49854689999484,137.49854689999484,137.49854689999484,137.49854689999484,137.49854689999484,137.49854689999484,137.49854689999484,137.49854689999484,137.49854689999484,0,1,[0.0012052999809384346],[0.36711929994635284],137.49854689999484,137.7005704001058,1000,137.7005704001058,1000,1000,1000,1000,1,num_2,0.5305206002667546,,31,9,2026-03-12_14h07.10.880,2026A_exp2,2022.2.4,59.95290100526593,
0,0,0.0,0.0,0,0,36,36,70,,,,,138.24931319989264,138.89995640004054,138.89995640004054,139.40917339990847,315,315,139.40917339990847,139.40917339990847,139.40917339990847,139.40917339990847,139.40917339990847,139.40917339990847,139.40917339990847,139.40917339990847,139.40917339990847,139.76727059995756,139.76727059995756,139.76727059995756,139.76727059995756,139.76727059995756,139.76727059995756,139.76727059995756,139.76727059995756,139.76727059995756,0,1,[0.0032009000424295664],[0.36525240004993975],139.76727059995756,139.9676278999541,0.0,139.9676278999541,0,0.0,0,1,1000,num_1,0.8323666001670063,,31,9,2026-03-12_14h07.10.880,2026A_exp2,2022.2.4,59.95290100526593,
1000,1,0.0,0.0,0,0,37,37,6,,,,,140.81875080009922,141.46921449992806,141.46921449992806,141.95366019988433,315,45,141.95366019988433,141.95366019988433,141.95366019988433,141.95366019988433,141.95366019988433,141.95366019988433,141.95366019988433,141.95366019988433,141.95366019988433,142.32010050001554,142.32010050001554,142.32010050001554,142.32010050001554,142.32010050001554,142.32010050001554,142.32010050001554,142.32010050001554,142.32010050001554,0,1,[0.0012010999489575624],[0.3665740001015365],142.32010050001554,142.5207096999511,1000,142.5207096999511,1000,1000,1000,1000,1,num_2,1.4552856001537293,,31,9,2026-03-12_14h07.10.880,2026A_exp2,2022.2.4,59.95290100526593,
1000,1,3.7,4.9,0,0,38,38,80,,,,,144.00502700009383,144.65571269998327,144.65571269998327,145.15685990010388,45,45,145.15685990010388,145.15685990010388,145.15685990010388,145.15685990010388,145.15685990010388,145.15685990010388,145.15685990010388,145.15685990010388,145.15685990010388,145.5232617999427,145.5232617999427,145.5232617999427,145.5232617999427,145.5232617999427,145.5232617999427,145.5232617999427,145.5232617999427,145.5232617999427,10,3,"[0.0013085000682622194, 0.1334442999213934, 0.18342050001956522]","[0.1169998999685049, 0.16687670000828803, 0.25046400004066527]",145.5232617999427,145.72563380002975,1000,145.72563380002975,1000,1000,1000,1000,0,num_3,0.8899726001545787,,31,9,2026-03-12_14h07.10.880,2026A_exp2,2022.2.4,59.95290100526593,
1000,1,0.0,0.0,0,0,39,39,67,,,,,146.64085619989783,147.29202589998022,147.29202589998022,147.79275469994172,45,45,147.79275469994172,147.79275469994172,147.79275469994172,147.79275469994172,147.79275469994172,147.79275469994172,147.79275469994172,147.79275469994172,147.79275469994172,148.1424730999861,148.1424730999861,148.1424730999861,148.1424730999861,148.1424730999861,148.1424730999861,148.1424730999861,148.1424730999861,148.1424730999861,12,2,"[0.033412199933081865, 0.20036569982767105]","[0.10028639994561672, 0.3003691998310387]",148.1424730999861,148.34458989999257,1000,148.35952960001305,1000,1000,1000,1000,0,num_3,0.495433600153774,,31,9,2026-03-12_14h07.10.880,2026A_exp2,2022.2.4,59.95290100526593,
1000,1,0.0,0.0,1,0,40,40,60,,,,,148.87631589989178,149.5273070000112,149.5273070000112,150.02818510006182,45,45,150.02818510006182,150.02818510006182,150.02818510006182,150.02818510006182,150.02818510006182,150.02818510006182,150.02818510006182,150.02818510006182,150.02818510006182,150.3946531000547,150.3946531000547,150.3946531000547,150.3946531000547,150.3946531000547,150.3946531000547,150.3946531000547,150.3946531000547,150.3946531000547,0,1,[0.0009682998061180115],[0.36751689994707704],150.3946531000547,150.59506780002266,1000,150.59506780002266,1000,1000,1000,1000,0,num_3,0.5250452000182122,,31,9,2026-03-12_14h07.10.880,2026A_exp2,2022.2.4,59.95290100526593,
1000,1,0.0,3.7,1,0,41,41,65,,,,,151.14550009998493,151.7962032998912,151.7962032998912,152.29749829997309,45,315,152.29749829997309,152.29749829997309,152.29749829997309,152.29749829997309,152.29749829997309,152.29749829997309,152.29749829997309,152.29749829997309,152.29749829997309,152.66326569998637,152.66326569998637,152.66326569998637,152.66326569998637,152.66326569998637,152.66326569998637,152.66326569998637,152.66326569998637,152.66326569998637,17,1,[0.0012443000450730324],[0.10018380009569228],152.66326569998637,152.8658662000671,1000,152.8658662000671,1000,1000,1000,1000,1,num_2,0.6057982000056654,,31,9,2026-03-12_14h07.10.880,2026A_exp2,2022.2.4,59.95290100526593,
1,0,0.0,0.0,0,0,42,42,51,,,,,153.49778390000574,154.14863399998285,154.14863399998285,154.64947309996933,315,315,154.64947309996933,154.64947309996933,154.64947309996933,154.64947309996933,154.64947309996933,154.64947309996933,154.64947309996933,154.64947309996933,154.64947309996933,155.0157876999583,155.0157876999583,155.0157876999583,155.0157876999583,155.0157876999583,155.0157876999583,155.0157876999583,155.0157876999583,155.0157876999583,0,1,[0.0012139000464230776],[0.36703040008433163],155.0157876999583,155.2163181998767,0.0,155.2163181998767,0,0.0,0,1,1000,num_1,0.8706114001106471,,31,9,2026-03-12_14h07.10.880,2026A_exp2,2022.2.4,59.95290100526593,
1,0,0.0,6.1,0,0,43,43,82,,,,,156.1170328001026,156.7679445000831,156.7679445000831,157.25219570007175,315,315,157.25219570007175,157.25219570007175,157.25219570007175,157.25219570007175,157.25219570007175,157.25219570007175,157.25219570007175,157.25219570007175,157.25219570007175,157.61857829988003,157.61857829988003,157.61857829988003,157.61857829988003,157.61857829988003,157.61857829988003,157.61857829988003,157.61857829988003,157.61857829988003,0,1,[0.0012387000024318695],[0.36717729992233217],157.61857829988003,157.81885859998874,0.0,157.81885859998874,0,0.0,0,1,1000,num_1,0.9405893001239747,,31,9,2026-03-12_14h07.10.880,2026A_exp2,2022.2.4,59.95290100526593,
1000,1,0.0,0.0,0,0,44,44,36,,,,,158.78624460007995,159.42047760006972,159.42047760006972,159.92169509991072,315,315,159.92169509991072,159.92169509991072,159.92169509991072,159.92169509991072,159.92169509991072,159.92169509991072,159.92169509991072,159.92169509991072,159.92169509991072,160.2880641000811,160.2880641000811,160.2880641000811,160.2880641000811,160.2880641000811,160.2880641000811,160.2880641000811,160.2880641000811,160.2880641000811,23,0,,,160.2880641000811,160.49038249999285,1000,160.49038249999285,1000,1000,1000,1000,0,num_3,0.5650513002183288,,31,9,2026-03-12_14h07.10.880,2026A_exp2,2022.2.4,59.95290100526593,
0,0,6.1,6.1,0,0,45,45,42,,,,,161.07199790002778,161.72292160009965,161.72292160009965,162.2238384000957,45,315,162.2238384000957,162.2238384000957,162.2238384000957,162.2238384000957,162.2238384000957,162.2238384000957,162.2238384000957,162.2238384000957,162.2238384000957,162.59031330002472,162.59031330002472,162.59031330002472,162.59031330002472,162.59031330002472,162.59031330002472,162.59031330002472,162.59031330002472,162.59031330002472,23,0,,,162.59031330002472,162.79035259992816,6.1,162.79035259992816,1,6.1,1,1,1000,num_4,0.8015672001056373,,31,9,2026-03-12_14h07.10.880,2026A_exp2,2022.2.4,59.95290100526593,
1,0,3.7,6.1,1,0,46,46,77,,,,,163.60785689996555,164.2586725000292,164.2586725000292,164.74295099987648,45,45,164.74295099987648,164.74295099987648,164.74295099987648,164.74295099987648,164.74295099987648,164.74295099987648,164.74295099987648,164.74295099987648,164.74295099987648,165.10953609994613,165.10953609994613,165.10953609994613,165.10953609994613,165.10953609994613,165.10953609994613,165.10953609994613,165.10953609994613,165.10953609994613,22,1,[0.1501692000310868],[0.16697639995254576],165.10953609994613,165.30967299989425,6.1,165.30967299989425,1,6.1,1,1,1000,num_4,0.5536206001415849,,31,9,2026-03-12_14h07.10.880,2026A_exp2,2022.2.4,59.95290100526593,
1,0,6.1,4.9,0,0,47,47,81,,,,,165.8934172000736,166.5442633999046,166.5442633999046,167.02868509991094,315,45,167.02868509991094,167.02868509991094,167.02868509991094,167.02868509991094,167.02868509991094,167.02868509991094,167.02868509991094,167.02868509991094,167.02868509991094,167.39503689995036,167.39503689995036,167.39503689995036,167.39503689995036,167.39503689995036,167.39503689995036,167.39503689995036,167.39503689995036,167.39503689995036,0,1,[0.0012231001164764166],[0.3670457999687642],167.39503689995036,167.59519800008275,6.1,167.59519800008275,1,6.1,1,1,1000,num_4,0.645172200165689,,31,9,2026-03-12_14h07.10.880,2026A_exp2,2022.2.4,59.95290100526593,
1000,1,3.7,0.0,0,0,48,48,32,,,,,168.26249839994125,168.91330159991048,168.91330159991048,169.3977278000675,45,45,169.3977278000675,169.3977278000675,169.3977278000675,169.3977278000675,169.3977278000675,169.3977278000675,169.3977278000675,169.3977278000675,169.3977278000675,169.76399950007908,169.76399950007908,169.76399950007908,169.76399950007908,169.76399950007908,169.76399950007908,169.76399950007908,169.76399950007908,169.76399950007908,15,1,[0.0011950000189244747],[0.13359480001963675],169.76399950007908,169.96624540002085,1000,169.96624540002085,1000,1000,1000,1000,0,num_3,0.7540111001580954,,31,9,2026-03-12_14h07.10.880,2026A_exp2,2022.2.4,59.95290100526593,
1,0,3.7,3.7,1,0,49,49,86,,,,,170.74838940007612,171.39911390002817,171.39911390002817,171.90014529996552,45,45,171.90014529996552,171.90014529996552,171.90014529996552,171.90014529996552,171.90014529996552,171.90014529996552,171.90014529996552,171.90014529996552,171.90014529996552,172.24993639998138,172.24993639998138,172.24993639998138,172.24993639998138,172.24993639998138,172.24993639998138,172.24993639998138,172.24993639998138,172.24993639998138,22,0,,,172.24993639998138,172.45012829988264,3.7,172.45012829988264,0,3.7,1,0,1000,num_1,0.9416306002531201,,31,9,2026-03-12_14h07.10.880,2026A_exp2,2022.2.4,59.95290100526593,
1,0,0.0,0.0,0,0,50,50,34,,,,,173.41788950003684,174.0683728000149,174.0683728000149,174.5528816001024,45,45,174.5528816001024,174.5528816001024,174.5528816001024,174.5528816001024,174.5528816001024,174.5528816001024,174.5528816001024,174.5528816001024,174.5528816001024,174.919137599878,174.919137599878,174.919137599878,174.919137599878,174.919137599878,174.919137599878,174.919137599878,174.919137599878,174.919137599878,23,0,,,174.919137599878,175.11956609995104,0.0,175.11956609995104,0,0.0,0,1,1000,num_1,0.8955935002304614,,31,9,2026-03-12_14h07.10.880,2026A_exp2,2022.2.4,59.95290100526593,
1,0,3.7,0.0,1,0,51,51,13,,,,,176.03723939997144,176.6710308000911,176.6710308000911,177.17200600006618,45,315,177.17200600006618,177.17200600006618,177.17200600006618,177.17200600006618,177.17200600006618,177.17200600006618,177.17200600006618,177.17200600006618,177.17200600006618,177.5385628999211,177.5385628999211,177.5385628999211,177.5385628999211,177.5385628999211,177.5385628999211,177.5385628999211,177.5385628999211,177.5385628999211,23,0,,,177.5385628999211,177.73866869998164,0.0,177.73866869998164,0,0.0,0,1,1000,num_1,1.0457459001336247,,31,9,2026-03-12_14h07.10.880,2026A_exp2,2022.2.4,59.95290100526593,
0,0,0.0,3.7,0,0,52,52,47,,,,,178.80627140006982,179.45708770002238,179.45708770002238,179.94149730005302,45,45,179.94149730005302,179.94149730005302,179.94149730005302,179.94149730005302,179.94149730005302,179.94149730005302,179.94149730005302,179.94149730005302,179.94149730005302,180.30807440006174,180.30807440006174,180.30807440006174,180.30807440006174,180.30807440006174,180.30807440006174,180.30807440006174,180.30807440006174,180.30807440006174,23,0,,,180.30807440006174,180.50835769996047,3.7,180.50835769996047,1,3.7,1,1,1000,num_4,0.9149926002137363,,31,9,2026-03-12_14h07.10.880,2026A_exp2,2022.2.4,59.95290100526593,
1000,1,3.7,0.0,1,0,53,53,54,,,,,181.442993799923,182.10399209987372,182.10399209987372,182.59422160009854,45,315,182.59422160009854,182.59422160009854,182.59422160009854,182.59422160009854,182.59422160009854,182.59422160009854,182.59422160009854,182.59422160009854,182.59422160009854,182.960885199951,182.960885199951,182.960885199951,182.960885199951,182.960885199951,182.960885199951,182.960885199951,182.960885199951,182.960885199951,23,0,,,182.960885199951,183.1626857998781,1000,183.1626857998781,1000,1000,1000,1000,0,num_3,0.5092092000413686,,31,9,2026-03-12_14h07.10.880,2026A_exp2,2022.2.4,59.95290100526593,
1000,1,0.0,6.1,0,0,54,54,75,,,,,183.69510359992273,184.34540549991652,184.34540549991652,184.84649799996987,45,315,184.84649799996987,184.84649799996987,184.84649799996987,184.84649799996987,184.84649799996987,184.84649799996987,184.84649799996987,184.84649799996987,184.84649799996987,185.19645539997146,185.19645539997146,185.19645539997146,185.19645539997146,185.19645539997146,185.19645539997146,185.19645539997146,185.19645539997146,185.19645539997146,22,0,,,185.19645539997146,185.4124223999679,1000,185.4124223999679,1000,1000,1000,1000,1,num_2,0.5227793999947608,,31,9,2026-03-12_14h07.10.880,2026A_exp2,2022.2.4,59.95290100526593,
1,0,0.0,0.0,0,0,55,55,44,,,,,185.9635292000603,186.61426479998045,186.61426479998045,187.11525649996474,45,315,187.11525649996474,187.11525649996474,187.11525649996474,187.11525649996474,187.11525649996474,187.11525649996474,187.11525649996474,187.11525649996474,187.11525649996474,187.48185650003143,187.48185650003143,187.48185650003143,187.48185650003143,187.48185650003143,187.48185650003143,187.48185650003143,187.48185650003143,187.48185650003143,0,1,[0.0017051000613719225],[0.3666876999195665],187.48185650003143,187.68197829998098,0.0,187.68197829998098,0,0.0,0,1,1000,num_1,0.6941085001453757,,31,9,2026-03-12_14h07.10.880,2026A_exp2,2022.2.4,59.95290100526593,
1,0,0.0,4.9,1,0,56,56,1,,,,,188.39930379996076,189.05012320005335,189.05012320005335,189.534569399897,315,45,189.534569399897,189.534569399897,189.534569399897,189.534569399897,189.534569399897,189.534569399897,189.534569399897,189.534569399897,189.534569399897,189.9008976998739,189.9008976998739,189.9008976998739,189.9008976998739,189.9008976998739,189.9008976998739,189.9008976998739,189.9008976998739,189.9008976998739,0,1,[0.0011968999169766903],[0.36706830002367496],189.9008976998739,190.1011268000584,4.9,190.1011268000584,1,4.9,1,1,1000,num_4,0.8429078001063317,,31,9,2026-03-12_14h07.10.880,2026A_exp2,2022.2.4,59.95290100526593,
1,0,6.1,6.1,0,0,57,57,27,,,,,190.96864459989592,191.61954879993573,191.61954879993573,192.10372360004112,45,45,192.10372360004112,192.10372360004112,192.10372360004112,192.10372360004112,192.10372360004112,192.10372360004112,192.10372360004112,192.10372360004112,192.10372360004112,192.47015579999425,192.47015579999425,192.47015579999425,192.47015579999425,192.47015579999425,192.47015579999425,192.47015579999425,192.47015579999425,192.47015579999425,8,6,"[0.0012308000586926937, 0.05017310008406639, 0.10017370013520122, 0.1834263000637293, 0.25041700014844537, 0.28373330016620457]","[0.017254700185731053, 0.06684190011583269, 0.16644930001348257, 0.21709110005758703, 0.2669767001643777, 0.36715750000439584]",192.47015579999425,192.67045470001176,6.1,192.67045470001176,1,6.1,1,1,1000,num_4,1.0163970000576228,,31,9,2026-03-12_14h07.10.880,2026A_exp2,2022.2.4,59.95290100526593,
1000,1,6.1,4.9,0,0,58,58,49,,,,,193.70475740008987,194.3554680000525,194.3554680000525,194.8566308999434,45,315,194.8566308999434,194.8566308999434,194.8566308999434,194.8566308999434,194.8566308999434,194.8566308999434,194.8566308999434,194.8566308999434,194.8566308999434,195.22299219993874,195.22299219993874,195.22299219993874,195.22299219993874,195.22299219993874,195.22299219993874,195.22299219993874,195.22299219993874,195.22299219993874,23,0,,,195.22299219993874,195.42529470007867,1000,195.42529470007867,1000,1000,1000,1000,0,num_3,0.6061974000185728,,31,9,2026-03-12_14h07.10.880,2026A_exp2,2022.2.4,59.95290100526593,
1000,1,3.7,6.1,1,0,59,59,29,,,,,196.05709989997558,196.70787529996596,196.70787529996596,197.1922192000784,315,315,197.1922192000784,197.1922192000784,197.1922192000784,197.1922192000784,197.1922192000784,197.1922192000784,197.1922192000784,197.1922192000784,197.1922192000784,197.55862409994006,197.55862409994006,197.55862409994006,197.55862409994006,197.55862409994006,197.55862409994006,197.55862409994006,197.55862409994006,197.55862409994006,22,1,[0.3671945999376476],[0.36719959997572005],197.55862409994006,197.76076319999993,1000,197.76076319999993,1000,1000,1000,1000,1,num_2,0.5751022000331432,,31,9,2026-03-12_14h07.10.880,2026A_exp2,2022.2.4,59.95290100526593,
1,0,4.9,3.7,1,0,60,60,10,,,,,198.3592348000966,199.01010029995814,199.01010029995814,199.5111877999734,45,315,199.5111877999734,199.5111877999734,199.5111877999734,199.5111877999734,199.5111877999734,199.5111877999734,199.5111877999734,199.5111877999734,199.5111877999734,199.87763649993576,199.87763649993576,199.87763649993576,199.87763649993576,199.87763649993576,199.87763649993576,199.87763649993576,199.87763649993576,199.87763649993576,11,2,"[0.0012512998655438423, 0.20052039995789528]","[0.18363539990969002, 0.21705249999649823]",199.87763649993576,200.07786089996807,3.7,200.07786089996807,1,3.7,1,1,1000,num_4,0.8180401001591235,,31,9,2026-03-12_14h07.10.880,2026A_exp2,2022.2.4,59.95290100526593,
1000,1,0.0,6.1,0,0,61,61,2,,,,,200.91188309993595,201.56256769993342,201.56256769993342,202.0471278000623,45,45,202.0471278000623,202.0471278000623,202.0471278000623,202.0471278000623,202.0471278000623,202.0471278000623,202.0471278000623,202.0471278000623,202.0471278000623,202.4135187000502,202.4135187000502,202.4135187000502,202.4135187000502,202.4135187000502,202.4135187000502,202.4135187000502,202.4135187000502,202.4135187000502,0,1,[0.0012317998334765434],[0.3694229000248015],202.4135187000502,202.62951310002245,1000,202.62951310002245,1000,1000,1000,1000,1,num_2,0.7067221000324935,,31,9,2026-03-12_14h07.10.880,2026A_exp2,2022.2.4,59.95290100526593,
1,0,3.7,0.0,1,0,62,62,12,,,,,203.36433509993367,204.0151279999409,204.0151279999409,204.51621900009923,45,45,204.51621900009923,204.51621900009923,204.51621900009923,204.51621900009923,204.51621900009923,204.51621900009923,204.51621900009923,204.51621900009923,204.51621900009923,204.88260910008103,204.88260910008103,204.88260910008103,204.88260910008103,204.88260910008103,204.88260910008103,204.88260910008103,204.88260910008103,204.88260910008103,23,0,,,204.88260910008103,205.08275619987398,0.0,205.08275619987398,0,0.0,0,1,1000,num_1,1.1243914000224322,,31,9,2026-03-12_14h07.10.880,2026A_exp2,2022.2.4,59.95290100526593,
0,0,0.0,0.0,1,0,63,63,38,,,,,206.23379279999062,206.88464220007882,206.88464220007882,207.3690981999971,45,45,207.3690981999971,207.3690981999971,207.3690981999971,207.3690981999971,207.3690981999971,207.3690981999971,207.3690981999971,207.3690981999971,207.3690981999971,207.73528839997016,207.73528839997016,207.73528839997016,207.73528839997016,207.73528839997016,207.73528839997016,207.73528839997016,207.73528839997016,207.73528839997016,23,0,,,207.73528839997016,207.93568690004759,0.0,207.93568690004759,0,0.0,0,1,1000,num_1,1.1594412000849843,,31,9,2026-03-12_14h07.10.880,2026A_exp2,2022.2.4,59.95290100526593,
1000,1,3.7,4.9,0,0,64,64,64,,,,,209.11998600000516,209.77084939996712,209.77084939996712,210.25511960010044,45,315,210.25511960010044,210.25511960010044,210.25511960010044,210.25511960010044,210.25511960010044,210.25511960010044,210.25511960010044,210.25511960010044,210.25511960010044,210.62140380009077,210.62140380009077,210.62140380009077,210.62140380009077,210.62140380009077,210.62140380009077,210.62140380009077,210.62140380009077,210.62140380009077,19,1,[0.30168070015497506],[0.36752840015105903],210.62140380009077,210.82167549990118,1000,210.82167549990118,1000,1000,1000,1000,1,num_2,0.9858819001819938,,31,9,2026-03-12_14h07.10.880,2026A_exp2,2022.2.4,59.95290100526593,
0,0,6.1,0.0,1,0,65,65,30,,,,,211.82277349988,212.47347790002823,212.47347790002823,212.97469819989055,45,45,212.97469819989055,212.97469819989055,212.97469819989055,212.97469819989055,212.97469819989055,212.97469819989055,212.97469819989055,212.97469819989055,212.97469819989055,213.34109140001237,213.34109140001237,213.34109140001237,213.34109140001237,213.34109140001237,213.34109140001237,213.34109140001237,213.34109140001237,213.34109140001237,23,0,,,213.34109140001237,213.54124290007167,6.1,213.54124290007167,1,6.1,1,1,1000,num_4,0.9226085001137108,,31,9,2026-03-12_14h07.10.880,2026A_exp2,2022.2.4,59.95290100526593,
1,0,0.0,3.7,1,0,66,66,0,,,,,214.49205800006166,215.15161919989623,215.15161919989623,215.62728290003724,315,45,215.62728290003724,215.62728290003724,215.62728290003724,215.62728290003724,215.62728290003724,215.62728290003724,215.62728290003724,215.62728290003724,215.62728290003724,215.9938445999287,215.9938445999287,215.9938445999287,215.9938445999287,215.9938445999287,215.9938445999287,215.9938445999287,215.9938445999287,215.9938445999287,23,0,,,215.9938445999287,216.1939260000363,3.7,216.1939260000363,1,3.7,1,1,1000,num_4,0.9493297000881284,,31,9,2026-03-12_14h07.10.880,2026A_exp2,2022.2.4,59.95290100526593,
1,0,3.7,4.9,0,0,67,67,76,,,,,217.1614474998787,217.81192300003022,217.81192300003022,218.29760470008478,315,315,218.29760470008478,218.29760470008478,218.29760470008478,218.29760470008478,218.29760470008478,218.29760470008478,218.29760470008478,218.29760470008478,218.29760470008478,218.6628006999381,218.6628006999381,218.6628006999381,218.6628006999381,218.6628006999381,218.6628006999381,218.6628006999381,218.6628006999381,218.6628006999381,23,0,,,218.6628006999381,218.86457489989698,3.7,218.86457489989698,0,3.7,1,0,1000,num_1,0.9024521000683308,,31,9,2026-03-12_14h07.10.880,2026A_exp2,2022.2.4,59.95290100526593,
1,0,4.9,6.1,0,0,68,68,33,,,,,219.78080260008574,220.43104339996353,220.43104339996353,220.93265799991786,315,315,220.93265799991786,220.93265799991786,220.93265799991786,220.93265799991786,220.93265799991786,220.93265799991786,220.93265799991786,220.93265799991786,220.93265799991786,221.29950889991596,221.29950889991596,221.29950889991596,221.29950889991596,221.29950889991596,221.29950889991596,221.29950889991596,221.29950889991596,221.29950889991596,23,0,,,221.29950889991596,221.4991029999219,4.9,221.4991029999219,0,4.9,1,0,1000,num_1,1.436503800097853,,31,9,2026-03-12_14h07.10.880,2026A_exp2,2022.2.4,59.95290100526593,
0,0,0.0,3.7,0,0,69,69,83,,,,,222.95077409991063,223.60126719996333,223.60126719996333,224.10248270002194,45,45,224.10248270002194,224.10248270002194,224.10248270002194,224.10248270002194,224.10248270002194,224.10248270002194,224.10248270002194,224.10248270002194,224.10248270002194,224.46874390006997,224.46874390006997,224.46874390006997,224.46874390006997,224.46874390006997,224.46874390006997,224.46874390006997,224.46874390006997,224.46874390006997,8,4,"[0.06721459981054068, 0.1004800999071449, 0.13375239982269704, 0.20031079999171197]","[0.0838797998148948, 0.1173600999172777, 0.1667274998035282, 0.3674287998583168]",224.46874390006997,224.66894980007783,3.7,224.66894980007783,1,3.7,1,1,1000,num_4,0.8024579000193626,,31,9,2026-03-12_14h07.10.880,2026A_exp2,2022.2.4,59.95290100526593,
1,0,6.1,3.7,0,0,70,70,31,,,,,225.50310979993083,226.15386780002154,226.15386780002154,226.63835019990802,315,45,226.63835019990802,226.63835019990802,226.63835019990802,226.63835019990802,226.63835019990802,226.63835019990802,226.63835019990802,226.63835019990802,226.63835019990802,227.00455829990096,227.00455829990096,227.00455829990096,227.00455829990096,227.00455829990096,227.00455829990096,227.00455829990096,227.00455829990096,227.00455829990096,23,0,,,227.00455829990096,227.2047609000001,6.1,227.2047609000001,1,6.1,1,1,1000,num_4,0.6828742001671344,,31,9,2026-03-12_14h07.10.880,2026A_exp2,2022.2.4,59.95290100526593,
1,0,3.7,0.0,1,0,71,71,11,,,,,227.90543700009584,228.55618000007235,228.55618000007235,229.04065690003335,45,45,229.04065690003335,229.04065690003335,229.04065690003335,229.04065690003335,229.04065690003335,229.04065690003335,229.04065690003335,229.04065690003335,229.04065690003335,229.40721830003895,229.40721830003895,229.40721830003895,229.40721830003895,229.40721830003895,229.40721830003895,229.40721830003895,229.40721830003895,229.40721830003895,23,0,,,229.40721830003895,229.6098692000378,0.0,229.6098692000378,0,0.0,0,1,1000,num_1,1.0301548002753407,,31,9,2026-03-12_14h07.10.880,2026A_exp2,2022.2.4,59.95290100526593,
1000,1,4.9,0.0,0,0,72,72,50,,,,,230.65825290000066,231.30895660002716,231.30895660002716,231.79357380000874,45,45,231.79357380000874,231.79357380000874,231.79357380000874,231.79357380000874,231.79357380000874,231.79357380000874,231.79357380000874,231.79357380000874,231.79357380000874,232.15981179988012,232.15981179988012,232.15981179988012,232.15981179988012,232.15981179988012,232.15981179988012,232.15981179988012,232.15981179988012,232.15981179988012,14,3,"[0.000735200010240078, 0.050230100052431226, 0.3341465999837965]","[0.03335879999212921, 0.15034929988905787, 0.35077410005033016]",232.15981179988012,232.36201049992815,1000,232.36201049992815,1000,1000,1000,1000,0,num_3,0.5731689999811351,,31,9,2026-03-12_14h07.10.880,2026A_exp2,2022.2.4,59.95290100526593,
1000,1,0.0,0.0,0,0,73,73,15,,,,,232.960706199985,233.61158520006575,233.61158520006575,234.11232930002734,45,315,234.11232930002734,234.11232930002734,234.11232930002734,234.11232930002734,234.11232930002734,234.11232930002734,234.11232930002734,234.11232930002734,234.11232930002734,234.4788410998881,234.4788410998881,234.4788410998881,234.4788410998881,234.4788410998881,234.4788410998881,234.4788410998881,234.4788410998881,234.4788410998881,23,0,,,234.4788410998881,234.71039270004258,1000,234.71039270004258,1000,1000,1000,1000,0,num_3,0.5374467999208719,,31,9,2026-03-12_14h07.10.880,2026A_exp2,2022.2.4,59.95290100526593,
1,0,0.0,0.0,1,0,74,74,41,,,,,235.26283999998122,235.9136053000111,235.9136053000111,236.4147405999247,315,45,236.4147405999247,236.4147405999247,236.4147405999247,236.4147405999247,236.4147405999247,236.4147405999247,236.4147405999247,236.4147405999247,236.4147405999247,236.78094820003025,236.78094820003025,236.78094820003025,236.78094820003025,236.78094820003025,236.78094820003025,236.78094820003025,236.78094820003025,236.78094820003025,0,1,[0.001238600118085742],[0.3672062000259757],236.78094820003025,236.98143390007317,0.0,236.98143390007317,0,0.0,0,1,1000,num_1,0.87353549990803,,31,9,2026-03-12_14h07.10.880,2026A_exp2,2022.2.4,59.95290100526593,
1000,1,0.0,4.9,0,0,75,75,74,,,,,237.88207169994712,238.53290769993328,238.53290769993328,239.01741319987923,315,45,239.01741319987923,239.01741319987923,239.01741319987923,239.01741319987923,239.01741319987923,239.01741319987923,239.01741319987923,239.01741319987923,239.01741319987923,239.38362600002438,239.38362600002438,239.38362600002438,239.38362600002438,239.38362600002438,239.38362600002438,239.38362600002438,239.38362600002438,239.38362600002438,0,1,[0.0012014000676572323],[0.36715440009720623],239.38362600002438,239.58581910002977,1000,239.58581910002977,1000,1000,1000,1000,1,num_2,0.6933258001226932,,31,9,2026-03-12_14h07.10.880,2026A_exp2,2022.2.4,59.95290100526593,
1000,1,0.0,0.0,0,0,76,76,72,,,,,240.3011648999527,240.9521814000327,240.9521814000327,241.43675099988468,315,45,241.43675099988468,241.43675099988468,241.43675099988468,241.43675099988468,241.43675099988468,241.43675099988468,241.43675099988468,241.43675099988468,241.43675099988468,241.80274579999968,241.80274579999968,241.80274579999968,241.80274579999968,241.80274579999968,241.80274579999968,241.80274579999968,241.80274579999968,241.80274579999968,23,0,,,241.80274579999968,242.0029223000165,1000,242.0029223000165,1000,1000,1000,1000,0,num_3,0.555996100185439,,31,9,2026-03-12_14h07.10.880,2026A_exp2,2022.2.4,59.95290100526593,
1000,1,6.1,3.7,0,0,77,77,18,,,,,242.58708920003846,243.23764330008999,243.23764330008999,243.72204339993186,315,315,243.72204339993186,243.72204339993186,243.72204339993186,243.72204339993186,243.72204339993186,243.72204339993186,243.72204339993186,243.72204339993186,243.72204339993186,244.0883553000167,244.0883553000167,244.0883553000167,244.0883553000167,244.0883553000167,244.0883553000167,244.0883553000167,244.0883553000167,244.0883553000167,23,0,,,244.0883553000167,244.29026599996723,1000,244.29026599996723,1000,1000,1000,1000,1,num_2,0.8848383999429643,,31,9,2026-03-12_14h07.10.880,2026A_exp2,2022.2.4,59.95290100526593,
1,0,4.9,3.7,0,0,78,78,63,,,,,245.2061292999424,245.85687429993413,245.85687429993413,246.35780999995768,315,315,246.35780999995768,246.35780999995768,246.35780999995768,246.35780999995768,246.35780999995768,246.35780999995768,246.35780999995768,246.35780999995768,246.35780999995768,246.72440549987368,246.72440549987368,246.72440549987368,246.72440549987368,246.72440549987368,246.72440549987368,246.72440549987368,246.72440549987368,246.72440549987368,4,4,"[0.001276700058951974, 0.05022670002654195, 0.15023760008625686, 0.23360430006869137]","[0.03340620012022555, 0.13340910011902452, 0.2003165001515299, 0.3670807001180947]",246.72440549987368,246.92461610003375,4.9,246.92461610003375,1,4.9,1,1,1000,num_4,0.7955608002375811,,31,9,2026-03-12_14h07.10.880,2026A_exp2,2022.2.4,59.95290100526593,
0,0,0.0,4.9,0,0,79,79,14,,,,,247.7419435000047,248.39279980002902,248.39279980002902,248.89394350000657,315,45,248.89394350000657,248.89394350000657,248.89394350000657,248.89394350000657,248.89394350000657,248.89394350000657,248.89394350000657,248.89394350000657,248.89394350000657,249.26038019987755,249.26038019987755,249.26038019987755,249.26038019987755,249.26038019987755,249.26038019987755,249.26038019987755,249.26038019987755,249.26038019987755,17,3,"[0.13360460009425879, 0.2003433001227677, 0.2505044999998063]","[0.16681429999880493, 0.21706910012289882, 0.300630500074476]",249.26038019987755,249.46039630007,4.9,249.46039630007,0,4.9,1,0,1000,num_1,0.9153923001140356,,31,9,2026-03-12_14h07.10.880,2026A_exp2,2022.2.4,59.95290100526593,
1000,1,3.7,0.0,0,0,80,80,66,,,,,250.3946517999284,251.0454287000466,251.0454287000466,251.52979659987614,315,315,251.52979659987614,251.52979659987614,251.52979659987614,251.52979659987614,251.52979659987614,251.52979659987614,251.52979659987614,251.52979659987614,251.52979659987614,251.89617590000853,251.89617590000853,251.89617590000853,251.89617590000853,251.89617590000853,251.89617590000853,251.89617590000853,251.89617590000853,251.89617590000853,5,2,"[0.04993740003556013, 0.13330390001647174]","[0.09992599999532104, 0.36692760000005364]",251.89617590000853,252.0984114999883,1000,252.0984114999883,1000,1000,1000,1000,0,num_3,0.6292854000348598,,31,9,2026-03-12_14h07.10.880,2026A_exp2,2022.2.4,59.95290100526593,
1000,1,6.1,4.9,0,0,81,81,68,,,,,252.74721940001473,253.39765370008536,253.39765370008536,253.89876909996383,45,45,253.89876909996383,253.89876909996383,253.89876909996383,253.89876909996383,253.89876909996383,253.89876909996383,253.89876909996383,253.89876909996383,253.89876909996383,254.24864359991625,254.24864359991625,254.24864359991625,254.24864359991625,254.24864359991625,254.24864359991625,254.24864359991625,254.24864359991625,254.24864359991625,22,0,,,254.24864359991625,254.44993559992872,1000,254.44993559992872,1000,1000,1000,1000,0,num_3,0.5578485000878572,,31,9,2026-03-12_14h07.10.880,2026A_exp2,2022.2.4,59.95290100526593,
1000,1,0.0,0.0,0,0,82,82,45,,,,,255.03250289987773,255.6772886000108,255.6772886000108,256.1676668000873,45,45,256.1676668000873,256.1676668000873,256.1676668000873,256.1676668000873,256.1676668000873,256.1676668000873,256.1676668000873,256.1676668000873,256.1676668000873,256.5341346000787,256.5341346000787,256.5341346000787,256.5341346000787,256.5341346000787,256.5341346000787,256.5341346000787,256.5341346000787,256.5341346000787,23,0,,,256.5341346000787,256.73619140009396,1000,256.73619140009396,1000,1000,1000,1000,0,num_3,1.2950395001098514,,31,9,2026-03-12_14h07.10.880,2026A_exp2,2022.2.4,59.95290100526593,
1000,1,0.0,4.9,1,0,83,83,79,,,,,258.05223999987356,258.7030607999768,258.7030607999768,259.2041511000134,315,45,259.2041511000134,259.2041511000134,259.2041511000134,259.2041511000134,259.2041511000134,259.2041511000134,259.2041511000134,259.2041511000134,259.2041511000134,259.5705889998935,259.5705889998935,259.5705889998935,259.5705889998935,259.5705889998935,259.5705889998935,259.5705889998935,259.5705889998935,259.5705889998935,23,0,,,259.5705889998935,259.77245109993964,1000,259.77245109993964,1000,1000,1000,1000,1,num_2,0.7793882000260055,,31,9,2026-03-12_14h07.10.880,2026A_exp2,2022.2.4,59.95290100526593,
1000,1,3.7,0.0,1,0,84,84,88,,,,,260.5714455000125,261.2222788000945,261.2222788000945,261.7234237000812,315,45,261.7234237000812,261.7234237000812,261.7234237000812,261.7234237000812,261.7234237000812,261.7234237000812,261.7234237000812,261.7234237000812,261.7234237000812,262.0898239999078,262.0898239999078,262.0898239999078,262.0898239999078,262.0898239999078,262.0898239999078,262.0898239999078,262.0898239999078,262.0898239999078,0,1,[0.0012342000845819712],[0.3672666000202298],262.0898239999078,262.2917287000455,1000,262.2917287000455,1000,1000,1000,1000,0,num_3,0.5082435002550483,,31,9,2026-03-12_14h07.10.880,2026A_exp2,2022.2.4,59.95290100526593,
1,0,4.9,3.7,0,0,85,85,9,,,,,262.82375320000574,263.474371700082,263.474371700082,263.9756716999691,45,315,263.9756716999691,263.9756716999691,263.9756716999691,263.9756716999691,263.9756716999691,263.9756716999691,263.9756716999691,263.9756716999691,263.9756716999691,264.34212150005624,264.34212150005624,264.34212150005624,264.34212150005624,264.34212150005624,264.34212150005624,264.34212150005624,264.34212150005624,264.34212150005624,23,0,,,264.34212150005624,264.55580620002,4.9,264.55580620002,1,4.9,1,1,1000,num_4,0.7398043002467602,,31,9,2026-03-12_14h07.10.880,2026A_exp2,2022.2.4,59.95290100526593,
1000,1,0.0,6.1,1,0,86,86,52,,,,,265.3261378998868,265.9769222000614,265.9769222000614,266.46143379993737,45,45,266.46143379993737,266.46143379993737,266.46143379993737,266.46143379993737,266.46143379993737,266.46143379993737,266.46143379993737,266.46143379993737,266.46143379993737,266.8278826000169,266.8278826000169,266.8278826000169,266.8278826000169,266.8278826000169,266.8278826000169,266.8278826000169,266.8278826000169,266.8278826000169,23,0,,,266.8278826000169,267.02953840000555,1000,267.02953840000555,1000,1000,1000,1000,1,num_2,0.6095752001274377,,31,9,2026-03-12_14h07.10.880,2026A_exp2,2022.2.4,59.95290100526593,
1000,1,0.0,6.1,0,0,87,87,85,,,,,267.6620066999458,268.3128321999684,268.3128321999684,268.8136801000219,315,45,268.8136801000219,268.8136801000219,268.8136801000219,268.8136801000219,268.8136801000219,268.8136801000219,268.8136801000219,268.8136801000219,268.8136801000219,269.1801785000134,269.1801785000134,269.1801785000134,269.1801785000134,269.1801785000134,269.1801785000134,269.1801785000134,269.1801785000134,269.1801785000134,23,0,,,269.1801785000134,269.382320899982,1000,269.382320899982,1000,1000,1000,1000,1,num_2,0.5614106999710202,,31,9,2026-03-12_14h07.10.880,2026A_exp2,2022.2.4,59.95290100526593,
0,0,4.9,4.9,1,0,88,88,48,,,,,269.9645138999913,270.6152629998978,270.6152629998978,271.1159936999902,45,45,271.1159936999902,271.1159936999902,271.1159936999902,271.1159936999902,271.1159936999902,271.1159936999902,271.1159936999902,271.1159936999902,271.1159936999902,271.46572640002705,271.46572640002705,271.46572640002705,271.46572640002705,271.46572640002705,271.46572640002705,271.46572640002705,271.46572640002705,271.46572640002705,21,1,[0.3344525001011789],[0.3512478000484407],271.46572640002705,271.66599450004287,4.9,271.66599450004287,1,4.9,1,1,1000,num_4,0.8218872002325952,,31,9,2026-03-12_14h07.10.880,2026A_exp2,2022.2.4,59.95290100526593,
1,0,0.0,6.1,0,0,89,89,43,,,,,272.51676040003076,273.16739220009185,273.16739220009185,273.6519792000763,45,315,273.6519792000763,273.6519792000763,273.6519792000763,273.6519792000763,273.6519792000763,273.6519792000763,273.6519792000763,273.6519792000763,273.6519792000763,274.0182207999751,274.0182207999751,274.0182207999751,274.0182207999751,274.0182207999751,274.0182207999751,274.0182207999751,274.0182207999751,274.0182207999751,7,1,[0.11727609997615218],[0.3675247000064701],274.0182207999751,274.2186551000923,0.0,274.2186551000923,0,0.0,0,1,1000,num_1,0.9169747002888471,,31,9,2026-03-12_14h07.10.880,2026A_exp2,2022.2.4,59.95290100526593,
,,,,,,,,,,,,,,,,,,,,,,,,,,,,,,,,,,,,,,,,,,,,,,,,,,,,275.1614238000475,,,,,,,
