validity,detectorcomp,contrastCW,contrastCCW,precueCWorCCW,block_80trials.thisRepN,block_80trials.thisTrialN,block_80trials.thisN,block_80trials.thisIndex,etRecord.started,etRecord.stopped,text.started,text.stopped,text_4.started,text_4.stopped,text_6.started,text_6.stopped,oriCW,oriCCW,roi_2.started,grating_UR.started,grating_UL.started,grating_LR.started,grating_LL.started,noise_UR.started,noise_UL.started,noise_LR.started,noise_LL.started,roi_2.stopped,grating_UR.stopped,grating_UL.stopped,grating_LR.stopped,grating_LL.stopped,noise_UR.stopped,noise_UL.stopped,noise_LR.stopped,noise_LL.stopped,outframe,roi_2.numLooks,roi_2.timesOn,roi_2.timesOff,text_2.started,text_2.stopped,probedcontrast,key_resp.started,respdetect,relevantContrast,correctDetect,TorFdetect,respCWorCCW,key_resp.keys,key_resp.rt,feedback_display_.started,participantNo,blockNo,date,expName,psychopyVersion,frameRate,
1000,1,0.0,0.0,1,0,0,0,12,4.140002420172095e-05,4.140002420172095e-05,49.73170890001347,51.733749000006355,51.733749000006355,52.36787280003773,52.36787280003773,52.88664109999081,315,315,52.88664109999081,52.88664109999081,52.88664109999081,52.88664109999081,52.88664109999081,52.88664109999081,52.88664109999081,52.88664109999081,52.88664109999081,53.23522149998462,53.23522149998462,53.23522149998462,53.23522149998462,53.23522149998462,53.23522149998462,53.23522149998462,53.23522149998462,53.23522149998462,20,2,"[0.23442280001472682, 0.3344797000172548]","[0.2511262000189163, 0.3678347999812104]",53.23522149998462,53.44001240003854,1000,53.44001240003854,1000,1000,1000,1000,1,num_2,0.659569300012663,,25,10,2026-03-04_18h06.32.165,2026A_exp2,2022.2.4,59.729271116388375,
1,0,3.7,6.1,0,0,1,1,55,,,,,54.11989790003281,54.77055790001759,54.77055790001759,55.271550700010266,315,45,55.271550700010266,55.271550700010266,55.271550700010266,55.271550700010266,55.271550700010266,55.271550700010266,55.271550700010266,55.271550700010266,55.271550700010266,55.62127529998543,55.62127529998543,55.62127529998543,55.62127529998543,55.62127529998543,55.62127529998543,55.62127529998543,55.62127529998543,55.62127529998543,22,0,,,55.62127529998543,55.82148710003821,3.7,55.838260199991055,1,3.7,1,1,1000,num_4,0.5658749000285752,,25,10,2026-03-04_18h06.32.165,2026A_exp2,2022.2.4,59.729271116388375,
1000,1,6.1,0.0,0,0,2,2,14,,,,,56.4221089000348,57.07272360002389,57.07272360002389,57.55710859998362,315,45,57.55710859998362,57.55710859998362,57.55710859998362,57.55710859998362,57.55710859998362,57.55710859998362,57.55710859998362,57.55710859998362,57.55710859998362,57.92360560002271,57.92360560002271,57.92360560002271,57.92360560002271,57.92360560002271,57.92360560002271,57.92360560002271,57.92360560002271,57.92360560002271,23,0,,,57.92360560002271,58.125422000011895,1000,58.125422000011895,1000,1000,1000,1000,0,num_3,0.34988870000233874,,25,10,2026-03-04_18h06.32.165,2026A_exp2,2022.2.4,59.729271116388375,
1000,1,0.0,0.0,1,0,3,3,33,,,,,58.49100790004013,59.141458099999,59.141458099999,59.642664599989075,315,45,59.642664599989075,59.642664599989075,59.642664599989075,59.642664599989075,59.642664599989075,59.642664599989075,59.642664599989075,59.642664599989075,59.642664599989075,60.0091007000301,60.0091007000301,60.0091007000301,60.0091007000301,60.0091007000301,60.0091007000301,60.0091007000301,60.0091007000301,60.0091007000301,23,0,,,60.0091007000301,60.23207030002959,1000,60.23207030002959,1000,1000,1000,1000,1,num_2,0.22748840000713244,,25,10,2026-03-04_18h06.32.165,2026A_exp2,2022.2.4,59.729271116388375,
1000,1,0.0,0.0,0,0,4,4,15,,,,,60.476150100003,61.12685330002569,61.12685330002569,61.62784989998909,45,315,61.62784989998909,61.62784989998909,61.62784989998909,61.62784989998909,61.62784989998909,61.62784989998909,61.62784989998909,61.62784989998909,61.62784989998909,61.99432930001058,61.99432930001058,61.99432930001058,61.99432930001058,61.99432930001058,61.99432930001058,61.99432930001058,61.99432930001058,61.99432930001058,23,0,,,61.99432930001058,62.19655500003137,1000,62.19655500003137,1000,1000,1000,1000,0,num_3,0.20800669997697696,,25,10,2026-03-04_18h06.32.165,2026A_exp2,2022.2.4,59.729271116388375,
1000,1,6.1,0.0,1,0,5,5,30,,,,,62.42818360001547,63.07884329999797,63.07884329999797,63.57994999998482,45,45,63.57994999998482,63.57994999998482,63.57994999998482,63.57994999998482,63.57994999998482,63.57994999998482,63.57994999998482,63.57994999998482,63.57994999998482,63.92954350000946,63.92954350000946,63.92954350000946,63.92954350000946,63.92954350000946,63.92954350000946,63.92954350000946,63.92954350000946,63.92954350000946,22,0,,,63.92954350000946,64.13106139999582,1000,64.14656700001797,1000,1000,1000,1000,1,num_2,0.07388240000000224,,25,10,2026-03-04_18h06.32.165,2026A_exp2,2022.2.4,59.729271116388375,
1,0,6.1,4.9,0,0,6,6,24,,,,,64.24650489998749,64.89730320003582,64.89730320003582,65.39834529999644,45,45,65.39834529999644,65.39834529999644,65.39834529999644,65.39834529999644,65.39834529999644,65.39834529999644,65.39834529999644,65.39834529999644,65.39834529999644,65.7479470000253,65.7479470000253,65.7479470000253,65.7479470000253,65.7479470000253,65.7479470000253,65.7479470000253,65.7479470000253,65.7479470000253,6,2,"[0.050166600034572184, 0.13364050001837313]","[0.08352530002593994, 0.3507041000411846]",65.7479470000253,65.95432050002273,6.1,65.95432050002273,1,6.1,1,1,1000,num_4,0.5539526999928057,,25,10,2026-03-04_18h06.32.165,2026A_exp2,2022.2.4,59.729271116388375,
1000,1,0.0,0.0,0,0,7,7,64,,,,,66.53209200000856,67.1827415000298,67.1827415000298,67.68401940003969,45,45,67.68401940003969,67.68401940003969,67.68401940003969,67.68401940003969,67.68401940003969,67.68401940003969,67.68401940003969,67.68401940003969,67.68401940003969,68.0337894000113,68.0337894000113,68.0337894000113,68.0337894000113,68.0337894000113,68.0337894000113,68.0337894000113,68.0337894000113,68.0337894000113,22,0,,,68.0337894000113,68.23408900003415,1000,68.25082270003622,1000,1000,1000,1000,0,num_3,0.35331330000190064,,25,10,2026-03-04_18h06.32.165,2026A_exp2,2022.2.4,59.729271116388375,
1,0,3.7,0.0,0,0,8,8,3,,,,,68.63418330001878,69.28504350001458,69.28504350001458,69.78614909999305,315,45,69.78614909999305,69.78614909999305,69.78614909999305,69.78614909999305,69.78614909999305,69.78614909999305,69.78614909999305,69.78614909999305,69.78614909999305,70.13583290000679,70.13583290000679,70.13583290000679,70.13583290000679,70.13583290000679,70.13583290000679,70.13583290000679,70.13583290000679,70.13583290000679,22,0,,,70.13583290000679,70.33603960002074,3.7,70.35256309999386,1,3.7,1,1,1000,num_4,0.4911582000204362,,25,10,2026-03-04_18h06.32.165,2026A_exp2,2022.2.4,59.729271116388375,
1000,1,4.9,0.0,1,0,9,9,22,,,,,70.86976840003626,71.52039429999422,71.52039429999422,72.00506789999781,315,45,72.00506789999781,72.00506789999781,72.00506789999781,72.00506789999781,72.00506789999781,72.00506789999781,72.00506789999781,72.00506789999781,72.00506789999781,72.37138460000278,72.37138460000278,72.37138460000278,72.37138460000278,72.37138460000278,72.37138460000278,72.37138460000278,72.37138460000278,72.37138460000278,23,0,,,72.37138460000278,72.5751798999845,1000,72.5751798999845,1000,1000,1000,1000,1,num_2,0.2609031000174582,,25,10,2026-03-04_18h06.32.165,2026A_exp2,2022.2.4,59.729271116388375,
1000,1,4.9,0.0,1,0,10,10,5,,,,,72.85506780003197,73.50573989999248,73.50573989999248,74.00676660001045,45,315,74.00676660001045,74.00676660001045,74.00676660001045,74.00676660001045,74.00676660001045,74.00676660001045,74.00676660001045,74.00676660001045,74.00676660001045,74.37325020000571,74.37325020000571,74.37325020000571,74.37325020000571,74.37325020000571,74.37325020000571,74.37325020000571,74.37325020000571,74.37325020000571,23,0,,,74.37325020000571,74.5759949000203,1000,74.5759949000203,1000,1000,1000,1000,1,num_2,0.27552969998214394,,25,10,2026-03-04_18h06.32.165,2026A_exp2,2022.2.4,59.729271116388375,
1,0,0.0,0.0,1,0,11,11,73,,,,,74.87367070000619,75.5245763999992,75.5245763999992,76.02572259999579,45,45,76.02572259999579,76.02572259999579,76.02572259999579,76.02572259999579,76.02572259999579,76.02572259999579,76.02572259999579,76.02572259999579,76.02572259999579,76.39213799999561,76.39213799999561,76.39213799999561,76.39213799999561,76.39213799999561,76.39213799999561,76.39213799999561,76.39213799999561,76.39213799999561,23,0,,,76.39213799999561,76.59228089998942,0.0,76.59228089998942,1,0.0,0,0,1000,num_4,0.4923525000340305,,25,10,2026-03-04_18h06.32.165,2026A_exp2,2022.2.4,59.729271116388375,
1000,1,3.7,0.0,0,0,12,12,45,,,,,77.10929510003189,77.76008300000103,77.76008300000103,78.24476630002027,45,45,78.24476630002027,78.24476630002027,78.24476630002027,78.24476630002027,78.24476630002027,78.24476630002027,78.24476630002027,78.24476630002027,78.24476630002027,78.61102589999791,78.61102589999791,78.61102589999791,78.61102589999791,78.61102589999791,78.61102589999791,78.61102589999791,78.61102589999791,78.61102589999791,23,0,,,78.61102589999791,78.81284810003126,1000,78.81284810003126,1000,1000,1000,1000,0,num_3,0.111479600018356,,25,10,2026-03-04_18h06.32.165,2026A_exp2,2022.2.4,59.729271116388375,
1000,1,6.1,6.1,1,0,13,13,77,,,,,78.94447839999339,79.59533000004012,79.59533000004012,80.0965995999868,45,45,80.0965995999868,80.0965995999868,80.0965995999868,80.0965995999868,80.0965995999868,80.0965995999868,80.0965995999868,80.0965995999868,80.0965995999868,80.46272439998575,80.46272439998575,80.46272439998575,80.46272439998575,80.46272439998575,80.46272439998575,80.46272439998575,80.46272439998575,80.46272439998575,19,1,[0.0006689000292681158],[0.06699730001855642],80.46272439998575,80.66489620000357,1000,80.66489620000357,1000,1000,1000,1000,1,num_2,0.6671657999977469,,25,10,2026-03-04_18h06.32.165,2026A_exp2,2022.2.4,59.729271116388375,
0,0,4.9,0.0,1,0,14,14,25,,,,,81.34684910002397,81.99774500000058,81.99774500000058,82.49865439999849,45,45,82.49865439999849,82.49865439999849,82.49865439999849,82.49865439999849,82.49865439999849,82.49865439999849,82.49865439999849,82.49865439999849,82.49865439999849,82.86507659999188,82.86507659999188,82.86507659999188,82.86507659999188,82.86507659999188,82.86507659999188,82.86507659999188,82.86507659999188,82.86507659999188,0,1,[0.0012906999909318984],[0.3674834000412375],82.86507659999188,83.06537950003985,4.9,83.06537950003985,1,4.9,1,1,1000,num_4,0.44225089997053146,,25,10,2026-03-04_18h06.32.165,2026A_exp2,2022.2.4,59.729271116388375,
1,0,0.0,6.1,1,0,15,15,40,,,,,83.53234070003964,84.18319120001979,84.18319120001979,84.66768930002581,315,315,84.66768930002581,84.66768930002581,84.66768930002581,84.66768930002581,84.66768930002581,84.66768930002581,84.66768930002581,84.66768930002581,84.66768930002581,85.03410900000017,85.03410900000017,85.03410900000017,85.03410900000017,85.03410900000017,85.03410900000017,85.03410900000017,85.03410900000017,85.03410900000017,16,2,"[0.0836661999928765, 0.3341342000057921]","[0.15066169999772683, 0.3675857000052929]",85.03410900000017,85.23411349998787,6.1,85.23411349998787,1,6.1,1,1,1000,num_4,0.46578510000836104,,25,10,2026-03-04_18h06.32.165,2026A_exp2,2022.2.4,59.729271116388375,
1000,1,0.0,0.0,0,0,16,16,74,,,,,85.7179288000334,86.36874589999206,86.36874589999206,86.85305530001642,315,45,86.85305530001642,86.85305530001642,86.85305530001642,86.85305530001642,86.85305530001642,86.85305530001642,86.85305530001642,86.85305530001642,86.85305530001642,87.21960980002768,87.21960980002768,87.21960980002768,87.21960980002768,87.21960980002768,87.21960980002768,87.21960980002768,87.21960980002768,87.21960980002768,23,0,,,87.21960980002768,87.42132150003454,1000,87.42132150003454,1000,1000,1000,1000,0,num_3,0.14341160003095865,,25,10,2026-03-04_18h06.32.165,2026A_exp2,2022.2.4,59.729271116388375,
1000,1,0.0,0.0,1,0,17,17,27,,,,,87.58645070000784,88.23734009999316,88.23734009999316,88.73826040001586,315,315,88.73826040001586,88.73826040001586,88.73826040001586,88.73826040001586,88.73826040001586,88.73826040001586,88.73826040001586,88.73826040001586,88.73826040001586,89.10484789998736,89.10484789998736,89.10484789998736,89.10484789998736,89.10484789998736,89.10484789998736,89.10484789998736,89.10484789998736,89.10484789998736,23,0,,,89.10484789998736,89.30656880000606,1000,89.30656880000606,1000,1000,1000,1000,1,num_2,0.3529815999791026,,25,10,2026-03-04_18h06.32.165,2026A_exp2,2022.2.4,59.729271116388375,
1000,1,6.1,0.0,1,0,18,18,16,,,,,89.68859370000428,90.33935439999914,90.33935439999914,90.84038469998632,315,45,90.84038469998632,90.84038469998632,90.84038469998632,90.84038469998632,90.84038469998632,90.84038469998632,90.84038469998632,90.84038469998632,90.84038469998632,91.20672290003859,91.20672290003859,91.20672290003859,91.20672290003859,91.20672290003859,91.20672290003859,91.20672290003859,91.20672290003859,91.20672290003859,23,0,,,91.20672290003859,91.40879090002272,1000,91.40879090002272,1000,1000,1000,1000,1,num_2,0.26674869999988005,,25,10,2026-03-04_18h06.32.165,2026A_exp2,2022.2.4,59.729271116388375,
1,0,0.0,6.1,1,0,19,19,36,,,,,91.69062730000587,92.34142579999752,92.34142579999752,92.84597840002971,45,315,92.84597840002971,92.84597840002971,92.84597840002971,92.84597840002971,92.84597840002971,92.84597840002971,92.84597840002971,92.84597840002971,92.84597840002971,93.2090444000205,93.2090444000205,93.2090444000205,93.2090444000205,93.2090444000205,93.2090444000205,93.2090444000205,93.2090444000205,93.2090444000205,23,0,,,93.2090444000205,93.41166590002831,6.1,93.41166590002831,1,6.1,1,1,1000,num_4,0.8002053999807686,,25,10,2026-03-04_18h06.32.165,2026A_exp2,2022.2.4,59.729271116388375,
1000,1,0.0,0.0,0,0,20,20,18,,,,,94.24307100003352,94.89400219998788,94.89400219998788,95.37835479999194,45,315,95.37835479999194,95.37835479999194,95.37835479999194,95.37835479999194,95.37835479999194,95.37835479999194,95.37835479999194,95.37835479999194,95.37835479999194,95.74470809998456,95.74470809998456,95.74470809998456,95.74470809998456,95.74470809998456,95.74470809998456,95.74470809998456,95.74470809998456,95.74470809998456,23,0,,,95.74470809998456,95.9465381000191,1000,95.9465381000191,1000,1000,1000,1000,0,num_3,0.050407700007781386,,25,10,2026-03-04_18h06.32.165,2026A_exp2,2022.2.4,59.729271116388375,
1000,1,3.7,6.1,0,0,21,21,0,,,,,96.02832730003865,96.67902410001261,96.67902410001261,97.18012149998685,315,315,97.18012149998685,97.18012149998685,97.18012149998685,97.18012149998685,97.18012149998685,97.18012149998685,97.18012149998685,97.18012149998685,97.18012149998685,97.52990339999087,97.52990339999087,97.52990339999087,97.52990339999087,97.52990339999087,97.52990339999087,97.52990339999087,97.52990339999087,97.52990339999087,4,1,[0.06694380001863465],[0.35097099997801706],97.52990339999087,97.73148369998671,1000,97.74674370000139,1000,1000,1000,1000,0,num_3,0.17804610001621768,,25,10,2026-03-04_18h06.32.165,2026A_exp2,2022.2.4,59.729271116388375,
1000,1,6.1,0.0,1,0,22,22,68,,,,,97.94677969999611,98.59769010002492,98.59769010002492,99.09881100000348,315,315,99.09881100000348,99.09881100000348,99.09881100000348,99.09881100000348,99.09881100000348,99.09881100000348,99.09881100000348,99.09881100000348,99.09881100000348,99.44845480000367,99.44845480000367,99.44845480000367,99.44845480000367,99.44845480000367,99.44845480000367,99.44845480000367,99.44845480000367,99.44845480000367,21,1,[0.08348949998617172],[0.10028670000610873],99.44845480000367,99.6505896000308,1000,99.6505896000308,1000,1000,1000,1000,1,num_2,0.12211749999551103,,25,10,2026-03-04_18h06.32.165,2026A_exp2,2022.2.4,59.729271116388375,
0,0,0.0,0.0,1,0,23,23,89,,,,,99.79871290002484,100.44937990000471,100.44937990000471,100.95073010004126,315,45,100.95073010004126,100.95073010004126,100.95073010004126,100.95073010004126,100.95073010004126,100.95073010004126,100.95073010004126,100.95073010004126,100.95073010004126,101.31702379998751,101.31702379998751,101.31702379998751,101.31702379998751,101.31702379998751,101.31702379998751,101.31702379998751,101.31702379998751,101.31702379998751,23,0,,,101.31702379998751,101.51723310002126,0.0,101.51723310002126,0,0.0,0,1,1000,num_1,1.4625136000104249,,25,10,2026-03-04_18h06.32.165,2026A_exp2,2022.2.4,59.729271116388375,
1000,1,4.9,0.0,1,0,24,24,72,,,,,103.00178980000783,103.65255120000802,103.65255120000802,104.1371731000254,315,45,104.1371731000254,104.1371731000254,104.1371731000254,104.1371731000254,104.1371731000254,104.1371731000254,104.1371731000254,104.1371731000254,104.1371731000254,104.50358379998943,104.50358379998943,104.50358379998943,104.50358379998943,104.50358379998943,104.50358379998943,104.50358379998943,104.50358379998943,104.50358379998943,23,0,,,104.50358379998943,104.70562000002246,1000,104.70562000002246,1000,1000,1000,1000,1,num_2,0.12225469999248162,,25,10,2026-03-04_18h06.32.165,2026A_exp2,2022.2.4,59.729271116388375,
1000,1,3.7,0.0,0,0,25,25,2,,,,,104.85376379999798,105.50443939998513,105.50443939998513,106.00564460002352,315,315,106.00564460002352,106.00564460002352,106.00564460002352,106.00564460002352,106.00564460002352,106.00564460002352,106.00564460002352,106.00564460002352,106.00564460002352,106.35523049999028,106.35523049999028,106.35523049999028,106.35523049999028,106.35523049999028,106.35523049999028,106.35523049999028,106.35523049999028,106.35523049999028,20,2,"[0.017295800033025444, 0.08342350000748411]","[0.033449499984271824, 0.1002403000020422]",106.35523049999028,106.55799950001528,1000,106.5721910999855,1000,1000,1000,1000,0,num_3,0.05638720002025366,,25,10,2026-03-04_18h06.32.165,2026A_exp2,2022.2.4,59.729271116388375,
1000,1,6.1,0.0,1,0,26,26,69,,,,,106.65586300002178,107.3062797000166,107.3062797000166,107.79079940001247,315,315,107.79079940001247,107.79079940001247,107.79079940001247,107.79079940001247,107.79079940001247,107.79079940001247,107.79079940001247,107.79079940001247,107.79079940001247,108.15720210003201,108.15720210003201,108.15720210003201,108.15720210003201,108.15720210003201,108.15720210003201,108.15720210003201,108.15720210003201,108.15720210003201,23,0,,,108.15720210003201,108.3593586999923,1000,108.3593586999923,1000,1000,1000,1000,1,num_2,0.14805830002296716,,25,10,2026-03-04_18h06.32.165,2026A_exp2,2022.2.4,59.729271116388375,
1000,1,0.0,6.1,0,0,27,27,9,,,,,108.52414910000516,109.17483159998665,109.17483159998665,109.67604109999957,315,45,109.67604109999957,109.67604109999957,109.67604109999957,109.67604109999957,109.67604109999957,109.67604109999957,109.67604109999957,109.67604109999957,109.67604109999957,110.02593180001713,110.02593180001713,110.02593180001713,110.02593180001713,110.02593180001713,110.02593180001713,110.02593180001713,110.02593180001713,110.02593180001713,22,0,,,110.02593180001713,110.22572839999339,1000,110.24219489999814,1000,1000,1000,1000,0,num_3,0.07386369997402653,,25,10,2026-03-04_18h06.32.165,2026A_exp2,2022.2.4,59.729271116388375,
1,0,0.0,3.7,0,0,28,28,35,,,,,110.34296290000202,110.9933783999877,110.9933783999877,111.47784100001445,315,315,111.47784100001445,111.47784100001445,111.47784100001445,111.47784100001445,111.47784100001445,111.47784100001445,111.47784100001445,111.47784100001445,111.47784100001445,111.84423709998373,111.84423709998373,111.84423709998373,111.84423709998373,111.84423709998373,111.84423709998373,111.84423709998373,111.84423709998373,111.84423709998373,23,0,,,111.84423709998373,112.04427449998911,0.0,112.04427449998911,0,0.0,0,1,1000,num_1,0.5512948000105098,,25,10,2026-03-04_18h06.32.165,2026A_exp2,2022.2.4,59.729271116388375,
1,0,0.0,3.7,0,0,29,29,61,,,,,112.6114447999862,113.26225979998708,113.26225979998708,113.74662660004105,45,45,113.74662660004105,113.74662660004105,113.74662660004105,113.74662660004105,113.74662660004105,113.74662660004105,113.74662660004105,113.74662660004105,113.74662660004105,114.11317810002947,114.11317810002947,114.11317810002947,114.11317810002947,114.11317810002947,114.11317810002947,114.11317810002947,114.11317810002947,114.11317810002947,23,0,,,114.11317810002947,114.31337049999274,0.0,114.31337049999274,1,0.0,0,0,1000,num_4,0.5785979999927804,,25,10,2026-03-04_18h06.32.165,2026A_exp2,2022.2.4,59.729271116388375,
1000,1,3.7,6.1,0,0,30,30,84,,,,,114.91368880000664,115.56463490001624,115.56463490001624,116.04890039999736,315,315,116.04890039999736,116.04890039999736,116.04890039999736,116.04890039999736,116.04890039999736,116.04890039999736,116.04890039999736,116.04890039999736,116.04890039999736,116.41542169998866,116.41542169998866,116.41542169998866,116.41542169998866,116.41542169998866,116.41542169998866,116.41542169998866,116.41542169998866,116.41542169998866,0,1,[0.001201900013256818],[0.3672034000046551],116.41542169998866,116.61760230001528,1000,116.61760230001528,1000,1000,1000,1000,0,num_3,0.418329999956768,,25,10,2026-03-04_18h06.32.165,2026A_exp2,2022.2.4,59.729271116388375,
1000,1,0.0,3.7,1,0,31,31,47,,,,,117.06605060002767,117.71670490002725,117.71670490002725,118.21774520003237,45,315,118.21774520003237,118.21774520003237,118.21774520003237,118.21774520003237,118.21774520003237,118.21774520003237,118.21774520003237,118.21774520003237,118.21774520003237,118.58432110003196,118.58432110003196,118.58432110003196,118.58432110003196,118.58432110003196,118.58432110003196,118.58432110003196,118.58432110003196,118.58432110003196,23,0,,,118.58432110003196,118.78680529998383,1000,118.78680529998383,1000,1000,1000,1000,1,num_2,0.3205978000187315,,25,10,2026-03-04_18h06.32.165,2026A_exp2,2022.2.4,59.729271116388375,
1,0,0.0,4.9,1,0,32,32,53,,,,,119.1347126000328,119.78552500001388,119.78552500001388,120.28664300002856,315,45,120.28664300002856,120.28664300002856,120.28664300002856,120.28664300002856,120.28664300002856,120.28664300002856,120.28664300002856,120.28664300002856,120.28664300002856,120.63626510003814,120.63626510003814,120.63626510003814,120.63626510003814,120.63626510003814,120.63626510003814,120.63626510003814,120.63626510003814,120.63626510003814,22,0,,,120.63626510003814,120.83656419999897,4.9,120.85326190001797,1,4.9,1,1,1000,num_4,0.7991783999605104,,25,10,2026-03-04_18h06.32.165,2026A_exp2,2022.2.4,59.729271116388375,
1000,1,4.9,0.0,0,0,33,33,26,,,,,121.67059090000112,122.32135330000892,122.32135330000892,122.80577770003583,315,45,122.80577770003583,122.80577770003583,122.80577770003583,122.80577770003583,122.80577770003583,122.80577770003583,122.80577770003583,122.80577770003583,122.80577770003583,123.17189510003664,123.17189510003664,123.17189510003664,123.17189510003664,123.17189510003664,123.17189510003664,123.17189510003664,123.17189510003664,123.17189510003664,23,0,,,123.17189510003664,123.37411730003078,1000,123.37411730003078,1000,1000,1000,1000,0,num_3,0.021909000002779067,,25,10,2026-03-04_18h06.32.165,2026A_exp2,2022.2.4,59.729271116388375,
1,0,3.7,0.0,1,0,34,34,50,,,,,123.42234940000344,124.07311860000482,124.07311860000482,124.57413730002008,315,45,124.57413730002008,124.57413730002008,124.57413730002008,124.57413730002008,124.57413730002008,124.57413730002008,124.57413730002008,124.57413730002008,124.57413730002008,124.94058910000604,124.94058910000604,124.94058910000604,124.94058910000604,124.94058910000604,124.94058910000604,124.94058910000604,124.94058910000604,124.94058910000604,23,0,,,124.94058910000604,125.14085970004089,0.0,125.14085970004089,1,0.0,0,0,1000,num_4,0.5191926999832503,,25,10,2026-03-04_18h06.32.165,2026A_exp2,2022.2.4,59.729271116388375,
1,0,6.1,0.0,0,0,35,35,56,,,,,125.69119119999232,126.34202700003516,126.34202700003516,126.82650830002967,315,45,126.82650830002967,126.82650830002967,126.82650830002967,126.82650830002967,126.82650830002967,126.82650830002967,126.82650830002967,126.82650830002967,126.82650830002967,127.19267200003378,127.19267200003378,127.19267200003378,127.19267200003378,127.19267200003378,127.19267200003378,127.19267200003378,127.19267200003378,127.19267200003378,23,0,,,127.19267200003378,127.39316690003034,6.1,127.39316690003034,0,6.1,1,0,1000,num_1,0.5869988999911584,,25,10,2026-03-04_18h06.32.165,2026A_exp2,2022.2.4,59.729271116388375,
1000,1,6.1,0.0,0,0,36,36,82,,,,,128.010124500026,128.66105460003018,128.66105460003018,129.1453540000366,45,315,129.1453540000366,129.1453540000366,129.1453540000366,129.1453540000366,129.1453540000366,129.1453540000366,129.1453540000366,129.1453540000366,129.1453540000366,129.51181510003516,129.51181510003516,129.51181510003516,129.51181510003516,129.51181510003516,129.51181510003516,129.51181510003516,129.51181510003516,129.51181510003516,22,1,[0.050200400000903755],[0.06708990002516657],129.51181510003516,129.7139902000199,1000,129.7139902000199,1000,1000,1000,1000,0,num_3,0.36235380003927276,,25,10,2026-03-04_18h06.32.165,2026A_exp2,2022.2.4,59.729271116388375,
1000,1,0.0,0.0,0,0,37,37,85,,,,,130.0958408000297,130.7463714000187,130.7463714000187,131.23081460001413,45,315,131.23081460001413,131.23081460001413,131.23081460001413,131.23081460001413,131.23081460001413,131.23081460001413,131.23081460001413,131.23081460001413,131.23081460001413,131.59742280002683,131.59742280002683,131.59742280002683,131.59742280002683,131.59742280002683,131.59742280002683,131.59742280002683,131.59742280002683,131.59742280002683,18,1,[0.18497800000477582],[0.2684137999895029],131.59742280002683,131.81357790000038,1000,131.81357790000038,1000,1000,1000,1000,0,num_3,0.22241619997657835,,25,10,2026-03-04_18h06.32.165,2026A_exp2,2022.2.4,59.729271116388375,
1000,1,0.0,4.9,1,0,38,38,79,,,,,132.06485429999884,132.71501960000023,132.71501960000023,133.2161417999887,45,45,133.2161417999887,133.2161417999887,133.2161417999887,133.2161417999887,133.2161417999887,133.2161417999887,133.2161417999887,133.2161417999887,133.2161417999887,133.56593710003654,133.56593710003654,133.56593710003654,133.56593710003654,133.56593710003654,133.56593710003654,133.56593710003654,133.56593710003654,133.56593710003654,22,0,,,133.56593710003654,133.76780249999138,1000,133.78288469999097,1000,1000,1000,1000,1,num_2,0.6290546000236645,,25,10,2026-03-04_18h06.32.165,2026A_exp2,2022.2.4,59.729271116388375,
1000,1,0.0,3.7,0,0,39,39,51,,,,,134.4333516000188,135.08397830004105,135.08397830004105,135.58497299999,315,45,135.58497299999,135.58497299999,135.58497299999,135.58497299999,135.58497299999,135.58497299999,135.58497299999,135.58497299999,135.58497299999,135.95143150002696,135.95143150002696,135.95143150002696,135.95143150002696,135.95143150002696,135.95143150002696,135.95143150002696,135.95143150002696,135.95143150002696,23,0,,,135.95143150002696,136.1531890000333,1000,136.1531890000333,1000,1000,1000,1000,0,num_3,0.06650570000056177,,25,10,2026-03-04_18h06.32.165,2026A_exp2,2022.2.4,59.729271116388375,
1,0,4.9,0.0,1,0,40,40,8,,,,,136.23516580002615,136.885920300032,136.885920300032,137.38686170004075,315,45,137.38686170004075,137.38686170004075,137.38686170004075,137.38686170004075,137.38686170004075,137.38686170004075,137.38686170004075,137.38686170004075,137.38686170004075,137.7534977000323,137.7534977000323,137.7534977000323,137.7534977000323,137.7534977000323,137.7534977000323,137.7534977000323,137.7534977000323,137.7534977000323,23,0,,,137.7534977000323,137.9536179000279,0.0,137.9536179000279,1,0.0,0,0,1000,num_4,0.6016616999986582,,25,10,2026-03-04_18h06.32.165,2026A_exp2,2022.2.4,59.729271116388375,
1000,1,0.0,0.0,0,0,41,41,17,,,,,138.57070460001705,139.22148960002232,139.22148960002232,139.7227367000305,315,315,139.7227367000305,139.7227367000305,139.7227367000305,139.7227367000305,139.7227367000305,139.7227367000305,139.7227367000305,139.7227367000305,139.7227367000305,140.07244890002767,140.07244890002767,140.07244890002767,140.07244890002767,140.07244890002767,140.07244890002767,140.07244890002767,140.07244890002767,140.07244890002767,6,4,"[0.017413800000213087, 0.1002969000255689, 0.15026630001375452, 0.21706710004946217]","[0.0668318000389263, 0.1168778000283055, 0.20038880000356585, 0.35050960001535714]",140.07244890002767,140.27459909999743,1000,140.28950449998956,1000,1000,1000,1000,0,num_3,0.23461859999224544,,25,10,2026-03-04_18h06.32.165,2026A_exp2,2022.2.4,59.729271116388375,
1000,1,3.7,4.9,1,0,42,42,44,,,,,140.53987869998673,141.1903794000391,141.1903794000391,141.67462539998814,315,45,141.67462539998814,141.67462539998814,141.67462539998814,141.67462539998814,141.67462539998814,141.67462539998814,141.67462539998814,141.67462539998814,141.67462539998814,142.0408630000311,142.0408630000311,142.0408630000311,142.0408630000311,142.0408630000311,142.0408630000311,142.0408630000311,142.0408630000311,142.0408630000311,23,0,,,142.0408630000311,142.24336800002493,1000,142.24336800002493,1000,1000,1000,1000,1,num_2,0.23254090000409633,,25,10,2026-03-04_18h06.32.165,2026A_exp2,2022.2.4,59.729271116388375,
1,0,0.0,3.7,1,0,43,43,41,,,,,142.49135940003907,143.14220190001652,143.14220190001652,143.6431657000212,315,45,143.6431657000212,143.6431657000212,143.6431657000212,143.6431657000212,143.6431657000212,143.6431657000212,143.6431657000212,143.6431657000212,143.6431657000212,143.99296300002607,143.99296300002607,143.99296300002607,143.99296300002607,143.99296300002607,143.99296300002607,143.99296300002607,143.99296300002607,143.99296300002607,22,0,,,143.99296300002607,144.19307829998434,3.7,144.19307829998434,1,3.7,1,1,1000,num_4,0.4822384999715723,,25,10,2026-03-04_18h06.32.165,2026A_exp2,2022.2.4,59.729271116388375,
1000,1,0.0,3.7,0,0,44,44,78,,,,,144.6936706000124,145.34427850000793,145.34427850000793,145.82887890003622,315,45,145.82887890003622,145.82887890003622,145.82887890003622,145.82887890003622,145.82887890003622,145.82887890003622,145.82887890003622,145.82887890003622,145.82887890003622,146.19513980002375,146.19513980002375,146.19513980002375,146.19513980002375,146.19513980002375,146.19513980002375,146.19513980002375,146.19513980002375,146.19513980002375,0,1,[0.0012305999989621341],[0.3670730000012554],146.19513980002375,146.39717910002219,1000,146.39717910002219,1000,1000,1000,1000,0,num_3,0.21454820001963526,,25,10,2026-03-04_18h06.32.165,2026A_exp2,2022.2.4,59.729271116388375,
1,0,6.1,0.0,0,0,45,45,70,,,,,146.62870330002625,147.2630370000261,147.2630370000261,147.76403000002028,315,45,147.76403000002028,147.76403000002028,147.76403000002028,147.76403000002028,147.76403000002028,147.76403000002028,147.76403000002028,147.76403000002028,147.76403000002028,148.1304577999981,148.1304577999981,148.1304577999981,148.1304577999981,148.1304577999981,148.1304577999981,148.1304577999981,148.1304577999981,148.1304577999981,23,0,,,148.1304577999981,148.33063710003626,6.1,148.33063710003626,1,6.1,1,1,1000,num_4,0.6089672999805771,,25,10,2026-03-04_18h06.32.165,2026A_exp2,2022.2.4,59.729271116388375,
1,0,4.9,0.0,1,0,46,46,38,,,,,148.96451319998596,149.6153606000007,149.6153606000007,150.0998011000338,45,315,150.0998011000338,150.0998011000338,150.0998011000338,150.0998011000338,150.0998011000338,150.0998011000338,150.0998011000338,150.0998011000338,150.0998011000338,150.46605260000797,150.46605260000797,150.46605260000797,150.46605260000797,150.46605260000797,150.46605260000797,150.46605260000797,150.46605260000797,150.46605260000797,23,0,,,150.46605260000797,150.66630560002523,0.0,150.66630560002523,1,0.0,0,0,1000,num_4,0.5292775999987498,,25,10,2026-03-04_18h06.32.165,2026A_exp2,2022.2.4,59.729271116388375,
1,0,6.1,4.9,0,0,47,47,39,,,,,151.21659020002699,151.86744250002084,151.86744250002084,152.35200630000327,45,315,152.35200630000327,152.35200630000327,152.35200630000327,152.35200630000327,152.35200630000327,152.35200630000327,152.35200630000327,152.35200630000327,152.35200630000327,152.71830489998683,152.71830489998683,152.71830489998683,152.71830489998683,152.71830489998683,152.71830489998683,152.71830489998683,152.71830489998683,152.71830489998683,23,0,,,152.71830489998683,152.91861340001924,6.1,152.91861340001924,1,6.1,1,1,1000,num_4,0.468654099968262,,25,10,2026-03-04_18h06.32.165,2026A_exp2,2022.2.4,59.729271116388375,
1000,1,3.7,4.9,1,0,48,48,43,,,,,153.4189708000049,154.0697793000145,154.0697793000145,154.5541349000414,45,45,154.5541349000414,154.5541349000414,154.5541349000414,154.5541349000414,154.5541349000414,154.5541349000414,154.5541349000414,154.5541349000414,154.5541349000414,154.9206423999858,154.9206423999858,154.9206423999858,154.9206423999858,154.9206423999858,154.9206423999858,154.9206423999858,154.9206423999858,154.9206423999858,23,0,,,154.9206423999858,155.1226972999866,1000,155.1226972999866,1000,1000,1000,1000,1,num_2,0.39372870000079274,,25,10,2026-03-04_18h06.32.165,2026A_exp2,2022.2.4,59.729271116388375,
1,0,3.7,0.0,1,0,49,49,19,,,,,155.53787440003362,156.1885370000382,156.1885370000382,156.6897023000056,45,315,156.6897023000056,156.6897023000056,156.6897023000056,156.6897023000056,156.6897023000056,156.6897023000056,156.6897023000056,156.6897023000056,156.6897023000056,157.05623240000568,157.05623240000568,157.05623240000568,157.05623240000568,157.05623240000568,157.05623240000568,157.05623240000568,157.05623240000568,157.05623240000568,23,0,,,157.05623240000568,157.25632680003764,0.0,157.25632680003764,1,0.0,0,0,1000,num_4,0.4990343999816105,,25,10,2026-03-04_18h06.32.165,2026A_exp2,2022.2.4,59.729271116388375,
1,0,0.0,6.1,0,0,50,50,34,,,,,157.77319099998567,158.42401040002005,158.42401040002005,158.92530970001826,315,45,158.92530970001826,158.92530970001826,158.92530970001826,158.92530970001826,158.92530970001826,158.92530970001826,158.92530970001826,158.92530970001826,158.92530970001826,159.27498230000492,159.27498230000492,159.27498230000492,159.27498230000492,159.27498230000492,159.27498230000492,159.27498230000492,159.27498230000492,159.27498230000492,22,0,,,159.27498230000492,159.47516620001988,0.0,159.47516620001988,1,0.0,0,0,1000,num_4,0.4243207999970764,,25,10,2026-03-04_18h06.32.165,2026A_exp2,2022.2.4,59.729271116388375,
1,0,3.7,0.0,0,0,51,51,42,,,,,159.92539230000693,160.57587050000438,160.57587050000438,161.0754079000326,315,315,161.0754079000326,161.0754079000326,161.0754079000326,161.0754079000326,161.0754079000326,161.0754079000326,161.0754079000326,161.0754079000326,161.0754079000326,161.42727250000462,161.42727250000462,161.42727250000462,161.42727250000462,161.42727250000462,161.42727250000462,161.42727250000462,161.42727250000462,161.42727250000462,23,0,,,161.42727250000462,161.63071619998664,3.7,161.63071619998664,1,3.7,1,1,1000,num_4,0.4049341999925673,,25,10,2026-03-04_18h06.32.165,2026A_exp2,2022.2.4,59.729271116388375,
1000,1,0.0,6.1,1,0,52,52,88,,,,,162.0610602000379,162.71221040003002,162.71221040003002,163.213420199987,315,315,163.213420199987,163.213420199987,163.213420199987,163.213420199987,163.213420199987,163.213420199987,163.213420199987,163.213420199987,163.213420199987,163.57912000000942,163.57912000000942,163.57912000000942,163.57912000000942,163.57912000000942,163.57912000000942,163.57912000000942,163.57912000000942,163.57912000000942,23,0,,,163.57912000000942,163.77968570002122,1000,163.77968570002122,1000,1000,1000,1000,1,num_2,0.47290409996639937,,25,10,2026-03-04_18h06.32.165,2026A_exp2,2022.2.4,59.729271116388375,
1,0,3.7,0.0,0,0,53,53,65,,,,,164.27978849998908,164.9306416999898,164.9306416999898,165.43167299998458,315,315,165.43167299998458,165.43167299998458,165.43167299998458,165.43167299998458,165.43167299998458,165.43167299998458,165.43167299998458,165.43167299998458,165.43167299998458,165.78151320002507,165.78151320002507,165.78151320002507,165.78151320002507,165.78151320002507,165.78151320002507,165.78151320002507,165.78151320002507,165.78151320002507,22,0,,,165.78151320002507,165.98180000000866,3.7,165.98180000000866,1,3.7,1,1,1000,num_4,0.44616480002878234,,25,10,2026-03-04_18h06.32.165,2026A_exp2,2022.2.4,59.729271116388375,
1000,1,0.0,0.0,0,0,54,54,81,,,,,166.44859220000217,167.0994179000263,167.0994179000263,167.5839963000035,45,45,167.5839963000035,167.5839963000035,167.5839963000035,167.5839963000035,167.5839963000035,167.5839963000035,167.5839963000035,167.5839963000035,167.5839963000035,167.95028270001058,167.95028270001058,167.95028270001058,167.95028270001058,167.95028270001058,167.95028270001058,167.95028270001058,167.95028270001058,167.95028270001058,23,0,,,167.95028270001058,168.15236380003626,1000,168.15236380003626,1000,1000,1000,1000,0,num_3,0.41969310003332794,,25,10,2026-03-04_18h06.32.165,2026A_exp2,2022.2.4,59.729271116388375,
1000,1,4.9,6.1,1,0,55,55,28,,,,,168.60084030003054,169.25131940003484,169.25131940003484,169.75275270000566,45,45,169.75275270000566,169.75275270000566,169.75275270000566,169.75275270000566,169.75275270000566,169.75275270000566,169.75275270000566,169.75275270000566,169.75275270000566,170.11916450003628,170.11916450003628,170.11916450003628,170.11916450003628,170.11916450003628,170.11916450003628,170.11916450003628,170.11916450003628,170.11916450003628,23,0,,,170.11916450003628,170.32138320000377,1000,170.32138320000377,1000,1000,1000,1000,1,num_2,0.6265278999926522,,25,10,2026-03-04_18h06.32.165,2026A_exp2,2022.2.4,59.729271116388375,
1000,1,4.9,3.7,0,0,56,56,32,,,,,170.96993329998804,171.62069750000956,171.62069750000956,172.1218186999904,45,45,172.1218186999904,172.1218186999904,172.1218186999904,172.1218186999904,172.1218186999904,172.1218186999904,172.1218186999904,172.1218186999904,172.1218186999904,172.4716560000088,172.4716560000088,172.4716560000088,172.4716560000088,172.4716560000088,172.4716560000088,172.4716560000088,172.4716560000088,172.4716560000088,22,0,,,172.4716560000088,172.69579570001224,1000,172.69579570001224,1000,1000,1000,1000,0,num_3,0.1799180000089109,,25,10,2026-03-04_18h06.32.165,2026A_exp2,2022.2.4,59.729271116388375,
1000,1,0.0,0.0,0,0,57,57,80,,,,,172.9051027999958,173.5559299000306,173.5559299000306,174.05744830000913,315,45,174.05744830000913,174.05744830000913,174.05744830000913,174.05744830000913,174.05744830000913,174.05744830000913,174.05744830000913,174.05744830000913,174.05744830000913,174.42327120003756,174.42327120003756,174.42327120003756,174.42327120003756,174.42327120003756,174.42327120003756,174.42327120003756,174.42327120003756,174.42327120003756,23,0,,,174.42327120003756,174.6254942000378,1000,174.6254942000378,1000,1000,1000,1000,0,num_3,0.2837011000374332,,25,10,2026-03-04_18h06.32.165,2026A_exp2,2022.2.4,59.729271116388375,
1,0,0.0,6.1,0,0,58,58,11,,,,,174.94049720000476,175.59131610003533,175.59131610003533,176.07556110003497,315,315,176.07556110003497,176.07556110003497,176.07556110003497,176.07556110003497,176.07556110003497,176.07556110003497,176.07556110003497,176.07556110003497,176.07556110003497,176.44212910003262,176.44212910003262,176.44212910003262,176.44212910003262,176.44212910003262,176.44212910003262,176.44212910003262,176.44212910003262,176.44212910003262,23,0,,,176.44212910003262,176.64231820002897,0.0,176.64231820002897,1,0.0,0,0,1000,num_4,0.5700301000033505,,25,10,2026-03-04_18h06.32.165,2026A_exp2,2022.2.4,59.729271116388375,
0,0,6.1,3.7,1,0,59,59,49,,,,,177.24279789999127,177.90543570002774,177.90543570002774,178.39473350002663,45,45,178.39473350002663,178.39473350002663,178.39473350002663,178.39473350002663,178.39473350002663,178.39473350002663,178.39473350002663,178.39473350002663,178.39473350002663,178.74431909999112,178.74431909999112,178.74431909999112,178.74431909999112,178.74431909999112,178.74431909999112,178.74431909999112,178.74431909999112,178.74431909999112,22,0,,,178.74431909999112,178.94453470001463,6.1,178.94453470001463,1,6.1,1,1,1000,num_4,0.47542049997719005,,25,10,2026-03-04_18h06.32.165,2026A_exp2,2022.2.4,59.729271116388375,
0,0,0.0,6.1,0,0,60,60,7,,,,,179.44493930001045,180.09577280003577,180.09577280003577,180.58021650003502,315,315,180.58021650003502,180.58021650003502,180.58021650003502,180.58021650003502,180.58021650003502,180.58021650003502,180.58021650003502,180.58021650003502,180.58021650003502,180.9466447000159,180.9466447000159,180.9466447000159,180.9466447000159,180.9466447000159,180.9466447000159,180.9466447000159,180.9466447000159,180.9466447000159,23,0,,,180.9466447000159,181.14670450001722,6.1,181.14670450001722,1,6.1,1,1,1000,num_4,0.4980535000213422,,25,10,2026-03-04_18h06.32.165,2026A_exp2,2022.2.4,59.729271116388375,
1000,1,4.9,6.1,0,0,61,61,20,,,,,181.66396460001124,182.29801060003228,182.29801060003228,182.79915660002735,315,315,182.79915660002735,182.79915660002735,182.79915660002735,182.79915660002735,182.79915660002735,182.79915660002735,182.79915660002735,182.79915660002735,182.79915660002735,183.16536919999635,183.16536919999635,183.16536919999635,183.16536919999635,183.16536919999635,183.16536919999635,183.16536919999635,183.16536919999635,183.16536919999635,22,1,[0.0013213999918662012],[0.017413800000213087],183.16536919999635,183.3674989999854,1000,183.3674989999854,1000,1000,1000,1000,0,num_3,0.19675659999484196,,25,10,2026-03-04_18h06.32.165,2026A_exp2,2022.2.4,59.729271116388375,
1000,1,0.0,4.9,1,0,62,62,59,,,,,183.58245049999095,184.23524930002168,184.23524930002168,184.7389092000085,45,45,184.7389092000085,184.7389092000085,184.7389092000085,184.7389092000085,184.7389092000085,184.7389092000085,184.7389092000085,184.7389092000085,184.7389092000085,185.10069789999397,185.10069789999397,185.10069789999397,185.10069789999397,185.10069789999397,185.10069789999397,185.10069789999397,185.10069789999397,185.10069789999397,23,0,,,185.10069789999397,185.30431410000892,1000,185.30431410000892,1000,1000,1000,1000,1,num_2,0.47578079998493195,,25,10,2026-03-04_18h06.32.165,2026A_exp2,2022.2.4,59.729271116388375,
1000,1,0.0,0.0,0,0,63,63,86,,,,,185.80152209999505,186.45218770002248,186.45218770002248,186.95326069998555,45,45,186.95326069998555,186.95326069998555,186.95326069998555,186.95326069998555,186.95326069998555,186.95326069998555,186.95326069998555,186.95326069998555,186.95326069998555,187.31966320000356,187.31966320000356,187.31966320000356,187.31966320000356,187.31966320000356,187.31966320000356,187.31966320000356,187.31966320000356,187.31966320000356,11,2,"[0.15050809999229386, 0.20053580001695082]","[0.16702839999925345, 0.3672226000344381]",187.31966320000356,187.52161930000875,1000,187.52161930000875,1000,1000,1000,1000,0,num_3,0.24305839999578893,,25,10,2026-03-04_18h06.32.165,2026A_exp2,2022.2.4,59.729271116388375,
1000,1,0.0,6.1,1,0,64,64,62,,,,,187.78672139998525,188.43739500001539,188.43739500001539,188.93861489999108,315,315,188.93861489999108,188.93861489999108,188.93861489999108,188.93861489999108,188.93861489999108,188.93861489999108,188.93861489999108,188.93861489999108,188.93861489999108,189.30501800001366,189.30501800001366,189.30501800001366,189.30501800001366,189.30501800001366,189.30501800001366,189.30501800001366,189.30501800001366,189.30501800001366,23,0,,,189.30501800001366,189.50715700001456,1000,189.50715700001456,1000,1000,1000,1000,1,num_2,0.29722740000579506,,25,10,2026-03-04_18h06.32.165,2026A_exp2,2022.2.4,59.729271116388375,
1,0,3.7,3.7,0,0,65,65,13,,,,,189.82211180002196,190.4727920999867,190.4727920999867,190.97401649999665,45,315,190.97401649999665,190.97401649999665,190.97401649999665,190.97401649999665,190.97401649999665,190.97401649999665,190.97401649999665,190.97401649999665,190.97401649999665,191.3404194000177,191.3404194000177,191.3404194000177,191.3404194000177,191.3404194000177,191.3404194000177,191.3404194000177,191.3404194000177,191.3404194000177,23,0,,,191.3404194000177,191.54053739999654,3.7,191.54053739999654,1,3.7,1,1,1000,num_4,0.6229529000120237,,25,10,2026-03-04_18h06.32.165,2026A_exp2,2022.2.4,59.729271116388375,
1,0,0.0,4.9,0,0,66,66,4,,,,,192.19099440000718,192.8419309000019,192.8419309000019,193.32633740000892,315,45,193.32633740000892,193.32633740000892,193.32633740000892,193.32633740000892,193.32633740000892,193.32633740000892,193.32633740000892,193.32633740000892,193.32633740000892,193.6925593999913,193.6925593999913,193.6925593999913,193.6925593999913,193.6925593999913,193.6925593999913,193.6925593999913,193.6925593999913,193.6925593999913,23,0,,,193.6925593999913,193.89288609998766,0.0,193.89288609998766,1,0.0,0,0,1000,num_4,0.46304820000659674,,25,10,2026-03-04_18h06.32.165,2026A_exp2,2022.2.4,59.729271116388375,
1000,1,0.0,0.0,0,0,67,67,83,,,,,194.37651229999028,195.0273033999838,195.0273033999838,195.51166690001264,315,45,195.51166690001264,195.51166690001264,195.51166690001264,195.51166690001264,195.51166690001264,195.51166690001264,195.51166690001264,195.51166690001264,195.51166690001264,195.87812820001272,195.87812820001272,195.87812820001272,195.87812820001272,195.87812820001272,195.87812820001272,195.87812820001272,195.87812820001272,195.87812820001272,23,0,,,195.87812820001272,196.08002500003204,1000,196.08002500003204,1000,1000,1000,1000,0,num_3,0.515323499974329,,25,10,2026-03-04_18h06.32.165,2026A_exp2,2022.2.4,59.729271116388375,
0,0,0.0,0.0,1,0,68,68,71,,,,,196.612303300004,197.2629306000308,197.2629306000308,197.76395480002975,45,45,197.76395480002975,197.76395480002975,197.76395480002975,197.76395480002975,197.76395480002975,197.76395480002975,197.76395480002975,197.76395480002975,197.76395480002975,198.13044959999388,198.13044959999388,198.13044959999388,198.13044959999388,198.13044959999388,198.13044959999388,198.13044959999388,198.13044959999388,198.13044959999388,23,0,,,198.13044959999388,198.3309217999922,0.0,198.3309217999922,0,0.0,0,1,1000,num_1,0.7528816999983974,,25,10,2026-03-04_18h06.32.165,2026A_exp2,2022.2.4,59.729271116388375,
1,0,0.0,3.7,1,0,69,69,66,,,,,199.11471940000774,199.76537330000428,199.76537330000428,200.2497919999878,45,45,200.2497919999878,200.2497919999878,200.2497919999878,200.2497919999878,200.2497919999878,200.2497919999878,200.2497919999878,200.2497919999878,200.2497919999878,200.61616929998854,200.61616929998854,200.61616929998854,200.61616929998854,200.61616929998854,200.61616929998854,200.61616929998854,200.61616929998854,200.61616929998854,23,0,,,200.61616929998854,200.81645919999573,3.7,200.81645919999573,1,3.7,1,1,1000,num_4,0.5718139999662526,,25,10,2026-03-04_18h06.32.165,2026A_exp2,2022.2.4,59.729271116388375,
1,0,0.0,4.9,1,0,70,70,21,,,,,201.41716549999546,202.06776390003506,202.06776390003506,202.55221620004158,315,315,202.55221620004158,202.55221620004158,202.55221620004158,202.55221620004158,202.55221620004158,202.55221620004158,202.55221620004158,202.55221620004158,202.55221620004158,202.91857610002626,202.91857610002626,202.91857610002626,202.91857610002626,202.91857610002626,202.91857610002626,202.91857610002626,202.91857610002626,202.91857610002626,23,0,,,202.91857610002626,203.11866370000644,4.9,203.11866370000644,1,4.9,1,1,1000,num_4,0.5024490999639966,,25,10,2026-03-04_18h06.32.165,2026A_exp2,2022.2.4,59.729271116388375,
1,0,0.0,6.1,1,0,71,71,52,,,,,203.65252870001132,204.30320180003764,204.30320180003764,204.78787200001534,315,315,204.78787200001534,204.78787200001534,204.78787200001534,204.78787200001534,204.78787200001534,204.78787200001534,204.78787200001534,204.78787200001534,204.78787200001534,205.1540309000411,205.1540309000411,205.1540309000411,205.1540309000411,205.1540309000411,205.1540309000411,205.1540309000411,205.1540309000411,205.1540309000411,23,0,,,205.1540309000411,205.35403530002804,6.1,205.35403530002804,1,6.1,1,1,1000,num_4,0.34604650002438575,,25,10,2026-03-04_18h06.32.165,2026A_exp2,2022.2.4,59.729271116388375,
1,0,0.0,0.0,0,0,72,72,1,,,,,205.72147990000667,206.35508100001607,206.35508100001607,206.85625900002196,315,45,206.85625900002196,206.85625900002196,206.85625900002196,206.85625900002196,206.85625900002196,206.85625900002196,206.85625900002196,206.85625900002196,206.85625900002196,207.22318010003073,207.22318010003073,207.22318010003073,207.22318010003073,207.22318010003073,207.22318010003073,207.22318010003073,207.22318010003073,207.22318010003073,8,4,"[0.0009025999461300671, 0.050041699956636876, 0.13417869998374954, 0.2839912999770604]","[0.01732269994681701, 0.06673530000261962, 0.2504382999613881, 0.3672315999865532]",207.22318010003073,207.42285680002533,0.0,207.42285680002533,0,0.0,0,1,1000,num_1,0.33269160002237186,,25,10,2026-03-04_18h06.32.165,2026A_exp2,2022.2.4,59.729271116388375,
0,0,0.0,3.7,1,0,73,73,10,,,,,207.77340940001886,208.40697190002538,208.40697190002538,208.9081440999871,45,315,208.9081440999871,208.9081440999871,208.9081440999871,208.9081440999871,208.9081440999871,208.9081440999871,208.9081440999871,208.9081440999871,208.9081440999871,209.27462989999913,209.27462989999913,209.27462989999913,209.27462989999913,209.27462989999913,209.27462989999913,209.27462989999913,209.27462989999913,209.27462989999913,23,0,,,209.27462989999913,209.47483180003474,0.0,209.47483180003474,0,0.0,0,1,1000,num_1,0.5529417000361718,,25,10,2026-03-04_18h06.32.165,2026A_exp2,2022.2.4,59.729271116388375,
1,0,0.0,0.0,0,0,74,74,63,,,,,210.05872720002662,210.69375610002317,210.69375610002317,211.19410720001906,45,45,211.19410720001906,211.19410720001906,211.19410720001906,211.19410720001906,211.19410720001906,211.19410720001906,211.19410720001906,211.19410720001906,211.19410720001906,211.56061350001255,211.56061350001255,211.56061350001255,211.56061350001255,211.56061350001255,211.56061350001255,211.56061350001255,211.56061350001255,211.56061350001255,23,0,,,211.56061350001255,211.7608165999991,0.0,211.7608165999991,1,0.0,0,0,1000,num_4,0.3155495999963023,,25,10,2026-03-04_18h06.32.165,2026A_exp2,2022.2.4,59.729271116388375,
1,0,0.0,0.0,1,0,75,75,6,,,,,212.0944201000384,212.72845809999853,212.72845809999853,213.22948530002031,45,315,213.22948530002031,213.22948530002031,213.22948530002031,213.22948530002031,213.22948530002031,213.22948530002031,213.22948530002031,213.22948530002031,213.22948530002031,213.59594430000288,213.59594430000288,213.59594430000288,213.59594430000288,213.59594430000288,213.59594430000288,213.59594430000288,213.59594430000288,213.59594430000288,23,0,,,213.59594430000288,213.79606720001902,0.0,213.79606720001902,1,0.0,0,0,1000,num_4,0.32845149998320267,,25,10,2026-03-04_18h06.32.165,2026A_exp2,2022.2.4,59.729271116388375,
1,0,0.0,6.1,0,0,76,76,60,,,,,214.14650700002676,214.79712820000714,214.79712820000714,215.28155439998955,45,315,215.28155439998955,215.28155439998955,215.28155439998955,215.28155439998955,215.28155439998955,215.28155439998955,215.28155439998955,215.28155439998955,215.28155439998955,215.64788430003682,215.64788430003682,215.64788430003682,215.64788430003682,215.64788430003682,215.64788430003682,215.64788430003682,215.64788430003682,215.64788430003682,23,0,,,215.64788430003682,215.84813160001067,0.0,215.84813160001067,1,0.0,0,0,1000,num_4,0.5473517999635078,,25,10,2026-03-04_18h06.32.165,2026A_exp2,2022.2.4,59.729271116388375,
1000,1,4.9,0.0,0,0,77,77,54,,,,,216.41541369998595,217.07160210004076,217.07160210004076,217.55040720000397,315,45,217.55040720000397,217.55040720000397,217.55040720000397,217.55040720000397,217.55040720000397,217.55040720000397,217.55040720000397,217.55040720000397,217.55040720000397,217.91686990001472,217.91686990001472,217.91686990001472,217.91686990001472,217.91686990001472,217.91686990001472,217.91686990001472,217.91686990001472,217.91686990001472,20,2,"[0.10054940002737567, 0.21738909999839962]","[0.1173001000424847, 0.25083070003893226]",217.91686990001472,218.11898480000673,1000,218.11898480000673,1000,1000,1000,1000,0,num_3,0.30113400000846013,,25,10,2026-03-04_18h06.32.165,2026A_exp2,2022.2.4,59.729271116388375,
1000,1,0.0,0.0,1,0,78,78,23,,,,,218.45089229999576,219.10141730000032,219.10141730000032,219.60246359999292,315,45,219.60246359999292,219.60246359999292,219.60246359999292,219.60246359999292,219.60246359999292,219.60246359999292,219.60246359999292,219.60246359999292,219.60246359999292,219.96907739999006,219.96907739999006,219.96907739999006,219.96907739999006,219.96907739999006,219.96907739999006,219.96907739999006,219.96907739999006,219.96907739999006,23,0,,,219.96907739999006,220.17078540002694,1000,220.17078540002694,1000,1000,1000,1000,1,num_2,0.2334176999866031,,25,10,2026-03-04_18h06.32.165,2026A_exp2,2022.2.4,59.729271116388375,
1000,1,0.0,0.0,1,0,79,79,67,,,,,220.41953720001038,221.0698061999865,221.0698061999865,221.58488179999404,315,45,221.58488179999404,221.58488179999404,221.58488179999404,221.58488179999404,221.58488179999404,221.58488179999404,221.58488179999404,221.58488179999404,221.58488179999404,221.93759660003707,221.93759660003707,221.93759660003707,221.93759660003707,221.93759660003707,221.93759660003707,221.93759660003707,221.93759660003707,221.93759660003707,23,0,,,221.93759660003707,222.1536521000089,1000,222.1536521000089,1000,1000,1000,1000,1,num_2,0.29102369997417554,,25,10,2026-03-04_18h06.32.165,2026A_exp2,2022.2.4,59.729271116388375,
1,0,4.9,0.0,0,0,80,80,58,,,,,222.47153410001192,223.12213179998798,223.12213179998798,223.6231345999986,45,315,223.6231345999986,223.6231345999986,223.6231345999986,223.6231345999986,223.6231345999986,223.6231345999986,223.6231345999986,223.6231345999986,223.6231345999986,223.98950800002785,223.98950800002785,223.98950800002785,223.98950800002785,223.98950800002785,223.98950800002785,223.98950800002785,223.98950800002785,223.98950800002785,23,0,,,223.98950800002785,224.18972930003656,4.9,224.18972930003656,1,4.9,1,1,1000,num_4,0.5502334000193514,,25,10,2026-03-04_18h06.32.165,2026A_exp2,2022.2.4,59.729271116388375,
1000,1,3.7,4.9,1,0,81,81,46,,,,,224.75698599999305,225.4077236999874,225.4077236999874,225.89212239999324,315,45,225.89212239999324,225.89212239999324,225.89212239999324,225.89212239999324,225.89212239999324,225.89212239999324,225.89212239999324,225.89212239999324,225.89212239999324,226.25856370001566,226.25856370001566,226.25856370001566,226.25856370001566,226.25856370001566,226.25856370001566,226.25856370001566,226.25856370001566,226.25856370001566,23,0,,,226.25856370001566,226.46030760003487,1000,226.46030760003487,1000,1000,1000,1000,1,num_2,0.27960110001731664,,25,10,2026-03-04_18h06.32.165,2026A_exp2,2022.2.4,59.729271116388375,
1,0,0.0,0.0,0,0,82,82,29,,,,,226.75913940003375,227.40971300000092,227.40971300000092,227.91089009999996,315,315,227.91089009999996,227.91089009999996,227.91089009999996,227.91089009999996,227.91089009999996,227.91089009999996,227.91089009999996,227.91089009999996,227.91089009999996,228.2771800000337,228.2771800000337,228.2771800000337,228.2771800000337,228.2771800000337,228.2771800000337,228.2771800000337,228.2771800000337,228.2771800000337,23,0,,,228.2771800000337,228.47750999999698,0.0,228.47750999999698,1,0.0,0,0,1000,num_4,0.4858605000190437,,25,10,2026-03-04_18h06.32.165,2026A_exp2,2022.2.4,59.729271116388375,
1000,1,0.0,6.1,0,0,83,83,37,,,,,228.99465020000935,229.6452668000129,229.6452668000129,230.12968519999413,315,315,230.12968519999413,230.12968519999413,230.12968519999413,230.12968519999413,230.12968519999413,230.12968519999413,230.12968519999413,230.12968519999413,230.12968519999413,230.4960252000019,230.4960252000019,230.4960252000019,230.4960252000019,230.4960252000019,230.4960252000019,230.4960252000019,230.4960252000019,230.4960252000019,23,0,,,230.4960252000019,230.6983377999859,1000,230.6983377999859,1000,1000,1000,1000,0,num_3,0.20191189995966852,,25,10,2026-03-04_18h06.32.165,2026A_exp2,2022.2.4,59.729271116388375,
1000,1,3.7,0.0,1,0,84,84,48,,,,,230.93001260003075,231.5902722000028,231.5902722000028,232.09299640002428,315,45,232.09299640002428,232.09299640002428,232.09299640002428,232.09299640002428,232.09299640002428,232.09299640002428,232.09299640002428,232.09299640002428,232.09299640002428,232.4480677000247,232.4480677000247,232.4480677000247,232.4480677000247,232.4480677000247,232.4480677000247,232.4480677000247,232.4480677000247,232.4480677000247,23,0,,,232.4480677000247,232.64836570003536,1000,232.64836570003536,1000,1000,1000,1000,1,num_2,0.20379759999923408,,25,10,2026-03-04_18h06.32.165,2026A_exp2,2022.2.4,59.729271116388375,
1000,1,0.0,4.9,1,0,85,85,76,,,,,232.88192710001022,233.53269660001388,233.53269660001388,234.03369670000393,45,315,234.03369670000393,234.03369670000393,234.03369670000393,234.03369670000393,234.03369670000393,234.03369670000393,234.03369670000393,234.03369670000393,234.03369670000393,234.4000054000062,234.4000054000062,234.4000054000062,234.4000054000062,234.4000054000062,234.4000054000062,234.4000054000062,234.4000054000062,234.4000054000062,23,0,,,234.4000054000062,234.60202759999083,1000,234.60202759999083,1000,1000,1000,1000,1,num_2,0.14602660003583878,,25,10,2026-03-04_18h06.32.165,2026A_exp2,2022.2.4,59.729271116388375,
1000,1,0.0,4.9,1,0,86,86,31,,,,,234.76718289998826,235.41778590000467,235.41778590000467,235.91876870003762,45,45,235.91876870003762,235.91876870003762,235.91876870003762,235.91876870003762,235.91876870003762,235.91876870003762,235.91876870003762,235.91876870003762,235.91876870003762,236.28535270004068,236.28535270004068,236.28535270004068,236.28535270004068,236.28535270004068,236.28535270004068,236.28535270004068,236.28535270004068,236.28535270004068,23,0,,,236.28535270004068,236.4876224999898,1000,236.4876224999898,1000,1000,1000,1000,1,num_2,0.15616750001208857,,25,10,2026-03-04_18h06.32.165,2026A_exp2,2022.2.4,59.729271116388375,
1,0,0.0,0.0,1,0,87,87,87,,,,,236.66901810001582,237.31964609998977,237.31964609998977,237.82081579999067,45,315,237.82081579999067,237.82081579999067,237.82081579999067,237.82081579999067,237.82081579999067,237.82081579999067,237.82081579999067,237.82081579999067,237.82081579999067,238.18719740002416,238.18719740002416,238.18719740002416,238.18719740002416,238.18719740002416,238.18719740002416,238.18719740002416,238.18719740002416,238.18719740002416,23,0,,,238.18719740002416,238.38743770000292,0.0,238.38743770000292,1,0.0,0,0,1000,num_4,0.4799713999964297,,25,10,2026-03-04_18h06.32.165,2026A_exp2,2022.2.4,59.729271116388375,
1000,1,3.7,0.0,0,0,88,88,57,,,,,238.88787610002328,239.53857830003835,239.53857830003835,240.02303839998785,315,315,240.02303839998785,240.02303839998785,240.02303839998785,240.02303839998785,240.02303839998785,240.02303839998785,240.02303839998785,240.02303839998785,240.02303839998785,240.38938479998615,240.38938479998615,240.38938479998615,240.38938479998615,240.38938479998615,240.38938479998615,240.38938479998615,240.38938479998615,240.38938479998615,23,0,,,240.38938479998615,240.59147200000007,1000,240.59147200000007,1000,1000,1000,1000,0,num_3,0.036140099982731044,,25,10,2026-03-04_18h06.32.165,2026A_exp2,2022.2.4,59.729271116388375,
1000,1,6.1,0.0,1,0,89,89,75,,,,,240.65638210001634,241.30697780003538,241.30697780003538,241.80814530001953,315,45,241.80814530001953,241.80814530001953,241.80814530001953,241.80814530001953,241.80814530001953,241.80814530001953,241.80814530001953,241.80814530001953,241.80814530001953,242.15785369998775,242.15785369998775,242.15785369998775,242.15785369998775,242.15785369998775,242.15785369998775,242.15785369998775,242.15785369998775,242.15785369998775,22,0,,,242.15785369998775,242.3598154000356,1000,242.3598154000356,1000,1000,1000,1000,1,num_2,0.18049959995551035,,25,10,2026-03-04_18h06.32.165,2026A_exp2,2022.2.4,59.729271116388375,
,,,,,,,,,,,,,,,,,,,,,,,,,,,,,,,,,,,,,,,,,,,,,,,,,,,,242.56766810000408,,,,,,,
