validity,detectorcomp,contrastCW,contrastCCW,precueCWorCCW,block_80trials.thisRepN,block_80trials.thisTrialN,block_80trials.thisN,block_80trials.thisIndex,etRecord.started,etRecord.stopped,text.started,text.stopped,text_4.started,text_4.stopped,text_6.started,text_6.stopped,oriCW,oriCCW,roi_2.started,grating_UR.started,grating_UL.started,grating_LR.started,grating_LL.started,noise_UR.started,noise_UL.started,noise_LR.started,noise_LL.started,roi_2.stopped,grating_UR.stopped,grating_UL.stopped,grating_LR.stopped,grating_LL.stopped,noise_UR.stopped,noise_UL.stopped,noise_LR.stopped,noise_LL.stopped,outframe,roi_2.numLooks,roi_2.timesOn,roi_2.timesOff,text_2.started,text_2.stopped,probedcontrast,key_resp.started,respdetect,relevantContrast,correctDetect,TorFdetect,respCWorCCW,key_resp.keys,key_resp.rt,feedback_display_.started,participantNo,blockNo,date,expName,psychopyVersion,frameRate,
1000,1,6.1,0.0,1,0,0,0,79,6.890000076964498e-05,6.890000076964498e-05,43.679109699995024,45.686207699996885,45.686207699996885,46.31534420000389,46.31534420000389,46.84176459998707,315,45,46.84176459998707,46.84176459998707,46.84176459998707,46.84176459998707,46.84176459998707,46.84176459998707,46.84176459998707,46.84176459998707,46.84176459998707,47.18310609998298,47.18310609998298,47.18310609998298,47.18310609998298,47.18310609998298,47.18310609998298,47.18310609998298,47.18310609998298,47.18310609998298,13,1,[0.0011635000118985772],[0.16276649999781512],47.18310609998298,47.38503919998766,1000,47.38503919998766,1000,1000,1000,1000,0,num_3,0.6636197000043467,,18,5,2026-03-02_10h40.01.749,2026A_exp2,2022.2.4,59.910374074453735,
1000,1,6.1,3.7,1,0,1,1,11,,,,,48.067390999989584,48.71787980000954,48.71787980000954,49.21911390000605,315,315,49.21911390000605,49.21911390000605,49.21911390000605,49.21911390000605,49.21911390000605,49.21911390000605,49.21911390000605,49.21911390000605,49.21911390000605,49.58511429998907,49.58511429998907,49.58511429998907,49.58511429998907,49.58511429998907,49.58511429998907,49.58511429998907,49.58511429998907,49.58511429998907,23,0,,,49.58511429998907,49.78580439998768,1000,49.78580439998768,1000,1000,1000,1000,0,num_3,0.5992723999952432,,18,5,2026-03-02_10h40.01.749,2026A_exp2,2022.2.4,59.910374074453735,
1000,1,4.9,0.0,1,0,2,2,48,,,,,50.402881599991815,51.0539359000104,51.0539359000104,51.538124099985,315,45,51.538124099985,51.538124099985,51.538124099985,51.538124099985,51.538124099985,51.538124099985,51.538124099985,51.538124099985,51.538124099985,51.904983799991896,51.904983799991896,51.904983799991896,51.904983799991896,51.904983799991896,51.904983799991896,51.904983799991896,51.904983799991896,51.904983799991896,23,0,,,51.904983799991896,52.10494459999609,1000,52.10494459999609,1000,1000,1000,1000,0,num_3,0.45632209998439066,,18,5,2026-03-02_10h40.01.749,2026A_exp2,2022.2.4,59.910374074453735,
1,0,6.1,6.1,1,0,3,3,47,,,,,52.58874619999551,53.23917210000218,53.23917210000218,53.740331899985904,45,45,53.740331899985904,53.740331899985904,53.740331899985904,53.740331899985904,53.740331899985904,53.740331899985904,53.740331899985904,53.740331899985904,53.740331899985904,54.10643019998679,54.10643019998679,54.10643019998679,54.10643019998679,54.10643019998679,54.10643019998679,54.10643019998679,54.10643019998679,54.10643019998679,23,0,,,54.10643019998679,54.30676350000431,6.1,54.30676350000431,1,6.1,1,1,1000,num_4,0.4864090000046417,,18,5,2026-03-02_10h40.01.749,2026A_exp2,2022.2.4,59.910374074453735,
1000,1,3.7,6.1,0,0,4,4,60,,,,,54.82422270000097,55.45797600000515,55.45797600000515,55.95909160000156,315,315,55.95909160000156,55.95909160000156,55.95909160000156,55.95909160000156,55.95909160000156,55.95909160000156,55.95909160000156,55.95909160000156,55.95909160000156,56.32588489999762,56.32588489999762,56.32588489999762,56.32588489999762,56.32588489999762,56.32588489999762,56.32588489999762,56.32588489999762,56.32588489999762,23,0,,,56.32588489999762,56.52572269999655,1000,56.52572269999655,1000,1000,1000,1000,1,num_2,1.1147825999942143,,18,5,2026-03-02_10h40.01.749,2026A_exp2,2022.2.4,59.910374074453735,
1000,1,4.9,0.0,1,0,5,5,67,,,,,57.660321100003785,58.31151490000775,58.31151490000775,58.812225300003774,45,45,58.812225300003774,58.812225300003774,58.812225300003774,58.812225300003774,58.812225300003774,58.812225300003774,58.812225300003774,58.812225300003774,58.812225300003774,59.178411400003824,59.178411400003824,59.178411400003824,59.178411400003824,59.178411400003824,59.178411400003824,59.178411400003824,59.178411400003824,59.178411400003824,23,0,,,59.178411400003824,59.37872199999401,1000,59.37872199999401,1000,1000,1000,1000,0,num_3,0.7582392000185791,,18,5,2026-03-02_10h40.01.749,2026A_exp2,2022.2.4,59.910374074453735,
1,0,0.0,6.1,0,0,6,6,24,,,,,60.16310330000124,60.79763909999747,60.79763909999747,61.29805599999963,315,45,61.29805599999963,61.29805599999963,61.29805599999963,61.29805599999963,61.29805599999963,61.29805599999963,61.29805599999963,61.29805599999963,61.29805599999963,61.664339399983874,61.664339399983874,61.664339399983874,61.664339399983874,61.664339399983874,61.664339399983874,61.664339399983874,61.664339399983874,61.664339399983874,23,0,,,61.664339399983874,61.864618799998425,0.0,61.864618799998425,1,0.0,0,0,1000,num_4,0.9684580999892205,,18,5,2026-03-02_10h40.01.749,2026A_exp2,2022.2.4,59.910374074453735,
0,0,3.7,0.0,0,0,7,7,18,,,,,62.848930999985896,63.499285199999576,63.499285199999576,63.984123300004285,315,315,63.984123300004285,63.984123300004285,63.984123300004285,63.984123300004285,63.984123300004285,63.984123300004285,63.984123300004285,63.984123300004285,63.984123300004285,64.35008539998671,64.35008539998671,64.35008539998671,64.35008539998671,64.35008539998671,64.35008539998671,64.35008539998671,64.35008539998671,64.35008539998671,23,0,,,64.35008539998671,64.5504963999847,0.0,64.5504963999847,1,0.0,0,0,1000,num_4,0.9700178999919444,,18,5,2026-03-02_10h40.01.749,2026A_exp2,2022.2.4,59.910374074453735,
1000,1,0.0,0.0,0,0,8,8,65,,,,,65.55163279999397,66.20191189998877,66.20191189998877,66.68653820001055,45,45,66.68653820001055,66.68653820001055,66.68653820001055,66.68653820001055,66.68653820001055,66.68653820001055,66.68653820001055,66.68653820001055,66.68653820001055,67.0527979999897,67.0527979999897,67.0527979999897,67.0527979999897,67.0527979999897,67.0527979999897,67.0527979999897,67.0527979999897,67.0527979999897,23,0,,,67.0527979999897,67.25323840000783,1000,67.25323840000783,1000,1000,1000,1000,1,num_2,1.1550437999831047,,18,5,2026-03-02_10h40.01.749,2026A_exp2,2022.2.4,59.910374074453735,
1000,1,4.9,3.7,0,0,9,9,28,,,,,68.43794390000403,69.0883188000007,69.0883188000007,69.58946889999788,45,45,69.58946889999788,69.58946889999788,69.58946889999788,69.58946889999788,69.58946889999788,69.58946889999788,69.58946889999788,69.58946889999788,69.58946889999788,69.93894839999848,69.93894839999848,69.93894839999848,69.93894839999848,69.93894839999848,69.93894839999848,69.93894839999848,69.93894839999848,69.93894839999848,22,0,,,69.93894839999848,70.1393689000106,1000,70.1559954000113,1000,1000,1000,1000,0,num_3,0.7409971000161022,,18,5,2026-03-02_10h40.01.749,2026A_exp2,2022.2.4,59.910374074453735,
1,0,0.0,4.9,1,0,10,10,54,,,,,70.9236552999937,71.57382329998654,71.57382329998654,72.05839160000323,45,315,72.05839160000323,72.05839160000323,72.05839160000323,72.05839160000323,72.05839160000323,72.05839160000323,72.05839160000323,72.05839160000323,72.05839160000323,72.4248743999924,72.4248743999924,72.4248743999924,72.4248743999924,72.4248743999924,72.4248743999924,72.4248743999924,72.4248743999924,72.4248743999924,23,0,,,72.4248743999924,72.62484289999702,4.9,72.64149969999562,1,4.9,1,1,1000,num_4,0.5669348000083119,,18,5,2026-03-02_10h40.01.749,2026A_exp2,2022.2.4,59.910374074453735,
1,0,0.0,0.0,1,0,11,11,38,,,,,73.22578239999712,73.8596808000002,73.8596808000002,74.36075819999678,45,45,74.36075819999678,74.36075819999678,74.36075819999678,74.36075819999678,74.36075819999678,74.36075819999678,74.36075819999678,74.36075819999678,74.36075819999678,74.72722749999957,74.72722749999957,74.72722749999957,74.72722749999957,74.72722749999957,74.72722749999957,74.72722749999957,74.72722749999957,74.72722749999957,23,0,,,74.72722749999957,74.92740869999398,0.0,74.92740869999398,0,0.0,0,1,1000,num_1,0.657159700000193,,18,5,2026-03-02_10h40.01.749,2026A_exp2,2022.2.4,59.910374074453735,
1000,1,0.0,3.7,0,0,12,12,23,,,,,75.61167199999909,76.26190119999228,76.26190119999228,76.74680870000157,45,315,76.74680870000157,76.74680870000157,76.74680870000157,76.74680870000157,76.74680870000157,76.74680870000157,76.74680870000157,76.74680870000157,76.74680870000157,77.1128796999983,77.1128796999983,77.1128796999983,77.1128796999983,77.1128796999983,77.1128796999983,77.1128796999983,77.1128796999983,77.1128796999983,23,0,,,77.1128796999983,77.31338899998809,1000,77.31338899998809,1000,1000,1000,1000,0,num_3,0.6877403999969829,,18,5,2026-03-02_10h40.01.749,2026A_exp2,2022.2.4,59.910374074453735,
0,0,0.0,0.0,0,0,13,13,15,,,,,78.03073289999156,78.6816758000059,78.6816758000059,79.16580210000393,315,315,79.16580210000393,79.16580210000393,79.16580210000393,79.16580210000393,79.16580210000393,79.16580210000393,79.16580210000393,79.16580210000393,79.16580210000393,79.53210029998445,79.53210029998445,79.53210029998445,79.53210029998445,79.53210029998445,79.53210029998445,79.53210029998445,79.53210029998445,79.53210029998445,23,0,,,79.53210029998445,79.7323289999913,0.0,79.7323289999913,0,0.0,0,1,1000,num_1,1.452432999998564,,18,5,2026-03-02_10h40.01.749,2026A_exp2,2022.2.4,59.910374074453735,
1000,1,0.0,0.0,0,0,14,14,62,,,,,81.21705320000183,81.85140949999914,81.85140949999914,82.35218839999288,45,45,82.35218839999288,82.35218839999288,82.35218839999288,82.35218839999288,82.35218839999288,82.35218839999288,82.35218839999288,82.35218839999288,82.35218839999288,82.7187588000088,82.7187588000088,82.7187588000088,82.7187588000088,82.7187588000088,82.7187588000088,82.7187588000088,82.7187588000088,82.7187588000088,23,0,,,82.7187588000088,82.919206999999,1000,82.919206999999,1000,1000,1000,1000,0,num_3,1.601836199988611,,18,5,2026-03-02_10h40.01.749,2026A_exp2,2022.2.4,59.910374074453735,
1000,1,0.0,0.0,1,0,15,15,29,,,,,84.53716249999707,85.18801600000006,85.18801600000006,85.67246639999212,315,315,85.67246639999212,85.67246639999212,85.67246639999212,85.67246639999212,85.67246639999212,85.67246639999212,85.67246639999212,85.67246639999212,85.67246639999212,86.0384844999935,86.0384844999935,86.0384844999935,86.0384844999935,86.0384844999935,86.0384844999935,86.0384844999935,86.0384844999935,86.0384844999935,23,0,,,86.0384844999935,86.23875749998842,1000,86.23875749998842,1000,1000,1000,1000,0,num_3,2.457603399991058,,18,5,2026-03-02_10h40.01.749,2026A_exp2,2022.2.4,59.910374074453735,
1,0,4.9,0.0,1,0,16,16,34,,,,,88.72461979999207,89.37492480000947,89.37492480000947,89.85972889998811,315,315,89.85972889998811,89.85972889998811,89.85972889998811,89.85972889998811,89.85972889998811,89.85972889998811,89.85972889998811,89.85972889998811,89.85972889998811,90.22584080000524,90.22584080000524,90.22584080000524,90.22584080000524,90.22584080000524,90.22584080000524,90.22584080000524,90.22584080000524,90.22584080000524,23,0,,,90.22584080000524,90.4259858999867,0.0,90.4259858999867,0,0.0,0,1,1000,num_1,0.9905009999929462,,18,5,2026-03-02_10h40.01.749,2026A_exp2,2022.2.4,59.910374074453735,
1000,1,0.0,4.9,0,0,17,17,8,,,,,91.4439873000083,92.09469870000612,92.09469870000612,92.57879719999619,45,315,92.57879719999619,92.57879719999619,92.57879719999619,92.57879719999619,92.57879719999619,92.57879719999619,92.57879719999619,92.57879719999619,92.57879719999619,92.94500949999201,92.94500949999201,92.94500949999201,92.94500949999201,92.94500949999201,92.94500949999201,92.94500949999201,92.94500949999201,92.94500949999201,23,0,,,92.94500949999201,93.14559679999365,1000,93.14559679999365,1000,1000,1000,1000,0,num_3,0.5271653000090737,,18,5,2026-03-02_10h40.01.749,2026A_exp2,2022.2.4,59.910374074453735,
1000,1,0.0,3.7,1,0,18,18,4,,,,,93.69631030000164,94.3300012999971,94.3300012999971,94.83141149999574,45,315,94.83141149999574,94.83141149999574,94.83141149999574,94.83141149999574,94.83141149999574,94.83141149999574,94.83141149999574,94.83141149999574,94.83141149999574,95.1976166999957,95.1976166999957,95.1976166999957,95.1976166999957,95.1976166999957,95.1976166999957,95.1976166999957,95.1976166999957,95.1976166999957,23,0,,,95.1976166999957,95.39793939999072,1000,95.39793939999072,1000,1000,1000,1000,1,num_2,0.7949893999902997,,18,5,2026-03-02_10h40.01.749,2026A_exp2,2022.2.4,59.910374074453735,
1,0,0.0,4.9,0,0,19,19,70,,,,,96.21549040000536,96.86638669998501,96.86638669998501,97.35029040000518,45,45,97.35029040000518,97.35029040000518,97.35029040000518,97.35029040000518,97.35029040000518,97.35029040000518,97.35029040000518,97.35029040000518,97.35029040000518,97.71717809999245,97.71717809999245,97.71717809999245,97.71717809999245,97.71717809999245,97.71717809999245,97.71717809999245,97.71717809999245,97.71717809999245,23,0,,,97.71717809999245,97.91695429998799,0.0,97.91695429998799,1,0.0,0,0,1000,num_4,0.9242569000052754,,18,5,2026-03-02_10h40.01.749,2026A_exp2,2022.2.4,59.910374074453735,
1000,1,0.0,6.1,1,0,20,20,13,,,,,98.86820639998768,99.51875180000206,99.51875180000206,100.00315549998777,45,315,100.00315549998777,100.00315549998777,100.00315549998777,100.00315549998777,100.00315549998777,100.00315549998777,100.00315549998777,100.00315549998777,100.00315549998777,100.36983949999558,100.36983949999558,100.36983949999558,100.36983949999558,100.36983949999558,100.36983949999558,100.36983949999558,100.36983949999558,100.36983949999558,23,0,,,100.36983949999558,100.56976879999274,1000,100.56976879999274,1000,1000,1000,1000,1,num_2,0.7832670999923721,,18,5,2026-03-02_10h40.01.749,2026A_exp2,2022.2.4,59.910374074453735,
1000,1,0.0,6.1,0,0,21,21,16,,,,,101.3706489999895,102.02105909999227,102.02105909999227,102.50558160000946,45,315,102.50558160000946,102.50558160000946,102.50558160000946,102.50558160000946,102.50558160000946,102.50558160000946,102.50558160000946,102.50558160000946,102.50558160000946,102.87235389999114,102.87235389999114,102.87235389999114,102.87235389999114,102.87235389999114,102.87235389999114,102.87235389999114,102.87235389999114,102.87235389999114,23,0,,,102.87235389999114,103.07270560000325,1000,103.07270560000325,1000,1000,1000,1000,0,num_3,0.527554100000998,,18,5,2026-03-02_10h40.01.749,2026A_exp2,2022.2.4,59.910374074453735,
1000,1,0.0,0.0,1,0,22,22,73,,,,,103.6236372999847,104.27333510000608,104.27333510000608,104.75780379999196,315,315,104.75780379999196,104.75780379999196,104.75780379999196,104.75780379999196,104.75780379999196,104.75780379999196,104.75780379999196,104.75780379999196,104.75780379999196,105.12413720000768,105.12413720000768,105.12413720000768,105.12413720000768,105.12413720000768,105.12413720000768,105.12413720000768,105.12413720000768,105.12413720000768,23,0,,,105.12413720000768,105.32475130000967,1000,105.32475130000967,1000,1000,1000,1000,0,num_3,0.691420899995137,,18,5,2026-03-02_10h40.01.749,2026A_exp2,2022.2.4,59.910374074453735,
1000,1,0.0,0.0,0,0,23,23,72,,,,,106.04178080000565,106.69221099998686,106.69221099998686,107.17680439999094,45,315,107.17680439999094,107.17680439999094,107.17680439999094,107.17680439999094,107.17680439999094,107.17680439999094,107.17680439999094,107.17680439999094,107.17680439999094,107.54312519999803,107.54312519999803,107.54312519999803,107.54312519999803,107.54312519999803,107.54312519999803,107.54312519999803,107.54312519999803,107.54312519999803,23,0,,,107.54312519999803,107.74336520000361,1000,107.74336520000361,1000,1000,1000,1000,0,num_3,0.3288066999812145,,18,5,2026-03-02_10h40.01.749,2026A_exp2,2022.2.4,59.910374074453735,
1000,1,3.7,0.0,0,0,24,24,35,,,,,108.09371580000152,108.7442744,108.7442744,109.22905580000952,45,45,109.22905580000952,109.22905580000952,109.22905580000952,109.22905580000952,109.22905580000952,109.22905580000952,109.22905580000952,109.22905580000952,109.22905580000952,109.5951386000088,109.5951386000088,109.5951386000088,109.5951386000088,109.5951386000088,109.5951386000088,109.5951386000088,109.5951386000088,109.5951386000088,23,0,,,109.5951386000088,109.79568300000392,1000,109.79568300000392,1000,1000,1000,1000,0,num_3,0.3968264999857638,,18,5,2026-03-02_10h40.01.749,2026A_exp2,2022.2.4,59.910374074453735,
1,0,0.0,6.1,1,0,25,25,19,,,,,110.21255419999943,110.84653149999212,110.84653149999212,111.3477595000004,315,315,111.3477595000004,111.3477595000004,111.3477595000004,111.3477595000004,111.3477595000004,111.3477595000004,111.3477595000004,111.3477595000004,111.3477595000004,111.71427100000437,111.71427100000437,111.71427100000437,111.71427100000437,111.71427100000437,111.71427100000437,111.71427100000437,111.71427100000437,111.71427100000437,23,0,,,111.71427100000437,111.91465309998603,6.1,111.91465309998603,1,6.1,1,1,1000,num_4,0.6941397000045981,,18,5,2026-03-02_10h40.01.749,2026A_exp2,2022.2.4,59.910374074453735,
1000,1,3.7,0.0,0,0,26,26,69,,,,,112.63192749998416,113.26652850001119,113.26652850001119,113.766827799991,315,315,113.766827799991,113.766827799991,113.766827799991,113.766827799991,113.766827799991,113.766827799991,113.766827799991,113.766827799991,113.766827799991,114.13304620000417,114.13304620000417,114.13304620000417,114.13304620000417,114.13304620000417,114.13304620000417,114.13304620000417,114.13304620000417,114.13304620000417,23,0,,,114.13304620000417,114.33297049999237,1000,114.33297049999237,1000,1000,1000,1000,1,num_2,1.211757499986561,,18,5,2026-03-02_10h40.01.749,2026A_exp2,2022.2.4,59.910374074453735,
1,0,6.1,0.0,0,0,27,27,85,,,,,115.56811930000549,116.20203179999953,116.20203179999953,116.70299140000134,315,45,116.70299140000134,116.70299140000134,116.70299140000134,116.70299140000134,116.70299140000134,116.70299140000134,116.70299140000134,116.70299140000134,116.70299140000134,117.06958849998773,117.06958849998773,117.06958849998773,117.06958849998773,117.06958849998773,117.06958849998773,117.06958849998773,117.06958849998773,117.06958849998773,23,0,,,117.06958849998773,117.26950500000385,6.1,117.26950500000385,1,6.1,1,1,1000,num_4,1.3947975999908522,,18,5,2026-03-02_10h40.01.749,2026A_exp2,2022.2.4,59.910374074453735,
1,0,3.7,0.0,0,0,28,28,26,,,,,118.68790759998956,119.32243010000093,119.32243010000093,119.82393650000449,45,315,119.82393650000449,119.82393650000449,119.82393650000449,119.82393650000449,119.82393650000449,119.82393650000449,119.82393650000449,119.82393650000449,119.82393650000449,120.18932279999717,120.18932279999717,120.18932279999717,120.18932279999717,120.18932279999717,120.18932279999717,120.18932279999717,120.18932279999717,120.18932279999717,23,0,,,120.18932279999717,120.3896007000003,3.7,120.3896007000003,1,3.7,1,1,1000,num_4,0.4585922999831382,,18,5,2026-03-02_10h40.01.749,2026A_exp2,2022.2.4,59.910374074453735,
0,0,6.1,0.0,1,0,29,29,52,,,,,120.87349749999703,121.50748719999683,121.50748719999683,122.00843839999288,315,315,122.00843839999288,122.00843839999288,122.00843839999288,122.00843839999288,122.00843839999288,122.00843839999288,122.00843839999288,122.00843839999288,122.00843839999288,122.37520680000307,122.37520680000307,122.37520680000307,122.37520680000307,122.37520680000307,122.37520680000307,122.37520680000307,122.37520680000307,122.37520680000307,23,0,,,122.37520680000307,122.57502449999447,6.1,122.57502449999447,1,6.1,1,1,1000,num_4,0.7857509999885224,,18,5,2026-03-02_10h40.01.749,2026A_exp2,2022.2.4,59.910374074453735,
0,0,4.9,0.0,0,0,30,30,40,,,,,123.37601589999394,124.02696139999898,124.02696139999898,124.52757579999161,315,45,124.52757579999161,124.52757579999161,124.52757579999161,124.52757579999161,124.52757579999161,124.52757579999161,124.52757579999161,124.52757579999161,124.52757579999161,124.89416880000499,124.89416880000499,124.89416880000499,124.89416880000499,124.89416880000499,124.89416880000499,124.89416880000499,124.89416880000499,124.89416880000499,23,0,,,124.89416880000499,125.0944301999989,0.0,125.0944301999989,0,0.0,0,1,1000,num_1,0.762454500014428,,18,5,2026-03-02_10h40.01.749,2026A_exp2,2022.2.4,59.910374074453735,
1000,1,0.0,0.0,0,0,31,31,57,,,,,125.87882519999403,126.52920600000652,126.52920600000652,127.0136627999891,45,315,127.0136627999891,127.0136627999891,127.0136627999891,127.0136627999891,127.0136627999891,127.0136627999891,127.0136627999891,127.0136627999891,127.0136627999891,127.37996349998866,127.37996349998866,127.37996349998866,127.37996349998866,127.37996349998866,127.37996349998866,127.37996349998866,127.37996349998866,127.37996349998866,23,0,,,127.37996349998866,127.5802881999989,1000,127.5802881999989,1000,1000,1000,1000,0,num_3,0.6039629000006244,,18,5,2026-03-02_10h40.01.749,2026A_exp2,2022.2.4,59.910374074453735,
1000,1,0.0,3.7,0,0,32,32,63,,,,,128.2143456999911,128.86486780000268,128.86486780000268,129.36591490000137,315,315,129.36591490000137,129.36591490000137,129.36591490000137,129.36591490000137,129.36591490000137,129.36591490000137,129.36591490000137,129.36591490000137,129.36591490000137,129.71559760000673,129.71559760000673,129.71559760000673,129.71559760000673,129.71559760000673,129.71559760000673,129.71559760000673,129.71559760000673,129.71559760000673,22,0,,,129.71559760000673,129.91584649999277,1000,129.91584649999277,1000,1000,1000,1000,0,num_3,0.5567154999880586,,18,5,2026-03-02_10h40.01.749,2026A_exp2,2022.2.4,59.910374074453735,
1000,1,6.1,4.9,0,0,33,33,51,,,,,130.5000247999851,131.15068009999231,131.15068009999231,131.63475779999862,45,315,131.63475779999862,131.63475779999862,131.63475779999862,131.63475779999862,131.63475779999862,131.63475779999862,131.63475779999862,131.63475779999862,131.63475779999862,132.00113799999235,132.00113799999235,132.00113799999235,132.00113799999235,132.00113799999235,132.00113799999235,132.00113799999235,132.00113799999235,132.00113799999235,23,0,,,132.00113799999235,132.20189619998564,1000,132.20189619998564,1000,1000,1000,1000,0,num_3,0.4146772999956738,,18,5,2026-03-02_10h40.01.749,2026A_exp2,2022.2.4,59.910374074453735,
1,0,0.0,6.1,1,0,34,34,46,,,,,132.6349731000082,133.26910320000025,133.26910320000025,133.76993340000627,45,45,133.76993340000627,133.76993340000627,133.76993340000627,133.76993340000627,133.76993340000627,133.76993340000627,133.76993340000627,133.76993340000627,133.76993340000627,134.13659499998903,134.13659499998903,134.13659499998903,134.13659499998903,134.13659499998903,134.13659499998903,134.13659499998903,134.13659499998903,134.13659499998903,23,0,,,134.13659499998903,134.33684050000738,6.1,134.33684050000738,1,6.1,1,1,1000,num_4,1.3998814999940805,,18,5,2026-03-02_10h40.01.749,2026A_exp2,2022.2.4,59.910374074453735,
1000,1,0.0,0.0,0,0,35,35,7,,,,,135.75515969999833,136.38858920001076,136.38858920001076,136.89004820000264,315,45,136.89004820000264,136.89004820000264,136.89004820000264,136.89004820000264,136.89004820000264,136.89004820000264,136.89004820000264,136.89004820000264,136.89004820000264,137.25653270000475,137.25653270000475,137.25653270000475,137.25653270000475,137.25653270000475,137.25653270000475,137.25653270000475,137.25653270000475,137.25653270000475,23,0,,,137.25653270000475,137.45660730000236,1000,137.45660730000236,1000,1000,1000,1000,0,num_3,0.5276994000014383,,18,5,2026-03-02_10h40.01.749,2026A_exp2,2022.2.4,59.910374074453735,
1000,1,6.1,0.0,0,0,36,36,27,,,,,138.00785289998748,138.6580324000097,138.6580324000097,139.15896259999136,45,45,139.15896259999136,139.15896259999136,139.15896259999136,139.15896259999136,139.15896259999136,139.15896259999136,139.15896259999136,139.15896259999136,139.15896259999136,139.5087666999898,139.5087666999898,139.5087666999898,139.5087666999898,139.5087666999898,139.5087666999898,139.5087666999898,139.5087666999898,139.5087666999898,22,0,,,139.5087666999898,139.70913040000596,1000,139.70913040000596,1000,1000,1000,1000,0,num_3,0.7151395999826491,,18,5,2026-03-02_10h40.01.749,2026A_exp2,2022.2.4,59.910374074453735,
1,0,0.0,0.0,1,0,37,37,6,,,,,140.44298669998534,141.07694930001162,141.07694930001162,141.57814689999213,45,315,141.57814689999213,141.57814689999213,141.57814689999213,141.57814689999213,141.57814689999213,141.57814689999213,141.57814689999213,141.57814689999213,141.57814689999213,141.9450186000031,141.9450186000031,141.9450186000031,141.9450186000031,141.9450186000031,141.9450186000031,141.9450186000031,141.9450186000031,141.9450186000031,23,0,,,141.9450186000031,142.1449522000039,0.0,142.1449522000039,0,0.0,0,1,1000,num_1,0.5357355999876745,,18,5,2026-03-02_10h40.01.749,2026A_exp2,2022.2.4,59.910374074453735,
1000,1,0.0,6.1,1,0,38,38,42,,,,,142.7118735999975,143.36256929999217,143.36256929999217,143.86384249999537,315,45,143.86384249999537,143.86384249999537,143.86384249999537,143.86384249999537,143.86384249999537,143.86384249999537,143.86384249999537,143.86384249999537,143.86384249999537,144.23009599998477,144.23009599998477,144.23009599998477,144.23009599998477,144.23009599998477,144.23009599998477,144.23009599998477,144.23009599998477,144.23009599998477,23,0,,,144.23009599998477,144.43054709999706,1000,144.43054709999706,1000,1000,1000,1000,1,num_2,0.6261608999921009,,18,5,2026-03-02_10h40.01.749,2026A_exp2,2022.2.4,59.910374074453735,
1000,1,4.9,6.1,0,0,39,39,36,,,,,145.08136859998922,145.73155729999417,145.73155729999417,146.21611000000848,45,315,146.21611000000848,146.21611000000848,146.21611000000848,146.21611000000848,146.21611000000848,146.21611000000848,146.21611000000848,146.21611000000848,146.21611000000848,146.5825732999947,146.5825732999947,146.5825732999947,146.5825732999947,146.5825732999947,146.5825732999947,146.5825732999947,146.5825732999947,146.5825732999947,23,0,,,146.5825732999947,146.78290759999072,1000,146.78290759999072,1000,1000,1000,1000,0,num_3,0.4892446000012569,,18,5,2026-03-02_10h40.01.749,2026A_exp2,2022.2.4,59.910374074453735,
1,0,0.0,0.0,0,0,40,40,87,,,,,147.2998704999918,147.95049149999977,147.95049149999977,148.4350012000068,315,315,148.4350012000068,148.4350012000068,148.4350012000068,148.4350012000068,148.4350012000068,148.4350012000068,148.4350012000068,148.4350012000068,148.4350012000068,148.80180439999094,148.80180439999094,148.80180439999094,148.80180439999094,148.80180439999094,148.80180439999094,148.80180439999094,148.80180439999094,148.80180439999094,23,0,,,148.80180439999094,149.0017455999914,0.0,149.0017455999914,1,0.0,0,0,1000,num_4,0.5670484000002034,,18,5,2026-03-02_10h40.01.749,2026A_exp2,2022.2.4,59.910374074453735,
1000,1,0.0,0.0,1,0,41,41,55,,,,,149.58515470000566,150.2195711999957,150.2195711999957,150.72046000001137,45,45,150.72046000001137,150.72046000001137,150.72046000001137,150.72046000001137,150.72046000001137,150.72046000001137,150.72046000001137,150.72046000001137,150.72046000001137,151.0868546999991,151.0868546999991,151.0868546999991,151.0868546999991,151.0868546999991,151.0868546999991,151.0868546999991,151.0868546999991,151.0868546999991,23,0,,,151.0868546999991,151.28723439999158,1000,151.28723439999158,1000,1000,1000,1000,0,num_3,1.3769502000068314,,18,5,2026-03-02_10h40.01.749,2026A_exp2,2022.2.4,59.910374074453735,
1,0,3.7,0.0,1,0,42,42,30,,,,,152.68881779999356,153.33910549999564,153.33910549999564,153.82397120000678,45,315,153.82397120000678,153.82397120000678,153.82397120000678,153.82397120000678,153.82397120000678,153.82397120000678,153.82397120000678,153.82397120000678,153.82397120000678,154.1901566000015,154.1901566000015,154.1901566000015,154.1901566000015,154.1901566000015,154.1901566000015,154.1901566000015,154.1901566000015,154.1901566000015,23,0,,,154.1901566000015,154.39030589998583,0.0,154.39030589998583,0,0.0,0,1,1000,num_1,0.7782891000097152,,18,5,2026-03-02_10h40.01.749,2026A_exp2,2022.2.4,59.910374074453735,
1000,1,3.7,6.1,1,0,43,43,75,,,,,155.19118699998944,155.82509470000514,155.82509470000514,156.32570190000115,45,45,156.32570190000115,156.32570190000115,156.32570190000115,156.32570190000115,156.32570190000115,156.32570190000115,156.32570190000115,156.32570190000115,156.32570190000115,156.69219349999912,156.69219349999912,156.69219349999912,156.69219349999912,156.69219349999912,156.69219349999912,156.69219349999912,156.69219349999912,156.69219349999912,23,0,,,156.69219349999912,156.89252540000598,1000,156.89252540000598,1000,1000,1000,1000,1,num_2,0.5884477000217885,,18,5,2026-03-02_10h40.01.749,2026A_exp2,2022.2.4,59.910374074453735,
1000,1,0.0,3.7,0,0,44,44,43,,,,,157.51071760000195,158.16069290001178,158.16069290001178,158.66157890000613,45,45,158.66157890000613,158.66157890000613,158.66157890000613,158.66157890000613,158.66157890000613,158.66157890000613,158.66157890000613,158.66157890000613,158.66157890000613,159.02789490000578,159.02789490000578,159.02789490000578,159.02789490000578,159.02789490000578,159.02789490000578,159.02789490000578,159.02789490000578,159.02789490000578,23,0,,,159.02789490000578,159.22838179999962,1000,159.22838179999962,1000,1000,1000,1000,0,num_3,0.8043213999771979,,18,5,2026-03-02_10h40.01.749,2026A_exp2,2022.2.4,59.910374074453735,
1000,1,0.0,4.9,0,0,45,45,0,,,,,160.06236839998746,160.69687670000712,160.69687670000712,161.1977673000074,45,315,161.1977673000074,161.1977673000074,161.1977673000074,161.1977673000074,161.1977673000074,161.1977673000074,161.1977673000074,161.1977673000074,161.1977673000074,161.56381789999432,161.56381789999432,161.56381789999432,161.56381789999432,161.56381789999432,161.56381789999432,161.56381789999432,161.56381789999432,161.56381789999432,23,0,,,161.56381789999432,161.76441539998632,1000,161.76441539998632,1000,1000,1000,1000,0,num_3,0.3960576999816112,,18,5,2026-03-02_10h40.01.749,2026A_exp2,2022.2.4,59.910374074453735,
1,0,0.0,0.0,1,0,46,46,33,,,,,162.181640099996,162.81540749999112,162.81540749999112,163.3334055999876,315,45,163.3334055999876,163.3334055999876,163.3334055999876,163.3334055999876,163.3334055999876,163.3334055999876,163.3334055999876,163.3334055999876,163.3334055999876,163.6828375000041,163.6828375000041,163.6828375000041,163.6828375000041,163.6828375000041,163.6828375000041,163.6828375000041,163.6828375000041,163.6828375000041,22,0,,,163.6828375000041,163.88315129998955,0.0,163.88315129998955,0,0.0,0,1,1000,num_1,0.8457432000141125,,18,5,2026-03-02_10h40.01.749,2026A_exp2,2022.2.4,59.910374074453735,
1000,1,6.1,4.9,0,0,47,47,81,,,,,164.7506783999852,165.40139519999502,165.40139519999502,165.88569120000466,45,315,165.88569120000466,165.88569120000466,165.88569120000466,165.88569120000466,165.88569120000466,165.88569120000466,165.88569120000466,165.88569120000466,165.88569120000466,166.25220670001,166.25220670001,166.25220670001,166.25220670001,166.25220670001,166.25220670001,166.25220670001,166.25220670001,166.25220670001,23,0,,,166.25220670001,166.45232280000346,1000,166.45232280000346,1000,1000,1000,1000,0,num_3,0.49252359999809414,,18,5,2026-03-02_10h40.01.749,2026A_exp2,2022.2.4,59.910374074453735,
1,0,0.0,4.9,0,0,48,48,14,,,,,166.96944300000905,167.61998660000972,167.61998660000972,168.12114709999878,45,315,168.12114709999878,168.12114709999878,168.12114709999878,168.12114709999878,168.12114709999878,168.12114709999878,168.12114709999878,168.12114709999878,168.12114709999878,168.48747029999504,168.48747029999504,168.48747029999504,168.48747029999504,168.48747029999504,168.48747029999504,168.48747029999504,168.48747029999504,168.48747029999504,23,0,,,168.48747029999504,168.68796859998838,0.0,168.68796859998838,1,0.0,0,0,1000,num_4,1.376490399998147,,18,5,2026-03-02_10h40.01.749,2026A_exp2,2022.2.4,59.910374074453735,
1,0,0.0,4.9,0,0,49,49,32,,,,,170.0892176000052,170.72298489999957,170.72298489999957,171.22452339998563,45,45,171.22452339998563,171.22452339998563,171.22452339998563,171.22452339998563,171.22452339998563,171.22452339998563,171.22452339998563,171.22452339998563,171.22452339998563,171.59170910000103,171.59170910000103,171.59170910000103,171.59170910000103,171.59170910000103,171.59170910000103,171.59170910000103,171.59170910000103,171.59170910000103,23,0,,,171.59170910000103,171.79112459998578,0.0,171.79112459998578,0,0.0,0,1,1000,num_1,0.9695813000143971,,18,5,2026-03-02_10h40.01.749,2026A_exp2,2022.2.4,59.910374074453735,
1000,1,0.0,0.0,0,0,50,50,89,,,,,172.7923754999938,173.4271041000029,173.4271041000029,173.92704260000028,315,315,173.92704260000028,173.92704260000028,173.92704260000028,173.92704260000028,173.92704260000028,173.92704260000028,173.92704260000028,173.92704260000028,173.92704260000028,174.29347780000535,174.29347780000535,174.29347780000535,174.29347780000535,174.29347780000535,174.29347780000535,174.29347780000535,174.29347780000535,174.29347780000535,23,0,,,174.29347780000535,174.4940193000075,1000,174.4940193000075,1000,1000,1000,1000,0,num_3,0.6104669999913312,,18,5,2026-03-02_10h40.01.749,2026A_exp2,2022.2.4,59.910374074453735,
1000,1,0.0,0.0,1,0,51,51,3,,,,,175.12770209999871,175.77848690000246,175.77848690000246,176.27932589998818,45,45,176.27932589998818,176.27932589998818,176.27932589998818,176.27932589998818,176.27932589998818,176.27932589998818,176.27932589998818,176.27932589998818,176.27932589998818,176.62956659999327,176.62956659999327,176.62956659999327,176.62956659999327,176.62956659999327,176.62956659999327,176.62956659999327,176.62956659999327,176.62956659999327,22,0,,,176.62956659999327,176.82956759998342,1000,176.84624809998786,1000,1000,1000,1000,0,num_3,0.6509029999724589,,18,5,2026-03-02_10h40.01.749,2026A_exp2,2022.2.4,59.910374074453735,
1000,1,0.0,3.7,1,0,52,52,88,,,,,177.51372640000773,178.16385839998838,178.16385839998838,178.6484105999989,45,45,178.6484105999989,178.6484105999989,178.6484105999989,178.6484105999989,178.6484105999989,178.6484105999989,178.6484105999989,178.6484105999989,178.6484105999989,179.01474809998763,179.01474809998763,179.01474809998763,179.01474809998763,179.01474809998763,179.01474809998763,179.01474809998763,179.01474809998763,179.01474809998763,23,0,,,179.01474809998763,179.21522270000423,1000,179.21522270000423,1000,1000,1000,1000,1,num_2,0.5215738999831956,,18,5,2026-03-02_10h40.01.749,2026A_exp2,2022.2.4,59.910374074453735,
1000,1,6.1,0.0,0,0,53,53,58,,,,,179.765381300007,180.4161891999829,180.4161891999829,180.90066499999375,315,315,180.90066499999375,180.90066499999375,180.90066499999375,180.90066499999375,180.90066499999375,180.90066499999375,180.90066499999375,180.90066499999375,180.90066499999375,181.26696380000794,181.26696380000794,181.26696380000794,181.26696380000794,181.26696380000794,181.26696380000794,181.26696380000794,181.26696380000794,181.26696380000794,23,0,,,181.26696380000794,181.46713279999676,1000,181.46713279999676,1000,1000,1000,1000,0,num_3,0.4294512999767903,,18,5,2026-03-02_10h40.01.749,2026A_exp2,2022.2.4,59.910374074453735,
0,0,6.1,0.0,0,0,54,54,41,,,,,181.91773479999392,182.5517525000032,182.5517525000032,183.0527359000116,45,45,183.0527359000116,183.0527359000116,183.0527359000116,183.0527359000116,183.0527359000116,183.0527359000116,183.0527359000116,183.0527359000116,183.0527359000116,183.41911069999333,183.41911069999333,183.41911069999333,183.41911069999333,183.41911069999333,183.41911069999333,183.41911069999333,183.41911069999333,183.41911069999333,23,0,,,183.41911069999333,183.61938190000365,0.0,183.61938190000365,0,0.0,0,1,1000,num_1,1.3816931000037584,,18,5,2026-03-02_10h40.01.749,2026A_exp2,2022.2.4,59.910374074453735,
1000,1,0.0,6.1,0,0,55,55,61,,,,,185.0211263000092,185.65556069999002,185.65556069999002,186.15574690001085,45,315,186.15574690001085,186.15574690001085,186.15574690001085,186.15574690001085,186.15574690001085,186.15574690001085,186.15574690001085,186.15574690001085,186.15574690001085,186.5222597999964,186.5222597999964,186.5222597999964,186.5222597999964,186.5222597999964,186.5222597999964,186.5222597999964,186.5222597999964,186.5222597999964,23,0,,,186.5222597999964,186.7227569000097,1000,186.7227569000097,1000,1000,1000,1000,0,num_3,0.6783906000200659,,18,5,2026-03-02_10h40.01.749,2026A_exp2,2022.2.4,59.910374074453735,
1,0,4.9,6.1,0,0,56,56,82,,,,,187.42334139999002,188.073664800002,188.073664800002,188.55826170000364,315,45,188.55826170000364,188.55826170000364,188.55826170000364,188.55826170000364,188.55826170000364,188.55826170000364,188.55826170000364,188.55826170000364,188.55826170000364,188.92459079998662,188.92459079998662,188.92459079998662,188.92459079998662,188.92459079998662,188.92459079998662,188.92459079998662,188.92459079998662,188.92459079998662,23,0,,,188.92459079998662,189.12487900000997,4.9,189.12487900000997,1,4.9,1,1,1000,num_4,0.9156437999918126,,18,5,2026-03-02_10h40.01.749,2026A_exp2,2022.2.4,59.910374074453735,
1000,1,0.0,0.0,0,0,57,57,45,,,,,190.05900959999417,190.6935472000041,190.6935472000041,191.19449349999195,315,315,191.19449349999195,191.19449349999195,191.19449349999195,191.19449349999195,191.19449349999195,191.19449349999195,191.19449349999195,191.19449349999195,191.19449349999195,191.56053479999537,191.56053479999537,191.56053479999537,191.56053479999537,191.56053479999537,191.56053479999537,191.56053479999537,191.56053479999537,191.56053479999537,23,0,,,191.56053479999537,191.761207500007,1000,191.761207500007,1000,1000,1000,1000,0,num_3,0.9753668999765068,,18,5,2026-03-02_10h40.01.749,2026A_exp2,2022.2.4,59.910374074453735,
1000,1,0.0,0.0,1,0,58,58,2,,,,,192.76186689999304,193.39621879998595,193.39621879998595,193.89684810000472,315,45,193.89684810000472,193.89684810000472,193.89684810000472,193.89684810000472,193.89684810000472,193.89684810000472,193.89684810000472,193.89684810000472,193.89684810000472,194.26382230001036,194.26382230001036,194.26382230001036,194.26382230001036,194.26382230001036,194.26382230001036,194.26382230001036,194.26382230001036,194.26382230001036,23,0,,,194.26382230001036,194.46360260000802,1000,194.46360260000802,1000,1000,1000,1000,0,num_3,1.0009231000149157,,18,5,2026-03-02_10h40.01.749,2026A_exp2,2022.2.4,59.910374074453735,
1,0,0.0,0.0,1,0,59,59,83,,,,,195.48127039999235,196.13217530000838,196.13217530000838,196.63279139998485,315,45,196.63279139998485,196.63279139998485,196.63279139998485,196.63279139998485,196.63279139998485,196.63279139998485,196.63279139998485,196.63279139998485,196.63279139998485,196.98271169999498,196.98271169999498,196.98271169999498,196.98271169999498,196.98271169999498,196.98271169999498,196.98271169999498,196.98271169999498,196.98271169999498,22,0,,,196.98271169999498,197.1830312999955,0.0,197.1830312999955,0,0.0,0,1,1000,num_1,0.9777146000124048,,18,5,2026-03-02_10h40.01.749,2026A_exp2,2022.2.4,59.910374074453735,
0,0,6.1,0.0,1,0,60,60,25,,,,,198.18387430001167,198.8179919999966,198.8179919999966,199.31888189999154,315,315,199.31888189999154,199.31888189999154,199.31888189999154,199.31888189999154,199.31888189999154,199.31888189999154,199.31888189999154,199.31888189999154,199.31888189999154,199.68591179998475,199.68591179998475,199.68591179998475,199.68591179998475,199.68591179998475,199.68591179998475,199.68591179998475,199.68591179998475,199.68591179998475,23,0,,,199.68591179998475,199.88566890000948,6.1,199.88566890000948,1,6.1,1,1,1000,num_4,1.0347580999950878,,18,5,2026-03-02_10h40.01.749,2026A_exp2,2022.2.4,59.910374074453735,
0,0,0.0,0.0,1,0,61,61,44,,,,,200.93687320000026,201.58747530000983,201.58747530000983,202.073114800005,45,315,202.073114800005,202.073114800005,202.073114800005,202.073114800005,202.073114800005,202.073114800005,202.073114800005,202.073114800005,202.073114800005,202.43860560000758,202.43860560000758,202.43860560000758,202.43860560000758,202.43860560000758,202.43860560000758,202.43860560000758,202.43860560000758,202.43860560000758,23,0,,,202.43860560000758,202.63893950000056,0.0,202.63893950000056,1,0.0,0,0,1000,num_4,0.8095675999938976,,18,5,2026-03-02_10h40.01.749,2026A_exp2,2022.2.4,59.910374074453735,
0,0,4.9,0.0,0,0,62,62,84,,,,,203.47314680001,204.1237153999973,204.1237153999973,204.62424109998392,315,315,204.62424109998392,204.62424109998392,204.62424109998392,204.62424109998392,204.62424109998392,204.62424109998392,204.62424109998392,204.62424109998392,204.62424109998392,204.99056020000717,204.99056020000717,204.99056020000717,204.99056020000717,204.99056020000717,204.99056020000717,204.99056020000717,204.99056020000717,204.99056020000717,23,0,,,204.99056020000717,205.1907332999981,0.0,205.1907332999981,0,0.0,0,1,1000,num_1,0.666482000000542,,18,5,2026-03-02_10h40.01.749,2026A_exp2,2022.2.4,59.910374074453735,
1000,1,4.9,3.7,1,0,63,63,78,,,,,205.8750849000062,206.52544359999592,206.52544359999592,207.0266224000079,315,45,207.0266224000079,207.0266224000079,207.0266224000079,207.0266224000079,207.0266224000079,207.0266224000079,207.0266224000079,207.0266224000079,207.0266224000079,207.37650469999062,207.37650469999062,207.37650469999062,207.37650469999062,207.37650469999062,207.37650469999062,207.37650469999062,207.37650469999062,207.37650469999062,22,0,,,207.37650469999062,207.5767751999956,1000,207.5767751999956,1000,1000,1000,1000,0,num_3,0.9762018999899738,,18,5,2026-03-02_10h40.01.749,2026A_exp2,2022.2.4,59.910374074453735,
0,0,6.1,3.7,0,0,64,64,49,,,,,208.5778510000091,209.2284759999893,209.2284759999893,209.72958300000755,45,45,209.72958300000755,209.72958300000755,209.72958300000755,209.72958300000755,209.72958300000755,209.72958300000755,209.72958300000755,209.72958300000755,209.72958300000755,210.07944539998425,210.07944539998425,210.07944539998425,210.07944539998425,210.07944539998425,210.07944539998425,210.07944539998425,210.07944539998425,210.07944539998425,22,0,,,210.07944539998425,210.27934069998446,3.7,210.27934069998446,0,3.7,1,0,1000,num_1,0.793495999998413,,18,5,2026-03-02_10h40.01.749,2026A_exp2,2022.2.4,59.910374074453735,
1,0,3.7,0.0,0,0,65,65,10,,,,,211.09683110000333,211.73084499998367,211.73084499998367,212.23190859999158,315,45,212.23190859999158,212.23190859999158,212.23190859999158,212.23190859999158,212.23190859999158,212.23190859999158,212.23190859999158,212.23190859999158,212.23190859999158,212.59842950000893,212.59842950000893,212.59842950000893,212.59842950000893,212.59842950000893,212.59842950000893,212.59842950000893,212.59842950000893,212.59842950000893,23,0,,,212.59842950000893,212.7992438999936,3.7,212.7992438999936,1,3.7,1,1,1000,num_4,0.9131515999906696,,18,5,2026-03-02_10h40.01.749,2026A_exp2,2022.2.4,59.910374074453735,
1,0,6.1,0.0,1,0,66,66,17,,,,,213.73306009999942,214.38346230000025,214.38346230000025,214.88459750000038,315,45,214.88459750000038,214.88459750000038,214.88459750000038,214.88459750000038,214.88459750000038,214.88459750000038,214.88459750000038,214.88459750000038,214.88459750000038,215.25098019998404,215.25098019998404,215.25098019998404,215.25098019998404,215.25098019998404,215.25098019998404,215.25098019998404,215.25098019998404,215.25098019998404,23,0,,,215.25098019998404,215.4510486999934,0.0,215.4510486999934,0,0.0,0,1,1000,num_1,0.885277599998517,,18,5,2026-03-02_10h40.01.749,2026A_exp2,2022.2.4,59.910374074453735,
1000,1,6.1,6.1,1,0,67,67,22,,,,,216.35247290000552,217.0028032999835,217.0028032999835,217.48746850001044,45,45,217.48746850001044,217.48746850001044,217.48746850001044,217.48746850001044,217.48746850001044,217.48746850001044,217.48746850001044,217.48746850001044,217.48746850001044,217.85406859999057,217.85406859999057,217.85406859999057,217.85406859999057,217.85406859999057,217.85406859999057,217.85406859999057,217.85406859999057,217.85406859999057,23,0,,,217.85406859999057,218.05399479999323,1000,218.05399479999323,1000,1000,1000,1000,1,num_2,0.7470911999989767,,18,5,2026-03-02_10h40.01.749,2026A_exp2,2022.2.4,59.910374074453735,
1,0,4.9,4.9,1,0,68,68,9,,,,,218.8215166000009,219.47182179999072,219.47182179999072,219.9729667000065,45,45,219.9729667000065,219.9729667000065,219.9729667000065,219.9729667000065,219.9729667000065,219.9729667000065,219.9729667000065,219.9729667000065,219.9729667000065,220.322888900002,220.322888900002,220.322888900002,220.322888900002,220.322888900002,220.322888900002,220.322888900002,220.322888900002,220.322888900002,22,0,,,220.322888900002,220.52299880000646,4.9,220.52299880000646,1,4.9,1,1,1000,num_4,0.6780043999897316,,18,5,2026-03-02_10h40.01.749,2026A_exp2,2022.2.4,59.910374074453735,
1000,1,0.0,0.0,0,0,69,69,64,,,,,221.2237441999896,221.8574682000035,221.8574682000035,222.35890110000037,45,45,222.35890110000037,222.35890110000037,222.35890110000037,222.35890110000037,222.35890110000037,222.35890110000037,222.35890110000037,222.35890110000037,222.35890110000037,222.72523559999536,222.72523559999536,222.72523559999536,222.72523559999536,222.72523559999536,222.72523559999536,222.72523559999536,222.72523559999536,222.72523559999536,23,0,,,222.72523559999536,222.92550330000813,1000,222.92550330000813,1000,1000,1000,1000,0,num_3,1.1387281999923289,,18,5,2026-03-02_10h40.01.749,2026A_exp2,2022.2.4,59.910374074453735,
1,0,0.0,0.0,1,0,70,70,31,,,,,224.09320840000873,224.72839509998448,224.72839509998448,225.22833360001096,45,315,225.22833360001096,225.22833360001096,225.22833360001096,225.22833360001096,225.22833360001096,225.22833360001096,225.22833360001096,225.22833360001096,225.22833360001096,225.59478069999022,225.59478069999022,225.59478069999022,225.59478069999022,225.59478069999022,225.59478069999022,225.59478069999022,225.59478069999022,225.59478069999022,23,0,,,225.59478069999022,225.79525190001004,0.0,225.79525190001004,0,0.0,0,1,1000,num_1,0.6378410999896005,,18,5,2026-03-02_10h40.01.749,2026A_exp2,2022.2.4,59.910374074453735,
0,0,3.7,0.0,1,0,71,71,1,,,,,226.46244929998647,227.0964576000115,227.0964576000115,227.5978194999916,315,45,227.5978194999916,227.5978194999916,227.5978194999916,227.5978194999916,227.5978194999916,227.5978194999916,227.5978194999916,227.5978194999916,227.5978194999916,227.96379249999882,227.96379249999882,227.96379249999882,227.96379249999882,227.96379249999882,227.96379249999882,227.96379249999882,227.96379249999882,227.96379249999882,23,0,,,227.96379249999882,228.16413689998444,3.7,228.16413689998444,1,3.7,1,1,1000,num_4,0.8690133999916725,,18,5,2026-03-02_10h40.01.749,2026A_exp2,2022.2.4,59.910374074453735,
1000,1,3.7,0.0,0,0,72,72,39,,,,,229.06494429998565,229.69889939998393,229.69889939998393,230.2001833000104,315,45,230.2001833000104,230.2001833000104,230.2001833000104,230.2001833000104,230.2001833000104,230.2001833000104,230.2001833000104,230.2001833000104,230.2001833000104,230.56620130001102,230.56620130001102,230.56620130001102,230.56620130001102,230.56620130001102,230.56620130001102,230.56620130001102,230.56620130001102,230.56620130001102,23,0,,,230.56620130001102,230.7666016999865,1000,230.7666016999865,1000,1000,1000,1000,1,num_2,1.1863079000031576,,18,5,2026-03-02_10h40.01.749,2026A_exp2,2022.2.4,59.910374074453735,
1000,1,0.0,0.0,1,0,73,73,56,,,,,231.98563770001056,232.61888950000866,232.61888950000866,233.11964859999716,315,315,233.11964859999716,233.11964859999716,233.11964859999716,233.11964859999716,233.11964859999716,233.11964859999716,233.11964859999716,233.11964859999716,233.11964859999716,233.48596270001144,233.48596270001144,233.48596270001144,233.48596270001144,233.48596270001144,233.48596270001144,233.48596270001144,233.48596270001144,233.48596270001144,23,0,,,233.48596270001144,233.68654339999193,1000,233.68654339999193,1000,1000,1000,1000,0,num_3,0.7057201999996323,,18,5,2026-03-02_10h40.01.749,2026A_exp2,2022.2.4,59.910374074453735,
1000,1,0.0,4.9,1,0,74,74,37,,,,,234.42066860001069,235.07098670001142,235.07098670001142,235.57180519998656,45,315,235.57180519998656,235.57180519998656,235.57180519998656,235.57180519998656,235.57180519998656,235.57180519998656,235.57180519998656,235.57180519998656,235.57180519998656,235.92200580000645,235.92200580000645,235.92200580000645,235.92200580000645,235.92200580000645,235.92200580000645,235.92200580000645,235.92200580000645,235.92200580000645,22,0,,,235.92200580000645,236.12159140000585,1000,236.13808279999648,1000,1000,1000,1000,0,num_3,0.4547259999962989,,18,5,2026-03-02_10h40.01.749,2026A_exp2,2022.2.4,59.910374074453735,
1000,1,3.7,4.9,1,0,75,75,71,,,,,236.62229639998986,237.27287829999113,237.27287829999113,237.75768750000861,315,315,237.75768750000861,237.75768750000861,237.75768750000861,237.75768750000861,237.75768750000861,237.75768750000861,237.75768750000861,237.75768750000861,237.75768750000861,238.12413710000692,238.12413710000692,238.12413710000692,238.12413710000692,238.12413710000692,238.12413710000692,238.12413710000692,238.12413710000692,238.12413710000692,23,0,,,238.12413710000692,238.32401029998437,1000,238.32401029998437,1000,1000,1000,1000,1,num_2,0.820846899994649,,18,5,2026-03-02_10h40.01.749,2026A_exp2,2022.2.4,59.910374074453735,
1,0,0.0,0.0,0,0,76,76,80,,,,,239.1749831000052,239.82559550000587,239.82559550000587,240.3268432999903,45,315,240.3268432999903,240.3268432999903,240.3268432999903,240.3268432999903,240.3268432999903,240.3268432999903,240.3268432999903,240.3268432999903,240.3268432999903,240.69305739999982,240.69305739999982,240.69305739999982,240.69305739999982,240.69305739999982,240.69305739999982,240.69305739999982,240.69305739999982,240.69305739999982,23,0,,,240.69305739999982,240.8931726999872,0.0,240.8931726999872,1,0.0,0,0,1000,num_4,1.2199717999901623,,18,5,2026-03-02_10h40.01.749,2026A_exp2,2022.2.4,59.910374074453735,
1,0,3.7,6.1,1,0,77,77,68,,,,,242.1445115999959,242.77833790000295,242.77833790000295,243.279673299985,315,45,243.279673299985,243.279673299985,243.279673299985,243.279673299985,243.279673299985,243.279673299985,243.279673299985,243.279673299985,243.279673299985,243.64621649999754,243.64621649999754,243.64621649999754,243.64621649999754,243.64621649999754,243.64621649999754,243.64621649999754,243.64621649999754,243.64621649999754,23,0,,,243.64621649999754,243.8464779999922,6.1,243.8464779999922,1,6.1,1,1,1000,num_4,0.4900960999948438,,18,5,2026-03-02_10h40.01.749,2026A_exp2,2022.2.4,59.910374074453735,
1000,1,3.7,0.0,0,0,78,78,86,,,,,244.36363710000296,244.99742470000638,244.99742470000638,245.49855910000042,45,315,245.49855910000042,245.49855910000042,245.49855910000042,245.49855910000042,245.49855910000042,245.49855910000042,245.49855910000042,245.49855910000042,245.49855910000042,245.86485750001157,245.86485750001157,245.86485750001157,245.86485750001157,245.86485750001157,245.86485750001157,245.86485750001157,245.86485750001157,245.86485750001157,23,0,,,245.86485750001157,246.06526599999052,1000,246.06526599999052,1000,1000,1000,1000,0,num_3,0.7511971999774687,,18,5,2026-03-02_10h40.01.749,2026A_exp2,2022.2.4,59.910374074453735,
1000,1,4.9,0.0,1,0,79,79,12,,,,,246.83263160000206,247.48321750000468,247.48321750000468,247.96772789998795,45,45,247.96772789998795,247.96772789998795,247.96772789998795,247.96772789998795,247.96772789998795,247.96772789998795,247.96772789998795,247.96772789998795,247.96772789998795,248.33423629999743,248.33423629999743,248.33423629999743,248.33423629999743,248.33423629999743,248.33423629999743,248.33423629999743,248.33423629999743,248.33423629999743,23,0,,,248.33423629999743,248.53446609998355,1000,248.53446609998355,1000,1000,1000,1000,0,num_3,1.802539299998898,,18,5,2026-03-02_10h40.01.749,2026A_exp2,2022.2.4,59.910374074453735,
1,0,4.9,0.0,0,0,80,80,66,,,,,250.35288799999398,251.00359099998605,251.00359099998605,251.48826720000943,45,315,251.48826720000943,251.48826720000943,251.48826720000943,251.48826720000943,251.48826720000943,251.48826720000943,251.48826720000943,251.48826720000943,251.48826720000943,251.85431009999593,251.85431009999593,251.85431009999593,251.85431009999593,251.85431009999593,251.85431009999593,251.85431009999593,251.85431009999593,251.85431009999593,23,0,,,251.85431009999593,252.05439249999472,4.9,252.05439249999472,1,4.9,1,1,1000,num_4,0.825826699991012,,18,5,2026-03-02_10h40.01.749,2026A_exp2,2022.2.4,59.910374074453735,
1000,1,4.9,0.0,0,0,81,81,50,,,,,252.90532719998737,253.53961219999474,253.53961219999474,254.04103829999804,315,45,254.04103829999804,254.04103829999804,254.04103829999804,254.04103829999804,254.04103829999804,254.04103829999804,254.04103829999804,254.04103829999804,254.04103829999804,254.40697459998773,254.40697459998773,254.40697459998773,254.40697459998773,254.40697459998773,254.40697459998773,254.40697459998773,254.40697459998773,254.40697459998773,23,0,,,254.40697459998773,254.60719969999627,1000,254.60719969999627,1000,1000,1000,1000,0,num_3,0.6010113999946043,,18,5,2026-03-02_10h40.01.749,2026A_exp2,2022.2.4,59.910374074453735,
0,0,0.0,3.7,1,0,82,82,53,,,,,255.2244301000028,255.87493749998976,255.87493749998976,256.3596836999932,45,45,256.3596836999932,256.3596836999932,256.3596836999932,256.3596836999932,256.3596836999932,256.3596836999932,256.3596836999932,256.3596836999932,256.3596836999932,256.74220519998926,256.74220519998926,256.74220519998926,256.74220519998926,256.74220519998926,256.74220519998926,256.74220519998926,256.74220519998926,256.74220519998926,24,0,,,256.74220519998926,256.9426287999959,0.0,256.9426287999959,0,0.0,0,1,1000,num_1,2.018142800021451,,18,5,2026-03-02_10h40.01.749,2026A_exp2,2022.2.4,59.910374074453735,
1000,1,4.9,6.1,1,0,83,83,5,,,,,258.9785223999934,259.61220919998595,259.61220919998595,260.1133244000084,45,45,260.1133244000084,260.1133244000084,260.1133244000084,260.1133244000084,260.1133244000084,260.1133244000084,260.1133244000084,260.1133244000084,260.1133244000084,260.4797230999975,260.4797230999975,260.4797230999975,260.4797230999975,260.4797230999975,260.4797230999975,260.4797230999975,260.4797230999975,260.4797230999975,23,0,,,260.4797230999975,260.67993369998294,1000,260.67993369998294,1000,1000,1000,1000,1,num_2,0.6327411999809556,,18,5,2026-03-02_10h40.01.749,2026A_exp2,2022.2.4,59.910374074453735,
1000,1,0.0,6.1,1,0,84,84,74,,,,,261.33091140000033,261.98112549999496,261.98112549999496,262.48261239999556,45,45,262.48261239999556,262.48261239999556,262.48261239999556,262.48261239999556,262.48261239999556,262.48261239999556,262.48261239999556,262.48261239999556,262.48261239999556,262.83244840000407,262.83244840000407,262.83244840000407,262.83244840000407,262.83244840000407,262.83244840000407,262.83244840000407,262.83244840000407,262.83244840000407,22,0,,,262.83244840000407,263.032386899984,1000,263.05066750000697,1000,1000,1000,1000,1,num_2,0.4702777999918908,,18,5,2026-03-02_10h40.01.749,2026A_exp2,2022.2.4,59.910374074453735,
0,0,3.7,4.9,0,0,85,85,77,,,,,263.5496833999932,264.2001113999868,264.2001113999868,264.70104389998596,315,315,264.70104389998596,264.70104389998596,264.70104389998596,264.70104389998596,264.70104389998596,264.70104389998596,264.70104389998596,264.70104389998596,264.70104389998596,265.05077539998456,265.05077539998456,265.05077539998456,265.05077539998456,265.05077539998456,265.05077539998456,265.05077539998456,265.05077539998456,265.05077539998456,22,0,,,265.05077539998456,265.2514375000028,4.9,265.2514375000028,0,4.9,1,0,1000,num_1,1.6217136000050232,,18,5,2026-03-02_10h40.01.749,2026A_exp2,2022.2.4,59.910374074453735,
1000,1,3.7,3.7,0,0,86,86,59,,,,,266.90292269998463,267.5367822999833,267.5367822999833,268.0377668000001,315,45,268.0377668000001,268.0377668000001,268.0377668000001,268.0377668000001,268.0377668000001,268.0377668000001,268.0377668000001,268.0377668000001,268.0377668000001,268.4042722999875,268.4042722999875,268.4042722999875,268.4042722999875,268.4042722999875,268.4042722999875,268.4042722999875,268.4042722999875,268.4042722999875,23,0,,,268.4042722999875,268.6045778999978,1000,268.6045778999978,1000,1000,1000,1000,0,num_3,0.6201081000035629,,18,5,2026-03-02_10h40.01.749,2026A_exp2,2022.2.4,59.910374074453735,
1000,1,0.0,3.7,0,0,87,87,21,,,,,269.25527170000714,269.9056496999983,269.9056496999983,270.39001249999274,45,315,270.39001249999274,270.39001249999274,270.39001249999274,270.39001249999274,270.39001249999274,270.39001249999274,270.39001249999274,270.39001249999274,270.39001249999274,270.7565292000072,270.7565292000072,270.7565292000072,270.7565292000072,270.7565292000072,270.7565292000072,270.7565292000072,270.7565292000072,270.7565292000072,23,0,,,270.7565292000072,270.9567451000039,1000,270.9567451000039,1000,1000,1000,1000,0,num_3,0.6602588999958243,,18,5,2026-03-02_10h40.01.749,2026A_exp2,2022.2.4,59.910374074453735,
1000,1,0.0,3.7,0,0,88,88,76,,,,,271.64078940000036,272.29147080000257,272.29147080000257,272.77591470000334,45,45,272.77591470000334,272.77591470000334,272.77591470000334,272.77591470000334,272.77591470000334,272.77591470000334,272.77591470000334,272.77591470000334,272.77591470000334,273.14229960000375,273.14229960000375,273.14229960000375,273.14229960000375,273.14229960000375,273.14229960000375,273.14229960000375,273.14229960000375,273.14229960000375,23,0,,,273.14229960000375,273.3427606000041,1000,273.3427606000041,1000,1000,1000,1000,0,num_3,0.2975655999907758,,18,5,2026-03-02_10h40.01.749,2026A_exp2,2022.2.4,59.910374074453735,
1000,1,0.0,6.1,0,0,89,89,20,,,,,273.6591267999902,274.310424700001,274.310424700001,274.7948529999994,45,315,274.7948529999994,274.7948529999994,274.7948529999994,274.7948529999994,274.7948529999994,274.7948529999994,274.7948529999994,274.7948529999994,274.7948529999994,275.16094810000504,275.16094810000504,275.16094810000504,275.16094810000504,275.16094810000504,275.16094810000504,275.16094810000504,275.16094810000504,275.16094810000504,23,0,,,275.16094810000504,275.3614469000022,1000,275.3614469000022,1000,1000,1000,1000,1,num_2,0.6154087999893818,,18,5,2026-03-02_10h40.01.749,2026A_exp2,2022.2.4,59.910374074453735,
,,,,,,,,,,,,,,,,,,,,,,,,,,,,,,,,,,,,,,,,,,,,,,,,,,,,275.9982224999985,,,,,,,
