validity,detectorcomp,contrastCW,contrastCCW,precueCWorCCW,block_80trials.thisRepN,block_80trials.thisTrialN,block_80trials.thisN,block_80trials.thisIndex,etRecord.started,etRecord.stopped,text.started,text.stopped,text_4.started,text_4.stopped,text_6.started,text_6.stopped,oriCW,oriCCW,roi_2.started,grating_UR.started,grating_UL.started,grating_LR.started,grating_LL.started,noise_UR.started,noise_UL.started,noise_LR.started,noise_LL.started,roi_2.stopped,grating_UR.stopped,grating_UL.stopped,grating_LR.stopped,grating_LL.stopped,noise_UR.stopped,noise_UL.stopped,noise_LR.stopped,noise_LL.stopped,outframe,roi_2.numLooks,roi_2.timesOn,roi_2.timesOff,text_2.started,text_2.stopped,probedcontrast,key_resp.started,respdetect,relevantContrast,correctDetect,TorFdetect,respCWorCCW,key_resp.keys,key_resp.rt,feedback_display_.started,participantNo,blockNo,date,expName,psychopyVersion,frameRate,
1000,1,3.7,6.1,1,0,0,0,58,3.1599949579685926e-05,3.1599949579685926e-05,47.425038999994285,49.427649300021585,49.427649300021585,50.061985999986064,50.061985999986064,50.580463899997994,315,45,50.580463899997994,50.580463899997994,50.580463899997994,50.580463899997994,50.580463899997994,50.580463899997994,50.580463899997994,50.580463899997994,50.580463899997994,50.9294813000015,50.9294813000015,50.9294813000015,50.9294813000015,50.9294813000015,50.9294813000015,50.9294813000015,50.9294813000015,50.9294813000015,23,0,,,50.9294813000015,51.13653149997117,1000,51.13653149997117,1000,1000,1000,1000,1,num_2,0.7712754000094719,,26,4,2026-03-05_10h34.42.538,2026A_exp2,2022.2.4,60.03013513367115,
1000,1,3.7,0.0,1,0,1,1,19,,,,,51.93063189997338,52.58096699998714,52.58096699998714,53.08223270002054,45,315,53.08223270002054,53.08223270002054,53.08223270002054,53.08223270002054,53.08223270002054,53.08223270002054,53.08223270002054,53.08223270002054,53.08223270002054,53.44865659996867,53.44865659996867,53.44865659996867,53.44865659996867,53.44865659996867,53.44865659996867,53.44865659996867,53.44865659996867,53.44865659996867,23,0,,,53.44865659996867,53.65063440002268,1000,53.65063440002268,1000,1000,1000,1000,0,num_3,0.615857899945695,,26,4,2026-03-05_10h34.42.538,2026A_exp2,2022.2.4,60.03013513367115,
1,0,6.1,0.0,1,0,2,2,70,,,,,54.28290599997854,54.933497500023805,54.933497500023805,55.434408199973404,315,45,55.434408199973404,55.434408199973404,55.434408199973404,55.434408199973404,55.434408199973404,55.434408199973404,55.434408199973404,55.434408199973404,55.434408199973404,55.8009074999718,55.8009074999718,55.8009074999718,55.8009074999718,55.8009074999718,55.8009074999718,55.8009074999718,55.8009074999718,55.8009074999718,0,1,[0.0012107000220566988],[0.36717360001057386],55.8009074999718,56.00112510001054,0.0,56.00112510001054,0,0.0,0,1,1000,num_1,0.9221188999945298,,26,4,2026-03-05_10h34.42.538,2026A_exp2,2022.2.4,60.03013513367115,
1000,1,3.7,3.7,0,0,3,3,63,,,,,56.952190099982545,57.602745899988804,57.602745899988804,58.08720379997976,45,45,58.08720379997976,58.08720379997976,58.08720379997976,58.08720379997976,58.08720379997976,58.08720379997976,58.08720379997976,58.08720379997976,58.08720379997976,58.453651099989656,58.453651099989656,58.453651099989656,58.453651099989656,58.453651099989656,58.453651099989656,58.453651099989656,58.453651099989656,58.453651099989656,2,1,[0.033520600001793355],[0.36716700001852587],58.453651099989656,58.655522499990184,1000,58.655522499990184,1000,1000,1000,1000,0,num_3,0.5790436000097543,,26,4,2026-03-05_10h34.42.538,2026A_exp2,2022.2.4,60.03013513367115,
1,0,0.0,0.0,1,0,4,4,42,,,,,59.254510700004175,59.88841740001226,59.88841740001226,60.38956949999556,45,45,60.38956949999556,60.38956949999556,60.38956949999556,60.38956949999556,60.38956949999556,60.38956949999556,60.38956949999556,60.38956949999556,60.38956949999556,60.75597379996907,60.75597379996907,60.75597379996907,60.75597379996907,60.75597379996907,60.75597379996907,60.75597379996907,60.75597379996907,60.75597379996907,18,2,"[0.0012119999737478793, 0.10033579997252673]","[0.05042229994433001, 0.13376959995366633]",60.75597379996907,60.95619669998996,0.0,60.95619669998996,0,0.0,0,1,1000,num_1,1.070684699981939,,26,4,2026-03-05_10h34.42.538,2026A_exp2,2022.2.4,60.03013513367115,
1000,1,6.1,0.0,1,0,5,5,57,,,,,62.05726349999895,62.70793470001081,62.70793470001081,63.20904819999123,315,315,63.20904819999123,63.20904819999123,63.20904819999123,63.20904819999123,63.20904819999123,63.20904819999123,63.20904819999123,63.20904819999123,63.20904819999123,63.57526730000973,63.57526730000973,63.57526730000973,63.57526730000973,63.57526730000973,63.57526730000973,63.57526730000973,63.57526730000973,63.57526730000973,23,0,,,63.57526730000973,63.77758549997816,1000,63.77758549997816,1000,1000,1000,1000,0,num_3,0.4422970999730751,,26,4,2026-03-05_10h34.42.538,2026A_exp2,2022.2.4,60.03013513367115,
1000,1,0.0,0.0,1,0,6,6,1,,,,,64.24261549999937,64.89303899998777,64.89303899998777,65.39443709998159,315,315,65.39443709998159,65.39443709998159,65.39443709998159,65.39443709998159,65.39443709998159,65.39443709998159,65.39443709998159,65.39443709998159,65.39443709998159,65.74425839999458,65.74425839999458,65.74425839999458,65.74425839999458,65.74425839999458,65.74425839999458,65.74425839999458,65.74425839999458,65.74425839999458,10,6,"[0.0012060999870300293, 0.05025199998635799, 0.1015631000045687, 0.1666704000090249, 0.2335760000278242, 0.30064430000493303]","[0.01729019999038428, 0.08296790003078058, 0.11698440002510324, 0.21674970001913607, 0.2503749000024982, 0.3506133999908343]",65.74425839999458,65.94650489999913,1000,65.9611855999683,1000,1000,1000,1000,0,num_3,0.5385147000197321,,26,4,2026-03-05_10h34.42.538,2026A_exp2,2022.2.4,60.03013513367115,
1,0,0.0,0.0,1,0,7,7,69,,,,,66.52828620001674,67.1790839000023,67.1790839000023,67.68006139999488,45,45,67.68006139999488,67.68006139999488,67.68006139999488,67.68006139999488,67.68006139999488,67.68006139999488,67.68006139999488,67.68006139999488,67.68006139999488,68.04662029998144,68.04662029998144,68.04662029998144,68.04662029998144,68.04662029998144,68.04662029998144,68.04662029998144,68.04662029998144,68.04662029998144,3,3,"[0.0012144999927841127, 0.2673664999892935, 0.3172443999792449]","[0.23373680002987385, 0.3003995000035502, 0.3672700999886729]",68.04662029998144,68.2468310999684,0.0,68.2468310999684,0,0.0,0,1,1000,num_1,1.1641729999682866,,26,4,2026-03-05_10h34.42.538,2026A_exp2,2022.2.4,60.03013513367115,
1000,1,0.0,6.1,1,0,8,8,71,,,,,69.43115229997784,70.08201949996874,70.08201949996874,70.56621259998064,315,315,70.56621259998064,70.56621259998064,70.56621259998064,70.56621259998064,70.56621259998064,70.56621259998064,70.56621259998064,70.56621259998064,70.56621259998064,70.93283250002423,70.93283250002423,70.93283250002423,70.93283250002423,70.93283250002423,70.93283250002423,70.93283250002423,70.93283250002423,70.93283250002423,23,0,,,70.93283250002423,71.13505889999215,1000,71.13505889999215,1000,1000,1000,1000,1,num_2,0.6045306000160053,,26,4,2026-03-05_10h34.42.538,2026A_exp2,2022.2.4,60.03013513367115,
1000,1,3.7,4.9,0,0,9,9,45,,,,,71.76692740002181,72.41764629998943,72.41764629998943,72.91868529998465,45,45,72.91868529998465,72.91868529998465,72.91868529998465,72.91868529998465,72.91868529998465,72.91868529998465,72.91868529998465,72.91868529998465,72.91868529998465,73.28510480001569,73.28510480001569,73.28510480001569,73.28510480001569,73.28510480001569,73.28510480001569,73.28510480001569,73.28510480001569,73.28510480001569,23,0,,,73.28510480001569,73.48754210001789,1000,73.48754210001789,1000,1000,1000,1000,0,num_3,0.5314841999788769,,26,4,2026-03-05_10h34.42.538,2026A_exp2,2022.2.4,60.03013513367115,
0,0,4.9,3.7,0,0,10,10,28,,,,,74.03580000001239,74.68638420000207,74.68638420000207,75.18748169997707,45,45,75.18748169997707,75.18748169997707,75.18748169997707,75.18748169997707,75.18748169997707,75.18748169997707,75.18748169997707,75.18748169997707,75.18748169997707,75.53737420000834,75.53737420000834,75.53737420000834,75.53737420000834,75.53737420000834,75.53737420000834,75.53737420000834,75.53737420000834,75.53737420000834,22,0,,,75.53737420000834,75.73747860000003,3.7,75.754221900017,0,3.7,1,0,1000,num_1,0.7135755000053905,,26,4,2026-03-05_10h34.42.538,2026A_exp2,2022.2.4,60.03013513367115,
1,0,3.7,0.0,1,0,11,11,12,,,,,76.48819210001966,77.13882370002102,77.13882370002102,77.62332269997569,45,315,77.62332269997569,77.62332269997569,77.62332269997569,77.62332269997569,77.62332269997569,77.62332269997569,77.62332269997569,77.62332269997569,77.62332269997569,77.98984250001376,77.98984250001376,77.98984250001376,77.98984250001376,77.98984250001376,77.98984250001376,77.98984250001376,77.98984250001376,77.98984250001376,23,0,,,77.98984250001376,78.19003519997932,0.0,78.19003519997932,0,0.0,0,1,1000,num_1,0.7007866000058129,,26,4,2026-03-05_10h34.42.538,2026A_exp2,2022.2.4,60.03013513367115,
1000,1,4.9,3.7,0,0,12,12,40,,,,,78.90731330000563,79.55820219998714,79.55820219998714,80.04256029997487,315,315,80.04256029997487,80.04256029997487,80.04256029997487,80.04256029997487,80.04256029997487,80.04256029997487,80.04256029997487,80.04256029997487,80.04256029997487,80.40894410002511,80.40894410002511,80.40894410002511,80.40894410002511,80.40894410002511,80.40894410002511,80.40894410002511,80.40894410002511,80.40894410002511,23,0,,,80.40894410002511,80.61121750000166,1000,80.61121750000166,1000,1000,1000,1000,0,num_3,0.5039203999913298,,26,4,2026-03-05_10h34.42.538,2026A_exp2,2022.2.4,60.03013513367115,
1,0,4.9,3.7,1,0,13,13,27,,,,,81.14293420000467,81.79378419998102,81.79378419998102,82.29477779997978,315,45,82.29477779997978,82.29477779997978,82.29477779997978,82.29477779997978,82.29477779997978,82.29477779997978,82.29477779997978,82.29477779997978,82.29477779997978,82.64450980001129,82.64450980001129,82.64450980001129,82.64450980001129,82.64450980001129,82.64450980001129,82.64450980001129,82.64450980001129,82.64450980001129,22,0,,,82.64450980001129,82.84471500001382,3.7,82.86131770000793,0,3.7,1,0,1000,num_1,0.6773142000311054,,26,4,2026-03-05_10h34.42.538,2026A_exp2,2022.2.4,60.03013513367115,
1000,1,3.7,3.7,0,0,14,14,72,,,,,83.56195120001212,84.21273809997365,84.21273809997365,84.69726579997223,45,45,84.69726579997223,84.69726579997223,84.69726579997223,84.69726579997223,84.69726579997223,84.69726579997223,84.69726579997223,84.69726579997223,84.69726579997223,85.06359229999362,85.06359229999362,85.06359229999362,85.06359229999362,85.06359229999362,85.06359229999362,85.06359229999362,85.06359229999362,85.06359229999362,23,0,,,85.06359229999362,85.26594249997288,1000,85.26594249997288,1000,1000,1000,1000,0,num_3,0.5693692000349984,,26,4,2026-03-05_10h34.42.538,2026A_exp2,2022.2.4,60.03013513367115,
1,0,0.0,3.7,1,0,15,15,35,,,,,85.86458120000316,86.51507109997328,86.51507109997328,86.99953269999241,45,315,86.99953269999241,86.99953269999241,86.99953269999241,86.99953269999241,86.99953269999241,86.99953269999241,86.99953269999241,86.99953269999241,86.99953269999241,87.36581380001735,87.36581380001735,87.36581380001735,87.36581380001735,87.36581380001735,87.36581380001735,87.36581380001735,87.36581380001735,87.36581380001735,23,0,,,87.36581380001735,87.56622500001686,3.7,87.56622500001686,0,3.7,1,0,1000,num_1,1.2050381999579258,,26,4,2026-03-05_10h34.42.538,2026A_exp2,2022.2.4,60.03013513367115,
1000,1,6.1,0.0,0,0,16,16,81,,,,,88.80049940000754,89.45161579997512,89.45161579997512,89.93578459997661,315,45,89.93578459997661,89.93578459997661,89.93578459997661,89.93578459997661,89.93578459997661,89.93578459997661,89.93578459997661,89.93578459997661,89.93578459997661,90.30203640001127,90.30203640001127,90.30203640001127,90.30203640001127,90.30203640001127,90.30203640001127,90.30203640001127,90.30203640001127,90.30203640001127,23,0,,,90.30203640001127,90.50405779998982,1000,90.50405779998982,1000,1000,1000,1000,0,num_3,0.4905529000097886,,26,4,2026-03-05_10h34.42.538,2026A_exp2,2022.2.4,60.03013513367115,
1000,1,0.0,4.9,1,0,17,17,66,,,,,91.01945089997025,91.67024900001707,91.67024900001707,92.17119550000643,45,315,92.17119550000643,92.17119550000643,92.17119550000643,92.17119550000643,92.17119550000643,92.17119550000643,92.17119550000643,92.17119550000643,92.17119550000643,92.53759979997994,92.53759979997994,92.53759979997994,92.53759979997994,92.53759979997994,92.53759979997994,92.53759979997994,92.53759979997994,92.53759979997994,23,0,,,92.53759979997994,92.7397208000184,1000,92.7397208000184,1000,1000,1000,1000,1,num_2,0.6952530000125989,,26,4,2026-03-05_10h34.42.538,2026A_exp2,2022.2.4,60.03013513367115,
1,0,0.0,4.9,0,0,18,18,73,,,,,93.45512900000904,94.1060289000161,94.1060289000161,94.60695460002171,315,315,94.60695460002171,94.60695460002171,94.60695460002171,94.60695460002171,94.60695460002171,94.60695460002171,94.60695460002171,94.60695460002171,94.60695460002171,94.95671910000965,94.95671910000965,94.95671910000965,94.95671910000965,94.95671910000965,94.95671910000965,94.95671910000965,94.95671910000965,94.95671910000965,22,0,,,94.95671910000965,95.15698600001633,0.0,95.15698600001633,0,0.0,0,1,1000,num_1,1.3174720000242814,,26,4,2026-03-05_10h34.42.538,2026A_exp2,2022.2.4,60.03013513367115,
1,0,6.1,0.0,0,0,19,19,47,,,,,96.49148799997056,97.14234229997965,97.14234229997965,97.6266415999853,45,45,97.6266415999853,97.6266415999853,97.6266415999853,97.6266415999853,97.6266415999853,97.6266415999853,97.6266415999853,97.6266415999853,97.6266415999853,97.9932461999706,97.9932461999706,97.9932461999706,97.9932461999706,97.9932461999706,97.9932461999706,97.9932461999706,97.9932461999706,97.9932461999706,23,0,,,97.9932461999706,98.1932783999946,6.1,98.1932783999946,1,6.1,1,1,1000,num_4,2.3786406999570318,,26,4,2026-03-05_10h34.42.538,2026A_exp2,2022.2.4,60.03013513367115,
1000,1,6.1,0.0,1,0,20,20,29,,,,,100.59556659997907,101.2464520999929,101.2464520999929,101.73082649998832,315,315,101.73082649998832,101.73082649998832,101.73082649998832,101.73082649998832,101.73082649998832,101.73082649998832,101.73082649998832,101.73082649998832,101.73082649998832,102.09690920001594,102.09690920001594,102.09690920001594,102.09690920001594,102.09690920001594,102.09690920001594,102.09690920001594,102.09690920001594,102.09690920001594,23,0,,,102.09690920001594,102.2991456000018,1000,102.2991456000018,1000,1000,1000,1000,0,num_3,0.6644085999578238,,26,4,2026-03-05_10h34.42.538,2026A_exp2,2022.2.4,60.03013513367115,
1,0,0.0,6.1,1,0,21,21,50,,,,,102.9813553999993,103.63211120001506,103.63211120001506,104.13324060000014,315,45,104.13324060000014,104.13324060000014,104.13324060000014,104.13324060000014,104.13324060000014,104.13324060000014,104.13324060000014,104.13324060000014,104.13324060000014,104.49975070002256,104.49975070002256,104.49975070002256,104.49975070002256,104.49975070002256,104.49975070002256,104.49975070002256,104.49975070002256,104.49975070002256,23,0,,,104.49975070002256,104.69993699999759,6.1,104.69993699999759,1,6.1,1,1,1000,num_4,0.8957974000368267,,26,4,2026-03-05_10h34.42.538,2026A_exp2,2022.2.4,60.03013513367115,
1000,1,0.0,4.9,0,0,22,22,60,,,,,105.61728110001422,106.26805710000917,106.26805710000917,106.75255039997865,45,45,106.75255039997865,106.75255039997865,106.75255039997865,106.75255039997865,106.75255039997865,106.75255039997865,106.75255039997865,106.75255039997865,106.75255039997865,107.11890870000934,107.11890870000934,107.11890870000934,107.11890870000934,107.11890870000934,107.11890870000934,107.11890870000934,107.11890870000934,107.11890870000934,23,0,,,107.11890870000934,107.32114010001533,1000,107.32114010001533,1000,1000,1000,1000,1,num_2,0.9539531000191346,,26,4,2026-03-05_10h34.42.538,2026A_exp2,2022.2.4,60.03013513367115,
0,0,0.0,0.0,0,0,23,23,59,,,,,108.30365329998313,108.9541854999843,108.9541854999843,109.43836470000679,45,315,109.43836470000679,109.43836470000679,109.43836470000679,109.43836470000679,109.43836470000679,109.43836470000679,109.43836470000679,109.43836470000679,109.43836470000679,109.8049919999903,109.8049919999903,109.8049919999903,109.8049919999903,109.8049919999903,109.8049919999903,109.8049919999903,109.8049919999903,109.8049919999903,23,0,,,109.8049919999903,110.00517379998928,0.0,110.00517379998928,1,0.0,0,0,1000,num_4,1.1654445999884047,,26,4,2026-03-05_10h34.42.538,2026A_exp2,2022.2.4,60.03013513367115,
1,0,6.1,4.9,1,0,24,24,11,,,,,111.18964310002048,111.84037869999884,111.84037869999884,112.34162520000245,45,45,112.34162520000245,112.34162520000245,112.34162520000245,112.34162520000245,112.34162520000245,112.34162520000245,112.34162520000245,112.34162520000245,112.34162520000245,112.70779110002331,112.70779110002331,112.70779110002331,112.70779110002331,112.70779110002331,112.70779110002331,112.70779110002331,112.70779110002331,112.70779110002331,23,0,,,112.70779110002331,112.90818540001055,4.9,112.90818540001055,0,4.9,1,0,1000,num_1,0.8233876000158489,,26,4,2026-03-05_10h34.42.538,2026A_exp2,2022.2.4,60.03013513367115,
1,0,0.0,0.0,1,0,25,25,39,,,,,113.7587521999958,114.39268619997893,114.39268619997893,114.89395910000894,315,315,114.89395910000894,114.89395910000894,114.89395910000894,114.89395910000894,114.89395910000894,114.89395910000894,114.89395910000894,114.89395910000894,114.89395910000894,115.26051449996885,115.26051449996885,115.26051449996885,115.26051449996885,115.26051449996885,115.26051449996885,115.26051449996885,115.26051449996885,115.26051449996885,23,0,,,115.26051449996885,115.4607599999872,0.0,115.4607599999872,0,0.0,0,1,1000,num_1,1.238048700033687,,26,4,2026-03-05_10h34.42.538,2026A_exp2,2022.2.4,60.03013513367115,
1,0,6.1,0.0,1,0,26,26,89,,,,,116.72841440001503,117.3792452000198,117.3792452000198,117.86367469996912,45,315,117.86367469996912,117.86367469996912,117.86367469996912,117.86367469996912,117.86367469996912,117.86367469996912,117.86367469996912,117.86367469996912,117.86367469996912,118.23008589999517,118.23008589999517,118.23008589999517,118.23008589999517,118.23008589999517,118.23008589999517,118.23008589999517,118.23008589999517,118.23008589999517,0,1,[0.001251900044735521],[0.3672033000038937],118.23008589999517,118.43021760002011,0.0,118.43021760002011,0,0.0,0,1,1000,num_1,0.7491308000171557,,26,4,2026-03-05_10h34.42.538,2026A_exp2,2022.2.4,60.03013513367115,
1000,1,0.0,4.9,0,0,27,27,61,,,,,119.1977033999865,119.84825679997448,119.84825679997448,120.34941379999509,45,315,120.34941379999509,120.34941379999509,120.34941379999509,120.34941379999509,120.34941379999509,120.34941379999509,120.34941379999509,120.34941379999509,120.34941379999509,120.715865199978,120.715865199978,120.715865199978,120.715865199978,120.715865199978,120.715865199978,120.715865199978,120.715865199978,120.715865199978,23,0,,,120.715865199978,120.91820700000972,1000,120.91820700000972,1000,1000,1000,1000,1,num_2,0.5247376000043005,,26,4,2026-03-05_10h34.42.538,2026A_exp2,2022.2.4,60.03013513367115,
1,0,0.0,0.0,0,0,28,28,88,,,,,121.46644839999499,122.10061069997028,122.10061069997028,122.60175530001288,45,315,122.60175530001288,122.60175530001288,122.60175530001288,122.60175530001288,122.60175530001288,122.60175530001288,122.60175530001288,122.60175530001288,122.60175530001288,122.96802209998714,122.96802209998714,122.96802209998714,122.96802209998714,122.96802209998714,122.96802209998714,122.96802209998714,122.96802209998714,122.96802209998714,23,0,,,122.96802209998714,123.1683465000242,0.0,123.1683465000242,0,0.0,0,1,1000,num_1,1.6027319999993779,,26,4,2026-03-05_10h34.42.538,2026A_exp2,2022.2.4,60.03013513367115,
1,0,0.0,0.0,0,0,29,29,24,,,,,124.80325180001091,125.43754700000864,125.43754700000864,125.93836839997675,315,315,125.93836839997675,125.93836839997675,125.93836839997675,125.93836839997675,125.93836839997675,125.93836839997675,125.93836839997675,125.93836839997675,125.93836839997675,126.30479600001127,126.30479600001127,126.30479600001127,126.30479600001127,126.30479600001127,126.30479600001127,126.30479600001127,126.30479600001127,126.30479600001127,23,0,,,126.30479600001127,126.50495500001125,0.0,126.50495500001125,0,0.0,0,1,1000,num_1,1.130405800009612,,26,4,2026-03-05_10h34.42.538,2026A_exp2,2022.2.4,60.03013513367115,
1,0,4.9,0.0,1,0,30,30,65,,,,,127.65597259998322,128.3066876999801,128.3066876999801,128.79129510000348,45,45,128.79129510000348,128.79129510000348,128.79129510000348,128.79129510000348,128.79129510000348,128.79129510000348,128.79129510000348,128.79129510000348,128.79129510000348,129.15761549997842,129.15761549997842,129.15761549997842,129.15761549997842,129.15761549997842,129.15761549997842,129.15761549997842,129.15761549997842,129.15761549997842,23,0,,,129.15761549997842,129.35792029998265,0.0,129.35792029998265,0,0.0,0,1,1000,num_1,0.8133503999561071,,26,4,2026-03-05_10h34.42.538,2026A_exp2,2022.2.4,60.03013513367115,
1000,1,6.1,6.1,1,0,31,31,8,,,,,130.19197119999444,130.84268910001265,130.84268910001265,131.3270557000069,45,45,131.3270557000069,131.3270557000069,131.3270557000069,131.3270557000069,131.3270557000069,131.3270557000069,131.3270557000069,131.3270557000069,131.3270557000069,131.6935073999921,131.6935073999921,131.6935073999921,131.6935073999921,131.6935073999921,131.6935073999921,131.6935073999921,131.6935073999921,131.6935073999921,23,0,,,131.6935073999921,131.8956227999879,1000,131.8956227999879,1000,1000,1000,1000,0,num_3,1.444085399969481,,26,4,2026-03-05_10h34.42.538,2026A_exp2,2022.2.4,60.03013513367115,
1,0,3.7,4.9,1,0,32,32,18,,,,,133.36173270002473,134.0124623000156,134.0124623000156,134.5134824999841,45,315,134.5134824999841,134.5134824999841,134.5134824999841,134.5134824999841,134.5134824999841,134.5134824999841,134.5134824999841,134.5134824999841,134.5134824999841,134.88012129999697,134.88012129999697,134.88012129999697,134.88012129999697,134.88012129999697,134.88012129999697,134.88012129999697,134.88012129999697,134.88012129999697,23,0,,,134.88012129999697,135.07988749997457,4.9,135.07988749997457,1,4.9,1,1,1000,num_4,0.8365089999861084,,26,4,2026-03-05_10h34.42.538,2026A_exp2,2022.2.4,60.03013513367115,
1,0,4.9,3.7,0,0,33,33,44,,,,,135.94756569998572,136.58237519999966,136.58237519999966,137.08288719999837,315,315,137.08288719999837,137.08288719999837,137.08288719999837,137.08288719999837,137.08288719999837,137.08288719999837,137.08288719999837,137.08288719999837,137.08288719999837,137.44932279997738,137.44932279997738,137.44932279997738,137.44932279997738,137.44932279997738,137.44932279997738,137.44932279997738,137.44932279997738,137.44932279997738,23,0,,,137.44932279997738,137.64943529997254,4.9,137.64943529997254,1,4.9,1,1,1000,num_4,1.0903377999784425,,26,4,2026-03-05_10h34.42.538,2026A_exp2,2022.2.4,60.03013513367115,
1000,1,0.0,0.0,0,0,34,34,17,,,,,138.76713990001008,139.41791359998751,139.41791359998751,139.90223060001153,45,45,139.90223060001153,139.90223060001153,139.90223060001153,139.90223060001153,139.90223060001153,139.90223060001153,139.90223060001153,139.90223060001153,139.90223060001153,140.26871969999047,140.26871969999047,140.26871969999047,140.26871969999047,140.26871969999047,140.26871969999047,140.26871969999047,140.26871969999047,140.26871969999047,4,3,"[0.0012326000141911209, 0.10031200002413243, 0.1502643000567332]","[0.06686180003453046, 0.11727640003664419, 0.3671715000527911]",140.26871969999047,140.4709338999819,1000,140.4709338999819,1000,1000,1000,1000,1,num_2,0.692923900031019,,26,4,2026-03-05_10h34.42.538,2026A_exp2,2022.2.4,60.03013513367115,
1,0,3.7,3.7,1,0,35,35,30,,,,,141.18627589999232,141.83700619998854,141.83700619998854,142.3381729000248,315,315,142.3381729000248,142.3381729000248,142.3381729000248,142.3381729000248,142.3381729000248,142.3381729000248,142.3381729000248,142.3381729000248,142.3381729000248,142.70457970001735,142.70457970001735,142.70457970001735,142.70457970001735,142.70457970001735,142.70457970001735,142.70457970001735,142.70457970001735,142.70457970001735,23,0,,,142.70457970001735,142.90461129997857,3.7,142.90461129997857,1,3.7,1,1,1000,num_4,2.5145320000010543,,26,4,2026-03-05_10h34.42.538,2026A_exp2,2022.2.4,60.03013513367115,
1000,1,6.1,0.0,1,0,36,36,25,,,,,145.44074220000766,146.0992062999867,146.0992062999867,146.58079749997705,45,315,146.58079749997705,146.58079749997705,146.58079749997705,146.58079749997705,146.58079749997705,146.58079749997705,146.58079749997705,146.58079749997705,146.58079749997705,146.94201850000536,146.94201850000536,146.94201850000536,146.94201850000536,146.94201850000536,146.94201850000536,146.94201850000536,146.94201850000536,146.94201850000536,1,2,"[0.0023886000271886587, 0.14921699999831617]","[0.13270610000472516, 0.3655917000141926]",146.94201850000536,147.1441274000099,1000,147.1441274000099,1000,1000,1000,1000,0,num_3,0.7474609999917448,,26,4,2026-03-05_10h34.42.538,2026A_exp2,2022.2.4,60.03013513367115,
1000,1,4.9,4.9,1,0,37,37,68,,,,,147.9096605000086,148.56043489999138,148.56043489999138,149.06144859996857,45,45,149.06144859996857,149.06144859996857,149.06144859996857,149.06144859996857,149.06144859996857,149.06144859996857,149.06144859996857,149.06144859996857,149.06144859996857,149.41127149999375,149.41127149999375,149.41127149999375,149.41127149999375,149.41127149999375,149.41127149999375,149.41127149999375,149.41127149999375,149.41127149999375,22,0,,,149.41127149999375,149.61297119996743,1000,149.61297119996743,1000,1000,1000,1000,0,num_3,1.1744409000384621,,26,4,2026-03-05_10h34.42.538,2026A_exp2,2022.2.4,60.03013513367115,
1,0,0.0,6.1,1,0,38,38,36,,,,,150.81253719999222,151.46345290000318,151.46345290000318,151.96431870001834,315,315,151.96431870001834,151.96431870001834,151.96431870001834,151.96431870001834,151.96431870001834,151.96431870001834,151.96431870001834,151.96431870001834,151.96431870001834,152.3307455999893,152.3307455999893,152.3307455999893,152.3307455999893,152.3307455999893,152.3307455999893,152.3307455999893,152.3307455999893,152.3307455999893,23,0,,,152.3307455999893,152.5310746000032,6.1,152.5310746000032,1,6.1,1,1,1000,num_4,0.5122123000328429,,26,4,2026-03-05_10h34.42.538,2026A_exp2,2022.2.4,60.03013513367115,
1,0,6.1,0.0,0,0,39,39,82,,,,,153.0647170000011,153.71545040002093,153.71545040002093,154.20002819999354,315,315,154.20002819999354,154.20002819999354,154.20002819999354,154.20002819999354,154.20002819999354,154.20002819999354,154.20002819999354,154.20002819999354,154.20002819999354,154.5663553000195,154.5663553000195,154.5663553000195,154.5663553000195,154.5663553000195,154.5663553000195,154.5663553000195,154.5663553000195,154.5663553000195,23,0,,,154.5663553000195,154.76669660001062,6.1,154.76669660001062,1,6.1,1,1,1000,num_4,0.9571370999910869,,26,4,2026-03-05_10h34.42.538,2026A_exp2,2022.2.4,60.03013513367115,
1,0,0.0,6.1,0,0,40,40,0,,,,,155.7508794000023,156.40164850000292,156.40164850000292,156.88594690000173,45,45,156.88594690000173,156.88594690000173,156.88594690000173,156.88594690000173,156.88594690000173,156.88594690000173,156.88594690000173,156.88594690000173,156.88594690000173,157.25242440000875,157.25242440000875,157.25242440000875,157.25242440000875,157.25242440000875,157.25242440000875,157.25242440000875,157.25242440000875,157.25242440000875,23,0,,,157.25242440000875,157.45263130002422,0.0,157.45263130002422,0,0.0,0,1,1000,num_1,0.8460077000199817,,26,4,2026-03-05_10h34.42.538,2026A_exp2,2022.2.4,60.03013513367115,
1,0,6.1,0.0,0,0,41,41,21,,,,,158.32006629998796,158.9708808999858,158.9708808999858,159.45514600002207,45,315,159.45514600002207,159.45514600002207,159.45514600002207,159.45514600002207,159.45514600002207,159.45514600002207,159.45514600002207,159.45514600002207,159.45514600002207,159.82171960000414,159.82171960000414,159.82171960000414,159.82171960000414,159.82171960000414,159.82171960000414,159.82171960000414,159.82171960000414,159.82171960000414,23,0,,,159.82171960000414,160.02166929998202,6.1,160.02166929998202,1,6.1,1,1,1000,num_4,0.7173679000115953,,26,4,2026-03-05_10h34.42.538,2026A_exp2,2022.2.4,60.03013513367115,
1000,1,0.0,0.0,0,0,42,42,15,,,,,160.75581740000052,161.40652030002093,161.40652030002093,161.8910756999976,315,315,161.8910756999976,161.8910756999976,161.8910756999976,161.8910756999976,161.8910756999976,161.8910756999976,161.8910756999976,161.8910756999976,161.8910756999976,162.2574517999892,162.2574517999892,162.2574517999892,162.2574517999892,162.2574517999892,162.2574517999892,162.2574517999892,162.2574517999892,162.2574517999892,23,0,,,162.2574517999892,162.45941989996936,1000,162.45941989996936,1000,1000,1000,1000,1,num_2,0.7995878999936394,,26,4,2026-03-05_10h34.42.538,2026A_exp2,2022.2.4,60.03013513367115,
1,0,6.1,4.9,1,0,43,43,64,,,,,163.27505200001178,163.92565019999165,163.92565019999165,164.4268867999781,45,45,164.4268867999781,164.4268867999781,164.4268867999781,164.4268867999781,164.4268867999781,164.4268867999781,164.4268867999781,164.4268867999781,164.4268867999781,164.79322990000946,164.79322990000946,164.79322990000946,164.79322990000946,164.79322990000946,164.79322990000946,164.79322990000946,164.79322990000946,164.79322990000946,23,0,,,164.79322990000946,164.9935004999861,4.9,164.9935004999861,1,4.9,1,1,1000,num_4,0.713984599977266,,26,4,2026-03-05_10h34.42.538,2026A_exp2,2022.2.4,60.03013513367115,
1000,1,3.7,0.0,0,0,44,44,76,,,,,165.7274695999804,166.3782451999723,166.3782451999723,166.86263410001993,45,315,166.86263410001993,166.86263410001993,166.86263410001993,166.86263410001993,166.86263410001993,166.86263410001993,166.86263410001993,166.86263410001993,166.86263410001993,167.2290508999722,167.2290508999722,167.2290508999722,167.2290508999722,167.2290508999722,167.2290508999722,167.2290508999722,167.2290508999722,167.2290508999722,23,0,,,167.2290508999722,167.43141379998997,1000,167.43141379998997,1000,1000,1000,1000,0,num_3,0.8851427999907173,,26,4,2026-03-05_10h34.42.538,2026A_exp2,2022.2.4,60.03013513367115,
1,0,0.0,0.0,0,0,45,45,55,,,,,168.34678189997794,168.9975325000123,168.9975325000123,169.48188570002094,45,315,169.48188570002094,169.48188570002094,169.48188570002094,169.48188570002094,169.48188570002094,169.48188570002094,169.48188570002094,169.48188570002094,169.48188570002094,169.8483433999936,169.8483433999936,169.8483433999936,169.8483433999936,169.8483433999936,169.8483433999936,169.8483433999936,169.8483433999936,169.8483433999936,23,0,,,169.8483433999936,170.04866500000935,0.0,170.04866500000935,1,0.0,0,0,1000,num_4,1.4021107999724336,,26,4,2026-03-05_10h34.42.538,2026A_exp2,2022.2.4,60.03013513367115,
1000,1,4.9,0.0,0,0,46,46,41,,,,,171.4666247999994,172.11725120001938,172.11725120001938,172.60172849998344,315,315,172.60172849998344,172.60172849998344,172.60172849998344,172.60172849998344,172.60172849998344,172.60172849998344,172.60172849998344,172.60172849998344,172.60172849998344,172.96798449999187,172.96798449999187,172.96798449999187,172.96798449999187,172.96798449999187,172.96798449999187,172.96798449999187,172.96798449999187,172.96798449999187,23,0,,,172.96798449999187,173.17014200001722,1000,173.17014200001722,1000,1000,1000,1000,0,num_3,0.6169414999894798,,26,4,2026-03-05_10h34.42.538,2026A_exp2,2022.2.4,60.03013513367115,
1,0,0.0,3.7,1,0,47,47,32,,,,,173.8022559999954,174.45292569999583,174.45292569999583,174.95410729997093,45,45,174.95410729997093,174.95410729997093,174.95410729997093,174.95410729997093,174.95410729997093,174.95410729997093,174.95410729997093,174.95410729997093,174.95410729997093,175.3205160999787,175.3205160999787,175.3205160999787,175.3205160999787,175.3205160999787,175.3205160999787,175.3205160999787,175.3205160999787,175.3205160999787,23,0,,,175.3205160999787,175.5206272000214,3.7,175.5206272000214,1,3.7,1,1,1000,num_4,1.2984990000259131,,26,4,2026-03-05_10h34.42.538,2026A_exp2,2022.2.4,60.03013513367115,
1000,1,0.0,0.0,1,0,48,48,9,,,,,176.8385548000224,177.48933700000634,177.48933700000634,177.97382199997082,45,45,177.97382199997082,177.97382199997082,177.97382199997082,177.97382199997082,177.97382199997082,177.97382199997082,177.97382199997082,177.97382199997082,177.97382199997082,178.34010680002393,178.34010680002393,178.34010680002393,178.34010680002393,178.34010680002393,178.34010680002393,178.34010680002393,178.34010680002393,178.34010680002393,23,0,,,178.34010680002393,178.5419891999918,1000,178.5419891999918,1000,1000,1000,1000,0,num_3,1.1898848999408074,,26,4,2026-03-05_10h34.42.538,2026A_exp2,2022.2.4,60.03013513367115,
1,0,0.0,6.1,1,0,49,49,33,,,,,179.7581672000233,180.40885439998237,180.40885439998237,180.91005599999335,315,45,180.91005599999335,180.91005599999335,180.91005599999335,180.91005599999335,180.91005599999335,180.91005599999335,180.91005599999335,180.91005599999335,180.91005599999335,181.27605679997941,181.27605679997941,181.27605679997941,181.27605679997941,181.27605679997941,181.27605679997941,181.27605679997941,181.27605679997941,181.27605679997941,23,0,,,181.27605679997941,181.47657609998714,6.1,181.47657609998714,1,6.1,1,1,1000,num_4,0.7023269000346772,,26,4,2026-03-05_10h34.42.538,2026A_exp2,2022.2.4,60.03013513367115,
0,0,6.1,4.9,0,0,50,50,22,,,,,182.21072360000107,182.8445557000232,182.8445557000232,183.34676510002464,45,45,183.34676510002464,183.34676510002464,183.34676510002464,183.34676510002464,183.34676510002464,183.34676510002464,183.34676510002464,183.34676510002464,183.34676510002464,183.71237219998147,183.71237219998147,183.71237219998147,183.71237219998147,183.71237219998147,183.71237219998147,183.71237219998147,183.71237219998147,183.71237219998147,13,4,"[0.001955700048711151, 0.08360760001232848, 0.16701350000221282, 0.2867318000062369]","[0.03347560000838712, 0.10040690004825592, 0.18326290004188195, 0.3680327000329271]",183.71237219998147,183.91308600001503,4.9,183.91308600001503,0,4.9,1,0,1000,num_1,1.6656925000133924,,26,4,2026-03-05_10h34.42.538,2026A_exp2,2022.2.4,60.03013513367115,
0,0,0.0,0.0,1,0,51,51,2,,,,,185.5973996000248,186.2481412999914,186.2481412999914,186.73257950000698,45,45,186.73257950000698,186.73257950000698,186.73257950000698,186.73257950000698,186.73257950000698,186.73257950000698,186.73257950000698,186.73257950000698,186.73257950000698,187.0989483000012,187.0989483000012,187.0989483000012,187.0989483000012,187.0989483000012,187.0989483000012,187.0989483000012,187.0989483000012,187.0989483000012,22,1,[0.10013130004517734],[0.1167107000364922],187.0989483000012,187.29903270001523,0.0,187.29903270001523,0,0.0,0,1,1000,num_1,0.9762310000369325,,26,4,2026-03-05_10h34.42.538,2026A_exp2,2022.2.4,60.03013513367115,
1000,1,6.1,6.1,0,0,52,52,16,,,,,188.2998967000167,188.9506275000167,188.9506275000167,189.43530199996894,45,315,189.43530199996894,189.43530199996894,189.43530199996894,189.43530199996894,189.43530199996894,189.43530199996894,189.43530199996894,189.43530199996894,189.43530199996894,189.801306999987,189.801306999987,189.801306999987,189.801306999987,189.801306999987,189.801306999987,189.801306999987,189.801306999987,189.801306999987,0,1,[0.0012086999486200511],[0.3672285999637097],189.801306999987,190.00398340000538,1000,190.00398340000538,1000,1000,1000,1000,0,num_3,1.1031213999958709,,26,4,2026-03-05_10h34.42.538,2026A_exp2,2022.2.4,60.03013513367115,
1,0,3.7,4.9,1,0,53,53,20,,,,,191.1364100999781,191.78698709997116,191.78698709997116,192.27142810000805,315,45,192.27142810000805,192.27142810000805,192.27142810000805,192.27142810000805,192.27142810000805,192.27142810000805,192.27142810000805,192.27142810000805,192.27142810000805,192.63780029996997,192.63780029996997,192.63780029996997,192.63780029996997,192.63780029996997,192.63780029996997,192.63780029996997,192.63780029996997,192.63780029996997,13,1,[0.21705269999802113],[0.36728509998647496],192.63780029996997,192.83799059997546,4.9,192.83799059997546,0,4.9,1,0,1000,num_1,1.613479699997697,,26,4,2026-03-05_10h34.42.538,2026A_exp2,2022.2.4,60.03013513367115,
1000,1,0.0,0.0,1,0,54,54,85,,,,,194.47281519998796,195.12367679999443,195.12367679999443,195.60816499998327,45,315,195.60816499998327,195.60816499998327,195.60816499998327,195.60816499998327,195.60816499998327,195.60816499998327,195.60816499998327,195.60816499998327,195.60816499998327,195.97452539997175,195.97452539997175,195.97452539997175,195.97452539997175,195.97452539997175,195.97452539997175,195.97452539997175,195.97452539997175,195.97452539997175,23,0,,,195.97452539997175,196.17633589997422,1000,196.17633589997422,1000,1000,1000,1000,1,num_2,0.7393529000109993,,26,4,2026-03-05_10h34.42.538,2026A_exp2,2022.2.4,60.03013513367115,
1,0,3.7,6.1,0,0,55,55,52,,,,,196.94202889996814,197.6029611999984,197.6029611999984,198.09881280001719,45,45,198.09881280001719,198.09881280001719,198.09881280001719,198.09881280001719,198.09881280001719,198.09881280001719,198.09881280001719,198.09881280001719,198.09881280001719,198.443808800017,198.443808800017,198.443808800017,198.443808800017,198.443808800017,198.443808800017,198.443808800017,198.443808800017,198.443808800017,14,4,"[0.08362739998847246, 0.13363399996887892, 0.23388640000484884, 0.3173339999630116]","[0.11713959998451173, 0.15054959995904937, 0.2839539999840781, 0.35076329996809363]",198.443808800017,198.64796129998285,3.7,198.64796129998285,0,3.7,1,0,1000,num_1,1.6908584999619052,,26,4,2026-03-05_10h34.42.538,2026A_exp2,2022.2.4,60.03013513367115,
1000,1,0.0,3.7,0,0,56,56,46,,,,,200.3620764000225,201.01292870001635,201.01292870001635,201.49719760002336,315,45,201.49719760002336,201.49719760002336,201.49719760002336,201.49719760002336,201.49719760002336,201.49719760002336,201.49719760002336,201.49719760002336,201.49719760002336,201.86362139997073,201.86362139997073,201.86362139997073,201.86362139997073,201.86362139997073,201.86362139997073,201.86362139997073,201.86362139997073,201.86362139997073,23,0,,,201.86362139997073,202.0657646000036,1000,202.0657646000036,1000,1000,1000,1000,1,num_2,0.6647270999965258,,26,4,2026-03-05_10h34.42.538,2026A_exp2,2022.2.4,60.03013513367115,
1,0,4.9,0.0,0,0,57,57,53,,,,,202.74785739998333,203.3985376000055,203.3985376000055,203.89951209997525,315,315,203.89951209997525,203.89951209997525,203.89951209997525,203.89951209997525,203.89951209997525,203.89951209997525,203.89951209997525,203.89951209997525,203.89951209997525,204.2660893999855,204.2660893999855,204.2660893999855,204.2660893999855,204.2660893999855,204.2660893999855,204.2660893999855,204.2660893999855,204.2660893999855,23,0,,,204.2660893999855,204.4663583000074,4.9,204.4663583000074,1,4.9,1,1,1000,num_4,0.7923676000209525,,26,4,2026-03-05_10h34.42.538,2026A_exp2,2022.2.4,60.03013513367115,
0,0,6.1,0.0,0,0,58,58,74,,,,,205.28377649997128,205.92835509998258,205.92835509998258,206.41894270002376,315,315,206.41894270002376,206.41894270002376,206.41894270002376,206.41894270002376,206.41894270002376,206.41894270002376,206.41894270002376,206.41894270002376,206.41894270002376,206.7852331000031,206.7852331000031,206.7852331000031,206.7852331000031,206.7852331000031,206.7852331000031,206.7852331000031,206.7852331000031,206.7852331000031,17,2,"[0.249968699994497, 0.31668790004914626]","[0.28334290004568174, 0.3667187000392005]",206.7852331000031,206.98548999999184,0.0,206.98548999999184,0,0.0,0,1,1000,num_1,0.7772949999780394,,26,4,2026-03-05_10h34.42.538,2026A_exp2,2022.2.4,60.03013513367115,
1000,1,0.0,4.9,0,0,59,59,26,,,,,207.78603249997832,208.43682790000457,208.43682790000457,208.92123219999485,45,45,208.92123219999485,208.92123219999485,208.92123219999485,208.92123219999485,208.92123219999485,208.92123219999485,208.92123219999485,208.92123219999485,208.92123219999485,209.28782159998082,209.28782159998082,209.28782159998082,209.28782159998082,209.28782159998082,209.28782159998082,209.28782159998082,209.28782159998082,209.28782159998082,23,0,,,209.28782159998082,209.49023290001787,1000,209.49023290001787,1000,1000,1000,1000,1,num_2,0.5774511999916285,,26,4,2026-03-05_10h34.42.538,2026A_exp2,2022.2.4,60.03013513367115,
1,0,0.0,6.1,1,0,60,60,31,,,,,210.08853479998652,210.7392996000126,210.7392996000126,211.2403014000156,315,45,211.2403014000156,211.2403014000156,211.2403014000156,211.2403014000156,211.2403014000156,211.2403014000156,211.2403014000156,211.2403014000156,211.2403014000156,211.60683519998565,211.60683519998565,211.60683519998565,211.60683519998565,211.60683519998565,211.60683519998565,211.60683519998565,211.60683519998565,211.60683519998565,5,3,"[0.0012459999998100102, 0.2669840999878943, 0.3171365999733098]","[0.23379420000128448, 0.3005574999842793, 0.3503855000017211]",211.60683519998565,211.80681340000592,6.1,211.80681340000592,1,6.1,1,1,1000,num_4,0.5878450000309385,,26,4,2026-03-05_10h34.42.538,2026A_exp2,2022.2.4,60.03013513367115,
1,0,0.0,0.0,1,0,61,61,49,,,,,212.42411540000467,213.07482639997033,213.07482639997033,213.55923529999563,315,315,213.55923529999563,213.55923529999563,213.55923529999563,213.55923529999563,213.55923529999563,213.55923529999563,213.55923529999563,213.55923529999563,213.55923529999563,213.92581320001045,213.92581320001045,213.92581320001045,213.92581320001045,213.92581320001045,213.92581320001045,213.92581320001045,213.92581320001045,213.92581320001045,20,3,"[0.0338058999623172, 0.06698449997929856, 0.1170886000036262]","[0.05033030000049621, 0.08368169999448583, 0.13375249999808148]",213.92581320001045,214.1261723000207,0.0,214.1261723000207,1,0.0,0,0,1000,num_4,1.6212437999784015,,26,4,2026-03-05_10h34.42.538,2026A_exp2,2022.2.4,60.03013513367115,
0,0,0.0,3.7,0,0,62,62,34,,,,,215.7777877000044,216.42838190001203,216.42838190001203,216.91281010000966,315,45,216.91281010000966,216.91281010000966,216.91281010000966,216.91281010000966,216.91281010000966,216.91281010000966,216.91281010000966,216.91281010000966,216.91281010000966,217.27913029998308,217.27913029998308,217.27913029998308,217.27913029998308,217.27913029998308,217.27913029998308,217.27913029998308,217.27913029998308,217.27913029998308,0,1,[0.0012227999977767467],[0.3670877999975346],217.27913029998308,217.4791943000164,3.7,217.4791943000164,0,3.7,1,0,1000,num_1,1.011986400000751,,26,4,2026-03-05_10h34.42.538,2026A_exp2,2022.2.4,60.03013513367115,
1,0,6.1,3.7,1,0,63,63,51,,,,,218.5135287999874,219.16560030000983,219.16560030000983,219.66532799997367,45,45,219.66532799997367,219.66532799997367,219.66532799997367,219.66532799997367,219.66532799997367,219.66532799997367,219.66532799997367,219.66532799997367,219.66532799997367,220.0319298999966,220.0319298999966,220.0319298999966,220.0319298999966,220.0319298999966,220.0319298999966,220.0319298999966,220.0319298999966,220.0319298999966,21,1,[0.3499551999848336],[0.36661239998647943],220.0319298999966,220.23209810000844,3.7,220.23209810000844,0,3.7,1,0,1000,num_1,0.9235696999821812,,26,4,2026-03-05_10h34.42.538,2026A_exp2,2022.2.4,60.03013513367115,
1000,1,4.9,0.0,1,0,64,64,10,,,,,221.18295719998423,221.83365769998636,221.83365769998636,222.31790859997272,315,315,222.31790859997272,222.31790859997272,222.31790859997272,222.31790859997272,222.31790859997272,222.31790859997272,222.31790859997272,222.31790859997272,222.31790859997272,222.684488400002,222.684488400002,222.684488400002,222.684488400002,222.684488400002,222.684488400002,222.684488400002,222.684488400002,222.684488400002,23,0,,,222.684488400002,222.8867567999987,1000,222.8867567999987,1000,1000,1000,1000,0,num_3,0.5889560999930836,,26,4,2026-03-05_10h34.42.538,2026A_exp2,2022.2.4,60.03013513367115,
1000,1,3.7,6.1,1,0,65,65,48,,,,,223.50194879999617,224.15268210001523,224.15268210001523,224.65390889998525,45,315,224.65390889998525,224.65390889998525,224.65390889998525,224.65390889998525,224.65390889998525,224.65390889998525,224.65390889998525,224.65390889998525,224.65390889998525,225.02020460000494,225.02020460000494,225.02020460000494,225.02020460000494,225.02020460000494,225.02020460000494,225.02020460000494,225.02020460000494,225.02020460000494,12,4,"[0.001251000037882477, 0.13351870002225041, 0.23355020000599325, 0.3337957999901846]","[0.10023290000390261, 0.15008380002109334, 0.2670514000346884, 0.36714889999711886]",225.02020460000494,225.22189390001586,1000,225.22189390001586,1000,1000,1000,1000,1,num_2,0.6932066000299528,,26,4,2026-03-05_10h34.42.538,2026A_exp2,2022.2.4,60.03013513367115,
1000,1,4.9,0.0,1,0,66,66,77,,,,,225.93762450001668,226.58839970000554,226.58839970000554,227.08961819997057,45,315,227.08961819997057,227.08961819997057,227.08961819997057,227.08961819997057,227.08961819997057,227.08961819997057,227.08961819997057,227.08961819997057,227.08961819997057,227.43915079999715,227.43915079999715,227.43915079999715,227.43915079999715,227.43915079999715,227.43915079999715,227.43915079999715,227.43915079999715,227.43915079999715,21,1,[0.017400700016878545],[0.03317579999566078],227.43915079999715,227.64115879999008,1000,227.65620849997504,1000,1000,1000,1000,0,num_3,1.1705338999745436,,26,4,2026-03-05_10h34.42.538,2026A_exp2,2022.2.4,60.03013513367115,
1000,1,6.1,0.0,1,0,67,67,83,,,,,228.85730839997996,229.50805090001086,229.50805090001086,230.00913259998197,315,45,230.00913259998197,230.00913259998197,230.00913259998197,230.00913259998197,230.00913259998197,230.00913259998197,230.00913259998197,230.00913259998197,230.00913259998197,230.35878880001837,230.35878880001837,230.35878880001837,230.35878880001837,230.35878880001837,230.35878880001837,230.35878880001837,230.35878880001837,230.35878880001837,22,0,,,230.35878880001837,230.5591671000002,1000,230.57593649998307,1000,1000,1000,1000,0,num_3,0.7314116000197828,,26,4,2026-03-05_10h34.42.538,2026A_exp2,2022.2.4,60.03013513367115,
1000,1,0.0,3.7,1,0,68,68,84,,,,,231.32634069997584,231.97706050000852,231.97706050000852,232.4782993000117,315,45,232.4782993000117,232.4782993000117,232.4782993000117,232.4782993000117,232.4782993000117,232.4782993000117,232.4782993000117,232.4782993000117,232.4782993000117,232.8446135999984,232.8446135999984,232.8446135999984,232.8446135999984,232.8446135999984,232.8446135999984,232.8446135999984,232.8446135999984,232.8446135999984,0,1,[0.0012255000183358788],[0.3678123999852687],232.8446135999984,233.04511090001324,1000,233.04511090001324,1000,1000,1000,1000,0,num_3,0.9184216000139713,,26,4,2026-03-05_10h34.42.538,2026A_exp2,2022.2.4,60.03013513367115,
1000,1,6.1,3.7,0,0,69,69,75,,,,,233.97919569996884,234.6295698999893,234.6295698999893,235.13085149996914,315,315,235.13085149996914,235.13085149996914,235.13085149996914,235.13085149996914,235.13085149996914,235.13085149996914,235.13085149996914,235.13085149996914,235.13085149996914,235.4972923999885,235.4972923999885,235.4972923999885,235.4972923999885,235.4972923999885,235.4972923999885,235.4972923999885,235.4972923999885,235.4972923999885,23,0,,,235.4972923999885,235.6993577000103,1000,235.6993577000103,1000,1000,1000,1000,0,num_3,0.5042238999740221,,26,4,2026-03-05_10h34.42.538,2026A_exp2,2022.2.4,60.03013513367115,
1,0,0.0,0.0,0,0,70,70,79,,,,,236.23132030002307,236.8823098000139,236.8823098000139,237.38317149999784,45,315,237.38317149999784,237.38317149999784,237.38317149999784,237.38317149999784,237.38317149999784,237.38317149999784,237.38317149999784,237.38317149999784,237.38317149999784,237.7496119000134,237.7496119000134,237.7496119000134,237.7496119000134,237.7496119000134,237.7496119000134,237.7496119000134,237.7496119000134,237.7496119000134,22,1,[0.0012833999935537577],[0.017263999965507537],237.7496119000134,237.9497674999875,0.0,237.9497674999875,0,0.0,0,1,1000,num_1,2.1338121999870054,,26,4,2026-03-05_10h34.42.538,2026A_exp2,2022.2.4,60.03013513367115,
1,0,0.0,4.9,1,0,71,71,37,,,,,240.10191269998904,240.75257110001985,240.75257110001985,241.23680850001983,315,45,241.23680850001983,241.23680850001983,241.23680850001983,241.23680850001983,241.23680850001983,241.23680850001983,241.23680850001983,241.23680850001983,241.23680850001983,241.60315589996753,241.60315589996753,241.60315589996753,241.60315589996753,241.60315589996753,241.60315589996753,241.60315589996753,241.60315589996753,241.60315589996753,23,0,,,241.60315589996753,241.8036763999844,4.9,241.8036763999844,1,4.9,1,1,1000,num_4,1.608239799970761,,26,4,2026-03-05_10h34.42.538,2026A_exp2,2022.2.4,60.03013513367115,
1000,1,0.0,0.0,1,0,72,72,78,,,,,243.438597499975,244.08918030001223,244.08918030001223,244.5737211999949,315,45,244.5737211999949,244.5737211999949,244.5737211999949,244.5737211999949,244.5737211999949,244.5737211999949,244.5737211999949,244.5737211999949,244.5737211999949,244.94015059998492,244.94015059998492,244.94015059998492,244.94015059998492,244.94015059998492,244.94015059998492,244.94015059998492,244.94015059998492,244.94015059998492,23,0,,,244.94015059998492,245.14235530002043,1000,245.14235530002043,1000,1000,1000,1000,1,num_2,1.1811656999634579,,26,4,2026-03-05_10h34.42.538,2026A_exp2,2022.2.4,60.03013513367115,
1000,1,4.9,0.0,0,0,73,73,54,,,,,246.3416620999924,246.99217799998587,246.99217799998587,247.4931844000239,315,315,247.4931844000239,247.4931844000239,247.4931844000239,247.4931844000239,247.4931844000239,247.4931844000239,247.4931844000239,247.4931844000239,247.4931844000239,247.85972150001908,247.85972150001908,247.85972150001908,247.85972150001908,247.85972150001908,247.85972150001908,247.85972150001908,247.85972150001908,247.85972150001908,22,1,[0.31709010002668947],[0.33382780000101775],247.85972150001908,248.06206319999183,1000,248.06206319999183,1000,1000,1000,1000,0,num_3,0.5410565999918617,,26,4,2026-03-05_10h34.42.538,2026A_exp2,2022.2.4,60.03013513367115,
1000,1,3.7,0.0,0,0,74,74,56,,,,,248.62706119997893,249.27777819999028,249.27777819999028,249.77884520002408,315,45,249.77884520002408,249.77884520002408,249.77884520002408,249.77884520002408,249.77884520002408,249.77884520002408,249.77884520002408,249.77884520002408,249.77884520002408,250.12868700001854,250.12868700001854,250.12868700001854,250.12868700001854,250.12868700001854,250.12868700001854,250.12868700001854,250.12868700001854,250.12868700001854,19,3,"[0.1004462000564672, 0.18363760004285723, 0.35053510003490373]","[0.11683110002195463, 0.20011420000810176, 0.35054020001553]",250.12868700001854,250.33049839996966,1000,250.34560439997585,1000,1000,1000,1000,1,num_2,0.6409494000254199,,26,4,2026-03-05_10h34.42.538,2026A_exp2,2022.2.4,60.03013513367115,
1000,1,0.0,3.7,1,0,75,75,13,,,,,251.0127053000033,251.66353409999283,251.66353409999283,252.16462900000624,315,45,252.16462900000624,252.16462900000624,252.16462900000624,252.16462900000624,252.16462900000624,252.16462900000624,252.16462900000624,252.16462900000624,252.16462900000624,252.5310459000175,252.5310459000175,252.5310459000175,252.5310459000175,252.5310459000175,252.5310459000175,252.5310459000175,252.5310459000175,252.5310459000175,11,5,"[0.0012330999597907066, 0.06685050000669435, 0.16686090000439435, 0.25018239999189973, 0.3504778000060469]","[0.033550099993590266, 0.1503241999889724, 0.18358379998244345, 0.26710820000153035, 0.3672050999593921]",252.5310459000175,252.73252969997702,1000,252.73252969997702,1000,1000,1000,1000,0,num_3,0.5980714000179432,,26,4,2026-03-05_10h34.42.538,2026A_exp2,2022.2.4,60.03013513367115,
1000,1,0.0,0.0,0,0,76,76,86,,,,,253.34846820001258,253.99917909997748,253.99917909997748,254.48368020000635,45,45,254.48368020000635,254.48368020000635,254.48368020000635,254.48368020000635,254.48368020000635,254.48368020000635,254.48368020000635,254.48368020000635,254.48368020000635,254.84997229999863,254.84997229999863,254.84997229999863,254.84997229999863,254.84997229999863,254.84997229999863,254.84997229999863,254.84997229999863,254.84997229999863,23,0,,,254.84997229999863,255.05203999998048,1000,255.05203999998048,1000,1000,1000,1000,0,num_3,0.5438291999744251,,26,4,2026-03-05_10h34.42.538,2026A_exp2,2022.2.4,60.03013513367115,
1000,1,0.0,6.1,1,0,77,77,43,,,,,255.61735060001956,256.2680751999724,256.2680751999724,256.7525694000069,315,315,256.7525694000069,256.7525694000069,256.7525694000069,256.7525694000069,256.7525694000069,256.7525694000069,256.7525694000069,256.7525694000069,256.7525694000069,257.1188820999814,257.1188820999814,257.1188820999814,257.1188820999814,257.1188820999814,257.1188820999814,257.1188820999814,257.1188820999814,257.1188820999814,21,1,[0.35046090005198494],[0.36713650001911446],257.1188820999814,257.3208622999955,1000,257.3208622999955,1000,1000,1000,1000,1,num_2,0.5859883999801241,,26,4,2026-03-05_10h34.42.538,2026A_exp2,2022.2.4,60.03013513367115,
1000,1,3.7,0.0,1,0,78,78,38,,,,,257.9363141999929,258.5871382000041,258.5871382000041,259.08813729998656,45,45,259.08813729998656,259.08813729998656,259.08813729998656,259.08813729998656,259.08813729998656,259.08813729998656,259.08813729998656,259.08813729998656,259.08813729998656,259.4544154999894,259.4544154999894,259.4544154999894,259.4544154999894,259.4544154999894,259.4544154999894,259.4544154999894,259.4544154999894,259.4544154999894,23,0,,,259.4544154999894,259.6600848999806,1000,259.6600848999806,1000,1000,1000,1000,0,num_3,0.45478829997591674,,26,4,2026-03-05_10h34.42.538,2026A_exp2,2022.2.4,60.03013513367115,
1000,1,0.0,0.0,0,0,79,79,5,,,,,260.1388214000035,260.78921219997574,260.78921219997574,261.29035879997537,45,45,261.29035879997537,261.29035879997537,261.29035879997537,261.29035879997537,261.29035879997537,261.29035879997537,261.29035879997537,261.29035879997537,261.29035879997537,261.6569692000048,261.6569692000048,261.6569692000048,261.6569692000048,261.6569692000048,261.6569692000048,261.6569692000048,261.6569692000048,261.6569692000048,5,5,"[0.0012904999894089997, 0.06687559996498749, 0.10013269999762997, 0.16697259998181835, 0.35044499998912215]","[0.05001050001010299, 0.08326799998758361, 0.15033189998939633, 0.3336932999663986, 0.36712049995549023]",261.6569692000048,261.8588163999957,1000,261.8588163999957,1000,1000,1000,1000,1,num_2,0.5208550000097603,,26,4,2026-03-05_10h34.42.538,2026A_exp2,2022.2.4,60.03013513367115,
0,0,4.9,0.0,1,0,80,80,67,,,,,262.4074613999692,263.0582582000061,263.0582582000061,263.55933359998744,45,45,263.55933359998744,263.55933359998744,263.55933359998744,263.55933359998744,263.55933359998744,263.55933359998744,263.55933359998744,263.55933359998744,263.55933359998744,263.92567839997355,263.92567839997355,263.92567839997355,263.92567839997355,263.92567839997355,263.92567839997355,263.92567839997355,263.92567839997355,263.92567839997355,9,5,"[0.06682319997344166, 0.11686110001755878, 0.16713720001280308, 0.3006003000191413, 0.36741750000510365]","[0.08339470002101734, 0.1501824000151828, 0.2839957000105642, 0.35065719997510314, 0.36742229998344555]",263.92567839997355,264.12587099999655,4.9,264.12587099999655,1,4.9,1,1,1000,num_4,2.0607165999826975,,26,4,2026-03-05_10h34.42.538,2026A_exp2,2022.2.4,60.03013513367115,
1000,1,0.0,0.0,0,0,81,81,7,,,,,266.21131689997856,266.8619543000241,266.8619543000241,267.3463668000186,315,315,267.3463668000186,267.3463668000186,267.3463668000186,267.3463668000186,267.3463668000186,267.3463668000186,267.3463668000186,267.3463668000186,267.3463668000186,267.71251219999976,267.71251219999976,267.71251219999976,267.71251219999976,267.71251219999976,267.71251219999976,267.71251219999976,267.71251219999976,267.71251219999976,15,4,"[0.0011687999940477312, 0.15040049998788163, 0.21715399995446205, 0.2505177999846637]","[0.05024369998136535, 0.16700909996870905, 0.23380309995263815, 0.2838327999925241]",267.71251219999976,267.914903900004,1000,267.914903900004,1000,1000,1000,1000,1,num_2,0.6966318999766372,,26,4,2026-03-05_10h34.42.538,2026A_exp2,2022.2.4,60.03013513367115,
1,0,6.1,6.1,1,0,82,82,23,,,,,268.63043570000445,269.28107889997773,269.28107889997773,269.7821604000055,45,315,269.7821604000055,269.7821604000055,269.7821604000055,269.7821604000055,269.7821604000055,269.7821604000055,269.7821604000055,269.7821604000055,269.7821604000055,270.13182509999024,270.13182509999024,270.13182509999024,270.13182509999024,270.13182509999024,270.13182509999024,270.13182509999024,270.13182509999024,270.13182509999024,21,1,[0.16658329998608679],[0.20034280000254512],270.13182509999024,270.33214189996943,6.1,270.3488417000044,1,6.1,1,1,1000,num_4,0.7982146999565884,,26,4,2026-03-05_10h34.42.538,2026A_exp2,2022.2.4,60.03013513367115,
1000,1,0.0,4.9,0,0,83,83,6,,,,,271.16614300000947,271.8003416999709,271.8003416999709,272.30146599997533,315,315,272.30146599997533,272.30146599997533,272.30146599997533,272.30146599997533,272.30146599997533,272.30146599997533,272.30146599997533,272.30146599997533,272.30146599997533,272.66776470001787,272.66776470001787,272.66776470001787,272.66776470001787,272.66776470001787,272.66776470001787,272.66776470001787,272.66776470001787,272.66776470001787,23,0,,,272.66776470001787,272.86977410002146,1000,272.86977410002146,1000,1000,1000,1000,1,num_2,0.9410583999706432,,26,4,2026-03-05_10h34.42.538,2026A_exp2,2022.2.4,60.03013513367115,
1,0,0.0,4.9,0,0,84,84,3,,,,,273.8355288999737,274.48632359999465,274.48632359999465,274.9874700999935,315,315,274.9874700999935,274.9874700999935,274.9874700999935,274.9874700999935,274.9874700999935,274.9874700999935,274.9874700999935,274.9874700999935,274.9874700999935,275.35384409996914,275.35384409996914,275.35384409996914,275.35384409996914,275.35384409996914,275.35384409996914,275.35384409996914,275.35384409996914,275.35384409996914,23,0,,,275.35384409996914,275.55397639999865,0.0,275.55397639999865,0,0.0,0,1,1000,num_1,1.1380371000268497,,26,4,2026-03-05_10h34.42.538,2026A_exp2,2022.2.4,60.03013513367115,
1,0,3.7,0.0,0,0,85,85,87,,,,,276.72180699999444,277.37252590002026,277.37252590002026,277.8570094999741,45,315,277.8570094999741,277.8570094999741,277.8570094999741,277.8570094999741,277.8570094999741,277.8570094999741,277.8570094999741,277.8570094999741,277.8570094999741,278.2233803999843,278.2233803999843,278.2233803999843,278.2233803999843,278.2233803999843,278.2233803999843,278.2233803999843,278.2233803999843,278.2233803999843,23,0,,,278.2233803999843,278.4314361999859,3.7,278.4314361999859,1,3.7,1,1,1000,num_4,0.9479955999995582,,26,4,2026-03-05_10h34.42.538,2026A_exp2,2022.2.4,60.03013513367115,
0,0,3.7,0.0,0,0,86,86,62,,,,,279.4079098000075,280.04188889998477,280.04188889998477,280.54305219999515,45,315,280.54305219999515,280.54305219999515,280.54305219999515,280.54305219999515,280.54305219999515,280.54305219999515,280.54305219999515,280.54305219999515,280.54305219999515,280.9093376999954,280.9093376999954,280.9093376999954,280.9093376999954,280.9093376999954,280.9093376999954,280.9093376999954,280.9093376999954,280.9093376999954,23,0,,,280.9093376999954,281.1095927999704,0.0,281.1095927999704,0,0.0,0,1,1000,num_1,0.765959499985911,,26,4,2026-03-05_10h34.42.538,2026A_exp2,2022.2.4,60.03013513367115,
1,0,6.1,0.0,1,0,87,87,80,,,,,281.8935182999703,282.5444013000233,282.5444013000233,283.043433999992,45,315,283.043433999992,283.043433999992,283.043433999992,283.043433999992,283.043433999992,283.043433999992,283.043433999992,283.043433999992,283.043433999992,283.395053300017,283.395053300017,283.395053300017,283.395053300017,283.395053300017,283.395053300017,283.395053300017,283.395053300017,283.395053300017,6,3,"[0.004064299981109798, 0.2651931999716908, 0.314334399998188]","[0.24840809998568147, 0.2983921999693848, 0.3309583999798633]",283.395053300017,283.5953817999689,0.0,283.5953817999689,0,0.0,0,1,1000,num_1,1.263447700010147,,26,4,2026-03-05_10h34.42.538,2026A_exp2,2022.2.4,60.03013513367115,
1000,1,6.1,6.1,1,0,88,88,4,,,,,284.8800848000101,285.5306582999765,285.5306582999765,286.03215330000967,315,315,286.03215330000967,286.03215330000967,286.03215330000967,286.03215330000967,286.03215330000967,286.03215330000967,286.03215330000967,286.03215330000967,286.03215330000967,286.3981662999722,286.3981662999722,286.3981662999722,286.3981662999722,286.3981662999722,286.3981662999722,286.3981662999722,286.3981662999722,286.3981662999722,12,3,"[0.10004460002528504, 0.18349500000476837, 0.35034830000950024]","[0.1667880000313744, 0.3002501000300981, 0.3670566999935545]",286.3981662999722,286.6003168000025,1000,286.6003168000025,1000,1000,1000,1000,1,num_2,0.5709633000078611,,26,4,2026-03-05_10h34.42.538,2026A_exp2,2022.2.4,60.03013513367115,
1,0,0.0,3.7,1,0,89,89,14,,,,,287.1990808999981,287.84966639999766,287.84966639999766,288.3508185999817,315,45,288.3508185999817,288.3508185999817,288.3508185999817,288.3508185999817,288.3508185999817,288.3508185999817,288.3508185999817,288.3508185999817,288.3508185999817,288.7004888000083,288.7004888000083,288.7004888000083,288.7004888000083,288.7004888000083,288.7004888000083,288.7004888000083,288.7004888000083,288.7004888000083,19,2,"[0.08346829999936745, 0.16697790002217516]","[0.10035470000002533, 0.20043800002895296]",288.7004888000083,288.90077700000256,3.7,288.91733209998347,0,3.7,1,0,1000,num_1,0.9582892999751493,,26,4,2026-03-05_10h34.42.538,2026A_exp2,2022.2.4,60.03013513367115,
,,,,,,,,,,,,,,,,,,,,,,,,,,,,,,,,,,,,,,,,,,,,,,,,,,,,289.90925189998234,,,,,,,
