validity,detectorcomp,contrastCW,contrastCCW,precueCWorCCW,block_80trials.thisRepN,block_80trials.thisTrialN,block_80trials.thisN,block_80trials.thisIndex,etRecord.started,etRecord.stopped,text.started,text.stopped,text_4.started,text_4.stopped,text_6.started,text_6.stopped,oriCW,oriCCW,roi_2.started,grating_UR.started,grating_UL.started,grating_LR.started,grating_LL.started,noise_UR.started,noise_UL.started,noise_LR.started,noise_LL.started,roi_2.stopped,grating_UR.stopped,grating_UL.stopped,grating_LR.stopped,grating_LL.stopped,noise_UR.stopped,noise_UL.stopped,noise_LR.stopped,noise_LL.stopped,outframe,roi_2.numLooks,roi_2.timesOn,roi_2.timesOff,text_2.started,text_2.stopped,probedcontrast,key_resp.started,respdetect,relevantContrast,correctDetect,TorFdetect,respCWorCCW,key_resp.keys,key_resp.rt,feedback_display_.started,participantNo,blockNo,date,expName,psychopyVersion,frameRate,
1,0,4.9,6.1,1,0,0,0,62,4.2600033339113e-05,4.2600033339113e-05,51.717158999992535,53.71937519998755,53.71937519998755,54.35350869997637,54.35350869997637,54.87280509999255,45,45,54.87280509999255,54.87280509999255,54.87280509999255,54.87280509999255,54.87280509999255,54.87280509999255,54.87280509999255,54.87280509999255,54.87280509999255,55.22112439997727,55.22112439997727,55.22112439997727,55.22112439997727,55.22112439997727,55.22112439997727,55.22112439997727,55.22112439997727,55.22112439997727,0,1,[0.0010315999970771372],[0.3670255999895744],55.22112439997727,55.42135739995865,6.1,55.42135739995865,1,6.1,1,1,1000,num_4,0.7130166999995708,,27,6,2026-03-05_13h35.43.194,2026A_exp2,2022.2.4,59.919923018984306,
0,0,6.1,0.0,0,0,1,1,65,,,,,56.155423899996094,56.80605029995786,56.80605029995786,57.307139299984556,315,45,57.307139299984556,57.307139299984556,57.307139299984556,57.307139299984556,57.307139299984556,57.307139299984556,57.307139299984556,57.307139299984556,57.307139299984556,57.65676469996106,57.65676469996106,57.65676469996106,57.65676469996106,57.65676469996106,57.65676469996106,57.65676469996106,57.65676469996106,57.65676469996106,13,2,"[0.017576700018253177, 0.33369599998695776]","[0.13366069999756292, 0.35062769998330623]",57.65676469996106,57.85708359995624,0.0,57.85708359995624,0,0.0,0,1,1000,num_1,0.5895947000244632,,27,6,2026-03-05_13h35.43.194,2026A_exp2,2022.2.4,59.919923018984306,
1000,1,0.0,0.0,1,0,2,2,72,,,,,58.47440199996345,59.12481819995446,59.12481819995446,59.626109900011215,315,315,59.626109900011215,59.626109900011215,59.626109900011215,59.626109900011215,59.626109900011215,59.626109900011215,59.626109900011215,59.626109900011215,59.626109900011215,59.99254820001079,59.99254820001079,59.99254820001079,59.99254820001079,59.99254820001079,59.99254820001079,59.99254820001079,59.99254820001079,59.99254820001079,23,0,,,59.99254820001079,60.19752970000263,1000,60.19752970000263,1000,1000,1000,1000,0,num_3,0.6243415999924764,,27,6,2026-03-05_13h35.43.194,2026A_exp2,2022.2.4,59.919923018984306,
1,0,0.0,0.0,0,0,3,3,87,,,,,60.843430599954445,61.49406269995961,61.49406269995961,61.99506389995804,45,45,61.99506389995804,61.99506389995804,61.99506389995804,61.99506389995804,61.99506389995804,61.99506389995804,61.99506389995804,61.99506389995804,61.99506389995804,62.3614654999692,62.3614654999692,62.3614654999692,62.3614654999692,62.3614654999692,62.3614654999692,62.3614654999692,62.3614654999692,62.3614654999692,23,0,,,62.3614654999692,62.56173929997021,0.0,62.56173929997021,0,0.0,0,1,1000,num_1,0.7246143000083975,,27,6,2026-03-05_13h35.43.194,2026A_exp2,2022.2.4,59.919923018984306,
1,0,4.9,0.0,0,0,4,4,14,,,,,63.3125224999967,63.96339819999412,63.96339819999412,64.44758440001169,45,45,64.44758440001169,64.44758440001169,64.44758440001169,64.44758440001169,64.44758440001169,64.44758440001169,64.44758440001169,64.44758440001169,64.44758440001169,64.81401129998267,64.81401129998267,64.81401129998267,64.81401129998267,64.81401129998267,64.81401129998267,64.81401129998267,64.81401129998267,64.81401129998267,23,0,,,64.81401129998267,65.01416089996928,4.9,65.01416089996928,1,4.9,1,1,1000,num_4,0.46446809999179095,,27,6,2026-03-05_13h35.43.194,2026A_exp2,2022.2.4,59.919923018984306,
0,0,0.0,6.1,0,0,5,5,12,,,,,65.49795669998275,66.14858609996736,66.14858609996736,66.63312899996527,315,315,66.63312899996527,66.63312899996527,66.63312899996527,66.63312899996527,66.63312899996527,66.63312899996527,66.63312899996527,66.63312899996527,66.63312899996527,66.99957499996526,66.99957499996526,66.99957499996526,66.99957499996526,66.99957499996526,66.99957499996526,66.99957499996526,66.99957499996526,66.99957499996526,23,0,,,66.99957499996526,67.19972749997396,6.1,67.19972749997396,1,6.1,1,1,1000,num_4,0.5584577000117861,,27,6,2026-03-05_13h35.43.194,2026A_exp2,2022.2.4,59.919923018984306,
1,0,0.0,0.0,1,0,6,6,77,,,,,67.78354249999393,68.43440049997298,68.43440049997298,68.91867029998684,45,315,68.91867029998684,68.91867029998684,68.91867029998684,68.91867029998684,68.91867029998684,68.91867029998684,68.91867029998684,68.91867029998684,68.91867029998684,69.28517799999099,69.28517799999099,69.28517799999099,69.28517799999099,69.28517799999099,69.28517799999099,69.28517799999099,69.28517799999099,69.28517799999099,23,0,,,69.28517799999099,69.4853843000019,0.0,69.4853843000019,0,0.0,0,1,1000,num_1,0.5124549000174738,,27,6,2026-03-05_13h35.43.194,2026A_exp2,2022.2.4,59.919923018984306,
1000,1,4.9,3.7,1,0,7,7,46,,,,,70.01903749996563,70.66979339998215,70.66979339998215,71.15411899995524,315,45,71.15411899995524,71.15411899995524,71.15411899995524,71.15411899995524,71.15411899995524,71.15411899995524,71.15411899995524,71.15411899995524,71.15411899995524,71.52076260000467,71.52076260000467,71.52076260000467,71.52076260000467,71.52076260000467,71.52076260000467,71.52076260000467,71.52076260000467,71.52076260000467,23,0,,,71.52076260000467,71.72312819998479,1000,71.72312819998479,1000,1000,1000,1000,0,num_3,0.6111681999755092,,27,6,2026-03-05_13h35.43.194,2026A_exp2,2022.2.4,59.919923018984306,
1000,1,3.7,0.0,1,0,8,8,54,,,,,72.3548389999778,73.005496400001,73.005496400001,73.50657839997439,315,45,73.50657839997439,73.50657839997439,73.50657839997439,73.50657839997439,73.50657839997439,73.50657839997439,73.50657839997439,73.50657839997439,73.50657839997439,73.87303819996305,73.87303819996305,73.87303819996305,73.87303819996305,73.87303819996305,73.87303819996305,73.87303819996305,73.87303819996305,73.87303819996305,23,0,,,73.87303819996305,74.075000599958,1000,74.075000599958,1000,1000,1000,1000,0,num_3,0.43528560001868755,,27,6,2026-03-05_13h35.43.194,2026A_exp2,2022.2.4,59.919923018984306,
1000,1,4.9,3.7,0,0,9,9,26,,,,,74.54036230000202,75.19111829996109,75.19111829996109,75.69206500001019,45,315,75.69206500001019,75.69206500001019,75.69206500001019,75.69206500001019,75.69206500001019,75.69206500001019,75.69206500001019,75.69206500001019,75.69206500001019,76.05861429998185,76.05861429998185,76.05861429998185,76.05861429998185,76.05861429998185,76.05861429998185,76.05861429998185,76.05861429998185,76.05861429998185,23,0,,,76.05861429998185,76.26139509998029,1000,76.26139509998029,1000,1000,1000,1000,1,num_2,0.7214514999650419,,27,6,2026-03-05_13h35.43.194,2026A_exp2,2022.2.4,59.919923018984306,
1,0,4.9,4.9,1,0,10,10,32,,,,,77.00954619998811,77.6601732999552,77.6601732999552,78.14475699997274,45,45,78.14475699997274,78.14475699997274,78.14475699997274,78.14475699997274,78.14475699997274,78.14475699997274,78.14475699997274,78.14475699997274,78.14475699997274,78.51108059997205,78.51108059997205,78.51108059997205,78.51108059997205,78.51108059997205,78.51108059997205,78.51108059997205,78.51108059997205,78.51108059997205,23,0,,,78.51108059997205,78.71114739996847,4.9,78.71114739996847,1,4.9,1,1,1000,num_4,0.5668533999705687,,27,6,2026-03-05_13h35.43.194,2026A_exp2,2022.2.4,59.919923018984306,
1000,1,0.0,0.0,1,0,11,11,63,,,,,79.29510799999116,79.94579440000234,79.94579440000234,80.43012789997738,45,315,80.43012789997738,80.43012789997738,80.43012789997738,80.43012789997738,80.43012789997738,80.43012789997738,80.43012789997738,80.43012789997738,80.43012789997738,80.7965494999662,80.7965494999662,80.7965494999662,80.7965494999662,80.7965494999662,80.7965494999662,80.7965494999662,80.7965494999662,80.7965494999662,23,0,,,80.7965494999662,80.99892179999733,1000,80.99892179999733,1000,1000,1000,1000,0,num_3,0.5436439999612048,,27,6,2026-03-05_13h35.43.194,2026A_exp2,2022.2.4,59.919923018984306,
1,0,4.9,0.0,0,0,12,12,57,,,,,81.56394640001236,82.21470339997904,82.21470339997904,82.71586589998333,315,315,82.71586589998333,82.71586589998333,82.71586589998333,82.71586589998333,82.71586589998333,82.71586589998333,82.71586589998333,82.71586589998333,82.71586589998333,83.0823266999796,83.0823266999796,83.0823266999796,83.0823266999796,83.0823266999796,83.0823266999796,83.0823266999796,83.0823266999796,83.0823266999796,23,0,,,83.0823266999796,83.28251839999575,4.9,83.28251839999575,1,4.9,1,1,1000,num_4,0.7712334000389092,,27,6,2026-03-05_13h35.43.194,2026A_exp2,2022.2.4,59.919923018984306,
1,0,0.0,6.1,0,0,13,13,3,,,,,84.08313939999789,84.73379989998648,84.73379989998648,85.21833519998472,45,45,85.21833519998472,85.21833519998472,85.21833519998472,85.21833519998472,85.21833519998472,85.21833519998472,85.21833519998472,85.21833519998472,85.21833519998472,85.58483389997855,85.58483389997855,85.58483389997855,85.58483389997855,85.58483389997855,85.58483389997855,85.58483389997855,85.58483389997855,85.58483389997855,23,0,,,85.58483389997855,85.78493289998733,0.0,85.78493289998733,0,0.0,0,1,1000,num_1,0.7973568999441341,,27,6,2026-03-05_13h35.43.194,2026A_exp2,2022.2.4,59.919923018984306,
1,0,0.0,0.0,1,0,14,14,66,,,,,86.6022959999973,87.25296459998935,87.25296459998935,87.73759420000715,45,315,87.73759420000715,87.73759420000715,87.73759420000715,87.73759420000715,87.73759420000715,87.73759420000715,87.73759420000715,87.73759420000715,87.73759420000715,88.10398660000646,88.10398660000646,88.10398660000646,88.10398660000646,88.10398660000646,88.10398660000646,88.10398660000646,88.10398660000646,88.10398660000646,23,0,,,88.10398660000646,88.30394509999314,0.0,88.30394509999314,0,0.0,0,1,1000,num_1,0.5657708999933675,,27,6,2026-03-05_13h35.43.194,2026A_exp2,2022.2.4,59.919923018984306,
1000,1,0.0,4.9,0,0,15,15,50,,,,,88.88789919996634,89.54974320001202,89.54974320001202,90.02365799999097,45,45,90.02365799999097,90.02365799999097,90.02365799999097,90.02365799999097,90.02365799999097,90.02365799999097,90.02365799999097,90.02365799999097,90.02365799999097,90.38939299999038,90.38939299999038,90.38939299999038,90.38939299999038,90.38939299999038,90.38939299999038,90.38939299999038,90.38939299999038,90.38939299999038,21,2,"[0.05029409995768219, 0.10026719997404143]","[0.06685979996109381, 0.11684349999995902]",90.38939299999038,90.592222999956,1000,90.592222999956,1000,1000,1000,1000,1,num_2,0.589810200035572,,27,6,2026-03-05_13h35.43.194,2026A_exp2,2022.2.4,59.919923018984306,
1,0,6.1,3.7,0,0,16,16,79,,,,,91.20724219997646,91.85770399996545,91.85770399996545,92.34220109996386,315,45,92.34220109996386,92.34220109996386,92.34220109996386,92.34220109996386,92.34220109996386,92.34220109996386,92.34220109996386,92.34220109996386,92.34220109996386,92.70863159996225,92.70863159996225,92.70863159996225,92.70863159996225,92.70863159996225,92.70863159996225,92.70863159996225,92.70863159996225,92.70863159996225,23,0,,,92.70863159996225,92.90882750001037,6.1,92.90882750001037,1,6.1,1,1,1000,num_4,0.6011822000145912,,27,6,2026-03-05_13h35.43.194,2026A_exp2,2022.2.4,59.919923018984306,
1000,1,4.9,4.9,0,0,17,17,36,,,,,93.5259178999695,94.17675519996556,94.17675519996556,94.66119439998874,45,315,94.66119439998874,94.66119439998874,94.66119439998874,94.66119439998874,94.66119439998874,94.66119439998874,94.66119439998874,94.66119439998874,94.66119439998874,95.02741290000267,95.02741290000267,95.02741290000267,95.02741290000267,95.02741290000267,95.02741290000267,95.02741290000267,95.02741290000267,95.02741290000267,23,0,,,95.02741290000267,95.22971200000029,1000,95.22971200000029,1000,1000,1000,1000,1,num_2,0.4722529000137001,,27,6,2026-03-05_13h35.43.194,2026A_exp2,2022.2.4,59.919923018984306,
0,0,0.0,0.0,0,0,18,18,10,,,,,95.72823899996001,96.37892310001189,96.37892310001189,96.8801884999848,45,315,96.8801884999848,96.8801884999848,96.8801884999848,96.8801884999848,96.8801884999848,96.8801884999848,96.8801884999848,96.8801884999848,96.8801884999848,97.24636920000194,97.24636920000194,97.24636920000194,97.24636920000194,97.24636920000194,97.24636920000194,97.24636920000194,97.24636920000194,97.24636920000194,23,0,,,97.24636920000194,97.44663829996716,0.0,97.44663829996716,0,0.0,0,1,1000,num_1,0.639869800012093,,27,6,2026-03-05_13h35.43.194,2026A_exp2,2022.2.4,59.919923018984306,
1,0,0.0,0.0,1,0,19,19,24,,,,,98.11382079997566,98.76461209997069,98.76461209997069,99.24910079996334,315,45,99.24910079996334,99.24910079996334,99.24910079996334,99.24910079996334,99.24910079996334,99.24910079996334,99.24910079996334,99.24910079996334,99.24910079996334,99.61538869998185,99.61538869998185,99.61538869998185,99.61538869998185,99.61538869998185,99.61538869998185,99.61538869998185,99.61538869998185,99.61538869998185,23,0,,,99.61538869998185,99.81577379995724,0.0,99.81577379995724,0,0.0,0,1,1000,num_1,0.7024050999898463,,27,6,2026-03-05_13h35.43.194,2026A_exp2,2022.2.4,59.919923018984306,
1000,1,0.0,0.0,1,0,20,20,8,,,,,100.54956009995658,101.200563099992,101.200563099992,101.68473909999011,45,315,101.68473909999011,101.68473909999011,101.68473909999011,101.68473909999011,101.68473909999011,101.68473909999011,101.68473909999011,101.68473909999011,101.68473909999011,102.05134700000053,102.05134700000053,102.05134700000053,102.05134700000053,102.05134700000053,102.05134700000053,102.05134700000053,102.05134700000053,102.05134700000053,23,0,,,102.05134700000053,102.2532654000097,1000,102.2532654000097,1000,1000,1000,1000,0,num_3,0.6406034000101499,,27,6,2026-03-05_13h35.43.194,2026A_exp2,2022.2.4,59.919923018984306,
1,0,4.9,3.7,0,0,21,21,89,,,,,102.91879429999972,103.56922679999843,103.56922679999843,104.07615629996872,315,45,104.07615629996872,104.07615629996872,104.07615629996872,104.07615629996872,104.07615629996872,104.07615629996872,104.07615629996872,104.07615629996872,104.07615629996872,104.43698479997693,104.43698479997693,104.43698479997693,104.43698479997693,104.43698479997693,104.43698479997693,104.43698479997693,104.43698479997693,104.43698479997693,23,0,,,104.43698479997693,104.63713119999738,4.9,104.63713119999738,1,4.9,1,1,1000,num_4,0.8095051000127569,,27,6,2026-03-05_13h35.43.194,2026A_exp2,2022.2.4,59.919923018984306,
1000,1,0.0,6.1,0,0,22,22,85,,,,,105.47113889997127,106.12200009997468,106.12200009997468,106.60644279996632,45,315,106.60644279996632,106.60644279996632,106.60644279996632,106.60644279996632,106.60644279996632,106.60644279996632,106.60644279996632,106.60644279996632,106.60644279996632,106.97289099998306,106.97289099998306,106.97289099998306,106.97289099998306,106.97289099998306,106.97289099998306,106.97289099998306,106.97289099998306,106.97289099998306,23,0,,,106.97289099998306,107.17309429997113,1000,107.17309429997113,1000,1000,1000,1000,1,num_2,0.4417949999915436,,27,6,2026-03-05_13h35.43.194,2026A_exp2,2022.2.4,59.919923018984306,
1,0,0.0,0.0,1,0,23,23,68,,,,,107.64005379995797,108.29920319997473,108.29920319997473,108.79185589996632,45,315,108.79185589996632,108.79185589996632,108.79185589996632,108.79185589996632,108.79185589996632,108.79185589996632,108.79185589996632,108.79185589996632,108.79185589996632,109.15826739999466,109.15826739999466,109.15826739999466,109.15826739999466,109.15826739999466,109.15826739999466,109.15826739999466,109.15826739999466,109.15826739999466,23,0,,,109.15826739999466,109.35850969998864,0.0,109.35850969998864,1,0.0,0,0,1000,num_4,0.5926187000004575,,27,6,2026-03-05_13h35.43.194,2026A_exp2,2022.2.4,59.919923018984306,
1,0,6.1,0.0,1,0,24,24,29,,,,,109.97559699998237,110.62633279996226,110.62633279996226,111.11084509995999,45,315,111.11084509995999,111.11084509995999,111.11084509995999,111.11084509995999,111.11084509995999,111.11084509995999,111.11084509995999,111.11084509995999,111.11084509995999,111.47696939995512,111.47696939995512,111.47696939995512,111.47696939995512,111.47696939995512,111.47696939995512,111.47696939995512,111.47696939995512,111.47696939995512,23,0,,,111.47696939995512,111.67764079995686,0.0,111.67764079995686,0,0.0,0,1,1000,num_1,0.5365422999602742,,27,6,2026-03-05_13h35.43.194,2026A_exp2,2022.2.4,59.919923018984306,
1,0,0.0,0.0,0,0,25,25,64,,,,,112.2446608999744,112.89541439997265,112.89541439997265,113.3799250999582,45,45,113.3799250999582,113.3799250999582,113.3799250999582,113.3799250999582,113.3799250999582,113.3799250999582,113.3799250999582,113.3799250999582,113.3799250999582,113.74642009998206,113.74642009998206,113.74642009998206,113.74642009998206,113.74642009998206,113.74642009998206,113.74642009998206,113.74642009998206,113.74642009998206,23,0,,,113.74642009998206,113.94617979996838,0.0,113.94617979996838,1,0.0,0,0,1000,num_4,0.636370399966836,,27,6,2026-03-05_13h35.43.194,2026A_exp2,2022.2.4,59.919923018984306,
1,0,0.0,0.0,0,0,26,26,31,,,,,114.61362179997377,115.26450180000393,115.26450180000393,115.76548379997257,45,315,115.76548379997257,115.76548379997257,115.76548379997257,115.76548379997257,115.76548379997257,115.76548379997257,115.76548379997257,115.76548379997257,115.76548379997257,116.13195309997536,116.13195309997536,116.13195309997536,116.13195309997536,116.13195309997536,116.13195309997536,116.13195309997536,116.13195309997536,116.13195309997536,23,0,,,116.13195309997536,116.33231269998942,0.0,116.33231269998942,1,0.0,0,0,1000,num_4,0.633367599977646,,27,6,2026-03-05_13h35.43.194,2026A_exp2,2022.2.4,59.919923018984306,
1000,1,0.0,3.7,1,0,27,27,81,,,,,116.98271359998034,117.63336689997232,117.63336689997232,118.13442560000112,45,45,118.13442560000112,118.13442560000112,118.13442560000112,118.13442560000112,118.13442560000112,118.13442560000112,118.13442560000112,118.13442560000112,118.13442560000112,118.48435310000787,118.48435310000787,118.48435310000787,118.48435310000787,118.48435310000787,118.48435310000787,118.48435310000787,118.48435310000787,118.48435310000787,22,0,,,118.48435310000787,118.68474060000153,1000,118.68474060000153,1000,1000,1000,1000,1,num_2,0.5060233999975026,,27,6,2026-03-05_13h35.43.194,2026A_exp2,2022.2.4,59.919923018984306,
1000,1,0.0,3.7,1,0,28,28,7,,,,,119.21824499999639,119.86904479999794,119.86904479999794,120.37023060000502,315,45,120.37023060000502,120.37023060000502,120.37023060000502,120.37023060000502,120.37023060000502,120.37023060000502,120.37023060000502,120.37023060000502,120.37023060000502,120.73643280001124,120.73643280001124,120.73643280001124,120.73643280001124,120.73643280001124,120.73643280001124,120.73643280001124,120.73643280001124,120.73643280001124,23,0,,,120.73643280001124,120.93882919999305,1000,120.93882919999305,1000,1000,1000,1000,1,num_2,0.6271320999949239,,27,6,2026-03-05_13h35.43.194,2026A_exp2,2022.2.4,59.919923018984306,
1,0,0.0,0.0,1,0,29,29,60,,,,,121.58732059999602,122.23812519997591,122.23812519997591,122.73923379997723,315,45,122.73923379997723,122.73923379997723,122.73923379997723,122.73923379997723,122.73923379997723,122.73923379997723,122.73923379997723,122.73923379997723,122.73923379997723,123.10560780001106,123.10560780001106,123.10560780001106,123.10560780001106,123.10560780001106,123.10560780001106,123.10560780001106,123.10560780001106,123.10560780001106,23,0,,,123.10560780001106,123.30591549997916,0.0,123.30591549997916,0,0.0,0,1,1000,num_1,0.5479485999676399,,27,6,2026-03-05_13h35.43.194,2026A_exp2,2022.2.4,59.919923018984306,
1,0,0.0,0.0,0,0,30,30,75,,,,,123.87292559997877,124.52367169997888,124.52367169997888,125.00820360000944,315,45,125.00820360000944,125.00820360000944,125.00820360000944,125.00820360000944,125.00820360000944,125.00820360000944,125.00820360000944,125.00820360000944,125.00820360000944,125.37456879997626,125.37456879997626,125.37456879997626,125.37456879997626,125.37456879997626,125.37456879997626,125.37456879997626,125.37456879997626,125.37456879997626,7,1,[0.0012285999837331474],[0.2668382999836467],125.37456879997626,125.57461289997445,0.0,125.57461289997445,1,0.0,0,0,1000,num_4,0.6952358999988064,,27,6,2026-03-05_13h35.43.194,2026A_exp2,2022.2.4,59.919923018984306,
1,0,0.0,4.9,1,0,31,31,2,,,,,126.29218220000621,126.94282789999852,126.94282789999852,127.42726450000191,45,315,127.42726450000191,127.42726450000191,127.42726450000191,127.42726450000191,127.42726450000191,127.42726450000191,127.42726450000191,127.42726450000191,127.42726450000191,127.79367629997432,127.79367629997432,127.79367629997432,127.79367629997432,127.79367629997432,127.79367629997432,127.79367629997432,127.79367629997432,127.79367629997432,23,0,,,127.79367629997432,127.99386469996534,4.9,127.99386469996534,1,4.9,1,1,1000,num_4,0.9010182999772951,,27,6,2026-03-05_13h35.43.194,2026A_exp2,2022.2.4,59.919923018984306,
1000,1,0.0,0.0,1,0,32,32,37,,,,,128.9113773999852,129.56208639999386,129.56208639999386,130.06332909996854,315,315,130.06332909996854,130.06332909996854,130.06332909996854,130.06332909996854,130.06332909996854,130.06332909996854,130.06332909996854,130.06332909996854,130.06332909996854,130.429568499967,130.429568499967,130.429568499967,130.429568499967,130.429568499967,130.429568499967,130.429568499967,130.429568499967,130.429568499967,0,1,[0.0012562000192701817],[0.3670997000299394],130.429568499967,130.6319695999846,1000,130.6319695999846,1000,1000,1000,1000,1,num_2,0.7342179999686778,,27,6,2026-03-05_13h35.43.194,2026A_exp2,2022.2.4,59.919923018984306,
1,0,3.7,0.0,0,0,33,33,15,,,,,131.3972225000034,132.04781660001026,132.04781660001026,132.54885799996555,315,315,132.54885799996555,132.54885799996555,132.54885799996555,132.54885799996555,132.54885799996555,132.54885799996555,132.54885799996555,132.54885799996555,132.54885799996555,132.9154401999549,132.9154401999549,132.9154401999549,132.9154401999549,132.9154401999549,132.9154401999549,132.9154401999549,132.9154401999549,132.9154401999549,23,0,,,132.9154401999549,133.11566139996285,3.7,133.11566139996285,1,3.7,1,1,1000,num_4,0.5382117999834009,,27,6,2026-03-05_13h35.43.194,2026A_exp2,2022.2.4,59.919923018984306,
1000,1,3.7,0.0,0,0,34,34,28,,,,,133.68273549998412,134.33344769995892,134.33344769995892,134.83419019996654,45,45,134.83419019996654,134.83419019996654,134.83419019996654,134.83419019996654,134.83419019996654,134.83419019996654,134.83419019996654,134.83419019996654,134.83419019996654,135.18437649996486,135.18437649996486,135.18437649996486,135.18437649996486,135.18437649996486,135.18437649996486,135.18437649996486,135.18437649996486,135.18437649996486,23,0,,,135.18437649996486,135.38635929999873,1000,135.38635929999873,1000,1000,1000,1000,0,num_3,0.5558901999611408,,27,6,2026-03-05_13h35.43.194,2026A_exp2,2022.2.4,59.919923018984306,
1000,1,0.0,6.1,0,0,35,35,5,,,,,135.96837109996704,136.61911199998576,136.61911199998576,137.12030869995942,315,315,137.12030869995942,137.12030869995942,137.12030869995942,137.12030869995942,137.12030869995942,137.12030869995942,137.12030869995942,137.12030869995942,137.12030869995942,137.48671109997667,137.48671109997667,137.48671109997667,137.48671109997667,137.48671109997667,137.48671109997667,137.48671109997667,137.48671109997667,137.48671109997667,23,0,,,137.48671109997667,137.68870369996876,1000,137.68870369996876,1000,1000,1000,1000,1,num_2,0.40535189997171983,,27,6,2026-03-05_13h35.43.194,2026A_exp2,2022.2.4,59.919923018984306,
1,0,4.9,0.0,1,0,36,36,52,,,,,138.12051979999524,138.7713206000044,138.7713206000044,139.28028359997552,45,45,139.28028359997552,139.28028359997552,139.28028359997552,139.28028359997552,139.28028359997552,139.28028359997552,139.28028359997552,139.28028359997552,139.28028359997552,139.63884609995876,139.63884609995876,139.63884609995876,139.63884609995876,139.63884609995876,139.63884609995876,139.63884609995876,139.63884609995876,139.63884609995876,23,0,,,139.63884609995876,139.83898910001153,0.0,139.83898910001153,0,0.0,0,1,1000,num_1,0.6561316999723203,,27,6,2026-03-05_13h35.43.194,2026A_exp2,2022.2.4,59.919923018984306,
1,0,6.1,0.0,1,0,37,37,53,,,,,140.52285439998377,141.17375590000302,141.17375590000302,141.65802219999023,315,315,141.65802219999023,141.65802219999023,141.65802219999023,141.65802219999023,141.65802219999023,141.65802219999023,141.65802219999023,141.65802219999023,141.65802219999023,142.02452669997,142.02452669997,142.02452669997,142.02452669997,142.02452669997,142.02452669997,142.02452669997,142.02452669997,142.02452669997,23,0,,,142.02452669997,142.22475779999513,0.0,142.22475779999513,0,0.0,0,1,1000,num_1,0.5579479000298306,,27,6,2026-03-05_13h35.43.194,2026A_exp2,2022.2.4,59.919923018984306,
1,0,0.0,4.9,0,0,38,38,9,,,,,142.8086689999909,143.4592986999778,143.4592986999778,143.94365579995792,45,45,143.94365579995792,143.94365579995792,143.94365579995792,143.94365579995792,143.94365579995792,143.94365579995792,143.94365579995792,143.94365579995792,143.94365579995792,144.31002330000047,144.31002330000047,144.31002330000047,144.31002330000047,144.31002330000047,144.31002330000047,144.31002330000047,144.31002330000047,144.31002330000047,23,0,,,144.31002330000047,144.51030019996688,0.0,144.51030019996688,0,0.0,0,1,1000,num_1,0.831876199983526,,27,6,2026-03-05_13h35.43.194,2026A_exp2,2022.2.4,59.919923018984306,
1,0,4.9,0.0,0,0,39,39,19,,,,,145.36116209998727,146.0118920999812,146.0118920999812,146.49622029997408,45,315,146.49622029997408,146.49622029997408,146.49622029997408,146.49622029997408,146.49622029997408,146.49622029997408,146.49622029997408,146.49622029997408,146.49622029997408,146.86269019998144,146.86269019998144,146.86269019998144,146.86269019998144,146.86269019998144,146.86269019998144,146.86269019998144,146.86269019998144,146.86269019998144,2,2,"[0.0012569999671541154, 0.35050889995181933]","[0.3172369999811053, 0.3673733999603428]",146.86269019998144,147.0627550999634,4.9,147.0627550999634,1,4.9,1,1,1000,num_4,0.5281322000082582,,27,6,2026-03-05_13h35.43.194,2026A_exp2,2022.2.4,59.919923018984306,
1000,1,6.1,3.7,0,0,40,40,43,,,,,147.61333669995656,148.26411449996522,148.26411449996522,148.7485901999753,45,315,148.7485901999753,148.7485901999753,148.7485901999753,148.7485901999753,148.7485901999753,148.7485901999753,148.7485901999753,148.7485901999753,148.7485901999753,149.11485239997273,149.11485239997273,149.11485239997273,149.11485239997273,149.11485239997273,149.11485239997273,149.11485239997273,149.11485239997273,149.11485239997273,16,3,"[0.01742240000749007, 0.16670760000124574, 0.2837897000135854]","[0.03343880001921207, 0.18320150004001334, 0.3671079000341706]",149.11485239997273,149.31678439996904,1000,149.31678439996904,1000,1000,1000,1000,1,num_2,0.553077399963513,,27,6,2026-03-05_13h35.43.194,2026A_exp2,2022.2.4,59.919923018984306,
0,0,4.9,6.1,0,0,41,41,1,,,,,149.89910439995583,150.5497395999846,150.5497395999846,151.05084579996765,315,315,151.05084579996765,151.05084579996765,151.05084579996765,151.05084579996765,151.05084579996765,151.05084579996765,151.05084579996765,151.05084579996765,151.05084579996765,151.41734399995767,151.41734399995767,151.41734399995767,151.41734399995767,151.41734399995767,151.41734399995767,151.41734399995767,151.41734399995767,151.41734399995767,23,0,,,151.41734399995767,151.6174858000013,6.1,151.6174858000013,1,6.1,1,1,1000,num_4,0.5813627000316046,,27,6,2026-03-05_13h35.43.194,2026A_exp2,2022.2.4,59.919923018984306,
1,0,6.1,0.0,1,0,42,42,23,,,,,152.2178952000104,152.86870409996482,152.86870409996482,153.3534675000119,45,45,153.3534675000119,153.3534675000119,153.3534675000119,153.3534675000119,153.3534675000119,153.3534675000119,153.3534675000119,153.3534675000119,153.3534675000119,153.71962429996347,153.71962429996347,153.71962429996347,153.71962429996347,153.71962429996347,153.71962429996347,153.71962429996347,153.71962429996347,153.71962429996347,23,0,,,153.71962429996347,153.91977839998435,0.0,153.91977839998435,0,0.0,0,1,1000,num_1,0.5024717999622226,,27,6,2026-03-05_13h35.43.194,2026A_exp2,2022.2.4,59.919923018984306,
1,0,0.0,0.0,1,0,43,43,42,,,,,154.45350159995724,155.10416829999303,155.10416829999303,155.5887359000044,315,315,155.5887359000044,155.5887359000044,155.5887359000044,155.5887359000044,155.5887359000044,155.5887359000044,155.5887359000044,155.5887359000044,155.5887359000044,155.95511029998306,155.95511029998306,155.95511029998306,155.95511029998306,155.95511029998306,155.95511029998306,155.95511029998306,155.95511029998306,155.95511029998306,22,1,[0.10037129995180294],[0.11720249999780208],155.95511029998306,156.15537539997604,0.0,156.15537539997604,1,0.0,0,0,1000,num_4,0.5309456999530084,,27,6,2026-03-05_13h35.43.194,2026A_exp2,2022.2.4,59.919923018984306,
1000,1,4.9,6.1,0,0,44,44,59,,,,,156.70588239998324,157.35655580001185,157.35655580001185,157.85763519996544,315,315,157.85763519996544,157.85763519996544,157.85763519996544,157.85763519996544,157.85763519996544,157.85763519996544,157.85763519996544,157.85763519996544,157.85763519996544,158.20742980000796,158.20742980000796,158.20742980000796,158.20742980000796,158.20742980000796,158.20742980000796,158.20742980000796,158.20742980000796,158.20742980000796,22,0,,,158.20742980000796,158.40929629997117,1000,158.40929629997117,1000,1000,1000,1000,1,num_2,0.5493853000225499,,27,6,2026-03-05_13h35.43.194,2026A_exp2,2022.2.4,59.919923018984306,
0,0,0.0,6.1,0,0,45,45,30,,,,,158.97474279999733,159.62545319995843,159.62545319995843,160.12654399999883,45,45,160.12654399999883,160.12654399999883,160.12654399999883,160.12654399999883,160.12654399999883,160.12654399999883,160.12654399999883,160.12654399999883,160.12654399999883,160.47633799997857,160.47633799997857,160.47633799997857,160.47633799997857,160.47633799997857,160.47633799997857,160.47633799997857,160.47633799997857,160.47633799997857,22,0,,,160.47633799997857,160.67657489998965,6.1,160.67657489998965,1,6.1,1,1,1000,num_4,0.529107499984093,,27,6,2026-03-05_13h35.43.194,2026A_exp2,2022.2.4,59.919923018984306,
1000,1,0.0,3.7,0,0,46,46,21,,,,,161.22689009999158,161.87764969997806,161.87764969997806,162.36225419997936,315,315,162.36225419997936,162.36225419997936,162.36225419997936,162.36225419997936,162.36225419997936,162.36225419997936,162.36225419997936,162.36225419997936,162.36225419997936,162.72855529998196,162.72855529998196,162.72855529998196,162.72855529998196,162.72855529998196,162.72855529998196,162.72855529998196,162.72855529998196,162.72855529998196,23,0,,,162.72855529998196,162.93054919998394,1000,162.93054919998394,1000,1000,1000,1000,1,num_2,0.5158728999667801,,27,6,2026-03-05_13h35.43.194,2026A_exp2,2022.2.4,59.919923018984306,
1,0,6.1,0.0,1,0,47,47,41,,,,,163.462524499977,164.11328709998634,164.11328709998634,164.61442319996422,45,45,164.61442319996422,164.61442319996422,164.61442319996422,164.61442319996422,164.61442319996422,164.61442319996422,164.61442319996422,164.61442319996422,164.61442319996422,164.98064490000252,164.98064490000252,164.98064490000252,164.98064490000252,164.98064490000252,164.98064490000252,164.98064490000252,164.98064490000252,164.98064490000252,0,1,[0.0012017000117339194],[0.36719270003959537],164.98064490000252,165.1810952000087,0.0,165.1810952000087,0,0.0,0,1,1000,num_1,0.769414099981077,,27,6,2026-03-05_13h35.43.194,2026A_exp2,2022.2.4,59.919923018984306,
1000,1,0.0,0.0,1,0,48,48,80,,,,,165.98195829999167,166.6325235000113,166.6325235000113,167.11685109999962,45,315,167.11685109999962,167.11685109999962,167.11685109999962,167.11685109999962,167.11685109999962,167.11685109999962,167.11685109999962,167.11685109999962,167.11685109999962,167.48330809996696,167.48330809996696,167.48330809996696,167.48330809996696,167.48330809996696,167.48330809996696,167.48330809996696,167.48330809996696,167.48330809996696,23,0,,,167.48330809996696,167.68543779995525,1000,167.68543779995525,1000,1000,1000,1000,0,num_3,0.5925214000162669,,27,6,2026-03-05_13h35.43.194,2026A_exp2,2022.2.4,59.919923018984306,
1000,1,3.7,3.7,1,0,49,49,25,,,,,168.30069209996145,168.95150500000454,168.95150500000454,169.4526087999693,315,45,169.4526087999693,169.4526087999693,169.4526087999693,169.4526087999693,169.4526087999693,169.4526087999693,169.4526087999693,169.4526087999693,169.4526087999693,169.81901979999384,169.81901979999384,169.81901979999384,169.81901979999384,169.81901979999384,169.81901979999384,169.81901979999384,169.81901979999384,169.81901979999384,23,0,,,169.81901979999384,170.0390981999808,1000,170.0390981999808,1000,1000,1000,1000,1,num_2,0.48788809997495264,,27,6,2026-03-05_13h35.43.194,2026A_exp2,2022.2.4,59.919923018984306,
1000,1,0.0,4.9,1,0,50,50,51,,,,,170.55294379999395,171.20364029996563,171.20364029996563,171.70491520001087,45,315,171.70491520001087,171.70491520001087,171.70491520001087,171.70491520001087,171.70491520001087,171.70491520001087,171.70491520001087,171.70491520001087,171.70491520001087,172.0712345999782,172.0712345999782,172.0712345999782,172.0712345999782,172.0712345999782,172.0712345999782,172.0712345999782,172.0712345999782,172.0712345999782,23,0,,,172.0712345999782,172.2734916000045,1000,172.2734916000045,1000,1000,1000,1000,1,num_2,0.5563146999920718,,27,6,2026-03-05_13h35.43.194,2026A_exp2,2022.2.4,59.919923018984306,
1000,1,3.7,3.7,0,0,51,51,76,,,,,172.8553021000116,173.50606210000115,173.50606210000115,174.00712439999916,315,315,174.00712439999916,174.00712439999916,174.00712439999916,174.00712439999916,174.00712439999916,174.00712439999916,174.00712439999916,174.00712439999916,174.00712439999916,174.3734540999867,174.3734540999867,174.3734540999867,174.3734540999867,174.3734540999867,174.3734540999867,174.3734540999867,174.3734540999867,174.3734540999867,23,0,,,174.3734540999867,174.57565299997805,1000,174.57565299997805,1000,1000,1000,1000,1,num_2,0.43054420000407845,,27,6,2026-03-05_13h35.43.194,2026A_exp2,2022.2.4,59.919923018984306,
1000,1,0.0,3.7,1,0,52,52,86,,,,,175.0242896999698,175.67491259996314,175.67491259996314,176.17567999998573,315,315,176.17567999998573,176.17567999998573,176.17567999998573,176.17567999998573,176.17567999998573,176.17567999998573,176.17567999998573,176.17567999998573,176.17567999998573,176.5424340000027,176.5424340000027,176.5424340000027,176.5424340000027,176.5424340000027,176.5424340000027,176.5424340000027,176.5424340000027,176.5424340000027,23,0,,,176.5424340000027,176.7445965000079,1000,176.7445965000079,1000,1000,1000,1000,1,num_2,0.41384909994667396,,27,6,2026-03-05_13h35.43.194,2026A_exp2,2022.2.4,59.919923018984306,
1000,1,4.9,0.0,0,0,53,53,82,,,,,177.17619679996278,177.8268755999743,177.8268755999743,178.34173869999358,315,45,178.34173869999358,178.34173869999358,178.34173869999358,178.34173869999358,178.34173869999358,178.34173869999358,178.34173869999358,178.34173869999358,178.34173869999358,178.69453799998155,178.69453799998155,178.69453799998155,178.69453799998155,178.69453799998155,178.69453799998155,178.69453799998155,178.69453799998155,178.69453799998155,23,0,,,178.69453799998155,178.8972359999898,1000,178.8972359999898,1000,1000,1000,1000,0,num_3,0.500419799995143,,27,6,2026-03-05_13h35.43.194,2026A_exp2,2022.2.4,59.919923018984306,
1000,1,4.9,6.1,1,0,54,54,4,,,,,179.4285733999568,180.07916149997618,180.07916149997618,180.58038140001008,315,315,180.58038140001008,180.58038140001008,180.58038140001008,180.58038140001008,180.58038140001008,180.58038140001008,180.58038140001008,180.58038140001008,180.58038140001008,180.946853499976,180.946853499976,180.946853499976,180.946853499976,180.946853499976,180.946853499976,180.946853499976,180.946853499976,180.946853499976,19,2,"[0.11693739995826036, 0.28375010000308976]","[0.1335831999895163, 0.33402660000137985]",180.946853499976,181.14887149998685,1000,181.14887149998685,1000,1000,1000,1000,1,num_2,0.37716039997758344,,27,6,2026-03-05_13h35.43.194,2026A_exp2,2022.2.4,59.919923018984306,
0,0,3.7,0.0,0,0,55,55,16,,,,,181.54734240000835,182.19791389995953,182.19791389995953,182.69914539996535,45,45,182.69914539996535,182.69914539996535,182.69914539996535,182.69914539996535,182.69914539996535,182.69914539996535,182.69914539996535,182.69914539996535,182.69914539996535,183.0654835999594,183.0654835999594,183.0654835999594,183.0654835999594,183.0654835999594,183.0654835999594,183.0654835999594,183.0654835999594,183.0654835999594,23,0,,,183.0654835999594,183.26576039998326,0.0,183.26576039998326,0,0.0,0,1,1000,num_1,0.6605143999913707,,27,6,2026-03-05_13h35.43.194,2026A_exp2,2022.2.4,59.919923018984306,
1000,1,0.0,6.1,1,0,56,56,40,,,,,183.94995009998092,184.60043200000655,184.60043200000655,185.08481139998185,45,315,185.08481139998185,185.08481139998185,185.08481139998185,185.08481139998185,185.08481139998185,185.08481139998185,185.08481139998185,185.08481139998185,185.08481139998185,185.45120899996255,185.45120899996255,185.45120899996255,185.45120899996255,185.45120899996255,185.45120899996255,185.45120899996255,185.45120899996255,185.45120899996255,16,6,"[0.01732859999174252, 0.05020279996097088, 0.16694729996379465, 0.2171155999531038, 0.3338033999898471, 0.36731169995618984]","[0.03347490000305697, 0.06700779998209327, 0.20034129999112338, 0.23366109997732565, 0.3506524999975227, 0.3673166999942623]",185.45120899996255,185.65309579996392,1000,185.65309579996392,1000,1000,1000,1000,1,num_2,0.3855164999840781,,27,6,2026-03-05_13h35.43.194,2026A_exp2,2022.2.4,59.919923018984306,
1,0,3.7,3.7,1,0,57,57,11,,,,,186.0685036999639,186.719212099968,186.719212099968,187.2203954999568,315,45,187.2203954999568,187.2203954999568,187.2203954999568,187.2203954999568,187.2203954999568,187.2203954999568,187.2203954999568,187.2203954999568,187.2203954999568,187.58681040001102,187.58681040001102,187.58681040001102,187.58681040001102,187.58681040001102,187.58681040001102,187.58681040001102,187.58681040001102,187.58681040001102,18,4,"[0.017470100021455437, 0.10033370001474395, 0.1668653999804519, 0.21701620001113042]","[0.050161999999545515, 0.11702190001960844, 0.1834833999746479, 0.2335937999887392]",187.58681040001102,187.7868615000043,3.7,187.7868615000043,0,3.7,1,0,1000,num_1,1.0032130000181496,,27,6,2026-03-05_13h35.43.194,2026A_exp2,2022.2.4,59.919923018984306,
1,0,0.0,6.1,1,0,58,58,39,,,,,188.8216032999917,189.48251830000663,189.48251830000663,189.97298139997292,45,45,189.97298139997292,189.97298139997292,189.97298139997292,189.97298139997292,189.97298139997292,189.97298139997292,189.97298139997292,189.97298139997292,189.97298139997292,190.32285329996375,190.32285329996375,190.32285329996375,190.32285329996375,190.32285329996375,190.32285329996375,190.32285329996375,190.32285329996375,190.32285329996375,1,2,"[0.004671100003179163, 0.19818980002310127]","[0.18143649998819456, 0.3641150000039488]",190.32285329996375,190.5239050000091,6.1,190.5239050000091,1,6.1,1,1,1000,num_4,0.6180284000001848,,27,6,2026-03-05_13h35.43.194,2026A_exp2,2022.2.4,59.919923018984306,
1000,1,4.9,6.1,0,0,59,59,35,,,,,191.17357569996966,191.82435519999126,191.82435519999126,192.30885450000642,45,45,192.30885450000642,192.30885450000642,192.30885450000642,192.30885450000642,192.30885450000642,192.30885450000642,192.30885450000642,192.30885450000642,192.30885450000642,192.67519410001114,192.67519410001114,192.67519410001114,192.67519410001114,192.67519410001114,192.67519410001114,192.67519410001114,192.67519410001114,192.67519410001114,3,1,[0.05027040001004934],[0.36709389998577535],192.67519410001114,192.87699949997477,1000,192.87699949997477,1000,1000,1000,1000,1,num_2,0.4901106000179425,,27,6,2026-03-05_13h35.43.194,2026A_exp2,2022.2.4,59.919923018984306,
1,0,3.7,0.0,1,0,60,60,73,,,,,193.39237909996882,194.0432936999714,194.0432936999714,194.54423170001246,315,315,194.54423170001246,194.54423170001246,194.54423170001246,194.54423170001246,194.54423170001246,194.54423170001246,194.54423170001246,194.54423170001246,194.54423170001246,194.9106899999897,194.9106899999897,194.9106899999897,194.9106899999897,194.9106899999897,194.9106899999897,194.9106899999897,194.9106899999897,194.9106899999897,12,4,"[0.0012165000080130994, 0.05045949999475852, 0.2506619999767281, 0.3340883000055328]","[0.0336576999980025, 0.15049959998577833, 0.2674043999868445, 0.36705699999583885]",194.9106899999897,195.11103949998505,0.0,195.11103949998505,0,0.0,0,1,1000,num_1,0.47170139994705096,,27,6,2026-03-05_13h35.43.194,2026A_exp2,2022.2.4,59.919923018984306,
0,0,4.9,4.9,0,0,61,61,88,,,,,195.6113875999581,196.26210509997327,196.26210509997327,196.7464764000033,45,315,196.7464764000033,196.7464764000033,196.7464764000033,196.7464764000033,196.7464764000033,196.7464764000033,196.7464764000033,196.7464764000033,196.7464764000033,197.1129285999923,197.1129285999923,197.1129285999923,197.1129285999923,197.1129285999923,197.1129285999923,197.1129285999923,197.1129285999923,197.1129285999923,21,1,[0.11687309999251738],[0.15023989998735487],197.1129285999923,197.3130431000027,4.9,197.3130431000027,1,4.9,1,1,1000,num_4,0.7968047999893315,,27,6,2026-03-05_13h35.43.194,2026A_exp2,2022.2.4,59.919923018984306,
1000,1,0.0,3.7,0,0,62,62,18,,,,,198.13046859996393,198.78131559997564,198.78131559997564,199.26577719999477,45,45,199.26577719999477,199.26577719999477,199.26577719999477,199.26577719999477,199.26577719999477,199.26577719999477,199.26577719999477,199.26577719999477,199.26577719999477,199.63206129998434,199.63206129998434,199.63206129998434,199.63206129998434,199.63206129998434,199.63206129998434,199.63206129998434,199.63206129998434,199.63206129998434,22,1,[0.3339177999878302],[0.3507603000034578],199.63206129998434,199.83440049999626,1000,199.83440049999626,1000,1000,1000,1000,0,num_3,0.5317778999451548,,27,6,2026-03-05_13h35.43.194,2026A_exp2,2022.2.4,59.919923018984306,
1000,1,6.1,0.0,1,0,63,63,71,,,,,200.38282900000922,201.03349800000433,201.03349800000433,201.53463189996546,315,45,201.53463189996546,201.53463189996546,201.53463189996546,201.53463189996546,201.53463189996546,201.53463189996546,201.53463189996546,201.53463189996546,201.53463189996546,201.9010985000059,201.9010985000059,201.9010985000059,201.9010985000059,201.9010985000059,201.9010985000059,201.9010985000059,201.9010985000059,201.9010985000059,23,0,,,201.9010985000059,202.10321219998877,1000,202.10321219998877,1000,1000,1000,1000,0,num_3,0.5985858999774791,,27,6,2026-03-05_13h35.43.194,2026A_exp2,2022.2.4,59.919923018984306,
1000,1,0.0,0.0,0,0,64,64,33,,,,,202.7185077999602,203.36915569996927,203.36915569996927,203.87023910001153,315,315,203.87023910001153,203.87023910001153,203.87023910001153,203.87023910001153,203.87023910001153,203.87023910001153,203.87023910001153,203.87023910001153,203.87023910001153,204.23673669999698,204.23673669999698,204.23673669999698,204.23673669999698,204.23673669999698,204.23673669999698,204.23673669999698,204.23673669999698,204.23673669999698,22,1,[0.16701340000145137],[0.1837723000207916],204.23673669999698,204.4380331999855,1000,204.4380331999855,1000,1000,1000,1000,0,num_3,0.5037532999995165,,27,6,2026-03-05_13h35.43.194,2026A_exp2,2022.2.4,59.919923018984306,
1,0,0.0,0.0,1,0,65,65,56,,,,,204.97064630000386,205.62138639995828,205.62138639995828,206.1225443999865,45,315,206.1225443999865,206.1225443999865,206.1225443999865,206.1225443999865,206.1225443999865,206.1225443999865,206.1225443999865,206.1225443999865,206.1225443999865,206.48899539996637,206.48899539996637,206.48899539996637,206.48899539996637,206.48899539996637,206.48899539996637,206.48899539996637,206.48899539996637,206.48899539996637,23,0,,,206.48899539996637,206.68908639997244,0.0,206.68908639997244,0,0.0,0,1,1000,num_1,1.1087129999650642,,27,6,2026-03-05_13h35.43.194,2026A_exp2,2022.2.4,59.919923018984306,
0,0,0.0,0.0,0,0,66,66,20,,,,,207.8234445999842,208.45757719996618,208.45757719996618,208.95873660000507,315,315,208.95873660000507,208.95873660000507,208.95873660000507,208.95873660000507,208.95873660000507,208.95873660000507,208.95873660000507,208.95873660000507,208.95873660000507,209.32517749996623,209.32517749996623,209.32517749996623,209.32517749996623,209.32517749996623,209.32517749996623,209.32517749996623,209.32517749996623,209.32517749996623,23,0,,,209.32517749996623,209.52546029997757,0.0,209.52546029997757,0,0.0,0,1,1000,num_1,0.697322299994994,,27,6,2026-03-05_13h35.43.194,2026A_exp2,2022.2.4,59.919923018984306,
1,0,3.7,6.1,0,0,67,67,74,,,,,210.2425235999981,210.89333689998602,210.89333689998602,211.39457870001206,315,45,211.39457870001206,211.39457870001206,211.39457870001206,211.39457870001206,211.39457870001206,211.39457870001206,211.39457870001206,211.39457870001206,211.39457870001206,211.74430779996328,211.74430779996328,211.74430779996328,211.74430779996328,211.74430779996328,211.74430779996328,211.74430779996328,211.74430779996328,211.74430779996328,22,0,,,211.74430779996328,211.94453779998003,3.7,211.94453779998003,1,3.7,1,1,1000,num_4,0.8939562999876216,,27,6,2026-03-05_13h35.43.194,2026A_exp2,2022.2.4,59.919923018984306,
1,0,4.9,0.0,0,0,68,68,47,,,,,212.86222889996134,213.4959697999875,213.4959697999875,213.9970508000115,45,315,213.9970508000115,213.9970508000115,213.9970508000115,213.9970508000115,213.9970508000115,213.9970508000115,213.9970508000115,213.9970508000115,213.9970508000115,214.36356209998485,214.36356209998485,214.36356209998485,214.36356209998485,214.36356209998485,214.36356209998485,214.36356209998485,214.36356209998485,214.36356209998485,23,0,,,214.36356209998485,214.5637811999768,4.9,214.5637811999768,1,4.9,1,1,1000,num_4,0.7219256999669597,,27,6,2026-03-05_13h35.43.194,2026A_exp2,2022.2.4,59.919923018984306,
1,0,0.0,4.9,1,0,69,69,44,,,,,215.31437709997408,215.96515379997436,215.96515379997436,216.44945479999296,315,45,216.44945479999296,216.44945479999296,216.44945479999296,216.44945479999296,216.44945479999296,216.44945479999296,216.44945479999296,216.44945479999296,216.44945479999296,216.8159296999802,216.8159296999802,216.8159296999802,216.8159296999802,216.8159296999802,216.8159296999802,216.8159296999802,216.8159296999802,216.8159296999802,22,1,[0.3171470999950543],[0.3337253999779932],216.8159296999802,217.01624609995633,4.9,217.01624609995633,0,4.9,1,0,1000,num_1,0.9013049000059254,,27,6,2026-03-05_13h35.43.194,2026A_exp2,2022.2.4,59.919923018984306,
1,0,0.0,3.7,0,0,70,70,34,,,,,217.95052640000358,218.58445439999923,218.58445439999923,219.08559819997754,45,45,219.08559819997754,219.08559819997754,219.08559819997754,219.08559819997754,219.08559819997754,219.08559819997754,219.08559819997754,219.08559819997754,219.08559819997754,219.45177929999772,219.45177929999772,219.45177929999772,219.45177929999772,219.45177929999772,219.45177929999772,219.45177929999772,219.45177929999772,219.45177929999772,23,0,,,219.45177929999772,219.65218319999985,0.0,219.65218319999985,1,0.0,0,0,1000,num_4,0.8738177999621257,,27,6,2026-03-05_13h35.43.194,2026A_exp2,2022.2.4,59.919923018984306,
1,0,3.7,0.0,1,0,71,71,55,,,,,220.55293830001028,221.2037527000066,221.2037527000066,221.68807079998078,45,45,221.68807079998078,221.68807079998078,221.68807079998078,221.68807079998078,221.68807079998078,221.68807079998078,221.68807079998078,221.68807079998078,221.68807079998078,222.05464889999712,222.05464889999712,222.05464889999712,222.05464889999712,222.05464889999712,222.05464889999712,222.05464889999712,222.05464889999712,222.05464889999712,19,3,"[0.0012170000118203461, 0.19983090000459924, 0.3172045999672264]","[0.03324999997857958, 0.21655630000168458, 0.33376100001623854]",222.05464889999712,222.25480880000396,0.0,222.25480880000396,0,0.0,0,1,1000,num_1,0.6883629999938421,,27,6,2026-03-05_13h35.43.194,2026A_exp2,2022.2.4,59.919923018984306,
0,0,4.9,3.7,1,0,72,72,13,,,,,222.97308540000813,223.62347699998645,223.62347699998645,224.1238933999557,315,315,224.1238933999557,224.1238933999557,224.1238933999557,224.1238933999557,224.1238933999557,224.1238933999557,224.1238933999557,224.1238933999557,224.1238933999557,224.49037949997,224.49037949997,224.49037949997,224.49037949997,224.49037949997,224.49037949997,224.49037949997,224.49037949997,224.49037949997,23,0,,,224.49037949997,224.69055379997008,4.9,224.69055379997008,1,4.9,1,1,1000,num_4,0.676800999965053,,27,6,2026-03-05_13h35.43.194,2026A_exp2,2022.2.4,59.919923018984306,
1,0,0.0,3.7,1,0,73,73,83,,,,,225.39272780000465,226.04195809998782,226.04195809998782,226.54310289997375,45,315,226.54310289997375,226.54310289997375,226.54310289997375,226.54310289997375,226.54310289997375,226.54310289997375,226.54310289997375,226.54310289997375,226.54310289997375,226.9094413999701,226.9094413999701,226.9094413999701,226.9094413999701,226.9094413999701,226.9094413999701,226.9094413999701,226.9094413999701,226.9094413999701,23,0,,,226.9094413999701,227.1096246999805,3.7,227.1096246999805,0,3.7,1,0,1000,num_1,0.7053049999522045,,27,6,2026-03-05_13h35.43.194,2026A_exp2,2022.2.4,59.919923018984306,
1,0,3.7,3.7,0,0,74,74,69,,,,,227.84367349999957,228.494447199977,228.494447199977,228.97863989998586,315,45,228.97863989998586,228.97863989998586,228.97863989998586,228.97863989998586,228.97863989998586,228.97863989998586,228.97863989998586,228.97863989998586,228.97863989998586,229.34514499997022,229.34514499997022,229.34514499997022,229.34514499997022,229.34514499997022,229.34514499997022,229.34514499997022,229.34514499997022,229.34514499997022,23,0,,,229.34514499997022,229.54546509997454,3.7,229.54546509997454,1,3.7,1,1,1000,num_4,0.6849842999945395,,27,6,2026-03-05_13h35.43.194,2026A_exp2,2022.2.4,59.919923018984306,
0,0,3.7,0.0,1,0,75,75,0,,,,,230.2459511999623,230.896637799975,230.896637799975,231.39754739997443,45,45,231.39754739997443,231.39754739997443,231.39754739997443,231.39754739997443,231.39754739997443,231.39754739997443,231.39754739997443,231.39754739997443,231.39754739997443,231.7476830999949,231.7476830999949,231.7476830999949,231.7476830999949,231.7476830999949,231.7476830999949,231.7476830999949,231.7476830999949,231.7476830999949,21,1,[0.3508115999866277],[0.3508144000079483],231.7476830999949,231.94787149998592,3.7,231.94787149998592,1,3.7,1,1,1000,num_4,0.9219696999643929,,27,6,2026-03-05_13h35.43.194,2026A_exp2,2022.2.4,59.919923018984306,
1000,1,4.9,4.9,0,0,76,76,6,,,,,232.8987128000008,233.54932309995638,233.54932309995638,234.05055320000974,45,45,234.05055320000974,234.05055320000974,234.05055320000974,234.05055320000974,234.05055320000974,234.05055320000974,234.05055320000974,234.05055320000974,234.05055320000974,234.41679519996978,234.41679519996978,234.41679519996978,234.41679519996978,234.41679519996978,234.41679519996978,234.41679519996978,234.41679519996978,234.41679519996978,22,1,[0.017325000022538006],[0.03347279998706654],234.41679519996978,234.61881730001187,1000,234.61881730001187,1000,1000,1000,1000,0,num_3,0.6282098999945447,,27,6,2026-03-05_13h35.43.194,2026A_exp2,2022.2.4,59.919923018984306,
1000,1,4.9,4.9,1,0,77,77,67,,,,,235.26763079996454,235.91837329999544,235.91837329999544,236.4196224999614,315,45,236.4196224999614,236.4196224999614,236.4196224999614,236.4196224999614,236.4196224999614,236.4196224999614,236.4196224999614,236.4196224999614,236.4196224999614,236.78593289997661,236.78593289997661,236.78593289997661,236.78593289997661,236.78593289997661,236.78593289997661,236.78593289997661,236.78593289997661,236.78593289997661,12,1,[0.06723299995064735],[0.2506402999861166],236.78593289997661,236.9879540000111,1000,236.9879540000111,1000,1000,1000,1000,1,num_2,0.4746164999669418,,27,6,2026-03-05_13h35.43.194,2026A_exp2,2022.2.4,59.919923018984306,
0,0,0.0,6.1,1,0,78,78,84,,,,,237.4868869999773,238.12078060000204,238.12078060000204,238.6217886999948,315,45,238.6217886999948,238.6217886999948,238.6217886999948,238.6217886999948,238.6217886999948,238.6217886999948,238.6217886999948,238.6217886999948,238.6217886999948,238.98820249998244,238.98820249998244,238.98820249998244,238.98820249998244,238.98820249998244,238.98820249998244,238.98820249998244,238.98820249998244,238.98820249998244,23,0,,,238.98820249998244,239.18829029996414,0.0,239.18829029996414,0,0.0,0,1,1000,num_1,0.6982594999717548,,27,6,2026-03-05_13h35.43.194,2026A_exp2,2022.2.4,59.919923018984306,
1000,1,4.9,6.1,0,0,79,79,49,,,,,239.90556869999273,240.55632509995485,240.55632509995485,241.0575373999891,45,315,241.0575373999891,241.0575373999891,241.0575373999891,241.0575373999891,241.0575373999891,241.0575373999891,241.0575373999891,241.0575373999891,241.0575373999891,241.42396479996387,241.42396479996387,241.42396479996387,241.42396479996387,241.42396479996387,241.42396479996387,241.42396479996387,241.42396479996387,241.42396479996387,23,0,,,241.42396479996387,241.6257660999545,1000,241.6257660999545,1000,1000,1000,1000,1,num_2,0.5887947000446729,,27,6,2026-03-05_13h35.43.194,2026A_exp2,2022.2.4,59.919923018984306,
1000,1,0.0,0.0,1,0,80,80,27,,,,,242.24132949998602,242.892016400001,242.892016400001,243.39318529999582,315,315,243.39318529999582,243.39318529999582,243.39318529999582,243.39318529999582,243.39318529999582,243.39318529999582,243.39318529999582,243.39318529999582,243.39318529999582,243.75964489998296,243.75964489998296,243.75964489998296,243.75964489998296,243.75964489998296,243.75964489998296,243.75964489998296,243.75964489998296,243.75964489998296,18,3,"[0.10036410001339391, 0.267242299974896, 0.35054279997712]","[0.11691069998778403, 0.283790500019677, 0.36729089997243136]",243.75964489998296,243.96150259999558,1000,243.96150259999558,1000,1000,1000,1000,0,num_3,0.6922654999652877,,27,6,2026-03-05_13h35.43.194,2026A_exp2,2022.2.4,59.919923018984306,
1,0,0.0,4.9,0,0,81,81,48,,,,,244.67735419998644,245.32971259998158,245.32971259998158,245.82895749999443,45,45,245.82895749999443,245.82895749999443,245.82895749999443,245.82895749999443,245.82895749999443,245.82895749999443,245.82895749999443,245.82895749999443,245.82895749999443,246.17862399999285,246.17862399999285,246.17862399999285,246.17862399999285,246.17862399999285,246.17862399999285,246.17862399999285,246.17862399999285,246.17862399999285,22,0,,,246.17862399999285,246.3788500999799,0.0,246.3788500999799,0,0.0,0,1,1000,num_1,0.6831168999779038,,27,6,2026-03-05_13h35.43.194,2026A_exp2,2022.2.4,59.919923018984306,
1,0,6.1,0.0,0,0,82,82,22,,,,,247.0795210999786,247.7302376999869,247.7302376999869,248.23140469996724,315,315,248.23140469996724,248.23140469996724,248.23140469996724,248.23140469996724,248.23140469996724,248.23140469996724,248.23140469996724,248.23140469996724,248.23140469996724,248.5977076999843,248.5977076999843,248.5977076999843,248.5977076999843,248.5977076999843,248.5977076999843,248.5977076999843,248.5977076999843,248.5977076999843,23,0,,,248.5977076999843,248.79811269999482,6.1,248.79811269999482,1,6.1,1,1,1000,num_4,0.5516342999762855,,27,6,2026-03-05_13h35.43.194,2026A_exp2,2022.2.4,59.919923018984306,
1,0,6.1,3.7,1,0,83,83,45,,,,,249.38188589998754,250.03288429998793,250.03288429998793,250.51700880000135,315,315,250.51700880000135,250.51700880000135,250.51700880000135,250.51700880000135,250.51700880000135,250.51700880000135,250.51700880000135,250.51700880000135,250.51700880000135,250.88340409996454,250.88340409996454,250.88340409996454,250.88340409996454,250.88340409996454,250.88340409996454,250.88340409996454,250.88340409996454,250.88340409996454,23,0,,,250.88340409996454,251.0836086999625,3.7,251.0836086999625,0,3.7,1,0,1000,num_1,0.5861334999790415,,27,6,2026-03-05_13h35.43.194,2026A_exp2,2022.2.4,59.919923018984306,
1,0,0.0,6.1,1,0,84,84,17,,,,,251.70069540000986,252.35156029998325,252.35156029998325,252.83595669997158,45,45,252.83595669997158,252.83595669997158,252.83595669997158,252.83595669997158,252.83595669997158,252.83595669997158,252.83595669997158,252.83595669997158,252.83595669997158,253.20230830000946,253.20230830000946,253.20230830000946,253.20230830000946,253.20230830000946,253.20230830000946,253.20230830000946,253.20230830000946,253.20230830000946,11,2,"[0.06661119998898357, 0.13323169999057427]","[0.10027920000720769, 0.30053900001803413]",253.20230830000946,253.40259469999,6.1,253.40259469999,1,6.1,1,1,1000,num_4,0.6917007999727502,,27,6,2026-03-05_13h35.43.194,2026A_exp2,2022.2.4,59.919923018984306,
1000,1,6.1,0.0,1,0,85,85,61,,,,,254.11988969997037,254.77046119997976,254.77046119997976,255.25512359995628,45,45,255.25512359995628,255.25512359995628,255.25512359995628,255.25512359995628,255.25512359995628,255.25512359995628,255.25512359995628,255.25512359995628,255.25512359995628,255.6214694000082,255.6214694000082,255.6214694000082,255.6214694000082,255.6214694000082,255.6214694000082,255.6214694000082,255.6214694000082,255.6214694000082,23,0,,,255.6214694000082,255.8236920000054,1000,255.8236920000054,1000,1000,1000,1000,0,num_3,0.5910312999621965,,27,6,2026-03-05_13h35.43.194,2026A_exp2,2022.2.4,59.919923018984306,
1,0,3.7,4.9,0,0,86,86,70,,,,,256.4387934000115,257.08938520000083,257.08938520000083,257.590517500008,45,315,257.590517500008,257.590517500008,257.590517500008,257.590517500008,257.590517500008,257.590517500008,257.590517500008,257.590517500008,257.590517500008,257.95698580000317,257.95698580000317,257.95698580000317,257.95698580000317,257.95698580000317,257.95698580000317,257.95698580000317,257.95698580000317,257.95698580000317,23,0,,,257.95698580000317,258.15709069999866,3.7,258.15709069999866,0,3.7,1,0,1000,num_1,0.7529975000070408,,27,6,2026-03-05_13h35.43.194,2026A_exp2,2022.2.4,59.919923018984306,
1,0,6.1,0.0,0,0,87,87,58,,,,,258.9412590999855,259.5921083999565,259.5921083999565,260.07656610000413,45,45,260.07656610000413,260.07656610000413,260.07656610000413,260.07656610000413,260.07656610000413,260.07656610000413,260.07656610000413,260.07656610000413,260.07656610000413,260.4429650999955,260.4429650999955,260.4429650999955,260.4429650999955,260.4429650999955,260.4429650999955,260.4429650999955,260.4429650999955,260.4429650999955,10,3,"[0.03344909998122603, 0.15021599997999147, 0.21697889995994046]","[0.06681160000152886, 0.16697199997724965, 0.36702159995911643]",260.4429650999955,260.6430861999979,6.1,260.6430861999979,1,6.1,1,1,1000,num_4,0.5400979000260122,,27,6,2026-03-05_13h35.43.194,2026A_exp2,2022.2.4,59.919923018984306,
1000,1,0.0,0.0,1,0,88,88,78,,,,,261.21031379996566,261.84436099999584,261.84436099999584,262.34551959997043,315,315,262.34551959997043,262.34551959997043,262.34551959997043,262.34551959997043,262.34551959997043,262.34551959997043,262.34551959997043,262.34551959997043,262.34551959997043,262.7118773999973,262.7118773999973,262.7118773999973,262.7118773999973,262.7118773999973,262.7118773999973,262.7118773999973,262.7118773999973,262.7118773999973,16,4,"[0.0012328000157140195, 0.06662820000201464, 0.1166971999919042, 0.21655179996741936]","[0.017083899991121143, 0.10010729997884482, 0.18349660001695156, 0.2335006999783218]",262.7118773999973,262.9138591999654,1000,262.9138591999654,1000,1000,1000,1000,1,num_2,0.9240661999792792,,27,6,2026-03-05_13h35.43.194,2026A_exp2,2022.2.4,59.919923018984306,
1,0,6.1,4.9,1,0,89,89,38,,,,,263.8629327999661,264.5135652999743,264.5135652999743,265.01483030000236,315,45,265.01483030000236,265.01483030000236,265.01483030000236,265.01483030000236,265.01483030000236,265.01483030000236,265.01483030000236,265.01483030000236,265.01483030000236,265.3809206999722,265.3809206999722,265.3809206999722,265.3809206999722,265.3809206999722,265.3809206999722,265.3809206999722,265.3809206999722,265.3809206999722,21,2,"[0.0011999999987892807, 0.36676429997896776]","[0.017361699952743948, 0.36676869995426387]",265.3809206999722,265.5812958999886,4.9,265.5812958999886,0,4.9,1,0,1000,num_1,0.568910899979528,,27,6,2026-03-05_13h35.43.194,2026A_exp2,2022.2.4,59.919923018984306,
,,,,,,,,,,,,,,,,,,,,,,,,,,,,,,,,,,,,,,,,,,,,,,,,,,,,266.1897045999649,,,,,,,
