validity,detectorcomp,contrastCW,contrastCCW,precueCWorCCW,block_80trials.thisRepN,block_80trials.thisTrialN,block_80trials.thisN,block_80trials.thisIndex,etRecord.started,etRecord.stopped,text.started,text.stopped,text_4.started,text_4.stopped,text_6.started,text_6.stopped,oriCW,oriCCW,roi_2.started,grating_UR.started,grating_UL.started,grating_LR.started,grating_LL.started,noise_UR.started,noise_UL.started,noise_LR.started,noise_LL.started,roi_2.stopped,grating_UR.stopped,grating_UL.stopped,grating_LR.stopped,grating_LL.stopped,noise_UR.stopped,noise_UL.stopped,noise_LR.stopped,noise_LL.stopped,outframe,roi_2.numLooks,roi_2.timesOn,roi_2.timesOff,text_2.started,text_2.stopped,probedcontrast,key_resp.started,respdetect,relevantContrast,correctDetect,TorFdetect,respCWorCCW,key_resp.keys,key_resp.rt,feedback_display_.started,participantNo,blockNo,date,expName,psychopyVersion,frameRate,
1,0,0.0,6.1,0,0,0,0,0,4.079984501004219e-05,4.079984501004219e-05,50.49791579996236,52.50000579981133,52.50000579981133,53.13402599981055,53.13402599981055,53.65582109987736,45,45,53.65582109987736,53.65582109987736,53.65582109987736,53.65582109987736,53.65582109987736,53.65582109987736,53.65582109987736,53.65582109987736,53.65582109987736,54.00181039981544,54.00181039981544,54.00181039981544,54.00181039981544,54.00181039981544,54.00181039981544,54.00181039981544,54.00181039981544,54.00181039981544,23,0,,,54.00181039981544,54.20196079998277,0.0,54.20196079998277,0,0.0,0,1,1000,num_1,1.1084100001025945,,37,4,2026-03-13_17h40.14.118,2026A_exp2,2022.2.4,60.15272774823856,
1000,1,4.9,4.9,1,0,1,1,68,,,,,55.33645999990404,55.98692729999311,55.98692729999311,56.47141639981419,45,315,56.47141639981419,56.47141639981419,56.47141639981419,56.47141639981419,56.47141639981419,56.47141639981419,56.47141639981419,56.47141639981419,56.47141639981419,56.83798439987004,56.83798439987004,56.83798439987004,56.83798439987004,56.83798439987004,56.83798439987004,56.83798439987004,56.83798439987004,56.83798439987004,0,1,[0.0011092000640928745],[0.3673732001334429],56.83798439987004,57.04077999992296,1000,57.04077999992296,1000,1000,1000,1000,0,num_3,1.1489478000439703,,37,4,2026-03-13_17h40.14.118,2026A_exp2,2022.2.4,60.15272774823856,
1,0,4.9,0.0,0,0,2,2,53,,,,,58.206019599922,58.85663910000585,58.85663910000585,59.35764679987915,315,45,59.35764679987915,59.35764679987915,59.35764679987915,59.35764679987915,59.35764679987915,59.35764679987915,59.35764679987915,59.35764679987915,59.35764679987915,59.70746189984493,59.70746189984493,59.70746189984493,59.70746189984493,59.70746189984493,59.70746189984493,59.70746189984493,59.70746189984493,59.70746189984493,2,2,"[0.017468600068241358, 0.2834842000156641]","[0.2666702000424266, 0.3506428999826312]",59.70746189984493,59.90772629994899,4.9,59.90772629994899,1,4.9,1,1,1000,num_4,0.9468735000118613,,37,4,2026-03-13_17h40.14.118,2026A_exp2,2022.2.4,60.15272774823856,
1000,1,0.0,0.0,0,0,3,3,7,,,,,60.875313699943945,61.5184869999066,61.5184869999066,62.0237251999788,315,315,62.0237251999788,62.0237251999788,62.0237251999788,62.0237251999788,62.0237251999788,62.0237251999788,62.0237251999788,62.0237251999788,62.0237251999788,62.376939499983564,62.376939499983564,62.376939499983564,62.376939499983564,62.376939499983564,62.376939499983564,62.376939499983564,62.376939499983564,62.376939499983564,0,1,[0.003964999923482537],[0.36542199994437397],62.376939499983564,62.59095889981836,1000,62.59095889981836,1000,1000,1000,1000,0,num_3,0.7120633001904935,,37,4,2026-03-13_17h40.14.118,2026A_exp2,2022.2.4,60.15272774823856,
1,0,0.0,0.0,1,0,4,4,69,,,,,63.32778129982762,63.978332499973476,63.978332499973476,64.47945669991896,45,315,64.47945669991896,64.47945669991896,64.47945669991896,64.47945669991896,64.47945669991896,64.47945669991896,64.47945669991896,64.47945669991896,64.47945669991896,64.82928569987416,64.82928569987416,64.82928569987416,64.82928569987416,64.82928569987416,64.82928569987416,64.82928569987416,64.82928569987416,64.82928569987416,0,1,[0.0012328000739216805],[0.35015509999357164],64.82928569987416,65.02944780001417,0.0,65.04611160000786,0,0.0,0,1,1000,num_1,1.0726579998154193,,37,4,2026-03-13_17h40.14.118,2026A_exp2,2022.2.4,60.15272774823856,
1000,1,3.7,6.1,1,0,5,5,48,,,,,66.14730299985968,66.797845199937,66.797845199937,67.28220020001754,315,315,67.28220020001754,67.28220020001754,67.28220020001754,67.28220020001754,67.28220020001754,67.28220020001754,67.28220020001754,67.28220020001754,67.28220020001754,67.64899989985861,67.64899989985861,67.64899989985861,67.64899989985861,67.64899989985861,67.64899989985861,67.64899989985861,67.64899989985861,67.64899989985861,23,0,,,67.64899989985861,67.85105749987997,1000,67.85105749987997,1000,1000,1000,1000,1,num_2,0.7877904998604208,,37,4,2026-03-13_17h40.14.118,2026A_exp2,2022.2.4,60.15272774823856,
1000,1,0.0,0.0,1,0,6,6,9,,,,,68.66635459987447,69.31695119990036,69.31695119990036,69.81822649994865,315,315,69.81822649994865,69.81822649994865,69.81822649994865,69.81822649994865,69.81822649994865,69.81822649994865,69.81822649994865,69.81822649994865,69.81822649994865,70.16785899992101,70.16785899992101,70.16785899992101,70.16785899992101,70.16785899992101,70.16785899992101,70.16785899992101,70.16785899992101,70.16785899992101,2,1,[0.0009882000740617514],[0.33412809995934367],70.16785899992101,70.37047799979337,1000,70.38488769996911,1000,1000,1000,1000,0,num_3,0.8940000000875443,,37,4,2026-03-13_17h40.14.118,2026A_exp2,2022.2.4,60.15272774823856,
1000,1,6.1,0.0,0,0,7,7,81,,,,,71.30228820000775,71.95296019990928,71.95296019990928,72.45421629981138,45,45,72.45421629981138,72.45421629981138,72.45421629981138,72.45421629981138,72.45421629981138,72.45421629981138,72.45421629981138,72.45421629981138,72.45421629981138,72.82043690001592,72.82043690001592,72.82043690001592,72.82043690001592,72.82043690001592,72.82043690001592,72.82043690001592,72.82043690001592,72.82043690001592,0,1,[0.0012431999202817678],[0.36735089984722435],72.82043690001592,73.02282879990526,1000,73.02282879990526,1000,1000,1000,1000,0,num_3,0.5437076000962406,,37,4,2026-03-13_17h40.14.118,2026A_exp2,2022.2.4,60.15272774823856,
1000,1,0.0,0.0,1,0,8,8,85,,,,,73.5882100998424,74.23880119994283,74.23880119994283,74.73973279981874,45,45,74.73973279981874,74.73973279981874,74.73973279981874,74.73973279981874,74.73973279981874,74.73973279981874,74.73973279981874,74.73973279981874,74.73973279981874,75.10622979979962,75.10622979979962,75.10622979979962,75.10622979979962,75.10622979979962,75.10622979979962,75.10622979979962,75.10622979979962,75.10622979979962,10,5,"[0.017209499841555953, 0.08336759987287223, 0.15031499997712672, 0.25036900001578033, 0.2836608998477459]","[0.06667189998552203, 0.11674540000967681, 0.16679639997892082, 0.26691309991292655, 0.36699180002324283]",75.10622979979962,75.30781759996898,1000,75.30781759996898,1000,1000,1000,1000,0,num_3,0.9938716001342982,,37,4,2026-03-13_17h40.14.118,2026A_exp2,2022.2.4,60.15272774823856,
1,0,0.0,3.7,1,0,9,9,35,,,,,76.3241920999717,76.97474789991975,76.97474789991975,77.4691095999442,315,315,77.4691095999442,77.4691095999442,77.4691095999442,77.4691095999442,77.4691095999442,77.4691095999442,77.4691095999442,77.4691095999442,77.4691095999442,77.8255808998365,77.8255808998365,77.8255808998365,77.8255808998365,77.8255808998365,77.8255808998365,77.8255808998365,77.8255808998365,77.8255808998365,0,1,[0.00427610008046031],[0.3651946000754833],77.8255808998365,78.02928529982455,3.7,78.02928529982455,1,3.7,1,1,1000,num_4,0.8649430000223219,,37,4,2026-03-13_17h40.14.118,2026A_exp2,2022.2.4,60.15272774823856,
1000,1,6.1,0.0,1,0,10,10,29,,,,,78.90995260002092,79.57102539995685,79.57102539995685,80.05021919985302,315,45,80.05021919985302,80.05021919985302,80.05021919985302,80.05021919985302,80.05021919985302,80.05021919985302,80.05021919985302,80.05021919985302,80.05021919985302,80.41153829987161,80.41153829987161,80.41153829987161,80.41153829987161,80.41153829987161,80.41153829987161,80.41153829987161,80.41153829987161,80.41153829987161,16,6,"[0.0026454997714608908, 0.05006739986129105, 0.1485259998589754, 0.21507689985446632, 0.24875389994122088, 0.3656834999565035]","[0.022152499994263053, 0.06559319980442524, 0.16503509995527565, 0.2318972998764366, 0.2821889999322593, 0.365688499994576]",80.41153829987161,80.61352589982562,1000,80.61352589982562,1000,1000,1000,1000,0,num_3,0.5203906998503953,,37,4,2026-03-13_17h40.14.118,2026A_exp2,2022.2.4,60.15272774823856,
1,0,6.1,3.7,1,0,11,11,51,,,,,81.16212089988403,81.8129308000207,81.8129308000207,82.31402009981684,315,315,82.31402009981684,82.31402009981684,82.31402009981684,82.31402009981684,82.31402009981684,82.31402009981684,82.31402009981684,82.31402009981684,82.31402009981684,82.68043219996616,82.68043219996616,82.68043219996616,82.68043219996616,82.68043219996616,82.68043219996616,82.68043219996616,82.68043219996616,82.68043219996616,0,1,[0.0012293001636862755],[0.3670291001908481],82.68043219996616,82.88067589979619,3.7,82.88067589979619,0,3.7,1,0,1000,num_1,1.4055830999277532,,37,4,2026-03-13_17h40.14.118,2026A_exp2,2022.2.4,60.15272774823856,
0,0,0.0,3.7,0,0,12,12,34,,,,,84.31572149996646,84.96599149983376,84.96599149983376,85.45033919997513,45,315,85.45033919997513,85.45033919997513,85.45033919997513,85.45033919997513,85.45033919997513,85.45033919997513,85.45033919997513,85.45033919997513,85.45033919997513,85.81676489999518,85.81676489999518,85.81676489999518,85.81676489999518,85.81676489999518,85.81676489999518,85.81676489999518,85.81676489999518,85.81676489999518,5,4,"[0.0012052999809384346, 0.08355209999717772, 0.16700030001811683, 0.3672074000351131]","[0.050204799976199865, 0.1335711998399347, 0.3338548999745399, 0.3672127998434007]",85.81676489999518,86.01707549998537,3.7,86.01707549998537,1,3.7,1,1,1000,num_4,0.8927928998600692,,37,4,2026-03-13_17h40.14.118,2026A_exp2,2022.2.4,60.15272774823856,
1,0,6.1,0.0,0,0,13,13,47,,,,,86.9345350000076,87.58536399994045,87.58536399994045,88.0697152998764,315,315,88.0697152998764,88.0697152998764,88.0697152998764,88.0697152998764,88.0697152998764,88.0697152998764,88.0697152998764,88.0697152998764,88.0697152998764,88.43594949995168,88.43594949995168,88.43594949995168,88.43594949995168,88.43594949995168,88.43594949995168,88.43594949995168,88.43594949995168,88.43594949995168,22,1,[0.3341744998469949],[0.35076189995743334],88.43594949995168,88.63645649980754,6.1,88.63645649980754,1,6.1,1,1,1000,num_4,0.9371253000572324,,37,4,2026-03-13_17h40.14.118,2026A_exp2,2022.2.4,60.15272774823856,
1000,1,6.1,0.0,1,0,14,14,25,,,,,89.60372599982657,90.25472309999168,90.25472309999168,90.75569999986328,45,315,90.75569999986328,90.75569999986328,90.75569999986328,90.75569999986328,90.75569999986328,90.75569999986328,90.75569999986328,90.75569999986328,90.75569999986328,91.10552199999802,91.10552199999802,91.10552199999802,91.10552199999802,91.10552199999802,91.10552199999802,91.10552199999802,91.10552199999802,91.10552199999802,2,3,"[0.0011950000189244747, 0.08366820006631315, 0.3340187999419868]","[0.0670304000377655, 0.31723569985479116, 0.3504816999193281]",91.10552199999802,91.30763189983554,1000,91.30763189983554,1000,1000,1000,1000,0,num_3,0.5705212999600917,,37,4,2026-03-13_17h40.14.118,2026A_exp2,2022.2.4,60.15272774823856,
1,0,6.1,6.1,1,0,15,15,23,,,,,91.90624519996345,92.55672629992478,92.55672629992478,93.05811490002088,45,315,93.05811490002088,93.05811490002088,93.05811490002088,93.05811490002088,93.05811490002088,93.05811490002088,93.05811490002088,93.05811490002088,93.05811490002088,93.42448319983669,93.42448319983669,93.42448319983669,93.42448319983669,93.42448319983669,93.42448319983669,93.42448319983669,93.42448319983669,93.42448319983669,8,6,"[0.0012344999704509974, 0.05023730010725558, 0.1001771001610905, 0.13361790007911623, 0.26698660012334585, 0.3504209001548588]","[0.03351150010712445, 0.0835746000520885, 0.11691540013998747, 0.20036990009248257, 0.33371110004372895, 0.36720690014772117]",93.42448319983669,93.62475589988753,6.1,93.62475589988753,1,6.1,1,1,1000,num_4,1.206114999949932,,37,4,2026-03-13_17h40.14.118,2026A_exp2,2022.2.4,60.15272774823856,
1,0,3.7,3.7,1,0,16,16,30,,,,,94.85938359983265,95.50990029983222,95.50990029983222,95.99440339999273,315,45,95.99440339999273,95.99440339999273,95.99440339999273,95.99440339999273,95.99440339999273,95.99440339999273,95.99440339999273,95.99440339999273,95.99440339999273,96.360775699839,96.360775699839,96.360775699839,96.360775699839,96.360775699839,96.360775699839,96.360775699839,96.360775699839,96.360775699839,0,1,[0.0012135000433772802],[0.3671472000423819],96.360775699839,96.56086839991622,3.7,96.56086839991622,0,3.7,1,0,1000,num_1,1.094047399936244,,37,4,2026-03-13_17h40.14.118,2026A_exp2,2022.2.4,60.15272774823856,
1,0,6.1,0.0,1,0,17,17,80,,,,,97.67884359997697,98.32941220002249,98.32941220002249,98.83061609999277,45,315,98.83061609999277,98.83061609999277,98.83061609999277,98.83061609999277,98.83061609999277,98.83061609999277,98.83061609999277,98.83061609999277,98.83061609999277,99.18031909991987,99.18031909991987,99.18031909991987,99.18031909991987,99.18031909991987,99.18031909991987,99.18031909991987,99.18031909991987,99.18031909991987,0,1,[0.0010929000563919544],[0.35103349993005395],99.18031909991987,99.38047839980572,0.0,99.38047839980572,0,0.0,0,1,1000,num_1,1.0019020000472665,,37,4,2026-03-13_17h40.14.118,2026A_exp2,2022.2.4,60.15272774823856,
1,0,4.9,3.7,1,0,18,18,27,,,,,100.39809879986569,101.04883289989084,101.04883289989084,101.53325330000371,45,315,101.53325330000371,101.53325330000371,101.53325330000371,101.53325330000371,101.53325330000371,101.53325330000371,101.53325330000371,101.53325330000371,101.53325330000371,101.89966709981672,101.89966709981672,101.89966709981672,101.89966709981672,101.89966709981672,101.89966709981672,101.89966709981672,101.89966709981672,101.89966709981672,0,1,[0.0012048999778926373],[0.3669761000201106],101.89966709981672,102.09984569996595,3.7,102.09984569996595,1,3.7,1,1,1000,num_4,2.402616399805993,,37,4,2026-03-13_17h40.14.118,2026A_exp2,2022.2.4,60.15272774823856,
1000,1,3.7,6.1,1,0,19,19,58,,,,,104.51882050000131,105.16948289982975,105.16948289982975,105.67072079982609,45,315,105.67072079982609,105.67072079982609,105.67072079982609,105.67072079982609,105.67072079982609,105.67072079982609,105.67072079982609,105.67072079982609,105.67072079982609,106.02039929991588,106.02039929991588,106.02039929991588,106.02039929991588,106.02039929991588,106.02039929991588,106.02039929991588,106.02039929991588,106.02039929991588,0,1,[0.0012066999915987253],[0.35050250007770956],106.02039929991588,106.22266389988363,1000,106.22266389988363,1000,1000,1000,1000,1,num_2,1.151330400025472,,37,4,2026-03-13_17h40.14.118,2026A_exp2,2022.2.4,60.15272774823856,
1000,1,3.7,3.7,0,0,20,20,63,,,,,107.40519189997576,108.05579489981756,108.05579489981756,108.55696760001592,45,45,108.55696760001592,108.55696760001592,108.55696760001592,108.55696760001592,108.55696760001592,108.55696760001592,108.55696760001592,108.55696760001592,108.55696760001592,108.92363719991408,108.92363719991408,108.92363719991408,108.92363719991408,108.92363719991408,108.92363719991408,108.92363719991408,108.92363719991408,108.92363719991408,0,1,[0.0012296999339014292],[0.3672132999636233],108.92363719991408,109.12544439989142,1000,109.12544439989142,1000,1000,1000,1000,0,num_3,0.49738109996542335,,37,4,2026-03-13_17h40.14.118,2026A_exp2,2022.2.4,60.15272774823856,
1,0,6.1,0.0,1,0,21,21,70,,,,,109.64050369989127,110.29143029986881,110.29143029986881,110.79213299998082,315,45,110.79213299998082,110.79213299998082,110.79213299998082,110.79213299998082,110.79213299998082,110.79213299998082,110.79213299998082,110.79213299998082,110.79213299998082,111.15885080001317,111.15885080001317,111.15885080001317,111.15885080001317,111.15885080001317,111.15885080001317,111.15885080001317,111.15885080001317,111.15885080001317,0,1,[0.0007468999829143286],[0.367609899956733],111.15885080001317,111.35903269983828,0.0,111.35903269983828,0,0.0,0,1,1000,num_1,0.8797506999690086,,37,4,2026-03-13_17h40.14.118,2026A_exp2,2022.2.4,60.15272774823856,
1,0,4.9,3.7,0,0,22,22,44,,,,,112.25984079996124,112.91063729999587,112.91063729999587,113.39497339981608,315,315,113.39497339981608,113.39497339981608,113.39497339981608,113.39497339981608,113.39497339981608,113.39497339981608,113.39497339981608,113.39497339981608,113.39497339981608,113.76145479991101,113.76145479991101,113.76145479991101,113.76145479991101,113.76145479991101,113.76145479991101,113.76145479991101,113.76145479991101,113.76145479991101,0,1,[0.0011908002197742462],[0.36700930004008114],113.76145479991101,113.96164179989137,4.9,113.96164179989137,1,4.9,1,1,1000,num_4,1.4202345998492092,,37,4,2026-03-13_17h40.14.118,2026A_exp2,2022.2.4,60.15272774823856,
1000,1,4.9,3.7,0,0,23,23,40,,,,,115.41319349990226,116.04717769986019,116.04717769986019,116.54816699982621,315,315,116.54816699982621,116.54816699982621,116.54816699982621,116.54816699982621,116.54816699982621,116.54816699982621,116.54816699982621,116.54816699982621,116.54816699982621,116.91469100001268,116.91469100001268,116.91469100001268,116.91469100001268,116.91469100001268,116.91469100001268,116.91469100001268,116.91469100001268,116.91469100001268,0,1,[0.0012089000083506107],[0.36721140006557107],116.91469100001268,117.11691559990868,1000,117.11691559990868,1000,1000,1000,1000,0,num_3,0.7296245000325143,,37,4,2026-03-13_17h40.14.118,2026A_exp2,2022.2.4,60.15272774823856,
1,0,6.1,4.9,1,0,24,24,11,,,,,117.86551719997078,118.51631259988062,118.51631259988062,119.0172546999529,315,315,119.0172546999529,119.0172546999529,119.0172546999529,119.0172546999529,119.0172546999529,119.0172546999529,119.0172546999529,119.0172546999529,119.0172546999529,119.38374700001441,119.38374700001441,119.38374700001441,119.38374700001441,119.38374700001441,119.38374700001441,119.38374700001441,119.38374700001441,119.38374700001441,0,1,[0.0012027998454868793],[0.36724269995465875],119.38374700001441,119.5840872998815,4.9,119.5840872998815,0,4.9,1,0,1000,num_1,3.7024469999596477,,37,4,2026-03-13_17h40.14.118,2026A_exp2,2022.2.4,60.15272774823856,
1000,1,6.1,6.1,0,0,25,25,16,,,,,123.30418560001999,123.95503249997273,123.95503249997273,124.45618869992904,315,45,124.45618869992904,124.45618869992904,124.45618869992904,124.45618869992904,124.45618869992904,124.45618869992904,124.45618869992904,124.45618869992904,124.45618869992904,124.8225643998012,124.8225643998012,124.8225643998012,124.8225643998012,124.8225643998012,124.8225643998012,124.8225643998012,124.8225643998012,124.8225643998012,0,1,[0.00119420001283288],[0.3673472001682967],124.8225643998012,125.0244725998491,1000,125.0244725998491,1000,1000,1000,1000,0,num_3,0.7337327999994159,,37,4,2026-03-13_17h40.14.118,2026A_exp2,2022.2.4,60.15272774823856,
1,0,3.7,4.9,1,0,26,26,18,,,,,125.79023429984227,126.44087559985928,126.44087559985928,126.92520669987425,45,45,126.92520669987425,126.92520669987425,126.92520669987425,126.92520669987425,126.92520669987425,126.92520669987425,126.92520669987425,126.92520669987425,126.92520669987425,127.29155629989691,127.29155629989691,127.29155629989691,127.29155629989691,127.29155629989691,127.29155629989691,127.29155629989691,127.29155629989691,127.29155629989691,17,5,"[0.0501953000202775, 0.08370429999195039, 0.1839786998461932, 0.28416709997691214, 0.36739209992811084]","[0.06695999996736646, 0.10038399999029934, 0.21738100005313754, 0.30062029999680817, 0.3673968999646604]",127.29155629989691,127.49178089993075,4.9,127.49178089993075,1,4.9,1,1,1000,num_4,2.18622270016931,,37,4,2026-03-13_17h40.14.118,2026A_exp2,2022.2.4,60.15272774823856,
1000,1,0.0,0.0,0,0,27,27,15,,,,,129.69395029987209,130.34476629993878,130.34476629993878,130.845936199883,45,315,130.845936199883,130.845936199883,130.845936199883,130.845936199883,130.845936199883,130.845936199883,130.845936199883,130.845936199883,130.845936199883,131.1955750999041,131.1955750999041,131.1955750999041,131.1955750999041,131.1955750999041,131.1955750999041,131.1955750999041,131.1955750999041,131.1955750999041,0,1,[0.0012165000662207603],[0.35050230007618666],131.1955750999041,131.39806479983963,1000,131.39806479983963,1000,1000,1000,1000,1,num_2,1.0244445998687297,,37,4,2026-03-13_17h40.14.118,2026A_exp2,2022.2.4,60.15272774823856,
1000,1,3.7,4.9,0,0,28,28,45,,,,,132.44680729997344,133.0974861998111,133.0974861998111,133.59867259999737,45,45,133.59867259999737,133.59867259999737,133.59867259999737,133.59867259999737,133.59867259999737,133.59867259999737,133.59867259999737,133.59867259999737,133.59867259999737,133.96507779997773,133.96507779997773,133.96507779997773,133.96507779997773,133.96507779997773,133.96507779997773,133.96507779997773,133.96507779997773,133.96507779997773,0,1,[0.001253599999472499],[0.3670212000142783],133.96507779997773,134.19255489995703,1000,134.19255489995703,1000,1000,1000,1000,0,num_3,0.5898692000191659,,37,4,2026-03-13_17h40.14.118,2026A_exp2,2022.2.4,60.15272774823856,
1,0,0.0,0.0,1,0,29,29,42,,,,,134.79916099994443,135.4498359998688,135.4498359998688,135.95099739986472,45,45,135.95099739986472,135.95099739986472,135.95099739986472,135.95099739986472,135.95099739986472,135.95099739986472,135.95099739986472,135.95099739986472,135.95099739986472,136.31735489983112,136.31735489983112,136.31735489983112,136.31735489983112,136.31735489983112,136.31735489983112,136.31735489983112,136.31735489983112,136.31735489983112,0,1,[0.0012150001712143421],[0.3673226002138108],136.31735489983112,136.5176194999367,0.0,136.5176194999367,1,0.0,0,0,1000,num_4,0.8804195001721382,,37,4,2026-03-13_17h40.14.118,2026A_exp2,2022.2.4,60.15272774823856,
1000,1,4.9,0.0,1,0,30,30,77,,,,,137.41829269984737,138.06909449980594,138.06909449980594,138.55370899988338,45,45,138.55370899988338,138.55370899988338,138.55370899988338,138.55370899988338,138.55370899988338,138.55370899988338,138.55370899988338,138.55370899988338,138.55370899988338,138.91989789996296,138.91989789996296,138.91989789996296,138.91989789996296,138.91989789996296,138.91989789996296,138.91989789996296,138.91989789996296,138.91989789996296,0,1,[0.0008249001111835241],[0.36798710003495216],138.91989789996296,139.12179429992102,1000,139.12179429992102,1000,1000,1000,1000,0,num_3,0.7483389000408351,,37,4,2026-03-13_17h40.14.118,2026A_exp2,2022.2.4,60.15272774823856,
0,0,0.0,0.0,1,0,31,31,2,,,,,139.88752899994142,140.538364399923,140.538364399923,141.03927870001644,315,45,141.03927870001644,141.03927870001644,141.03927870001644,141.03927870001644,141.03927870001644,141.03927870001644,141.03927870001644,141.03927870001644,141.03927870001644,141.40585969993845,141.40585969993845,141.40585969993845,141.40585969993845,141.40585969993845,141.40585969993845,141.40585969993845,141.40585969993845,141.40585969993845,18,3,"[0.2170766000635922, 0.25053590000607073, 0.333855900214985]","[0.2338735000230372, 0.2671424001455307, 0.36733410018496215]",141.40585969993845,141.60607139999047,0.0,141.60607139999047,1,0.0,0,0,1000,num_4,2.4802852000575513,,37,4,2026-03-13_17h40.14.118,2026A_exp2,2022.2.4,60.15272774823856,
1000,1,4.9,0.0,0,0,32,32,54,,,,,144.1083415998146,144.75923869991675,144.75923869991675,145.24351459997706,315,315,145.24351459997706,145.24351459997706,145.24351459997706,145.24351459997706,145.24351459997706,145.24351459997706,145.24351459997706,145.24351459997706,145.24351459997706,145.60999609995633,145.60999609995633,145.60999609995633,145.60999609995633,145.60999609995633,145.60999609995633,145.60999609995633,145.60999609995633,145.60999609995633,6,5,"[0.001219100086018443, 0.03348209988325834, 0.11695499997586012, 0.21698669996112585, 0.31712180003523827]","[0.01730359997600317, 0.10003249999135733, 0.18352489988319576, 0.28378430008888245, 0.3670872999355197]",145.60999609995633,145.8118616999127,1000,145.8118616999127,1000,1000,1000,1000,0,num_3,0.5629878998734057,,37,4,2026-03-13_17h40.14.118,2026A_exp2,2022.2.4,60.15272774823856,
1,0,6.1,0.0,0,0,33,33,21,,,,,146.3940771999769,147.0446467997972,147.0446467997972,147.54238689993508,315,45,147.54238689993508,147.54238689993508,147.54238689993508,147.54238689993508,147.54238689993508,147.54238689993508,147.54238689993508,147.54238689993508,147.54238689993508,147.9123215000145,147.9123215000145,147.9123215000145,147.9123215000145,147.9123215000145,147.9123215000145,147.9123215000145,147.9123215000145,147.9123215000145,0,1,[0.004144599894061685],[0.38091970002278686],147.9123215000145,148.1125884000212,6.1,148.1125884000212,1,6.1,1,1,1000,num_4,0.6375059999991208,,37,4,2026-03-13_17h40.14.118,2026A_exp2,2022.2.4,60.15272774823856,
0,0,0.0,0.0,0,0,34,34,59,,,,,148.77973329997621,149.43052589986473,149.43052589986473,149.91497829998843,315,315,149.91497829998843,149.91497829998843,149.91497829998843,149.91497829998843,149.91497829998843,149.91497829998843,149.91497829998843,149.91497829998843,149.91497829998843,150.2813142000232,150.2813142000232,150.2813142000232,150.2813142000232,150.2813142000232,150.2813142000232,150.2813142000232,150.2813142000232,150.2813142000232,0,1,[0.0012063998728990555],[0.36714389990083873],150.2813142000232,150.48142979992554,0.0,150.48142979992554,0,0.0,0,1,1000,num_1,0.837281099986285,,37,4,2026-03-13_17h40.14.118,2026A_exp2,2022.2.4,60.15272774823856,
1,0,0.0,0.0,0,0,35,35,55,,,,,151.3491394999437,151.99969159998,151.99969159998,152.48416629992425,45,45,152.48416629992425,152.48416629992425,152.48416629992425,152.48416629992425,152.48416629992425,152.48416629992425,152.48416629992425,152.48416629992425,152.48416629992425,152.85051419981755,152.85051419981755,152.85051419981755,152.85051419981755,152.85051419981755,152.85051419981755,152.85051419981755,152.85051419981755,152.85051419981755,0,1,[0.0012127000372856855],[0.36690999986603856],152.85051419981755,153.0506800999865,0.0,153.0506800999865,0,0.0,0,1,1000,num_1,1.3478846000507474,,37,4,2026-03-13_17h40.14.118,2026A_exp2,2022.2.4,60.15272774823856,
1,0,0.0,4.9,1,0,36,36,37,,,,,154.4187321998179,155.06936369999312,155.06936369999312,155.55395439988934,315,315,155.55395439988934,155.55395439988934,155.55395439988934,155.55395439988934,155.55395439988934,155.55395439988934,155.55395439988934,155.55395439988934,155.55395439988934,155.92031969991513,155.92031969991513,155.92031969991513,155.92031969991513,155.92031969991513,155.92031969991513,155.92031969991513,155.92031969991513,155.92031969991513,0,1,[0.0011944000143557787],[0.36709409998729825],155.92031969991513,156.12057129992172,4.9,156.12057129992172,1,4.9,1,1,1000,num_4,0.8530906999949366,,37,4,2026-03-13_17h40.14.118,2026A_exp2,2022.2.4,60.15272774823856,
1000,1,0.0,4.9,0,0,37,37,60,,,,,156.98936069989577,157.63873349991627,157.63873349991627,158.1398756999988,45,315,158.1398756999988,158.1398756999988,158.1398756999988,158.1398756999988,158.1398756999988,158.1398756999988,158.1398756999988,158.1398756999988,158.1398756999988,158.50627419981174,158.50627419981174,158.50627419981174,158.50627419981174,158.50627419981174,158.50627419981174,158.50627419981174,158.50627419981174,158.50627419981174,1,1,[0.017371200025081635],[0.36706660012714565],158.50627419981174,158.708629099885,1000,158.708629099885,1000,1000,1000,1000,1,num_2,0.809122699778527,,37,4,2026-03-13_17h40.14.118,2026A_exp2,2022.2.4,60.15272774823856,
1000,1,0.0,0.0,1,0,38,38,78,,,,,159.54054269986227,160.19139189994894,160.19139189994894,160.69237859989516,45,315,160.69237859989516,160.69237859989516,160.69237859989516,160.69237859989516,160.69237859989516,160.69237859989516,160.69237859989516,160.69237859989516,160.69237859989516,161.0587855000049,161.0587855000049,161.0587855000049,161.0587855000049,161.0587855000049,161.0587855000049,161.0587855000049,161.0587855000049,161.0587855000049,16,5,"[0.05017429986037314, 0.10030719987116754, 0.20030709984712303, 0.26689639990217984, 0.333460999885574]","[0.0667006999719888, 0.11687639984302223, 0.21740439999848604, 0.2836954998783767, 0.36674099997617304]",161.0587855000049,161.26062750001438,1000,161.26062750001438,1000,1000,1000,1000,0,num_3,1.0891795998904854,,37,4,2026-03-13_17h40.14.118,2026A_exp2,2022.2.4,60.15272774823856,
1000,1,3.7,3.7,0,0,39,39,72,,,,,162.37661729985848,163.02756599988788,163.02756599988788,163.52856659982353,45,315,163.52856659982353,163.52856659982353,163.52856659982353,163.52856659982353,163.52856659982353,163.52856659982353,163.52856659982353,163.52856659982353,163.52856659982353,163.89493499998935,163.89493499998935,163.89493499998935,163.89493499998935,163.89493499998935,163.89493499998935,163.89493499998935,163.89493499998935,163.89493499998935,23,0,,,163.89493499998935,164.0971247998532,1000,164.0971247998532,1000,1000,1000,1000,0,num_3,0.9580783999990672,,37,4,2026-03-13_17h40.14.118,2026A_exp2,2022.2.4,60.15272774823856,
1,0,0.0,0.0,1,0,40,40,39,,,,,165.07931709988043,165.73022989998572,165.73022989998572,166.2145994999446,45,315,166.2145994999446,166.2145994999446,166.2145994999446,166.2145994999446,166.2145994999446,166.2145994999446,166.2145994999446,166.2145994999446,166.2145994999446,166.58080729981884,166.58080729981884,166.58080729981884,166.58080729981884,166.58080729981884,166.58080729981884,166.58080729981884,166.58080729981884,166.58080729981884,0,1,[0.001275000162422657],[0.3669553999789059],166.58080729981884,166.78119269991294,0.0,166.78119269991294,0,0.0,0,1,1000,num_1,1.9619254001881927,,37,4,2026-03-13_17h40.14.118,2026A_exp2,2022.2.4,60.15272774823856,
1,0,6.1,0.0,0,0,41,41,82,,,,,168.7663771000225,169.41706899995916,169.41706899995916,169.9016342998948,45,45,169.9016342998948,169.9016342998948,169.9016342998948,169.9016342998948,169.9016342998948,169.9016342998948,169.9016342998948,169.9016342998948,169.9016342998948,170.26807529991493,170.26807529991493,170.26807529991493,170.26807529991493,170.26807529991493,170.26807529991493,170.26807529991493,170.26807529991493,170.26807529991493,22,1,[0.08335219998843968],[0.1000179999973625],170.26807529991493,170.46819569985382,6.1,170.46819569985382,1,6.1,1,1,1000,num_4,0.6816865999717265,,37,4,2026-03-13_17h40.14.118,2026A_exp2,2022.2.4,60.15272774823856,
1000,1,0.0,0.0,0,0,42,42,17,,,,,171.16889579989947,171.80267909984104,171.80267909984104,172.30403260001913,315,45,172.30403260001913,172.30403260001913,172.30403260001913,172.30403260001913,172.30403260001913,172.30403260001913,172.30403260001913,172.30403260001913,172.30403260001913,172.67031580000184,172.67031580000184,172.67031580000184,172.67031580000184,172.67031580000184,172.67031580000184,172.67031580000184,172.67031580000184,172.67031580000184,0,1,[0.0012089998926967382],[0.36727769998833537],172.67031580000184,172.87047580000944,1000,172.87047580000944,1000,1000,1000,1000,0,num_3,1.0806130999699235,,37,4,2026-03-13_17h40.14.118,2026A_exp2,2022.2.4,60.15272774823856,
1000,1,0.0,0.0,0,0,43,43,5,,,,,173.9716168998275,174.62240599980578,174.62240599980578,175.12351559987292,45,315,175.12351559987292,175.12351559987292,175.12351559987292,175.12351559987292,175.12351559987292,175.12351559987292,175.12351559987292,175.12351559987292,175.12351559987292,175.4898524999153,175.4898524999153,175.4898524999153,175.4898524999153,175.4898524999153,175.4898524999153,175.4898524999153,175.4898524999153,175.4898524999153,0,1,[0.0012187000829726458],[0.36732199997641146],175.4898524999153,175.6918180999346,1000,175.6918180999346,1000,1000,1000,1000,0,num_3,0.6113597999792546,,37,4,2026-03-13_17h40.14.118,2026A_exp2,2022.2.4,60.15272774823856,
1000,1,0.0,3.7,1,0,44,44,13,,,,,176.32394829997793,176.97458389983512,176.97458389983512,177.47583010001108,315,315,177.47583010001108,177.47583010001108,177.47583010001108,177.47583010001108,177.47583010001108,177.47583010001108,177.47583010001108,177.47583010001108,177.47583010001108,177.84228599979542,177.84228599979542,177.84228599979542,177.84228599979542,177.84228599979542,177.84228599979542,177.84228599979542,177.84228599979542,177.84228599979542,23,0,,,177.84228599979542,178.04452659981325,1000,178.04452659981325,1000,1000,1000,1000,1,num_2,0.7538400001358241,,37,4,2026-03-13_17h40.14.118,2026A_exp2,2022.2.4,60.15272774823856,
0,0,6.1,4.9,0,0,45,45,22,,,,,178.82648729998618,179.4772273998242,179.4772273998242,179.97827739990316,315,315,179.97827739990316,179.97827739990316,179.97827739990316,179.97827739990316,179.97827739990316,179.97827739990316,179.97827739990316,179.97827739990316,179.97827739990316,180.34470629994757,180.34470629994757,180.34470629994757,180.34470629994757,180.34470629994757,180.34470629994757,180.34470629994757,180.34470629994757,180.34470629994757,23,0,,,180.34470629994757,180.54501919983886,4.9,180.54501919983886,1,4.9,1,1,1000,num_4,1.1738316998817027,,37,4,2026-03-13_17h40.14.118,2026A_exp2,2022.2.4,60.15272774823856,
1000,1,3.7,0.0,1,0,46,46,19,,,,,181.74606689997017,182.38013900001533,182.38013900001533,182.88122419989668,45,45,182.88122419989668,182.88122419989668,182.88122419989668,182.88122419989668,182.88122419989668,182.88122419989668,182.88122419989668,182.88122419989668,182.88122419989668,183.24772210000083,183.24772210000083,183.24772210000083,183.24772210000083,183.24772210000083,183.24772210000083,183.24772210000083,183.24772210000083,183.24772210000083,5,3,"[0.0011903999838978052, 0.0836835999507457, 0.3004745999351144]","[0.050181200029328465, 0.2504390999674797, 0.36713999998755753]",183.24772210000083,183.44951800000854,1000,183.44951800000854,1000,1000,1000,1000,0,num_3,0.6055803999770433,,37,4,2026-03-13_17h40.14.118,2026A_exp2,2022.2.4,60.15272774823856,
1000,1,0.0,4.9,1,0,47,47,66,,,,,184.08379939990118,184.73313299985602,184.73313299985602,185.23366099991836,45,315,185.23366099991836,185.23366099991836,185.23366099991836,185.23366099991836,185.23366099991836,185.23366099991836,185.23366099991836,185.23366099991836,185.23366099991836,185.59994979994372,185.59994979994372,185.59994979994372,185.59994979994372,185.59994979994372,185.59994979994372,185.59994979994372,185.59994979994372,185.59994979994372,0,1,[0.0014575000386685133],[0.3670175999868661],185.59994979994372,185.80404369998723,1000,185.80404369998723,1000,1000,1000,1000,1,num_2,0.49840419995598495,,37,4,2026-03-13_17h40.14.118,2026A_exp2,2022.2.4,60.15272774823856,
1000,1,0.0,4.9,0,0,48,48,6,,,,,186.33412359980866,186.98480179999024,186.98480179999024,187.48587319999933,45,315,187.48587319999933,187.48587319999933,187.48587319999933,187.48587319999933,187.48587319999933,187.48587319999933,187.48587319999933,187.48587319999933,187.48587319999933,187.83562869997695,187.83562869997695,187.83562869997695,187.83562869997695,187.83562869997695,187.83562869997695,187.83562869997695,187.83562869997695,187.83562869997695,0,1,[0.0011986999306827784],[0.35058119986206293],187.83562869997695,188.03774069994688,1000,188.03774069994688,1000,1000,1000,1000,1,num_2,0.5440760001074523,,37,4,2026-03-13_17h40.14.118,2026A_exp2,2022.2.4,60.15272774823856,
1,0,0.0,6.1,1,0,49,49,31,,,,,188.60297559993342,189.25364060001448,189.25364060001448,189.754689599853,315,315,189.754689599853,189.754689599853,189.754689599853,189.754689599853,189.754689599853,189.754689599853,189.754689599853,189.754689599853,189.754689599853,190.12113519990817,190.12113519990817,190.12113519990817,190.12113519990817,190.12113519990817,190.12113519990817,190.12113519990817,190.12113519990817,190.12113519990817,15,6,"[0.001196600031107664, 0.11698889988474548, 0.18363029998727143, 0.23387490003369749, 0.2672397999558598, 0.3003159000072628]","[0.03368410002440214, 0.13367650005966425, 0.2004704000428319, 0.25049349991604686, 0.2835088998544961, 0.3336809000466019]",190.12113519990817,190.3214684999548,6.1,190.3214684999548,1,6.1,1,1,1000,num_4,0.892518499866128,,37,4,2026-03-13_17h40.14.118,2026A_exp2,2022.2.4,60.15272774823856,
1,0,0.0,3.7,1,0,50,50,32,,,,,191.2387943000067,191.8895554000046,191.8895554000046,192.37408219999634,45,45,192.37408219999634,192.37408219999634,192.37408219999634,192.37408219999634,192.37408219999634,192.37408219999634,192.37408219999634,192.37408219999634,192.37408219999634,192.74065279983915,192.74065279983915,192.74065279983915,192.74065279983915,192.74065279983915,192.74065279983915,192.74065279983915,192.74065279983915,192.74065279983915,17,1,[0.2833839999511838],[0.3672147998586297],192.74065279983915,192.94064339995384,3.7,192.94064339995384,1,3.7,1,1,1000,num_4,0.7220765000674874,,37,4,2026-03-13_17h40.14.118,2026A_exp2,2022.2.4,60.15272774823856,
1,0,0.0,0.0,0,0,51,51,79,,,,,193.69118199986406,194.34211769979447,194.34211769979447,194.8428772999905,45,45,194.8428772999905,194.8428772999905,194.8428772999905,194.8428772999905,194.8428772999905,194.8428772999905,194.8428772999905,194.8428772999905,194.8428772999905,195.1929444000125,195.1929444000125,195.1929444000125,195.1929444000125,195.1929444000125,195.1929444000125,195.1929444000125,195.1929444000125,195.1929444000125,0,1,[0.0042668001260608435],[0.36393660004250705],195.1929444000125,195.39319349988364,0.0,195.39319349988364,1,0.0,0,0,1000,num_4,2.4928901998791844,,37,4,2026-03-13_17h40.14.118,2026A_exp2,2022.2.4,60.15272774823856,
1,0,3.7,4.9,1,0,52,52,20,,,,,197.91238609980792,198.56295909988694,198.56295909988694,199.04741279990412,315,45,199.04741279990412,199.04741279990412,199.04741279990412,199.04741279990412,199.04741279990412,199.04741279990412,199.04741279990412,199.04741279990412,199.04741279990412,199.41381919989362,199.41381919989362,199.41381919989362,199.41381919989362,199.41381919989362,199.41381919989362,199.41381919989362,199.41381919989362,199.41381919989362,0,1,[0.0008330000564455986],[0.36726400000043213],199.41381919989362,199.61402580002323,4.9,199.61402580002323,0,4.9,1,0,1000,num_1,1.615836399840191,,37,4,2026-03-13_17h40.14.118,2026A_exp2,2022.2.4,60.15272774823856,
1000,1,0.0,6.1,1,0,53,53,71,,,,,201.2488559000194,201.8996476000175,201.8996476000175,202.38413409981877,45,315,202.38413409981877,202.38413409981877,202.38413409981877,202.38413409981877,202.38413409981877,202.38413409981877,202.38413409981877,202.38413409981877,202.38413409981877,202.75016830000095,202.75016830000095,202.75016830000095,202.75016830000095,202.75016830000095,202.75016830000095,202.75016830000095,202.75016830000095,202.75016830000095,13,3,"[0.10055990004912019, 0.2164111000020057, 0.3336964000482112]","[0.1335189000237733, 0.299717899877578, 0.36647409992292523]",202.75016830000095,202.95096029993147,1000,202.95096029993147,1000,1000,1000,1000,1,num_2,1.9193611999507993,,37,4,2026-03-13_17h40.14.118,2026A_exp2,2022.2.4,60.15272774823856,
1000,1,0.0,6.1,1,0,54,54,43,,,,,204.90239289985038,205.5531816999428,205.5531816999428,206.03760659997351,315,45,206.03760659997351,206.03760659997351,206.03760659997351,206.03760659997351,206.03760659997351,206.03760659997351,206.03760659997351,206.03760659997351,206.03760659997351,206.4038181998767,206.4038181998767,206.4038181998767,206.4038181998767,206.4038181998767,206.4038181998767,206.4038181998767,206.4038181998767,206.4038181998767,1,2,"[0.0008028000593185425, 0.3499920000322163]","[0.33441590005531907, 0.3668165002018213]",206.4038181998767,206.6042816999834,1000,206.6042816999834,1000,1000,1000,1000,1,num_2,0.6738966000266373,,37,4,2026-03-13_17h40.14.118,2026A_exp2,2022.2.4,60.15272774823856,
1,0,3.7,6.1,0,0,55,55,52,,,,,207.30635919980705,207.9560417998582,207.9560417998582,208.45664929994382,45,315,208.45664929994382,208.45664929994382,208.45664929994382,208.45664929994382,208.45664929994382,208.45664929994382,208.45664929994382,208.45664929994382,208.45664929994382,208.80656949989498,208.80656949989498,208.80656949989498,208.80656949989498,208.80656949989498,208.80656949989498,208.80656949989498,208.80656949989498,208.80656949989498,8,3,"[0.08390670013613999, 0.1336902000475675, 0.3005642001517117]","[0.10038880002684891, 0.2836242001503706, 0.35133710014633834]",208.80656949989498,209.00680039986037,3.7,209.0233952999115,1,3.7,1,1,1000,num_4,1.9913317998871207,,37,4,2026-03-13_17h40.14.118,2026A_exp2,2022.2.4,60.15272774823856,
1,0,0.0,0.0,0,0,56,56,88,,,,,211.04194759996608,211.69280610000715,211.69280610000715,212.17705769999884,315,315,212.17705769999884,212.17705769999884,212.17705769999884,212.17705769999884,212.17705769999884,212.17705769999884,212.17705769999884,212.17705769999884,212.17705769999884,212.54364629997872,212.54364629997872,212.54364629997872,212.54364629997872,212.54364629997872,212.54364629997872,212.54364629997872,212.54364629997872,212.54364629997872,21,1,[0.001192399999126792],[0.03345640003681183],212.54364629997872,212.74394880002365,0.0,212.74394880002365,0,0.0,0,1,1000,num_1,1.1259155001025647,,37,4,2026-03-13_17h40.14.118,2026A_exp2,2022.2.4,60.15272774823856,
0,0,4.9,3.7,0,0,57,57,28,,,,,213.89484600001015,214.5456393000204,214.5456393000204,215.02995179989375,315,45,215.02995179989375,215.02995179989375,215.02995179989375,215.02995179989375,215.02995179989375,215.02995179989375,215.02995179989375,215.02995179989375,215.02995179989375,215.3964686000254,215.3964686000254,215.3964686000254,215.3964686000254,215.3964686000254,215.3964686000254,215.3964686000254,215.3964686000254,215.3964686000254,23,0,,,215.3964686000254,215.59673059987836,3.7,215.59673059987836,0,3.7,1,0,1000,num_1,0.9301942000165582,,37,4,2026-03-13_17h40.14.118,2026A_exp2,2022.2.4,60.15272774823856,
1000,1,6.1,0.0,1,0,58,58,57,,,,,216.5475235998165,217.19830239983276,217.19830239983276,217.68277399986982,45,45,217.68277399986982,217.68277399986982,217.68277399986982,217.68277399986982,217.68277399986982,217.68277399986982,217.68277399986982,217.68277399986982,217.68277399986982,218.04906629980542,218.04906629980542,218.04906629980542,218.04906629980542,218.04906629980542,218.04906629980542,218.04906629980542,218.04906629980542,218.04906629980542,21,1,[0.3002853998914361],[0.3335670998785645],218.04906629980542,218.25181759987026,1000,218.25181759987026,1000,1000,1000,1000,0,num_3,0.6346723998431116,,37,4,2026-03-13_17h40.14.118,2026A_exp2,2022.2.4,60.15272774823856,
1,0,3.7,0.0,1,0,59,59,12,,,,,218.91655179997906,219.56735479994677,219.56735479994677,220.06845099991187,315,45,220.06845099991187,220.06845099991187,220.06845099991187,220.06845099991187,220.06845099991187,220.06845099991187,220.06845099991187,220.06845099991187,220.06845099991187,220.43486579996534,220.43486579996534,220.43486579996534,220.43486579996534,220.43486579996534,220.43486579996534,220.43486579996534,220.43486579996534,220.43486579996534,0,1,[0.0011217999272048473],[0.36725990008562803],220.43486579996534,220.6349479998462,0.0,220.6349479998462,0,0.0,0,1,1000,num_1,1.5154883998911828,,37,4,2026-03-13_17h40.14.118,2026A_exp2,2022.2.4,60.15272774823856,
1000,1,4.9,0.0,0,0,60,60,41,,,,,222.16963449981995,222.82046159985475,222.82046159985475,223.30504899984226,315,315,223.30504899984226,223.30504899984226,223.30504899984226,223.30504899984226,223.30504899984226,223.30504899984226,223.30504899984226,223.30504899984226,223.30504899984226,223.671453199815,223.671453199815,223.671453199815,223.671453199815,223.671453199815,223.671453199815,223.671453199815,223.671453199815,223.671453199815,23,0,,,223.671453199815,223.87354790000245,1000,223.87354790000245,1000,1000,1000,1000,0,num_3,0.4930847000796348,,37,4,2026-03-13_17h40.14.118,2026A_exp2,2022.2.4,60.15272774823856,
1000,1,3.7,0.0,1,0,61,61,38,,,,,224.3887132999953,225.03947139997035,225.03947139997035,225.54054009984247,315,315,225.54054009984247,225.54054009984247,225.54054009984247,225.54054009984247,225.54054009984247,225.54054009984247,225.54054009984247,225.54054009984247,225.54054009984247,225.9069585998077,225.9069585998077,225.9069585998077,225.9069585998077,225.9069585998077,225.9069585998077,225.9069585998077,225.9069585998077,225.9069585998077,20,3,"[0.05004890006966889, 0.13359729992225766, 0.25051050004549325]","[0.06693869992159307, 0.15032589994370937, 0.2669989999849349]",225.9069585998077,226.10878439992666,1000,226.10878439992666,1000,1000,1000,1000,0,num_3,0.4816928000655025,,37,4,2026-03-13_17h40.14.118,2026A_exp2,2022.2.4,60.15272774823856,
1,0,4.9,0.0,1,0,62,62,65,,,,,226.6074977000244,227.25834909989499,227.25834909989499,227.75937809981406,315,45,227.75937809981406,227.75937809981406,227.75937809981406,227.75937809981406,227.75937809981406,227.75937809981406,227.75937809981406,227.75937809981406,227.75937809981406,228.12591229984537,228.12591229984537,228.12591229984537,228.12591229984537,228.12591229984537,228.12591229984537,228.12591229984537,228.12591229984537,228.12591229984537,15,3,"[0.05030690017156303, 0.08382860012352467, 0.13376280013471842]","[0.06719329999759793, 0.11709100008010864, 0.21660050004720688]",228.12591229984537,228.32595249987207,0.0,228.32595249987207,0,0.0,0,1,1000,num_1,0.8797366998624057,,37,4,2026-03-13_17h40.14.118,2026A_exp2,2022.2.4,60.15272774823856,
1000,1,4.9,0.0,1,0,63,63,10,,,,,229.22688779979944,229.87765829986893,229.87765829986893,230.36195309995674,45,45,230.36195309995674,230.36195309995674,230.36195309995674,230.36195309995674,230.36195309995674,230.36195309995674,230.36195309995674,230.36195309995674,230.36195309995674,230.7447811998427,230.7447811998427,230.7447811998427,230.7447811998427,230.7447811998427,230.7447811998427,230.7447811998427,230.7447811998427,230.7447811998427,24,0,,,230.7447811998427,230.94583879993297,1000,230.94583879993297,1000,1000,1000,1000,0,num_3,0.531762900063768,,37,4,2026-03-13_17h40.14.118,2026A_exp2,2022.2.4,60.15272774823856,
1,0,0.0,4.9,0,0,64,64,3,,,,,231.4962124999147,232.1345174999442,232.1345174999442,232.63104739994742,315,315,232.63104739994742,232.63104739994742,232.63104739994742,232.63104739994742,232.63104739994742,232.63104739994742,232.63104739994742,232.63104739994742,232.63104739994742,232.99735369998962,232.99735369998962,232.99735369998962,232.99735369998962,232.99735369998962,232.99735369998962,232.99735369998962,232.99735369998962,232.99735369998962,23,0,,,232.99735369998962,233.19753369991668,0.0,233.19753369991668,0,0.0,0,1,1000,num_1,3.2562882001511753,,37,4,2026-03-13_17h40.14.118,2026A_exp2,2022.2.4,60.15272774823856,
1000,1,6.1,6.1,1,0,65,65,4,,,,,236.48417739989236,237.1347984999884,237.1347984999884,237.61938389996067,45,45,237.61938389996067,237.61938389996067,237.61938389996067,237.61938389996067,237.61938389996067,237.61938389996067,237.61938389996067,237.61938389996067,237.61938389996067,237.98572249989957,237.98572249989957,237.98572249989957,237.98572249989957,237.98572249989957,237.98572249989957,237.98572249989957,237.98572249989957,237.98572249989957,11,2,"[0.15059560001827776, 0.2674424001015723]","[0.23412119993008673, 0.36752690002322197]",237.98572249989957,238.18785819993354,1000,238.18785819993354,1000,1000,1000,1000,0,num_3,0.530118300113827,,37,4,2026-03-13_17h40.14.118,2026A_exp2,2022.2.4,60.15272774823856,
1,0,0.0,0.0,1,0,66,66,49,,,,,238.73646119982004,239.3872047998011,239.3872047998011,239.8882143998053,45,45,239.8882143998053,239.8882143998053,239.8882143998053,239.8882143998053,239.8882143998053,239.8882143998053,239.8882143998053,239.8882143998053,239.8882143998053,240.25461029983126,240.25461029983126,240.25461029983126,240.25461029983126,240.25461029983126,240.25461029983126,240.25461029983126,240.25461029983126,240.25461029983126,21,2,"[0.0831571000162512, 0.3504944001324475]","[0.09984630020335317, 0.3671870001126081]",240.25461029983126,240.45487299980596,0.0,240.45487299980596,0,0.0,0,1,1000,num_1,2.927024699980393,,37,4,2026-03-13_17h40.14.118,2026A_exp2,2022.2.4,60.15272774823856,
1,0,6.1,0.0,1,0,67,67,89,,,,,243.40784169989638,244.04177659982815,244.04177659982815,244.5428990998771,45,45,244.5428990998771,244.5428990998771,244.5428990998771,244.5428990998771,244.5428990998771,244.5428990998771,244.5428990998771,244.5428990998771,244.5428990998771,244.90922299982049,244.90922299982049,244.90922299982049,244.90922299982049,244.90922299982049,244.90922299982049,244.90922299982049,244.90922299982049,244.90922299982049,2,3,"[0.0012274000328034163, 0.3004075000062585, 0.3669787000399083]","[0.2838161000981927, 0.3498122999444604, 0.36698170006275177]",244.90922299982049,245.10950619983487,0.0,245.10950619983487,0,0.0,0,1,1000,num_1,0.7607789998874068,,37,4,2026-03-13_17h40.14.118,2026A_exp2,2022.2.4,60.15272774823856,
1000,1,3.7,0.0,0,0,68,68,56,,,,,245.8934302998241,246.5443008998409,246.5443008998409,247.02876459993422,315,315,247.02876459993422,247.02876459993422,247.02876459993422,247.02876459993422,247.02876459993422,247.02876459993422,247.02876459993422,247.02876459993422,247.02876459993422,247.39512399979867,247.39512399979867,247.39512399979867,247.39512399979867,247.39512399979867,247.39512399979867,247.39512399979867,247.39512399979867,247.39512399979867,0,1,[0.0012366999872028828],[0.3671885000076145],247.39512399979867,247.59719939995557,1000,247.59719939995557,1000,1000,1000,1000,0,num_3,0.6332987998612225,,37,4,2026-03-13_17h40.14.118,2026A_exp2,2022.2.4,60.15272774823856,
1,0,6.1,4.9,1,0,69,69,64,,,,,248.245896599954,248.89666009997018,248.89666009997018,249.3978296997957,315,315,249.3978296997957,249.3978296997957,249.3978296997957,249.3978296997957,249.3978296997957,249.3978296997957,249.3978296997957,249.3978296997957,249.3978296997957,249.76406660000794,249.76406660000794,249.76406660000794,249.76406660000794,249.76406660000794,249.76406660000794,249.76406660000794,249.76406660000794,249.76406660000794,0,1,[0.0012133000418543816],[0.3670319998636842],249.76406660000794,249.96444259979762,4.9,249.96444259979762,1,4.9,1,1,1000,num_4,0.8656858000904322,,37,4,2026-03-13_17h40.14.118,2026A_exp2,2022.2.4,60.15272774823856,
1,0,0.0,6.1,1,0,70,70,36,,,,,250.84843389992602,251.49142179987393,251.49142179987393,251.9887357999105,45,315,251.9887357999105,251.9887357999105,251.9887357999105,251.9887357999105,251.9887357999105,251.9887357999105,251.9887357999105,251.9887357999105,251.9887357999105,252.35022849985398,252.35022849985398,252.35022849985398,252.35022849985398,252.35022849985398,252.35022849985398,252.35022849985398,252.35022849985398,252.35022849985398,0,1,[0.00254400004632771],[0.3650795998983085],252.35022849985398,252.55031329998747,6.1,252.55031329998747,1,6.1,1,1,1000,num_4,0.43206379981711507,,37,4,2026-03-13_17h40.14.118,2026A_exp2,2022.2.4,60.15272774823856,
0,0,4.9,0.0,1,0,71,71,67,,,,,253.00057919998653,253.65139929996803,253.65139929996803,254.13584929984063,315,45,254.13584929984063,254.13584929984063,254.13584929984063,254.13584929984063,254.13584929984063,254.13584929984063,254.13584929984063,254.13584929984063,254.13584929984063,254.50225019990467,254.50225019990467,254.50225019990467,254.50225019990467,254.50225019990467,254.50225019990467,254.50225019990467,254.50225019990467,254.50225019990467,6,1,[0.10027059982530773],[0.3671446000225842],254.50225019990467,254.70246870000847,4.9,254.70246870000847,1,4.9,1,1,1000,num_4,0.8954348000697792,,37,4,2026-03-13_17h40.14.118,2026A_exp2,2022.2.4,60.15272774823856,
1,0,0.0,3.7,1,0,72,72,14,,,,,255.61985899996944,256.27061080001295,256.27061080001295,256.7551512999926,315,45,256.7551512999926,256.7551512999926,256.7551512999926,256.7551512999926,256.7551512999926,256.7551512999926,256.7551512999926,256.7551512999926,256.7551512999926,257.1213428999763,257.1213428999763,257.1213428999763,257.1213428999763,257.1213428999763,257.1213428999763,257.1213428999763,257.1213428999763,257.1213428999763,0,1,[0.0012327998410910368],[0.3670913998503238],257.1213428999763,257.32178839994594,3.7,257.32178839994594,1,3.7,1,1,1000,num_4,0.9253190001472831,,37,4,2026-03-13_17h40.14.118,2026A_exp2,2022.2.4,60.15272774823856,
1,0,0.0,0.0,0,0,73,73,24,,,,,258.272560399957,258.9232593998313,258.9232593998313,259.4076348999515,45,45,259.4076348999515,259.4076348999515,259.4076348999515,259.4076348999515,259.4076348999515,259.4076348999515,259.4076348999515,259.4076348999515,259.4076348999515,259.7742143999785,259.7742143999785,259.7742143999785,259.7742143999785,259.7742143999785,259.7742143999785,259.7742143999785,259.7742143999785,259.7742143999785,8,5,"[0.0012875001411885023, 0.06667460012249649, 0.15013750013895333, 0.2169091000687331, 0.30045300000347197]","[0.050078900065273046, 0.1335191000252962, 0.20008590002544224, 0.23346220003440976, 0.3669316000305116]",259.7742143999785,259.97438589995727,0.0,259.97438589995727,0,0.0,0,1,1000,num_1,0.9755549998953938,,37,4,2026-03-13_17h40.14.118,2026A_exp2,2022.2.4,60.15272774823856,
0,0,3.7,0.0,0,0,74,74,62,,,,,260.9752028998919,261.62606969987974,261.62606969987974,262.1103383000009,315,45,262.1103383000009,262.1103383000009,262.1103383000009,262.1103383000009,262.1103383000009,262.1103383000009,262.1103383000009,262.1103383000009,262.1103383000009,262.4769007000141,262.4769007000141,262.4769007000141,262.4769007000141,262.4769007000141,262.4769007000141,262.4769007000141,262.4769007000141,262.4769007000141,0,1,[0.0011893000919371843],[0.36694300011731684],262.4769007000141,262.67675879993476,0.0,262.67675879993476,1,0.0,0,0,1000,num_4,0.4421405999455601,,37,4,2026-03-13_17h40.14.118,2026A_exp2,2022.2.4,60.15272774823856,
1000,1,3.7,0.0,0,0,75,75,76,,,,,263.1441651999485,263.7948433998972,263.7948433998972,264.27916739997454,45,315,264.27916739997454,264.27916739997454,264.27916739997454,264.27916739997454,264.27916739997454,264.27916739997454,264.27916739997454,264.27916739997454,264.27916739997454,264.6457670999225,264.6457670999225,264.6457670999225,264.6457670999225,264.6457670999225,264.6457670999225,264.6457670999225,264.6457670999225,264.6457670999225,20,1,[0.0012593998108059168],[0.05029299994930625],264.6457670999225,264.84775409987196,1000,264.84775409987196,1000,1000,1000,1000,0,num_3,0.64711429993622,,37,4,2026-03-13_17h40.14.118,2026A_exp2,2022.2.4,60.15272774823856,
1000,1,0.0,0.0,1,0,76,76,1,,,,,265.5131592999678,266.1638885999564,266.1638885999564,266.66504290001467,45,315,266.66504290001467,266.66504290001467,266.66504290001467,266.66504290001467,266.66504290001467,266.66504290001467,266.66504290001467,266.66504290001467,266.66504290001467,267.031366399955,267.031366399955,267.031366399955,267.031366399955,267.031366399955,267.031366399955,267.031366399955,267.031366399955,267.031366399955,13,3,"[0.0012105000205338001, 0.13376750005409122, 0.25048810010775924]","[0.017566900001838803, 0.15047130011953413, 0.3673100001178682]",267.031366399955,267.2335157999769,1000,267.2335157999769,1000,1000,1000,1000,1,num_2,0.8125863999594003,,37,4,2026-03-13_17h40.14.118,2026A_exp2,2022.2.4,60.15272774823856,
1,0,0.0,4.9,0,0,77,77,73,,,,,268.06571140000597,268.71640969999135,268.71640969999135,269.21748210000806,315,315,269.21748210000806,269.21748210000806,269.21748210000806,269.21748210000806,269.21748210000806,269.21748210000806,269.21748210000806,269.21748210000806,269.21748210000806,269.58403259981424,269.58403259981424,269.58403259981424,269.58403259981424,269.58403259981424,269.58403259981424,269.58403259981424,269.58403259981424,269.58403259981424,23,0,,,269.58403259981424,269.78423059987836,0.0,269.78423059987836,0,0.0,0,1,1000,num_1,2.7176260999403894,,37,4,2026-03-13_17h40.14.118,2026A_exp2,2022.2.4,60.15272774823856,
1,0,0.0,6.1,1,0,78,78,50,,,,,272.520232899813,273.1724443999119,273.1724443999119,273.6554731999058,315,315,273.6554731999058,273.6554731999058,273.6554731999058,273.6554731999058,273.6554731999058,273.6554731999058,273.6554731999058,273.6554731999058,273.6554731999058,274.02178950002417,274.02178950002417,274.02178950002417,274.02178950002417,274.02178950002417,274.02178950002417,274.02178950002417,274.02178950002417,274.02178950002417,0,1,[0.0007112999446690083],[0.3675873999018222],274.02178950002417,274.22183389985,6.1,274.22183389985,1,6.1,1,1,1000,num_4,1.0005615998525172,,37,4,2026-03-13_17h40.14.118,2026A_exp2,2022.2.4,60.15272774823856,
1000,1,0.0,3.7,1,0,79,79,84,,,,,275.2394844000228,275.89032829995267,275.89032829995267,276.37475279998034,315,45,276.37475279998034,276.37475279998034,276.37475279998034,276.37475279998034,276.37475279998034,276.37475279998034,276.37475279998034,276.37475279998034,276.37475279998034,276.7411610998679,276.7411610998679,276.7411610998679,276.7411610998679,276.7411610998679,276.7411610998679,276.7411610998679,276.7411610998679,276.7411610998679,0,1,[0.0012824998702853918],[0.3672393998131156],276.7411610998679,276.9413629998453,1000,276.95800519990735,1000,1000,1000,1000,1,num_2,1.271766000194475,,37,4,2026-03-13_17h40.14.118,2026A_exp2,2022.2.4,60.15272774823856,
1000,1,0.0,0.0,0,0,80,80,86,,,,,278.25922499992885,278.9098619997967,278.9098619997967,279.41097269998863,315,45,279.41097269998863,279.41097269998863,279.41097269998863,279.41097269998863,279.41097269998863,279.41097269998863,279.41097269998863,279.41097269998863,279.41097269998863,279.77753039984964,279.77753039984964,279.77753039984964,279.77753039984964,279.77753039984964,279.77753039984964,279.77753039984964,279.77753039984964,279.77753039984964,23,0,,,279.77753039984964,279.98427309980616,1000,279.98427309980616,1000,1000,1000,1000,1,num_2,0.7348323999904096,,37,4,2026-03-13_17h40.14.118,2026A_exp2,2022.2.4,60.15272774823856,
1,0,3.7,0.0,0,0,81,81,87,,,,,280.74496479984373,281.3957644000184,281.3957644000184,281.89698149985634,315,45,281.89698149985634,281.89698149985634,281.89698149985634,281.89698149985634,281.89698149985634,281.89698149985634,281.89698149985634,281.89698149985634,281.89698149985634,282.263351699803,282.263351699803,282.263351699803,282.263351699803,282.263351699803,282.263351699803,282.263351699803,282.263351699803,282.263351699803,23,0,,,282.263351699803,282.46349639981054,3.7,282.46349639981054,1,3.7,1,1,1000,num_4,3.718604499939829,,37,4,2026-03-13_17h40.14.118,2026A_exp2,2022.2.4,60.15272774823856,
1000,1,0.0,4.9,0,0,82,82,61,,,,,286.20074169989675,286.8513232998084,286.8513232998084,287.33571769995615,315,315,287.33571769995615,287.33571769995615,287.33571769995615,287.33571769995615,287.33571769995615,287.33571769995615,287.33571769995615,287.33571769995615,287.33571769995615,287.70217089983635,287.70217089983635,287.70217089983635,287.70217089983635,287.70217089983635,287.70217089983635,287.70217089983635,287.70217089983635,287.70217089983635,0,1,[0.0011932000052183867],[0.36721059982664883],287.70217089983635,287.9021897998173,1000,287.91862749983557,1000,1000,1000,1000,1,num_2,0.6870240999851376,,37,4,2026-03-13_17h40.14.118,2026A_exp2,2022.2.4,60.15272774823856,
0,0,6.1,0.0,0,0,83,83,74,,,,,288.63634369987994,289.28694979986176,289.28694979986176,289.78962249984033,45,315,289.78962249984033,289.78962249984033,289.78962249984033,289.78962249984033,289.78962249984033,289.78962249984033,289.78962249984033,289.78962249984033,289.78962249984033,290.1377742998302,290.1377742998302,290.1377742998302,290.1377742998302,290.1377742998302,290.1377742998302,290.1377742998302,290.1377742998302,290.1377742998302,22,0,,,290.1377742998302,290.33794499980286,0.0,290.33794499980286,0,0.0,0,1,1000,num_1,0.979910199996084,,37,4,2026-03-13_17h40.14.118,2026A_exp2,2022.2.4,60.15272774823856,
1000,1,6.1,3.7,0,0,84,84,75,,,,,291.3390186999459,291.9897093998734,291.9897093998734,292.49087169999257,315,45,292.49087169999257,292.49087169999257,292.49087169999257,292.49087169999257,292.49087169999257,292.49087169999257,292.49087169999257,292.49087169999257,292.49087169999257,292.85730659984984,292.85730659984984,292.85730659984984,292.85730659984984,292.85730659984984,292.85730659984984,292.85730659984984,292.85730659984984,292.85730659984984,23,0,,,292.85730659984984,293.059970599832,1000,293.059970599832,1000,1000,1000,1000,0,num_3,0.6985117001459002,,37,4,2026-03-13_17h40.14.118,2026A_exp2,2022.2.4,60.15272774823856,
1000,1,6.1,0.0,1,0,85,85,83,,,,,293.7752531999722,294.4292126998771,294.4292126998771,294.91817379998975,315,315,294.91817379998975,294.91817379998975,294.91817379998975,294.91817379998975,294.91817379998975,294.91817379998975,294.91817379998975,294.91817379998975,294.91817379998975,295.2764083999209,295.2764083999209,295.2764083999209,295.2764083999209,295.2764083999209,295.2764083999209,295.2764083999209,295.2764083999209,295.2764083999209,1,2,"[0.0030119000002741814, 0.29879930010065436]","[0.28206680016592145, 0.365514500066638]",295.2764083999209,295.4785521000158,1000,295.4785521000158,1000,1000,1000,1000,0,num_3,0.9521655000280589,,37,4,2026-03-13_17h40.14.118,2026A_exp2,2022.2.4,60.15272774823856,
1000,1,0.0,3.7,0,0,86,86,46,,,,,296.4610638997983,297.1115033000242,297.1115033000242,297.61267599998973,45,315,297.61267599998973,297.61267599998973,297.61267599998973,297.61267599998973,297.61267599998973,297.61267599998973,297.61267599998973,297.61267599998973,297.61267599998973,297.97880079993047,297.97880079993047,297.97880079993047,297.97880079993047,297.97880079993047,297.97880079993047,297.97880079993047,297.97880079993047,297.97880079993047,2,2,"[0.0011228001676499844, 0.36725750006735325]","[0.3338661000598222, 0.36726050009019673]",297.97880079993047,298.18096079980023,1000,298.18096079980023,1000,1000,1000,1000,1,num_2,0.5936049001757056,,37,4,2026-03-13_17h40.14.118,2026A_exp2,2022.2.4,60.15272774823856,
1000,1,0.0,4.9,0,0,87,87,26,,,,,298.7964291998651,299.4472463999409,299.4472463999409,299.94813089980744,45,45,299.94813089980744,299.94813089980744,299.94813089980744,299.94813089980744,299.94813089980744,299.94813089980744,299.94813089980744,299.94813089980744,299.94813089980744,300.31472699996084,300.31472699996084,300.31472699996084,300.31472699996084,300.31472699996084,300.31472699996084,300.31472699996084,300.31472699996084,300.31472699996084,13,2,"[0.0012070999946445227, 0.10219849995337427]","[0.049033100018277764, 0.21642419998534024]",300.31472699996084,300.51695699989796,1000,300.51695699989796,1000,1000,1000,1000,1,num_2,0.713831199798733,,37,4,2026-03-13_17h40.14.118,2026A_exp2,2022.2.4,60.15272774823856,
1000,1,6.1,6.1,1,0,88,88,8,,,,,301.24881129991263,301.8996720998548,301.8996720998548,302.40067659993656,315,315,302.40067659993656,302.40067659993656,302.40067659993656,302.40067659993656,302.40067659993656,302.40067659993656,302.40067659993656,302.40067659993656,302.40067659993656,302.76715829991736,302.76715829991736,302.76715829991736,302.76715829991736,302.76715829991736,302.76715829991736,302.76715829991736,302.76715829991736,302.76715829991736,6,3,"[0.0013170999009162188, 0.10005469992756844, 0.30046619987115264]","[0.033532199915498495, 0.2670915999915451, 0.3671089999843389]",302.76715829991736,302.969809099799,1000,302.969809099799,1000,1000,1000,1000,0,num_3,1.076064100023359,,37,4,2026-03-13_17h40.14.118,2026A_exp2,2022.2.4,60.15272774823856,
1,0,0.0,6.1,1,0,89,89,33,,,,,304.06872250000015,304.7191550999414,304.7191550999414,305.2033628998324,315,315,305.2033628998324,305.2033628998324,305.2033628998324,305.2033628998324,305.2033628998324,305.2033628998324,305.2033628998324,305.2033628998324,305.2033628998324,305.56991779990494,305.56991779990494,305.56991779990494,305.56991779990494,305.56991779990494,305.56991779990494,305.56991779990494,305.56991779990494,305.56991779990494,0,1,[0.0012493999674916267],[0.3668881000485271],305.56991779990494,305.77018899982795,6.1,305.77018899982795,1,6.1,1,1,1000,num_4,0.7000482999719679,,37,4,2026-03-13_17h40.14.118,2026A_exp2,2022.2.4,60.15272774823856,
,,,,,,,,,,,,,,,,,,,,,,,,,,,,,,,,,,,,,,,,,,,,,,,,,,,,306.4960439999122,,,,,,,
