validity,detectorcomp,contrastCW,contrastCCW,precueCWorCCW,block_80trials.thisRepN,block_80trials.thisTrialN,block_80trials.thisN,block_80trials.thisIndex,etRecord.started,etRecord.stopped,text.started,text.stopped,text_4.started,text_4.stopped,text_6.started,text_6.stopped,oriCW,oriCCW,roi_2.started,grating_UR.started,grating_UL.started,grating_LR.started,grating_LL.started,noise_UR.started,noise_UL.started,noise_LR.started,noise_LL.started,roi_2.stopped,grating_UR.stopped,grating_UL.stopped,grating_LR.stopped,grating_LL.stopped,noise_UR.stopped,noise_UL.stopped,noise_LR.stopped,noise_LL.stopped,outframe,roi_2.numLooks,roi_2.timesOn,roi_2.timesOff,text_2.started,text_2.stopped,probedcontrast,key_resp.started,respdetect,relevantContrast,correctDetect,TorFdetect,respCWorCCW,key_resp.keys,key_resp.rt,feedback_display_.started,participantNo,blockNo,date,expName,psychopyVersion,frameRate,
1000,1,3.7,3.7,0,0,0,0,72,3.609998384490609e-05,3.609998384490609e-05,53.511677899979986,55.513626700034365,55.513626700034365,56.14781540003605,56.14781540003605,56.67052430001786,45,315,56.67052430001786,56.67052430001786,56.67052430001786,56.67052430001786,56.67052430001786,56.67052430001786,56.67052430001786,56.67052430001786,56.67052430001786,57.01548370003002,57.01548370003002,57.01548370003002,57.01548370003002,57.01548370003002,57.01548370003002,57.01548370003002,57.01548370003002,57.01548370003002,0,1,[0.0011297999881207943],[0.36823880003066733],57.01548370003002,57.222853099985514,1000,57.222853099985514,1000,1000,1000,1000,1,num_2,0.5724713999661617,,27,4,2026-03-05_13h25.52.163,2026A_exp2,2022.2.4,59.90488302077821,
1,0,0.0,3.7,1,0,1,1,32,,,,,57.816207299998496,58.466973300033715,58.466973300033715,58.95115330000408,315,45,58.95115330000408,58.95115330000408,58.95115330000408,58.95115330000408,58.95115330000408,58.95115330000408,58.95115330000408,58.95115330000408,58.95115330000408,59.31758400000399,59.31758400000399,59.31758400000399,59.31758400000399,59.31758400000399,59.31758400000399,59.31758400000399,59.31758400000399,59.31758400000399,23,0,,,59.31758400000399,59.517950400011614,3.7,59.517950400011614,1,3.7,1,1,1000,num_4,0.5735278999782167,,27,4,2026-03-05_13h25.52.163,2026A_exp2,2022.2.4,59.90488302077821,
1,0,6.1,0.0,0,0,2,2,21,,,,,60.11852120002732,60.76925180002581,60.76925180002581,61.253664000018034,315,45,61.253664000018034,61.253664000018034,61.253664000018034,61.253664000018034,61.253664000018034,61.253664000018034,61.253664000018034,61.253664000018034,61.253664000018034,61.61996530002216,61.61996530002216,61.61996530002216,61.61996530002216,61.61996530002216,61.61996530002216,61.61996530002216,61.61996530002216,61.61996530002216,23,0,,,61.61996530002216,61.820171000028495,6.1,61.820171000028495,1,6.1,1,1,1000,num_4,0.7505531000206247,,27,4,2026-03-05_13h25.52.163,2026A_exp2,2022.2.4,59.90488302077821,
1000,1,3.7,0.0,1,0,3,3,19,,,,,62.5877297000261,63.23835980001604,63.23835980001604,63.72265970002627,315,315,63.72265970002627,63.72265970002627,63.72265970002627,63.72265970002627,63.72265970002627,63.72265970002627,63.72265970002627,63.72265970002627,63.72265970002627,64.08880299999146,64.08880299999146,64.08880299999146,64.08880299999146,64.08880299999146,64.08880299999146,64.08880299999146,64.08880299999146,64.08880299999146,23,0,,,64.08880299999146,64.29104039998492,1000,64.29104039998492,1000,1000,1000,1000,0,num_3,0.6076368000358343,,27,4,2026-03-05_13h25.52.163,2026A_exp2,2022.2.4,59.90488302077821,
1000,1,6.1,0.0,1,0,4,4,83,,,,,64.92347009998048,65.5740599000128,65.5740599000128,66.07515960000455,315,315,66.07515960000455,66.07515960000455,66.07515960000455,66.07515960000455,66.07515960000455,66.07515960000455,66.07515960000455,66.07515960000455,66.07515960000455,66.44156499998644,66.44156499998644,66.44156499998644,66.44156499998644,66.44156499998644,66.44156499998644,66.44156499998644,66.44156499998644,66.44156499998644,23,0,,,66.44156499998644,66.6436177000287,1000,66.6436177000287,1000,1000,1000,1000,0,num_3,0.3903155999723822,,27,4,2026-03-05_13h25.52.163,2026A_exp2,2022.2.4,59.90488302077821,
1,0,6.1,3.7,1,0,5,5,51,,,,,67.05905209999764,67.70951900002547,67.70951900002547,68.1939335000352,45,315,68.1939335000352,68.1939335000352,68.1939335000352,68.1939335000352,68.1939335000352,68.1939335000352,68.1939335000352,68.1939335000352,68.1939335000352,68.56037190003553,68.56037190003553,68.56037190003553,68.56037190003553,68.56037190003553,68.56037190003553,68.56037190003553,68.56037190003553,68.56037190003553,23,0,,,68.56037190003553,68.76047009998001,3.7,68.76047009998001,0,3.7,1,0,1000,num_1,1.2266178000136279,,27,4,2026-03-05_13h25.52.163,2026A_exp2,2022.2.4,59.90488302077821,
1000,1,0.0,3.7,1,0,6,6,84,,,,,70.01303580001695,70.66239509999286,70.66239509999286,71.16356349998387,45,45,71.16356349998387,71.16356349998387,71.16356349998387,71.16356349998387,71.16356349998387,71.16356349998387,71.16356349998387,71.16356349998387,71.16356349998387,71.5299265999929,71.5299265999929,71.5299265999929,71.5299265999929,71.5299265999929,71.5299265999929,71.5299265999929,71.5299265999929,71.5299265999929,23,0,,,71.5299265999929,71.73248110001441,1000,71.73248110001441,1000,1000,1000,1000,1,num_2,0.7095206999802031,,27,4,2026-03-05_13h25.52.163,2026A_exp2,2022.2.4,59.90488302077821,
1000,1,0.0,0.0,0,0,7,7,7,,,,,72.46423809998669,73.11481769999955,73.11481769999955,73.59925770002883,315,45,73.59925770002883,73.59925770002883,73.59925770002883,73.59925770002883,73.59925770002883,73.59925770002883,73.59925770002883,73.59925770002883,73.59925770002883,73.96576739999,73.96576739999,73.96576739999,73.96576739999,73.96576739999,73.96576739999,73.96576739999,73.96576739999,73.96576739999,23,0,,,73.96576739999,74.1678091000067,1000,74.1678091000067,1000,1000,1000,1000,1,num_2,0.5151145000127144,,27,4,2026-03-05_13h25.52.163,2026A_exp2,2022.2.4,59.90488302077821,
1000,1,0.0,0.0,1,0,8,8,85,,,,,74.70006430003559,75.35044230002677,75.35044230002677,75.85161040001549,315,315,75.85161040001549,75.85161040001549,75.85161040001549,75.85161040001549,75.85161040001549,75.85161040001549,75.85161040001549,75.85161040001549,75.85161040001549,76.21798449999187,76.21798449999187,76.21798449999187,76.21798449999187,76.21798449999187,76.21798449999187,76.21798449999187,76.21798449999187,76.21798449999187,23,0,,,76.21798449999187,76.41992840002058,1000,76.41992840002058,1000,1000,1000,1000,1,num_2,0.4874121999600902,,27,4,2026-03-05_13h25.52.163,2026A_exp2,2022.2.4,59.90488302077821,
1,0,0.0,4.9,0,0,9,9,73,,,,,76.9353368000011,77.58750309998868,77.58750309998868,78.08712959999684,45,45,78.08712959999684,78.08712959999684,78.08712959999684,78.08712959999684,78.08712959999684,78.08712959999684,78.08712959999684,78.08712959999684,78.08712959999684,78.45351570000639,78.45351570000639,78.45351570000639,78.45351570000639,78.45351570000639,78.45351570000639,78.45351570000639,78.45351570000639,78.45351570000639,23,0,,,78.45351570000639,78.65352829999756,0.0,78.65352829999756,0,0.0,0,1,1000,num_1,0.7805856000049971,,27,4,2026-03-05_13h25.52.163,2026A_exp2,2022.2.4,59.90488302077821,
1000,1,4.9,0.0,0,0,10,10,54,,,,,79.45448840002064,80.10516179999104,80.10516179999104,80.58952039998258,45,45,80.58952039998258,80.58952039998258,80.58952039998258,80.58952039998258,80.58952039998258,80.58952039998258,80.58952039998258,80.58952039998258,80.58952039998258,80.9561798000359,80.9561798000359,80.9561798000359,80.9561798000359,80.9561798000359,80.9561798000359,80.9561798000359,80.9561798000359,80.9561798000359,23,0,,,80.9561798000359,81.15847840002971,1000,81.15847840002971,1000,1000,1000,1000,0,num_3,0.5478510999819264,,27,4,2026-03-05_13h25.52.163,2026A_exp2,2022.2.4,59.90488302077821,
1,0,3.7,0.0,1,0,11,11,12,,,,,81.72338530002162,82.37402390001807,82.37402390001807,82.89135709998664,45,45,82.89135709998664,82.89135709998664,82.89135709998664,82.89135709998664,82.89135709998664,82.89135709998664,82.89135709998664,82.89135709998664,82.89135709998664,83.22499339998467,83.22499339998467,83.22499339998467,83.22499339998467,83.22499339998467,83.22499339998467,83.22499339998467,83.22499339998467,83.22499339998467,22,0,,,83.22499339998467,83.42872930003796,0.0,83.44194709998555,0,0.0,0,1,1000,num_1,0.6160034000058658,,27,4,2026-03-05_13h25.52.163,2026A_exp2,2022.2.4,59.90488302077821,
1,0,6.1,4.9,1,0,12,12,11,,,,,84.07572600001004,84.72651320003206,84.72651320003206,85.21097070001997,315,315,85.21097070001997,85.21097070001997,85.21097070001997,85.21097070001997,85.21097070001997,85.21097070001997,85.21097070001997,85.21097070001997,85.21097070001997,85.57757880003192,85.57757880003192,85.57757880003192,85.57757880003192,85.57757880003192,85.57757880003192,85.57757880003192,85.57757880003192,85.57757880003192,23,0,,,85.57757880003192,85.77760259999195,4.9,85.77760259999195,1,4.9,1,1,1000,num_4,0.6965563999838196,,27,4,2026-03-05_13h25.52.163,2026A_exp2,2022.2.4,59.90488302077821,
1000,1,0.0,0.0,1,0,13,13,78,,,,,86.49486059998162,87.14552150003146,87.14552150003146,87.62995259999298,45,315,87.62995259999298,87.62995259999298,87.62995259999298,87.62995259999298,87.62995259999298,87.62995259999298,87.62995259999298,87.62995259999298,87.62995259999298,87.99643649999052,87.99643649999052,87.99643649999052,87.99643649999052,87.99643649999052,87.99643649999052,87.99643649999052,87.99643649999052,87.99643649999052,23,0,,,87.99643649999052,88.19833809998818,1000,88.19833809998818,1000,1000,1000,1000,1,num_2,0.5718945999979042,,27,4,2026-03-05_13h25.52.163,2026A_exp2,2022.2.4,59.90488302077821,
0,0,6.1,0.0,0,0,14,14,74,,,,,88.79715180001222,89.44782250002027,89.44782250002027,89.94890860002488,315,315,89.94890860002488,89.94890860002488,89.94890860002488,89.94890860002488,89.94890860002488,89.94890860002488,89.94890860002488,89.94890860002488,89.94890860002488,90.31537900003605,90.31537900003605,90.31537900003605,90.31537900003605,90.31537900003605,90.31537900003605,90.31537900003605,90.31537900003605,90.31537900003605,23,0,,,90.31537900003605,90.51570310001262,0.0,90.51570310001262,0,0.0,0,1,1000,num_1,0.6228728999849409,,27,4,2026-03-05_13h25.52.163,2026A_exp2,2022.2.4,59.90488302077821,
1000,1,3.7,0.0,1,0,15,15,38,,,,,91.16620560002048,91.81680289999349,91.81680289999349,92.3012493000133,45,45,92.3012493000133,92.3012493000133,92.3012493000133,92.3012493000133,92.3012493000133,92.3012493000133,92.3012493000133,92.3012493000133,92.3012493000133,92.66780930000823,92.66780930000823,92.66780930000823,92.66780930000823,92.66780930000823,92.66780930000823,92.66780930000823,92.66780930000823,92.66780930000823,23,0,,,92.66780930000823,92.86971579998499,1000,92.86971579998499,1000,1000,1000,1000,0,num_3,0.5091915000230074,,27,4,2026-03-05_13h25.52.163,2026A_exp2,2022.2.4,59.90488302077821,
1,0,6.1,0.0,1,0,16,16,70,,,,,93.40173919999506,94.05246680002892,94.05246680002892,94.55344029999105,45,45,94.55344029999105,94.55344029999105,94.55344029999105,94.55344029999105,94.55344029999105,94.55344029999105,94.55344029999105,94.55344029999105,94.55344029999105,94.92007160000503,94.92007160000503,94.92007160000503,94.92007160000503,94.92007160000503,94.92007160000503,94.92007160000503,94.92007160000503,94.92007160000503,23,0,,,94.92007160000503,95.12033760000486,0.0,95.12033760000486,0,0.0,0,1,1000,num_1,0.4496969999745488,,27,4,2026-03-05_13h25.52.163,2026A_exp2,2022.2.4,59.90488302077821,
1000,1,0.0,4.9,1,0,17,17,66,,,,,95.58729280001717,96.23790960002225,96.23790960002225,96.72239629999967,45,45,96.72239629999967,96.72239629999967,96.72239629999967,96.72239629999967,96.72239629999967,96.72239629999967,96.72239629999967,96.72239629999967,96.72239629999967,97.0889043000061,97.0889043000061,97.0889043000061,97.0889043000061,97.0889043000061,97.0889043000061,97.0889043000061,97.0889043000061,97.0889043000061,21,2,"[0.08360229997197166, 0.23367180000059307]","[0.10048329998971894, 0.2503433999954723]",97.0889043000061,97.29074770002626,1000,97.29074770002626,1000,1000,1000,1000,1,num_2,0.4243220000062138,,27,4,2026-03-05_13h25.52.163,2026A_exp2,2022.2.4,59.90488302077821,
1000,1,0.0,4.9,0,0,18,18,6,,,,,97.73953469999833,98.39023580000503,98.39023580000503,98.89138590003131,45,45,98.89138590003131,98.89138590003131,98.89138590003131,98.89138590003131,98.89138590003131,98.89138590003131,98.89138590003131,98.89138590003131,98.89138590003131,99.25774949998595,99.25774949998595,99.25774949998595,99.25774949998595,99.25774949998595,99.25774949998595,99.25774949998595,99.25774949998595,99.25774949998595,18,4,"[0.0017709999810904264, 0.033699899970088154, 0.08365279994904995, 0.2667665999615565]","[0.01759419997688383, 0.050283199991099536, 0.1170620999764651, 0.28327939996961504]",99.25774949998595,99.45962530001998,1000,99.45962530001998,1000,1000,1000,1000,1,num_2,0.5265420999494381,,27,4,2026-03-05_13h25.52.163,2026A_exp2,2022.2.4,59.90488302077821,
1,0,0.0,4.9,1,0,19,19,37,,,,,100.00830709998263,100.65897679998307,100.65897679998307,101.16013810003642,45,315,101.16013810003642,101.16013810003642,101.16013810003642,101.16013810003642,101.16013810003642,101.16013810003642,101.16013810003642,101.16013810003642,101.16013810003642,101.52666279999539,101.52666279999539,101.52666279999539,101.52666279999539,101.52666279999539,101.52666279999539,101.52666279999539,101.52666279999539,101.52666279999539,23,0,,,101.52666279999539,101.72676600003615,4.9,101.72676600003615,1,4.9,1,1,1000,num_4,0.7482054000138305,,27,4,2026-03-05_13h25.52.163,2026A_exp2,2022.2.4,59.90488302077821,
1000,1,4.9,3.7,0,0,20,20,40,,,,,102.49394120002398,103.12819790001959,103.12819790001959,103.6292069000192,45,315,103.6292069000192,103.6292069000192,103.6292069000192,103.6292069000192,103.6292069000192,103.6292069000192,103.6292069000192,103.6292069000192,103.6292069000192,103.9957480999874,103.9957480999874,103.9957480999874,103.9957480999874,103.9957480999874,103.9957480999874,103.9957480999874,103.9957480999874,103.9957480999874,23,0,,,103.9957480999874,104.21233200002462,1000,104.21233200002462,1000,1000,1000,1000,0,num_3,0.534285900008399,,27,4,2026-03-05_13h25.52.163,2026A_exp2,2022.2.4,59.90488302077821,
1,0,4.9,0.0,1,0,21,21,65,,,,,104.76320029998897,105.41376780002611,105.41376780002611,105.91481460002251,45,45,105.91481460002251,105.91481460002251,105.91481460002251,105.91481460002251,105.91481460002251,105.91481460002251,105.91481460002251,105.91481460002251,105.91481460002251,106.28135649999604,106.28135649999604,106.28135649999604,106.28135649999604,106.28135649999604,106.28135649999604,106.28135649999604,106.28135649999604,106.28135649999604,23,0,,,106.28135649999604,106.48161860002438,0.0,106.48161860002438,0,0.0,0,1,1000,num_1,0.6965879000490531,,27,4,2026-03-05_13h25.52.163,2026A_exp2,2022.2.4,59.90488302077821,
1,0,0.0,0.0,0,0,22,22,24,,,,,107.19881909998367,107.84968719998142,107.84968719998142,108.33402379998006,45,45,108.33402379998006,108.33402379998006,108.33402379998006,108.33402379998006,108.33402379998006,108.33402379998006,108.33402379998006,108.33402379998006,108.33402379998006,108.7005868999986,108.7005868999986,108.7005868999986,108.7005868999986,108.7005868999986,108.7005868999986,108.7005868999986,108.7005868999986,108.7005868999986,23,0,,,108.7005868999986,108.90074260003166,0.0,108.90074260003166,0,0.0,0,1,1000,num_1,0.8375461000250652,,27,4,2026-03-05_13h25.52.163,2026A_exp2,2022.2.4,59.90488302077821,
1000,1,6.1,0.0,1,0,23,23,57,,,,,109.76795370003674,110.41882610000903,110.41882610000903,110.90308110002661,45,315,110.90308110002661,110.90308110002661,110.90308110002661,110.90308110002661,110.90308110002661,110.90308110002661,110.90308110002661,110.90308110002661,110.90308110002661,111.26971760002198,111.26971760002198,111.26971760002198,111.26971760002198,111.26971760002198,111.26971760002198,111.26971760002198,111.26971760002198,111.26971760002198,21,2,"[0.15019650000613183, 0.21698450000258163]","[0.16707030002726242, 0.23362090002046898]",111.26971760002198,111.47194600000512,1000,111.47194600000512,1000,1000,1000,1000,0,num_3,0.5221466000075452,,27,4,2026-03-05_13h25.52.163,2026A_exp2,2022.2.4,59.90488302077821,
1,0,0.0,4.9,0,0,24,24,3,,,,,112.02070410002489,112.65448810003,112.65448810003,113.15543199999956,45,315,113.15543199999956,113.15543199999956,113.15543199999956,113.15543199999956,113.15543199999956,113.15543199999956,113.15543199999956,113.15543199999956,113.15543199999956,113.5219713000115,113.5219713000115,113.5219713000115,113.5219713000115,113.5219713000115,113.5219713000115,113.5219713000115,113.5219713000115,113.5219713000115,22,1,[0.20039219997124746],[0.2170299999997951],113.5219713000115,113.72200559999328,0.0,113.72200559999328,0,0.0,0,1,1000,num_1,0.9121848999639042,,27,4,2026-03-05_13h25.52.163,2026A_exp2,2022.2.4,59.90488302077821,
1000,1,6.1,0.0,1,0,25,25,25,,,,,114.65636770002311,115.30714150000131,115.30714150000131,115.79145740001695,315,45,115.79145740001695,115.79145740001695,115.79145740001695,115.79145740001695,115.79145740001695,115.79145740001695,115.79145740001695,115.79145740001695,115.79145740001695,116.15788160002558,116.15788160002558,116.15788160002558,116.15788160002558,116.15788160002558,116.15788160002558,116.15788160002558,116.15788160002558,116.15788160002558,17,2,"[0.0011992999934591353, 0.18321829999331385]","[0.08325339999282733, 0.19997389998752624]",116.15788160002558,116.36027420003666,1000,116.36027420003666,1000,1000,1000,1000,0,num_3,0.49112120002973825,,27,4,2026-03-05_13h25.52.163,2026A_exp2,2022.2.4,59.90488302077821,
1000,1,3.7,4.9,0,0,26,26,45,,,,,116.87538380001206,117.52598030003719,117.52598030003719,118.02704590000212,45,45,118.02704590000212,118.02704590000212,118.02704590000212,118.02704590000212,118.02704590000212,118.02704590000212,118.02704590000212,118.02704590000212,118.02704590000212,118.39341850002529,118.39341850002529,118.39341850002529,118.39341850002529,118.39341850002529,118.39341850002529,118.39341850002529,118.39341850002529,118.39341850002529,7,5,"[0.001213700044900179, 0.10005230002570897, 0.15037330001359805, 0.23459300003014505, 0.3348151000100188]","[0.06715990003431216, 0.11674369999673218, 0.2028458000277169, 0.30146180000156164, 0.3680672000045888]",118.39341850002529,118.5988543999847,1000,118.5988543999847,1000,1000,1000,1000,1,num_2,0.4598763000103645,,27,4,2026-03-05_13h25.52.163,2026A_exp2,2022.2.4,59.90488302077821,
1000,1,0.0,0.0,1,0,27,27,1,,,,,119.07738390000304,119.72806110000238,119.72806110000238,120.22919430001639,45,45,120.22919430001639,120.22919430001639,120.22919430001639,120.22919430001639,120.22919430001639,120.22919430001639,120.22919430001639,120.22919430001639,120.22919430001639,120.59565849998035,120.59565849998035,120.59565849998035,120.59565849998035,120.59565849998035,120.59565849998035,120.59565849998035,120.59565849998035,120.59565849998035,8,4,"[0.0012769000022672117, 0.06686899997293949, 0.1335761999944225, 0.1837465999997221]","[0.033450999995693564, 0.11687480000546202, 0.1503480999963358, 0.31715839996468276]",120.59565849998035,120.79824269999517,1000,120.79824269999517,1000,1000,1000,1000,0,num_3,0.5802005000296049,,27,4,2026-03-05_13h25.52.163,2026A_exp2,2022.2.4,59.90488302077821,
1000,1,0.0,6.1,1,0,28,28,43,,,,,121.39637740002945,122.04712489998201,122.04712489998201,122.54819649999263,45,45,122.54819649999263,122.54819649999263,122.54819649999263,122.54819649999263,122.54819649999263,122.54819649999263,122.54819649999263,122.54819649999263,122.54819649999263,122.91462719999254,122.91462719999254,122.91462719999254,122.91462719999254,122.91462719999254,122.91462719999254,122.91462719999254,122.91462719999254,122.91462719999254,1,1,[0.001211299968417734],[0.36719879996962845],122.91462719999254,123.11679290002212,1000,123.11679290002212,1000,1000,1000,1000,1,num_2,0.49436880002031103,,27,4,2026-03-05_13h25.52.163,2026A_exp2,2022.2.4,59.90488302077821,
1,0,0.0,0.0,0,0,29,29,88,,,,,123.63196690002223,124.28277930000331,124.28277930000331,124.7890338000143,45,45,124.7890338000143,124.7890338000143,124.7890338000143,124.7890338000143,124.7890338000143,124.7890338000143,124.7890338000143,124.7890338000143,124.7890338000143,125.15043530002004,125.15043530002004,125.15043530002004,125.15043530002004,125.15043530002004,125.15043530002004,125.15043530002004,125.15043530002004,125.15043530002004,14,7,"[0.022593199973925948, 0.06682339997496456, 0.18354609998641536, 0.217025299964007, 0.25014129996998236, 0.3003267999738455, 0.36708879994694144]","[0.05008449999149889, 0.08331329998327419, 0.20019219996174797, 0.23349039995810017, 0.26710800000000745, 0.3332552999490872, 0.36709989997325465]",125.15043530002004,125.3505280999816,0.0,125.3505280999816,1,0.0,0,0,1000,num_4,0.8127258999738842,,27,4,2026-03-05_13h25.52.163,2026A_exp2,2022.2.4,59.90488302077821,
1000,1,6.1,0.0,0,0,30,30,81,,,,,126.18447640002705,126.83525280002505,126.83525280002505,127.31966460001422,45,315,127.31966460001422,127.31966460001422,127.31966460001422,127.31966460001422,127.31966460001422,127.31966460001422,127.31966460001422,127.31966460001422,127.31966460001422,127.68606780003756,127.68606780003756,127.68606780003756,127.68606780003756,127.68606780003756,127.68606780003756,127.68606780003756,127.68606780003756,127.68606780003756,16,7,"[0.0012036999687552452, 0.0503490999690257, 0.08371500001521781, 0.13371439999900758, 0.21711979998508468, 0.26656000001821667, 0.3506137999938801]","[0.01742809999268502, 0.06699939997633919, 0.10024319996591657, 0.1504348000162281, 0.23350829997798428, 0.2836957999970764, 0.3673031000071205]",127.68606780003756,127.88831060001394,1000,127.88831060001394,1000,1000,1000,1000,0,num_3,0.5303432000218891,,27,4,2026-03-05_13h25.52.163,2026A_exp2,2022.2.4,59.90488302077821,
1,0,0.0,3.7,1,0,31,31,14,,,,,128.43687320000026,129.07092169998214,129.07092169998214,129.57198970002355,315,315,129.57198970002355,129.57198970002355,129.57198970002355,129.57198970002355,129.57198970002355,129.57198970002355,129.57198970002355,129.57198970002355,129.57198970002355,129.93829520000145,129.93829520000145,129.93829520000145,129.93829520000145,129.93829520000145,129.93829520000145,129.93829520000145,129.93829520000145,129.93829520000145,23,0,,,129.93829520000145,130.1385592999868,3.7,130.1385592999868,1,3.7,1,1,1000,num_4,0.8873631000169553,,27,4,2026-03-05_13h25.52.163,2026A_exp2,2022.2.4,59.90488302077821,
1,0,4.9,3.7,1,0,32,32,27,,,,,131.05600630003028,131.7066812000121,131.7066812000121,132.19115279999096,315,315,132.19115279999096,132.19115279999096,132.19115279999096,132.19115279999096,132.19115279999096,132.19115279999096,132.19115279999096,132.19115279999096,132.19115279999096,132.55737960000988,132.55737960000988,132.55737960000988,132.55737960000988,132.55737960000988,132.55737960000988,132.55737960000988,132.55737960000988,132.55737960000988,23,0,,,132.55737960000988,132.75788430002285,3.7,132.75788430002285,0,3.7,1,0,1000,num_1,0.7169843000010587,,27,4,2026-03-05_13h25.52.163,2026A_exp2,2022.2.4,59.90488302077821,
1000,1,3.7,3.7,0,0,33,33,63,,,,,133.4918002000195,134.14265069999965,134.14265069999965,134.62679639999988,45,315,134.62679639999988,134.62679639999988,134.62679639999988,134.62679639999988,134.62679639999988,134.62679639999988,134.62679639999988,134.62679639999988,134.62679639999988,134.99332320003305,134.99332320003305,134.99332320003305,134.99332320003305,134.99332320003305,134.99332320003305,134.99332320003305,134.99332320003305,134.99332320003305,23,0,,,134.99332320003305,135.196245500003,1000,135.196245500003,1000,1000,1000,1000,1,num_2,0.4298488000058569,,27,4,2026-03-05_13h25.52.163,2026A_exp2,2022.2.4,59.90488302077821,
1,0,6.1,0.0,1,0,34,34,89,,,,,135.64392619999126,136.29472150001675,136.29472150001675,136.79579410003498,45,315,136.79579410003498,136.79579410003498,136.79579410003498,136.79579410003498,136.79579410003498,136.79579410003498,136.79579410003498,136.79579410003498,136.79579410003498,137.16230060003,137.16230060003,137.16230060003,137.16230060003,137.16230060003,137.16230060003,137.16230060003,137.16230060003,137.16230060003,23,0,,,137.16230060003,137.36251040000934,0.0,137.36251040000934,0,0.0,0,1,1000,num_1,0.5837266999878921,,27,4,2026-03-05_13h25.52.163,2026A_exp2,2022.2.4,59.90488302077821,
0,0,0.0,3.7,0,0,35,35,34,,,,,137.96303430001717,138.6137651000172,138.6137651000172,139.0980045000324,45,315,139.0980045000324,139.0980045000324,139.0980045000324,139.0980045000324,139.0980045000324,139.0980045000324,139.0980045000324,139.0980045000324,139.0980045000324,139.4646544000134,139.4646544000134,139.4646544000134,139.4646544000134,139.4646544000134,139.4646544000134,139.4646544000134,139.4646544000134,139.4646544000134,22,1,[0.30030449997866526],[0.31704609998269007],139.4646544000134,139.66463100002147,3.7,139.66463100002147,1,3.7,1,1,1000,num_4,0.6815451000002213,,27,4,2026-03-05_13h25.52.163,2026A_exp2,2022.2.4,59.90488302077821,
0,0,4.9,0.0,1,0,36,36,67,,,,,140.36531660001492,141.0161651999806,141.0161651999806,141.50051039998652,45,315,141.50051039998652,141.50051039998652,141.50051039998652,141.50051039998652,141.50051039998652,141.50051039998652,141.50051039998652,141.50051039998652,141.50051039998652,141.86699880001834,141.86699880001834,141.86699880001834,141.86699880001834,141.86699880001834,141.86699880001834,141.86699880001834,141.86699880001834,141.86699880001834,23,0,,,141.86699880001834,142.06715329998406,4.9,142.06715329998406,1,4.9,1,1,1000,num_4,0.7670351000269875,,27,4,2026-03-05_13h25.52.163,2026A_exp2,2022.2.4,59.90488302077821,
1000,1,4.9,0.0,1,0,37,37,10,,,,,142.85118390002754,143.5019811000093,143.5019811000093,144.00302469998132,315,45,144.00302469998132,144.00302469998132,144.00302469998132,144.00302469998132,144.00302469998132,144.00302469998132,144.00302469998132,144.00302469998132,144.00302469998132,144.35280450002756,144.35280450002756,144.35280450002756,144.35280450002756,144.35280450002756,144.35280450002756,144.35280450002756,144.35280450002756,144.35280450002756,4,5,"[0.0007330999942496419, 0.034016899997368455, 0.15126349998172373, 0.3014566999627277, 0.3514623999944888]","[0.017686399980448186, 0.13447280001128092, 0.28461349999997765, 0.33478189999004826, 0.3514677999773994]",144.35280450002756,144.55366309999954,1000,144.55366309999954,1000,1000,1000,1000,0,num_3,0.6727215999853797,,27,4,2026-03-05_13h25.52.163,2026A_exp2,2022.2.4,59.90488302077821,
1,0,3.7,0.0,0,0,38,38,87,,,,,145.2535585000296,145.90442239999538,145.90442239999538,146.40530889999354,315,315,146.40530889999354,146.40530889999354,146.40530889999354,146.40530889999354,146.40530889999354,146.40530889999354,146.40530889999354,146.40530889999354,146.40530889999354,146.77189620002173,146.77189620002173,146.77189620002173,146.77189620002173,146.77189620002173,146.77189620002173,146.77189620002173,146.77189620002173,146.77189620002173,23,0,,,146.77189620002173,146.97199659998296,3.7,146.97199659998296,1,3.7,1,1,1000,num_4,0.6383453999878839,,27,4,2026-03-05_13h25.52.163,2026A_exp2,2022.2.4,59.90488302077821,
1000,1,3.7,6.1,1,0,39,39,48,,,,,147.63923430000432,148.2901237999904,148.2901237999904,148.7743795000133,315,45,148.7743795000133,148.7743795000133,148.7743795000133,148.7743795000133,148.7743795000133,148.7743795000133,148.7743795000133,148.7743795000133,148.7743795000133,149.1405963000143,149.1405963000143,149.1405963000143,149.1405963000143,149.1405963000143,149.1405963000143,149.1405963000143,149.1405963000143,149.1405963000143,23,0,,,149.1405963000143,149.34297579998383,1000,149.34297579998383,1000,1000,1000,1000,1,num_2,0.47644230001606047,,27,4,2026-03-05_13h25.52.163,2026A_exp2,2022.2.4,59.90488302077821,
1,0,3.7,4.9,1,0,40,40,18,,,,,149.84154270001454,150.49227970000356,150.49227970000356,150.99323140003253,45,315,150.99323140003253,150.99323140003253,150.99323140003253,150.99323140003253,150.99323140003253,150.99323140003253,150.99323140003253,150.99323140003253,150.99323140003253,151.3597271000035,151.3597271000035,151.3597271000035,151.3597271000035,151.3597271000035,151.3597271000035,151.3597271000035,151.3597271000035,151.3597271000035,16,5,"[0.05009610002161935, 0.11708070000167936, 0.16698550002183765, 0.21681850001914427, 0.36727030004840344]","[0.10026380000635982, 0.13362300000153482, 0.18379150005057454, 0.23366000002715737, 0.3672760000335984]",151.3597271000035,151.55982940003742,4.9,151.55982940003742,1,4.9,1,1,1000,num_4,0.6267698000301607,,27,4,2026-03-05_13h25.52.163,2026A_exp2,2022.2.4,59.90488302077821,
1000,1,0.0,0.0,0,0,41,41,15,,,,,152.21042560000205,152.86138389998814,152.86138389998814,153.34574680001242,45,45,153.34574680001242,153.34574680001242,153.34574680001242,153.34574680001242,153.34574680001242,153.34574680001242,153.34574680001242,153.34574680001242,153.34574680001242,153.7121323000174,153.7121323000174,153.7121323000174,153.7121323000174,153.7121323000174,153.7121323000174,153.7121323000174,153.7121323000174,153.7121323000174,23,0,,,153.7121323000174,153.9144754000008,1000,153.9144754000008,1000,1000,1000,1000,0,num_3,0.5042807999998331,,27,4,2026-03-05_13h25.52.163,2026A_exp2,2022.2.4,59.90488302077821,
1,0,3.7,6.1,0,0,42,42,52,,,,,154.4461787000182,155.09675289998995,155.09675289998995,155.59784370003035,315,45,155.59784370003035,155.59784370003035,155.59784370003035,155.59784370003035,155.59784370003035,155.59784370003035,155.59784370003035,155.59784370003035,155.59784370003035,155.96435480000218,155.96435480000218,155.96435480000218,155.96435480000218,155.96435480000218,155.96435480000218,155.96435480000218,155.96435480000218,155.96435480000218,10,5,"[0.016993299999739975, 0.06670289998874068, 0.1333596999756992, 0.21683049999410287, 0.2835290999501012]","[0.049911299953237176, 0.0833804999710992, 0.18337989994324744, 0.2502420999808237, 0.36701869999524206]",155.96435480000218,156.16456410003593,3.7,156.16456410003593,1,3.7,1,1,1000,num_4,0.9424182000220753,,27,4,2026-03-05_13h25.52.163,2026A_exp2,2022.2.4,59.90488302077821,
1000,1,0.0,3.7,0,0,43,43,46,,,,,157.13204450003104,157.7827316999901,157.7827316999901,158.2672074000002,45,45,158.2672074000002,158.2672074000002,158.2672074000002,158.2672074000002,158.2672074000002,158.2672074000002,158.2672074000002,158.2672074000002,158.2672074000002,158.63373320002574,158.63373320002574,158.63373320002574,158.63373320002574,158.63373320002574,158.63373320002574,158.63373320002574,158.63373320002574,158.63373320002574,18,4,"[0.08368250000057742, 0.25040820002323017, 0.30054359999485314, 0.3506183000281453]","[0.10039380000671372, 0.2671074999962002, 0.31719080003676936, 0.36735070002032444]",158.63373320002574,158.83558620000258,1000,158.83558620000258,1000,1000,1000,1000,1,num_2,0.4786523000220768,,27,4,2026-03-05_13h25.52.163,2026A_exp2,2022.2.4,59.90488302077821,
0,0,0.0,0.0,0,0,44,44,59,,,,,159.33432680001715,159.98505940003088,159.98505940003088,160.48623700003373,45,315,160.48623700003373,160.48623700003373,160.48623700003373,160.48623700003373,160.48623700003373,160.48623700003373,160.48623700003373,160.48623700003373,160.48623700003373,160.85237989999587,160.85237989999587,160.85237989999587,160.85237989999587,160.85237989999587,160.85237989999587,160.85237989999587,160.85237989999587,160.85237989999587,15,6,"[0.050241899967659265, 0.10042009997414425, 0.16708360001211986, 0.21720040001673624, 0.250402599980589, 0.3340162999811582]","[0.08373239997308701, 0.11699199996655807, 0.20041079999646172, 0.23381959996186197, 0.267141799966339, 0.36706859996775165]",160.85237989999587,161.05276470002718,0.0,161.05276470002718,0,0.0,0,1,1000,num_1,0.4940562000265345,,27,4,2026-03-05_13h25.52.163,2026A_exp2,2022.2.4,59.90488302077821,
1000,1,6.1,6.1,0,0,45,45,16,,,,,161.56988289998844,162.2038709000335,162.2038709000335,162.70474519999698,315,45,162.70474519999698,162.70474519999698,162.70474519999698,162.70474519999698,162.70474519999698,162.70474519999698,162.70474519999698,162.70474519999698,162.70474519999698,163.07151570002316,163.07151570002316,163.07151570002316,163.07151570002316,163.07151570002316,163.07151570002316,163.07151570002316,163.07151570002316,163.07151570002316,7,5,"[0.01741189998574555, 0.06688960001338273, 0.1678037000237964, 0.23454440000932664, 0.2846105999778956]","[0.050415500008966774, 0.13415509997867048, 0.20100210001692176, 0.2679319999879226, 0.3680245999712497]",163.07151570002316,163.27387129998533,1000,163.27387129998533,1000,1000,1000,1000,1,num_2,0.9290788000216708,,27,4,2026-03-05_13h25.52.163,2026A_exp2,2022.2.4,59.90488302077821,
1000,1,0.0,3.7,1,0,46,46,13,,,,,164.222746799991,164.87313830002677,164.87313830002677,165.37448290002067,315,45,165.37448290002067,165.37448290002067,165.37448290002067,165.37448290002067,165.37448290002067,165.37448290002067,165.37448290002067,165.37448290002067,165.37448290002067,165.7408247999847,165.7408247999847,165.7408247999847,165.7408247999847,165.7408247999847,165.7408247999847,165.7408247999847,165.7408247999847,165.7408247999847,23,0,,,165.7408247999847,165.94359149999218,1000,165.94359149999218,1000,1000,1000,1000,1,num_2,0.554550200002268,,27,4,2026-03-05_13h25.52.163,2026A_exp2,2022.2.4,59.90488302077821,
1000,1,6.1,6.1,1,0,47,47,4,,,,,166.52532720001182,167.17563080001855,167.17563080001855,167.67673790000845,45,315,167.67673790000845,167.67673790000845,167.67673790000845,167.67673790000845,167.67673790000845,167.67673790000845,167.67673790000845,167.67673790000845,167.67673790000845,168.04309130000183,168.04309130000183,168.04309130000183,168.04309130000183,168.04309130000183,168.04309130000183,168.04309130000183,168.04309130000183,168.04309130000183,19,3,"[0.18364910001400858, 0.23353909997968003, 0.2665230000275187]","[0.20019459998002276, 0.24991690000751987, 0.28332320001209155]",168.04309130000183,168.24566650000634,1000,168.24566650000634,1000,1000,1000,1000,1,num_2,0.8683166999835521,,27,4,2026-03-05_13h25.52.163,2026A_exp2,2022.2.4,59.90488302077821,
1,0,0.0,0.0,0,0,48,48,55,,,,,169.14413380000042,169.7949016999919,169.7949016999919,170.29604099999415,315,315,170.29604099999415,170.29604099999415,170.29604099999415,170.29604099999415,170.29604099999415,170.29604099999415,170.29604099999415,170.29604099999415,170.29604099999415,170.662469300034,170.662469300034,170.662469300034,170.662469300034,170.662469300034,170.662469300034,170.662469300034,170.662469300034,170.662469300034,11,2,"[0.03347209998173639, 0.26714309997623786]","[0.15027159999590367, 0.35055889998329803]",170.662469300034,170.862601300003,0.0,170.862601300003,0,0.0,0,1,1000,num_1,0.8522063000127673,,27,4,2026-03-05_13h25.52.163,2026A_exp2,2022.2.4,59.90488302077821,
1,0,6.1,0.0,1,0,49,49,80,,,,,171.74690880003618,172.39747100003297,172.39747100003297,172.88192650000565,315,315,172.88192650000565,172.88192650000565,172.88192650000565,172.88192650000565,172.88192650000565,172.88192650000565,172.88192650000565,172.88192650000565,172.88192650000565,173.24825190001866,173.24825190001866,173.24825190001866,173.24825190001866,173.24825190001866,173.24825190001866,173.24825190001866,173.24825190001866,173.24825190001866,22,1,[0.0012933000107295811],[0.017382499994710088],173.24825190001866,173.44858339999337,0.0,173.44858339999337,0,0.0,0,1,1000,num_1,0.713815099967178,,27,4,2026-03-05_13h25.52.163,2026A_exp2,2022.2.4,59.90488302077821,
1000,1,0.0,4.9,0,0,50,50,26,,,,,174.18233979999786,174.81659350002883,174.81659350002883,175.31772170000477,315,45,175.31772170000477,175.31772170000477,175.31772170000477,175.31772170000477,175.31772170000477,175.31772170000477,175.31772170000477,175.31772170000477,175.31772170000477,175.68411400000332,175.68411400000332,175.68411400000332,175.68411400000332,175.68411400000332,175.68411400000332,175.68411400000332,175.68411400000332,175.68411400000332,15,3,"[0.001202200015541166, 0.050332400016486645, 0.10040509997634217]","[0.017539600026793778, 0.0836546000209637, 0.18395239999517798]",175.68411400000332,175.88601000001654,1000,175.88601000001654,1000,1000,1000,1000,1,num_2,0.508624299953226,,27,4,2026-03-05_13h25.52.163,2026A_exp2,2022.2.4,59.90488302077821,
1,0,0.0,0.0,0,0,51,51,79,,,,,176.4180517999921,177.0687135999906,177.0687135999906,177.56985179998446,45,45,177.56985179998446,177.56985179998446,177.56985179998446,177.56985179998446,177.56985179998446,177.56985179998446,177.56985179998446,177.56985179998446,177.56985179998446,177.93632450001314,177.93632450001314,177.93632450001314,177.93632450001314,177.93632450001314,177.93632450001314,177.93632450001314,177.93632450001314,177.93632450001314,9,5,"[0.001198899990413338, 0.033729500020854175, 0.06703209999250248, 0.15046239999355748, 0.2672057999880053]","[0.017456699977628887, 0.05027080001309514, 0.13375290000112727, 0.1670897000003606, 0.3671957000042312]",177.93632450001314,178.13677610002924,0.0,178.13677610002924,1,0.0,0,0,1000,num_4,0.6746365000144579,,27,4,2026-03-05_13h25.52.163,2026A_exp2,2022.2.4,59.90488302077821,
1,0,0.0,0.0,1,0,52,52,49,,,,,178.83712229999946,179.4879575999803,179.4879575999803,179.97233820002293,45,315,179.97233820002293,179.97233820002293,179.97233820002293,179.97233820002293,179.97233820002293,179.97233820002293,179.97233820002293,179.97233820002293,179.97233820002293,180.33868069999153,180.33868069999153,180.33868069999153,180.33868069999153,180.33868069999153,180.33868069999153,180.33868069999153,180.33868069999153,180.33868069999153,11,3,"[0.0012524999910965562, 0.1502912999712862, 0.28334019996691495]","[0.03362810000544414, 0.2171167999622412, 0.3671852999832481]",180.33868069999153,180.5389955000137,0.0,180.5389955000137,0,0.0,0,1,1000,num_1,1.4791891999775544,,27,4,2026-03-05_13h25.52.163,2026A_exp2,2022.2.4,59.90488302077821,
1,0,0.0,0.0,1,0,53,53,39,,,,,182.04031459998805,182.69127810001373,182.69127810001373,183.17556360003073,45,45,183.17556360003073,183.17556360003073,183.17556360003073,183.17556360003073,183.17556360003073,183.17556360003073,183.17556360003073,183.17556360003073,183.17556360003073,183.54201939998893,183.54201939998893,183.54201939998893,183.54201939998893,183.54201939998893,183.54201939998893,183.54201939998893,183.54201939998893,183.54201939998893,4,4,"[0.0011959999683313072, 0.15030909999040887, 0.3001650999649428, 0.35057820001384243]","[0.1336320000118576, 0.2834485999774188, 0.33383899996988475, 0.3672278000158258]",183.54201939998893,183.7421420000028,0.0,183.7421420000028,0,0.0,0,1,1000,num_1,0.7879914999939501,,27,4,2026-03-05_13h25.52.163,2026A_exp2,2022.2.4,59.90488302077821,
1,0,6.1,6.1,1,0,54,54,23,,,,,184.5596702999901,185.21032920002472,185.21032920002472,185.6946700999979,315,45,185.6946700999979,185.6946700999979,185.6946700999979,185.6946700999979,185.6946700999979,185.6946700999979,185.6946700999979,185.6946700999979,185.6946700999979,186.06103909999365,186.06103909999365,186.06103909999365,186.06103909999365,186.06103909999365,186.06103909999365,186.06103909999365,186.06103909999365,186.06103909999365,13,4,"[0.03336609998950735, 0.13358560000779107, 0.2335606999695301, 0.31730890000471845]","[0.08344050002051517, 0.16678379999939352, 0.2670676999841817, 0.3670664000092074]",186.06103909999365,186.26143329998013,6.1,186.26143329998013,1,6.1,1,1,1000,num_4,0.7733262000256218,,27,4,2026-03-05_13h25.52.163,2026A_exp2,2022.2.4,59.90488302077821,
1000,1,0.0,4.9,0,0,55,55,60,,,,,187.06209190003574,187.712743400014,187.712743400014,188.19729859998915,45,315,188.19729859998915,188.19729859998915,188.19729859998915,188.19729859998915,188.19729859998915,188.19729859998915,188.19729859998915,188.19729859998915,188.19729859998915,188.56340119999368,188.56340119999368,188.56340119999368,188.56340119999368,188.56340119999368,188.56340119999368,188.56340119999368,188.56340119999368,188.56340119999368,11,4,"[0.0008164999890141189, 0.08394779998343438, 0.20058579999022186, 0.3171973999706097]","[0.05038480000803247, 0.133854599960614, 0.25058379996335134, 0.3671131000155583]",188.56340119999368,188.76601600000868,1000,188.76601600000868,1000,1000,1000,1000,1,num_2,0.5006401999853551,,27,4,2026-03-05_13h25.52.163,2026A_exp2,2022.2.4,59.90488302077821,
1,0,4.9,3.7,0,0,56,56,44,,,,,189.29761619999772,189.9483326000045,189.9483326000045,190.44952760002343,315,315,190.44952760002343,190.44952760002343,190.44952760002343,190.44952760002343,190.44952760002343,190.44952760002343,190.44952760002343,190.44952760002343,190.44952760002343,190.8159209000296,190.8159209000296,190.8159209000296,190.8159209000296,190.8159209000296,190.8159209000296,190.8159209000296,190.8159209000296,190.8159209000296,9,5,"[0.01734049996593967, 0.0668495999998413, 0.2168491999618709, 0.3004335999721661, 0.3672153999796137]","[0.05007339996518567, 0.1666737999767065, 0.2668345000129193, 0.33378459996310994, 0.36722129996633157]",190.8159209000296,191.01597639999818,4.9,191.01597639999818,1,4.9,1,1,1000,num_4,0.7472778999945149,,27,4,2026-03-05_13h25.52.163,2026A_exp2,2022.2.4,59.90488302077821,
1,0,3.7,4.9,1,0,57,57,20,,,,,191.78337090002606,192.43433030002052,192.43433030002052,192.91852700000163,315,315,192.91852700000163,192.91852700000163,192.91852700000163,192.91852700000163,192.91852700000163,192.91852700000163,192.91852700000163,192.91852700000163,192.91852700000163,193.2850935999886,193.2850935999886,193.2850935999886,193.2850935999886,193.2850935999886,193.2850935999886,193.2850935999886,193.2850935999886,193.2850935999886,7,4,"[0.0011115000233985484, 0.06692030001431704, 0.1670777999679558, 0.3338761000195518]","[0.03342749999137595, 0.15032529999734834, 0.2671507999766618, 0.36726079997606575]",193.2850935999886,193.48518180003157,4.9,193.48518180003157,1,4.9,1,1,1000,num_4,0.7169295999919996,,27,4,2026-03-05_13h25.52.163,2026A_exp2,2022.2.4,59.90488302077821,
1,0,0.0,0.0,1,0,58,58,42,,,,,194.2192118000239,194.86999239999568,194.86999239999568,195.35435350000625,315,45,195.35435350000625,195.35435350000625,195.35435350000625,195.35435350000625,195.35435350000625,195.35435350000625,195.35435350000625,195.35435350000625,195.35435350000625,195.72082660003798,195.72082660003798,195.72082660003798,195.72082660003798,195.72082660003798,195.72082660003798,195.72082660003798,195.72082660003798,195.72082660003798,20,3,"[0.0010454000439494848, 0.23396230000071228, 0.26726010005222633]","[0.0173007000121288, 0.250460600014776, 0.28395170002477244]",195.72082660003798,195.9210758000263,0.0,195.9210758000263,1,0.0,0,0,1000,num_4,0.6410597000503913,,27,4,2026-03-05_13h25.52.163,2026A_exp2,2022.2.4,59.90488302077821,
1,0,4.9,0.0,0,0,59,59,53,,,,,196.58817479998106,197.2390546000097,197.2390546000097,197.72330730000976,315,315,197.72330730000976,197.72330730000976,197.72330730000976,197.72330730000976,197.72330730000976,197.72330730000976,197.72330730000976,197.72330730000976,197.72330730000976,198.08976960001746,198.08976960001746,198.08976960001746,198.08976960001746,198.08976960001746,198.08976960001746,198.08976960001746,198.08976960001746,198.08976960001746,21,2,"[0.1335967000341043, 0.36730560002615675]","[0.15020249999361113, 0.36731140001211315]",198.08976960001746,198.29009279998718,4.9,198.29009279998718,1,4.9,1,1,1000,num_4,0.456647300045006,,27,4,2026-03-05_13h25.52.163,2026A_exp2,2022.2.4,59.90488302077821,
1000,1,3.7,0.0,0,0,60,60,56,,,,,198.77372800000012,199.42452880000928,199.42452880000928,199.90876780002145,315,315,199.90876780002145,199.90876780002145,199.90876780002145,199.90876780002145,199.90876780002145,199.90876780002145,199.90876780002145,199.90876780002145,199.90876780002145,200.27541790000396,200.27541790000396,200.27541790000396,200.27541790000396,200.27541790000396,200.27541790000396,200.27541790000396,200.27541790000396,200.27541790000396,22,1,[0.03329940000548959],[0.04998250002972782],200.27541790000396,200.47758900001645,1000,200.47758900001645,1000,1000,1000,1000,0,num_3,0.5412925999844447,,27,4,2026-03-05_13h25.52.163,2026A_exp2,2022.2.4,59.90488302077821,
1000,1,3.7,0.0,0,0,61,61,76,,,,,201.04269410000416,201.69337019999512,201.69337019999512,202.19462670001667,315,45,202.19462670001667,202.19462670001667,202.19462670001667,202.19462670001667,202.19462670001667,202.19462670001667,202.19462670001667,202.19462670001667,202.19462670001667,202.5609440000262,202.5609440000262,202.5609440000262,202.5609440000262,202.5609440000262,202.5609440000262,202.5609440000262,202.5609440000262,202.5609440000262,13,3,"[0.0012191000278107822, 0.1336081000044942, 0.25042799999937415]","[0.10025620000669733, 0.16704000002937391, 0.2838395000435412]",202.5609440000262,202.76331539999228,1000,202.76331539999228,1000,1000,1000,1000,0,num_3,0.4388628000160679,,27,4,2026-03-05_13h25.52.163,2026A_exp2,2022.2.4,59.90488302077821,
1000,1,4.9,0.0,1,0,62,62,77,,,,,203.22828270000173,203.87898270000005,203.87898270000005,204.37979129998712,315,315,204.37979129998712,204.37979129998712,204.37979129998712,204.37979129998712,204.37979129998712,204.37979129998712,204.37979129998712,204.37979129998712,204.37979129998712,204.74652230000356,204.74652230000356,204.74652230000356,204.74652230000356,204.74652230000356,204.74652230000356,204.74652230000356,204.74652230000356,204.74652230000356,23,0,,,204.74652230000356,204.94828150002286,1000,204.94828150002286,1000,1000,1000,1000,0,num_3,0.63059879996581,,27,4,2026-03-05_13h25.52.163,2026A_exp2,2022.2.4,59.90488302077821,
1,0,6.1,4.9,1,0,63,63,64,,,,,205.5972296000109,206.24785680003697,206.24785680003697,206.74903539998922,315,315,206.74903539998922,206.74903539998922,206.74903539998922,206.74903539998922,206.74903539998922,206.74903539998922,206.74903539998922,206.74903539998922,206.74903539998922,207.11558370001148,207.11558370001148,207.11558370001148,207.11558370001148,207.11558370001148,207.11558370001148,207.11558370001148,207.11558370001148,207.11558370001148,23,0,,,207.11558370001148,207.31574669998372,4.9,207.31574669998372,1,4.9,1,1,1000,num_4,0.4702440000255592,,27,4,2026-03-05_13h25.52.163,2026A_exp2,2022.2.4,59.90488302077821,
1000,1,6.1,3.7,0,0,64,64,75,,,,,207.8163893999881,208.4501431999961,208.4501431999961,208.95130399998743,315,315,208.95130399998743,208.95130399998743,208.95130399998743,208.95130399998743,208.95130399998743,208.95130399998743,208.95130399998743,208.95130399998743,208.95130399998743,209.31773619999876,209.31773619999876,209.31773619999876,209.31773619999876,209.31773619999876,209.31773619999876,209.31773619999876,209.31773619999876,209.31773619999876,20,3,"[0.13339069997891784, 0.16687289997935295, 0.36655249999603257]","[0.15026760002365336, 0.18342429999029264, 0.36655590002192184]",209.31773619999876,209.51976960001048,1000,209.51976960001048,1000,1000,1000,1000,0,num_3,0.435118000023067,,27,4,2026-03-05_13h25.52.163,2026A_exp2,2022.2.4,59.90488302077821,
1000,1,0.0,0.0,0,0,65,65,86,,,,,209.98501030000625,210.63574019999942,210.63574019999942,211.1368054000195,315,315,211.1368054000195,211.1368054000195,211.1368054000195,211.1368054000195,211.1368054000195,211.1368054000195,211.1368054000195,211.1368054000195,211.1368054000195,211.5033052000217,211.5033052000217,211.5033052000217,211.5033052000217,211.5033052000217,211.5033052000217,211.5033052000217,211.5033052000217,211.5033052000217,14,6,"[0.11699559999397025, 0.1836771999951452, 0.2334119000006467, 0.26701529999263585, 0.30036490003112704, 0.3339425000012852]","[0.15044729999499395, 0.2171290999976918, 0.25017600000137463, 0.2839185000048019, 0.3172310999943875, 0.3672529000323266]",211.5033052000217,211.70531560003292,1000,211.70531560003292,1000,1000,1000,1000,0,num_3,0.5526564000174403,,27,4,2026-03-05_13h25.52.163,2026A_exp2,2022.2.4,59.90488302077821,
1,0,0.0,6.1,1,0,66,66,31,,,,,212.28740259999176,212.93799230002332,212.93799230002332,213.4389936000225,45,45,213.4389936000225,213.4389936000225,213.4389936000225,213.4389936000225,213.4389936000225,213.4389936000225,213.4389936000225,213.4389936000225,213.4389936000225,213.80540790001396,213.80540790001396,213.80540790001396,213.80540790001396,213.80540790001396,213.80540790001396,213.80540790001396,213.80540790001396,213.80540790001396,23,0,,,213.80540790001396,214.00563979998697,6.1,214.00563979998697,1,6.1,1,1,1000,num_4,0.6923591999802738,,27,4,2026-03-05_13h25.52.163,2026A_exp2,2022.2.4,59.90488302077821,
1000,1,4.9,4.9,1,0,67,67,68,,,,,214.72272720001638,215.3738297999953,215.3738297999953,215.85818989999825,315,45,215.85818989999825,215.85818989999825,215.85818989999825,215.85818989999825,215.85818989999825,215.85818989999825,215.85818989999825,215.85818989999825,215.85818989999825,216.22461289999774,216.22461289999774,216.22461289999774,216.22461289999774,216.22461289999774,216.22461289999774,216.22461289999774,216.22461289999774,216.22461289999774,23,0,,,216.22461289999774,216.42669440002646,1000,216.42669440002646,1000,1000,1000,1000,1,num_2,0.6007542999577709,,27,4,2026-03-05_13h25.52.163,2026A_exp2,2022.2.4,59.90488302077821,
1000,1,0.0,4.9,0,0,68,68,61,,,,,217.058980300033,217.70941900002072,217.70941900002072,218.21050859999377,45,315,218.21050859999377,218.21050859999377,218.21050859999377,218.21050859999377,218.21050859999377,218.21050859999377,218.21050859999377,218.21050859999377,218.21050859999377,218.57682910002768,218.57682910002768,218.57682910002768,218.57682910002768,218.57682910002768,218.57682910002768,218.57682910002768,218.57682910002768,218.57682910002768,23,0,,,218.57682910002768,218.77902610000456,1000,218.77902610000456,1000,1000,1000,1000,1,num_2,0.3996384000056423,,27,4,2026-03-05_13h25.52.163,2026A_exp2,2022.2.4,59.90488302077821,
1000,1,0.0,0.0,0,0,69,69,5,,,,,219.1942322999821,219.84502180002164,219.84502180002164,220.34604600002058,45,315,220.34604600002058,220.34604600002058,220.34604600002058,220.34604600002058,220.34604600002058,220.34604600002058,220.34604600002058,220.34604600002058,220.34604600002058,220.71247929998208,220.71247929998208,220.71247929998208,220.71247929998208,220.71247929998208,220.71247929998208,220.71247929998208,220.71247929998208,220.71247929998208,23,0,,,220.71247929998208,220.9146384000196,1000,220.9146384000196,1000,1000,1000,1000,0,num_3,0.43214950000401586,,27,4,2026-03-05_13h25.52.163,2026A_exp2,2022.2.4,59.90488302077821,
1,0,0.0,0.0,1,0,70,70,69,,,,,221.36303579999367,222.01371660002042,222.01371660002042,222.51488390000304,315,45,222.51488390000304,222.51488390000304,222.51488390000304,222.51488390000304,222.51488390000304,222.51488390000304,222.51488390000304,222.51488390000304,222.51488390000304,222.8813784000231,222.8813784000231,222.8813784000231,222.8813784000231,222.8813784000231,222.8813784000231,222.8813784000231,222.8813784000231,222.8813784000231,23,0,,,222.8813784000231,223.08156489999965,0.0,223.08156489999965,1,0.0,0,0,1000,num_4,0.6333764999872074,,27,4,2026-03-05_13h25.52.163,2026A_exp2,2022.2.4,59.90488302077821,
1000,1,0.0,0.0,0,0,71,71,17,,,,,223.73219350003637,224.38278709998121,224.38278709998121,224.8672651000088,315,45,224.8672651000088,224.8672651000088,224.8672651000088,224.8672651000088,224.8672651000088,224.8672651000088,224.8672651000088,224.8672651000088,224.8672651000088,225.23362670000643,225.23362670000643,225.23362670000643,225.23362670000643,225.23362670000643,225.23362670000643,225.23362670000643,225.23362670000643,225.23362670000643,14,3,"[0.1668974999920465, 0.2837763999705203, 0.31716819998109713]","[0.23369560000719503, 0.3003366999910213, 0.36715449998155236]",225.23362670000643,225.4358541999827,1000,225.4358541999827,1000,1000,1000,1000,0,num_3,0.5109590000356548,,27,4,2026-03-05_13h25.52.163,2026A_exp2,2022.2.4,59.90488302077821,
1,0,3.7,3.7,1,0,72,72,30,,,,,225.96760740003083,226.61843909998424,226.61843909998424,227.11943180003436,315,315,227.11943180003436,227.11943180003436,227.11943180003436,227.11943180003436,227.11943180003436,227.11943180003436,227.11943180003436,227.11943180003436,227.11943180003436,227.48593710002024,227.48593710002024,227.48593710002024,227.48593710002024,227.48593710002024,227.48593710002024,227.48593710002024,227.48593710002024,227.48593710002024,11,8,"[0.0012135999859310687, 0.033670200034976006, 0.0669488999992609, 0.13363629998639226, 0.18372989998897538, 0.21715690003475174, 0.30063170002540573, 0.367212200013455]","[0.01739540003472939, 0.05037559999618679, 0.08375140000134706, 0.16708270000526682, 0.20036349998554215, 0.2504785000346601, 0.3506104000261985, 0.36721769999712706]",227.48593710002024,227.68607250001514,3.7,227.68607250001514,1,3.7,1,1,1000,num_4,0.5562029999564402,,27,4,2026-03-05_13h25.52.163,2026A_exp2,2022.2.4,59.90488302077821,
1,0,0.0,3.7,1,0,73,73,35,,,,,228.270111299993,228.9207327000331,228.9207327000331,229.40503279998666,45,315,229.40503279998666,229.40503279998666,229.40503279998666,229.40503279998666,229.40503279998666,229.40503279998666,229.40503279998666,229.40503279998666,229.40503279998666,229.77148140000645,229.77148140000645,229.77148140000645,229.77148140000645,229.77148140000645,229.77148140000645,229.77148140000645,229.77148140000645,229.77148140000645,19,3,"[0.033526599989272654, 0.11687319999327883, 0.1501686000265181]","[0.05016879999311641, 0.13361760001862422, 0.1835651000146754]",229.77148140000645,229.9716466999962,3.7,229.9716466999962,1,3.7,1,1,1000,num_4,0.4154273999738507,,27,4,2026-03-05_13h25.52.163,2026A_exp2,2022.2.4,59.90488302077821,
1,0,0.0,6.1,1,0,74,74,50,,,,,230.4052909000311,231.05617689999053,231.05617689999053,231.54062119999435,315,45,231.54062119999435,231.54062119999435,231.54062119999435,231.54062119999435,231.54062119999435,231.54062119999435,231.54062119999435,231.54062119999435,231.54062119999435,231.9069840000011,231.9069840000011,231.9069840000011,231.9069840000011,231.9069840000011,231.9069840000011,231.9069840000011,231.9069840000011,231.9069840000011,10,5,"[0.03340119996573776, 0.15017330000409856, 0.18353109998861328, 0.2336354999570176, 0.3169812000123784]","[0.1335405000136234, 0.16699359996709973, 0.20024209999246523, 0.25031199998920783, 0.3670475999824703]",231.9069840000011,232.1070963999955,6.1,232.1070963999955,1,6.1,1,1,1000,num_4,0.38332980003906414,,27,4,2026-03-05_13h25.52.163,2026A_exp2,2022.2.4,59.90488302077821,
0,0,3.7,0.0,0,0,75,75,62,,,,,232.50748199998634,233.15814459999092,233.15814459999092,233.64273660001345,315,45,233.64273660001345,233.64273660001345,233.64273660001345,233.64273660001345,233.64273660001345,233.64273660001345,233.64273660001345,233.64273660001345,233.64273660001345,234.00916040001903,234.00916040001903,234.00916040001903,234.00916040001903,234.00916040001903,234.00916040001903,234.00916040001903,234.00916040001903,234.00916040001903,18,3,"[0.11665159999392927, 0.15015060000587255, 0.21699569997144863]","[0.13350609998451546, 0.167008199961856, 0.26707139995414764]",234.00916040001903,234.20913360000122,0.0,234.20913360000122,0,0.0,0,1,1000,num_1,0.6100017999997362,,27,4,2026-03-05_13h25.52.163,2026A_exp2,2022.2.4,59.90488302077821,
0,0,6.1,4.9,0,0,76,76,22,,,,,234.8430778000038,235.4938172000111,235.4938172000111,235.9783657999942,315,315,235.9783657999942,235.9783657999942,235.9783657999942,235.9783657999942,235.9783657999942,235.9783657999942,235.9783657999942,235.9783657999942,235.9783657999942,236.34485920000589,236.34485920000589,236.34485920000589,236.34485920000589,236.34485920000589,236.34485920000589,236.34485920000589,236.34485920000589,236.34485920000589,19,3,"[0.05001920001814142, 0.21714399999473244, 0.2668046000180766]","[0.06676610000431538, 0.2362993999850005, 0.2999967000214383]",236.34485920000589,236.5449021999957,4.9,236.5449021999957,1,4.9,1,1,1000,num_4,1.1694673000019975,,27,4,2026-03-05_13h25.52.163,2026A_exp2,2022.2.4,59.90488302077821,
1000,1,3.7,6.1,1,0,77,77,58,,,,,237.74613600003067,238.39669090003008,238.39669090003008,238.8949685000116,315,315,238.8949685000116,238.8949685000116,238.8949685000116,238.8949685000116,238.8949685000116,238.8949685000116,238.8949685000116,238.8949685000116,238.8949685000116,239.2478126999922,239.2478126999922,239.2478126999922,239.2478126999922,239.2478126999922,239.2478126999922,239.2478126999922,239.2478126999922,239.2478126999922,20,3,"[0.09845099999802187, 0.298681799962651, 0.3653667999897152]","[0.11517929995898157, 0.3153203999972902, 0.36537849996238947]",239.2478126999922,239.4614653000026,1000,239.4614653000026,1000,1000,1000,1000,1,num_2,0.5098908999934793,,27,4,2026-03-05_13h25.52.163,2026A_exp2,2022.2.4,59.90488302077821,
1000,1,6.1,0.0,1,0,78,78,29,,,,,239.99831970001105,240.6491458999808,240.6491458999808,241.15013590001035,45,315,241.15013590001035,241.15013590001035,241.15013590001035,241.15013590001035,241.15013590001035,241.15013590001035,241.15013590001035,241.15013590001035,241.15013590001035,241.51660319999792,241.51660319999792,241.51660319999792,241.51660319999792,241.51660319999792,241.51660319999792,241.51660319999792,241.51660319999792,241.51660319999792,21,3,"[0.0012387000024318695, 0.10014370002318174, 0.2505106999888085]","[0.017317700025159866, 0.11677920003421605, 0.2669181000092067]",241.51660319999792,241.71909209998557,1000,241.71909209998557,1000,1000,1000,1000,0,num_3,0.4763294000294991,,27,4,2026-03-05_13h25.52.163,2026A_exp2,2022.2.4,59.90488302077821,
1000,1,4.9,0.0,0,0,79,79,41,,,,,242.2171598999994,242.86778939998476,242.86778939998476,243.36895760003245,315,315,243.36895760003245,243.36895760003245,243.36895760003245,243.36895760003245,243.36895760003245,243.36895760003245,243.36895760003245,243.36895760003245,243.36895760003245,243.73547389998566,243.73547389998566,243.73547389998566,243.73547389998566,243.73547389998566,243.73547389998566,243.73547389998566,243.73547389998566,243.73547389998566,13,8,"[0.0012996000004932284, 0.05033569998340681, 0.08368029998382553, 0.15030470001511276, 0.18358660000376403, 0.2171323000220582, 0.25044859998160973, 0.3005855000228621]","[0.017464499978814274, 0.06685339997056872, 0.11702760000480339, 0.16721889999462292, 0.2004126000101678, 0.23368060000939295, 0.26698939997004345, 0.3338736000005156]",243.73547389998566,243.93740679998882,1000,243.93740679998882,1000,1000,1000,1000,0,num_3,0.4339966999832541,,27,4,2026-03-05_13h25.52.163,2026A_exp2,2022.2.4,59.90488302077821,
1,0,6.1,0.0,0,0,80,80,82,,,,,244.4027916000341,245.05346860003192,245.05346860003192,245.55454250000184,45,315,245.55454250000184,245.55454250000184,245.55454250000184,245.55454250000184,245.55454250000184,245.55454250000184,245.55454250000184,245.55454250000184,245.55454250000184,245.921006700024,245.921006700024,245.921006700024,245.921006700024,245.921006700024,245.921006700024,245.921006700024,245.921006700024,245.921006700024,16,3,"[0.0012042000307701528, 0.06694600003538653, 0.1671531000174582]","[0.03367380000418052, 0.13380920002236962, 0.1838630000129342]",245.921006700024,246.12112329999218,6.1,246.12112329999218,1,6.1,1,1,1000,num_4,0.7621244000038132,,27,4,2026-03-05_13h25.52.163,2026A_exp2,2022.2.4,59.90488302077821,
1000,1,0.0,6.1,1,0,81,81,71,,,,,246.9052559999982,247.5558536000317,247.5558536000317,248.04024070000742,315,315,248.04024070000742,248.04024070000742,248.04024070000742,248.04024070000742,248.04024070000742,248.04024070000742,248.04024070000742,248.04024070000742,248.04024070000742,248.40642710000975,248.40642710000975,248.40642710000975,248.40642710000975,248.40642710000975,248.40642710000975,248.40642710000975,248.40642710000975,248.40642710000975,21,2,"[0.0013022999628446996, 0.2337462999857962]","[0.017375399998854846, 0.2505770999705419]",248.40642710000975,248.60847650002688,1000,248.60847650002688,1000,1000,1000,1000,1,num_2,0.5065127999987453,,27,4,2026-03-05_13h25.52.163,2026A_exp2,2022.2.4,59.90488302077821,
1,0,0.0,6.1,1,0,82,82,33,,,,,249.14116920001106,249.7916445999872,249.7916445999872,250.2925879000104,45,315,250.2925879000104,250.2925879000104,250.2925879000104,250.2925879000104,250.2925879000104,250.2925879000104,250.2925879000104,250.2925879000104,250.2925879000104,250.65899670001818,250.65899670001818,250.65899670001818,250.65899670001818,250.65899670001818,250.65899670001818,250.65899670001818,250.65899670001818,250.65899670001818,22,1,[0.2507486999966204],[0.28386259998660535],250.65899670001818,250.85927000001539,6.1,250.85927000001539,1,6.1,1,1,1000,num_4,0.5121867999550886,,27,4,2026-03-05_13h25.52.163,2026A_exp2,2022.2.4,59.90488302077821,
0,0,0.0,0.0,1,0,83,83,2,,,,,251.3929137000232,252.04377580003347,252.04377580003347,252.52820619998965,45,315,252.52820619998965,252.52820619998965,252.52820619998965,252.52820619998965,252.52820619998965,252.52820619998965,252.52820619998965,252.52820619998965,252.52820619998965,252.89467910001986,252.89467910001986,252.89467910001986,252.89467910001986,252.89467910001986,252.89467910001986,252.89467910001986,252.89467910001986,252.89467910001986,20,3,"[0.06714519998058677, 0.15080529998522252, 0.36772320000454783]","[0.08400979998987168, 0.18415649997768924, 0.3677290999912657]",252.89467910001986,253.09493999998085,0.0,253.09493999998085,1,0.0,0,0,1000,num_4,0.8192115999991074,,27,4,2026-03-05_13h25.52.163,2026A_exp2,2022.2.4,59.90488302077821,
1000,1,6.1,6.1,1,0,84,84,8,,,,,253.94566830003168,254.59622310003033,254.59622310003033,255.08067910000682,45,45,255.08067910000682,255.08067910000682,255.08067910000682,255.08067910000682,255.08067910000682,255.08067910000682,255.08067910000682,255.08067910000682,255.08067910000682,255.44719969999278,255.44719969999278,255.44719969999278,255.44719969999278,255.44719969999278,255.44719969999278,255.44719969999278,255.44719969999278,255.44719969999278,23,0,,,255.44719969999278,255.64906060002977,1000,255.64906060002977,1000,1000,1000,1000,1,num_2,0.5530218000058085,,27,4,2026-03-05_13h25.52.163,2026A_exp2,2022.2.4,59.90488302077821,
0,0,4.9,3.7,0,0,85,85,28,,,,,256.23153590003494,256.88174739998067,256.88174739998067,257.3829600000172,315,315,257.3829600000172,257.3829600000172,257.3829600000172,257.3829600000172,257.3829600000172,257.3829600000172,257.3829600000172,257.3829600000172,257.3829600000172,257.7494611000293,257.7494611000293,257.7494611000293,257.7494611000293,257.7494611000293,257.7494611000293,257.7494611000293,257.7494611000293,257.7494611000293,22,1,[0.0012241000076755881],[0.017441099975258112],257.7494611000293,257.9496244000038,3.7,257.9496244000038,0,3.7,1,0,1000,num_1,0.7579976000124589,,27,4,2026-03-05_13h25.52.163,2026A_exp2,2022.2.4,59.90488302077821,
1,0,6.1,0.0,0,0,86,86,47,,,,,258.7337039000122,259.3842885000049,259.3842885000049,259.8689424000331,315,315,259.8689424000331,259.8689424000331,259.8689424000331,259.8689424000331,259.8689424000331,259.8689424000331,259.8689424000331,259.8689424000331,259.8689424000331,260.23534870002186,260.23534870002186,260.23534870002186,260.23534870002186,260.23534870002186,260.23534870002186,260.23534870002186,260.23534870002186,260.23534870002186,2,3,"[0.0012959000305272639, 0.3004697000142187, 0.3336610000114888]","[0.2837125000078231, 0.3170354000176303, 0.36712060001445934]",260.23534870002186,260.43555609998293,6.1,260.43555609998293,1,6.1,1,1,1000,num_4,0.702578500029631,,27,4,2026-03-05_13h25.52.163,2026A_exp2,2022.2.4,59.90488302077821,
1000,1,0.0,0.0,1,0,87,87,9,,,,,261.169384000008,261.8202580999932,261.8202580999932,262.3045620000339,45,315,262.3045620000339,262.3045620000339,262.3045620000339,262.3045620000339,262.3045620000339,262.3045620000339,262.3045620000339,262.3045620000339,262.3045620000339,262.6708533000201,262.6708533000201,262.6708533000201,262.6708533000201,262.6708533000201,262.6708533000201,262.6708533000201,262.6708533000201,262.6708533000201,13,4,"[0.0012330000172369182, 0.033399100007954985, 0.16698899999028072, 0.2503080000169575]","[0.017194700019899756, 0.13347990001784638, 0.20020119997207075, 0.26697659998899326]",262.6708533000201,262.8733265000046,1000,262.8733265000046,1000,1000,1000,1000,1,num_2,0.561802499985788,,27,4,2026-03-05_13h25.52.163,2026A_exp2,2022.2.4,59.90488302077821,
1,0,0.0,6.1,1,0,88,88,36,,,,,263.45901009999216,264.1058224000153,264.1058224000153,264.60685620002914,315,45,264.60685620002914,264.60685620002914,264.60685620002914,264.60685620002914,264.60685620002914,264.60685620002914,264.60685620002914,264.60685620002914,264.60685620002914,264.97336060000816,264.97336060000816,264.97336060000816,264.97336060000816,264.97336060000816,264.97336060000816,264.97336060000816,264.97336060000816,264.97336060000816,0,1,[0.0012986999936401844],[0.3672785999951884],264.97336060000816,265.1734294000198,6.1,265.1734294000198,1,6.1,1,1,1000,num_4,0.5647257999517024,,27,4,2026-03-05_13h25.52.163,2026A_exp2,2022.2.4,59.90488302077821,
1,0,0.0,6.1,0,0,89,89,0,,,,,265.7573760999949,266.4081547000096,266.4081547000096,266.892524600029,45,45,266.892524600029,266.892524600029,266.892524600029,266.892524600029,266.892524600029,266.892524600029,266.892524600029,266.892524600029,266.892524600029,267.258716500015,267.258716500015,267.258716500015,267.258716500015,267.258716500015,267.258716500015,267.258716500015,267.258716500015,267.258716500015,23,0,,,267.258716500015,267.4593098000041,0.0,267.4593098000041,0,0.0,0,1,1000,num_1,0.7834508999949321,,27,4,2026-03-05_13h25.52.163,2026A_exp2,2022.2.4,59.90488302077821,
,,,,,,,,,,,,,,,,,,,,,,,,,,,,,,,,,,,,,,,,,,,,,,,,,,,,268.2691718999995,,,,,,,
