validity,detectorcomp,contrastCW,contrastCCW,precueCWorCCW,block_80trials.thisRepN,block_80trials.thisTrialN,block_80trials.thisN,block_80trials.thisIndex,etRecord.started,etRecord.stopped,text.started,text.stopped,text_4.started,text_4.stopped,text_6.started,text_6.stopped,oriCW,oriCCW,roi_2.started,grating_UR.started,grating_UL.started,grating_LR.started,grating_LL.started,noise_UR.started,noise_UL.started,noise_LR.started,noise_LL.started,roi_2.stopped,grating_UR.stopped,grating_UL.stopped,grating_LR.stopped,grating_LL.stopped,noise_UR.stopped,noise_UL.stopped,noise_LR.stopped,noise_LL.stopped,outframe,roi_2.numLooks,roi_2.timesOn,roi_2.timesOff,text_2.started,text_2.stopped,probedcontrast,key_resp.started,respdetect,relevantContrast,correctDetect,TorFdetect,respCWorCCW,key_resp.keys,key_resp.rt,feedback_display_.started,participantNo,blockNo,date,expName,psychopyVersion,frameRate,
1000,1,3.7,3.7,0,0,0,0,59,3.470003139227629e-05,3.470003139227629e-05,62.31428369996138,64.321635100001,64.321635100001,64.9515584000037,64.9515584000037,65.47241039999062,45,45,65.47241039999062,65.47241039999062,65.47241039999062,65.47241039999062,65.47241039999062,65.47241039999062,65.47241039999062,65.47241039999062,65.47241039999062,65.8190978000057,65.8190978000057,65.8190978000057,65.8190978000057,65.8190978000057,65.8190978000057,65.8190978000057,65.8190978000057,65.8190978000057,23,0,,,65.8190978000057,66.02407639997546,1000,66.02407639997546,1000,1000,1000,1000,0,num_3,0.7364684999920428,,22,5,2026-03-04_11h03.44.032,2026A_exp2,2022.2.4,59.92042568263299,
1000,1,4.9,0.0,1,0,1,1,67,,,,,66.78692629997386,67.43731919996208,67.43731919996208,67.93858299998101,315,315,67.93858299998101,67.93858299998101,67.93858299998101,67.93858299998101,67.93858299998101,67.93858299998101,67.93858299998101,67.93858299998101,67.93858299998101,68.30502460000571,68.30502460000571,68.30502460000571,68.30502460000571,68.30502460000571,68.30502460000571,68.30502460000571,68.30502460000571,68.30502460000571,23,0,,,68.30502460000571,68.51631749997614,1000,68.51631749997614,1000,1000,1000,1000,0,num_3,1.9718448999919929,,22,5,2026-03-04_11h03.44.032,2026A_exp2,2022.2.4,59.92042568263299,
1000,1,6.1,4.9,0,0,2,2,51,,,,,70.50728530000197,71.15780619997531,71.15780619997531,71.65888499998255,315,45,71.65888499998255,71.65888499998255,71.65888499998255,71.65888499998255,71.65888499998255,71.65888499998255,71.65888499998255,71.65888499998255,71.65888499998255,72.02536309999414,72.02536309999414,72.02536309999414,72.02536309999414,72.02536309999414,72.02536309999414,72.02536309999414,72.02536309999414,72.02536309999414,23,0,,,72.02536309999414,72.22740059997886,1000,72.22740059997886,1000,1000,1000,1000,0,num_3,0.6051810000208206,,22,5,2026-03-04_11h03.44.032,2026A_exp2,2022.2.4,59.92042568263299,
1000,1,6.1,0.0,1,0,3,3,79,,,,,72.85958749998827,73.51030570000876,73.51030570000876,74.0111920000054,315,315,74.0111920000054,74.0111920000054,74.0111920000054,74.0111920000054,74.0111920000054,74.0111920000054,74.0111920000054,74.0111920000054,74.0111920000054,74.37763429997722,74.37763429997722,74.37763429997722,74.37763429997722,74.37763429997722,74.37763429997722,74.37763429997722,74.37763429997722,74.37763429997722,23,0,,,74.37763429997722,74.57978899998125,1000,74.57978899998125,1000,1000,1000,1000,0,num_3,0.4515607999637723,,22,5,2026-03-04_11h03.44.032,2026A_exp2,2022.2.4,59.92042568263299,
1,0,0.0,4.9,1,0,4,4,54,,,,,75.06176549999509,75.71230079996167,75.71230079996167,76.21336860000156,45,315,76.21336860000156,76.21336860000156,76.21336860000156,76.21336860000156,76.21336860000156,76.21336860000156,76.21336860000156,76.21336860000156,76.21336860000156,76.57989629998337,76.57989629998337,76.57989629998337,76.57989629998337,76.57989629998337,76.57989629998337,76.57989629998337,76.57989629998337,76.57989629998337,23,0,,,76.57989629998337,76.77994959999342,4.9,76.77994959999342,1,4.9,1,1,1000,num_4,0.6274694000021555,,22,5,2026-03-04_11h03.44.032,2026A_exp2,2022.2.4,59.92042568263299,
1000,1,6.1,0.0,0,0,5,5,27,,,,,77.43082469998626,78.0646407000022,78.0646407000022,78.56593909999356,45,45,78.56593909999356,78.56593909999356,78.56593909999356,78.56593909999356,78.56593909999356,78.56593909999356,78.56593909999356,78.56593909999356,78.56593909999356,78.93215349997627,78.93215349997627,78.93215349997627,78.93215349997627,78.93215349997627,78.93215349997627,78.93215349997627,78.93215349997627,78.93215349997627,23,0,,,78.93215349997627,79.15198859997327,1000,79.15198859997327,1000,1000,1000,1000,0,num_3,0.48013510002056137,,22,5,2026-03-04_11h03.44.032,2026A_exp2,2022.2.4,59.92042568263299,
1000,1,0.0,6.1,1,0,6,6,13,,,,,79.649703699979,80.30011919996468,80.30011919996468,80.8057606999646,315,315,80.8057606999646,80.8057606999646,80.8057606999646,80.8057606999646,80.8057606999646,80.8057606999646,80.8057606999646,80.8057606999646,80.8057606999646,81.1678319000057,81.1678319000057,81.1678319000057,81.1678319000057,81.1678319000057,81.1678319000057,81.1678319000057,81.1678319000057,81.1678319000057,23,0,,,81.1678319000057,81.36974559997907,1000,81.36974559997907,1000,1000,1000,1000,1,num_2,0.3018373000086285,,22,5,2026-03-04_11h03.44.032,2026A_exp2,2022.2.4,59.92042568263299,
1000,1,0.0,6.1,0,0,7,7,16,,,,,81.70153139997274,82.35221390001243,82.35221390001243,82.85332629998447,315,45,82.85332629998447,82.85332629998447,82.85332629998447,82.85332629998447,82.85332629998447,82.85332629998447,82.85332629998447,82.85332629998447,82.85332629998447,83.2199711999856,83.2199711999856,83.2199711999856,83.2199711999856,83.2199711999856,83.2199711999856,83.2199711999856,83.2199711999856,83.2199711999856,23,0,,,83.2199711999856,83.4222697999794,1000,83.4222697999794,1000,1000,1000,1000,1,num_2,0.489790300023742,,22,5,2026-03-04_11h03.44.032,2026A_exp2,2022.2.4,59.92042568263299,
1,0,6.1,6.1,1,0,8,8,47,,,,,83.93710669997381,84.58775559999049,84.58775559999049,85.08873009996023,45,315,85.08873009996023,85.08873009996023,85.08873009996023,85.08873009996023,85.08873009996023,85.08873009996023,85.08873009996023,85.08873009996023,85.08873009996023,85.45542650000425,85.45542650000425,85.45542650000425,85.45542650000425,85.45542650000425,85.45542650000425,85.45542650000425,85.45542650000425,85.45542650000425,23,0,,,85.45542650000425,85.65545729995938,6.1,85.65545729995938,1,6.1,1,1,1000,num_4,0.7207070000004023,,22,5,2026-03-04_11h03.44.032,2026A_exp2,2022.2.4,59.92042568263299,
1,0,0.0,6.1,1,0,9,9,46,,,,,86.40629079996143,87.05710879998514,87.05710879998514,87.54134850000264,315,315,87.54134850000264,87.54134850000264,87.54134850000264,87.54134850000264,87.54134850000264,87.54134850000264,87.54134850000264,87.54134850000264,87.54134850000264,87.90779939998174,87.90779939998174,87.90779939998174,87.90779939998174,87.90779939998174,87.90779939998174,87.90779939998174,87.90779939998174,87.90779939998174,23,0,,,87.90779939998174,88.1080912000034,6.1,88.1080912000034,1,6.1,1,1,1000,num_4,0.41205689997877926,,22,5,2026-03-04_11h03.44.032,2026A_exp2,2022.2.4,59.92042568263299,
1,0,4.9,0.0,1,0,10,10,34,,,,,88.5418173999642,89.17587320000166,89.17587320000166,89.67699720000383,45,45,89.67699720000383,89.67699720000383,89.67699720000383,89.67699720000383,89.67699720000383,89.67699720000383,89.67699720000383,89.67699720000383,89.67699720000383,90.04319930000929,90.04319930000929,90.04319930000929,90.04319930000929,90.04319930000929,90.04319930000929,90.04319930000929,90.04319930000929,90.04319930000929,23,0,,,90.04319930000929,90.24359179998282,0.0,90.24359179998282,0,0.0,0,1,1000,num_1,0.8524279000121169,,22,5,2026-03-04_11h03.44.032,2026A_exp2,2022.2.4,59.92042568263299,
1000,1,3.7,0.0,0,0,11,11,39,,,,,91.12779790000059,91.77837059996091,91.77837059996091,92.2627657999983,315,315,92.2627657999983,92.2627657999983,92.2627657999983,92.2627657999983,92.2627657999983,92.2627657999983,92.2627657999983,92.2627657999983,92.2627657999983,92.62926369998604,92.62926369998604,92.62926369998604,92.62926369998604,92.62926369998604,92.62926369998604,92.62926369998604,92.62926369998604,92.62926369998604,23,0,,,92.62926369998604,92.83146119996672,1000,92.83146119996672,1000,1000,1000,1000,0,num_3,0.5049846000038087,,22,5,2026-03-04_11h03.44.032,2026A_exp2,2022.2.4,59.92042568263299,
1000,1,0.0,0.0,0,0,12,12,7,,,,,93.36324899998726,94.01397609995911,94.01397609995911,94.51512499997625,45,45,94.51512499997625,94.51512499997625,94.51512499997625,94.51512499997625,94.51512499997625,94.51512499997625,94.51512499997625,94.51512499997625,94.51512499997625,94.8815418999875,94.8815418999875,94.8815418999875,94.8815418999875,94.8815418999875,94.8815418999875,94.8815418999875,94.8815418999875,94.8815418999875,23,0,,,94.8815418999875,95.08375739998883,1000,95.08375739998883,1000,1000,1000,1000,1,num_2,1.6440814000088722,,22,5,2026-03-04_11h03.44.032,2026A_exp2,2022.2.4,59.92042568263299,
1000,1,6.1,4.9,0,0,13,13,81,,,,,96.74996449996252,97.40055339998798,97.40055339998798,97.90169179998338,315,45,97.90169179998338,97.90169179998338,97.90169179998338,97.90169179998338,97.90169179998338,97.90169179998338,97.90169179998338,97.90169179998338,97.90169179998338,98.25160730001517,98.25160730001517,98.25160730001517,98.25160730001517,98.25160730001517,98.25160730001517,98.25160730001517,98.25160730001517,98.25160730001517,22,0,,,98.25160730001517,98.45366880000802,1000,98.46846309996909,1000,1000,1000,1000,0,num_3,0.339403800026048,,22,5,2026-03-04_11h03.44.032,2026A_exp2,2022.2.4,59.92042568263299,
1,0,0.0,0.0,0,0,14,14,80,,,,,98.83542099996703,99.48618120001629,99.48618120001629,99.98719289997825,315,315,99.98719289997825,99.98719289997825,99.98719289997825,99.98719289997825,99.98719289997825,99.98719289997825,99.98719289997825,99.98719289997825,99.98719289997825,100.35371220001252,100.35371220001252,100.35371220001252,100.35371220001252,100.35371220001252,100.35371220001252,100.35371220001252,100.35371220001252,100.35371220001252,23,0,,,100.35371220001252,100.55394979997072,0.0,100.55394979997072,0,0.0,0,1,1000,num_1,1.1813505999743938,,22,5,2026-03-04_11h03.44.032,2026A_exp2,2022.2.4,59.92042568263299,
1000,1,0.0,3.7,0,0,15,15,63,,,,,101.75487780000549,102.40569829999004,102.40569829999004,102.89015110000037,315,315,102.89015110000037,102.89015110000037,102.89015110000037,102.89015110000037,102.89015110000037,102.89015110000037,102.89015110000037,102.89015110000037,102.89015110000037,103.25661829998717,103.25661829998717,103.25661829998717,103.25661829998717,103.25661829998717,103.25661829998717,103.25661829998717,103.25661829998717,103.25661829998717,23,0,,,103.25661829998717,103.45836509997025,1000,103.45836509997025,1000,1000,1000,1000,0,num_3,0.8850003000115976,,22,5,2026-03-04_11h03.44.032,2026A_exp2,2022.2.4,59.92042568263299,
1,0,0.0,0.0,0,0,16,16,87,,,,,104.37429489998613,105.02490799996303,105.02490799996303,105.52618019998772,315,45,105.52618019998772,105.52618019998772,105.52618019998772,105.52618019998772,105.52618019998772,105.52618019998772,105.52618019998772,105.52618019998772,105.52618019998772,105.89315359998727,105.89315359998727,105.89315359998727,105.89315359998727,105.89315359998727,105.89315359998727,105.89315359998727,105.89315359998727,105.89315359998727,23,0,,,105.89315359998727,106.09273199999006,0.0,106.09273199999006,0,0.0,0,1,1000,num_1,2.547166100004688,,22,5,2026-03-04_11h03.44.032,2026A_exp2,2022.2.4,59.92042568263299,
1,0,0.0,0.0,1,0,17,17,6,,,,,108.66183399996953,109.31253709999146,109.31253709999146,109.79702200001338,45,315,109.79702200001338,109.79702200001338,109.79702200001338,109.79702200001338,109.79702200001338,109.79702200001338,109.79702200001338,109.79702200001338,109.79702200001338,110.16344839998055,110.16344839998055,110.16344839998055,110.16344839998055,110.16344839998055,110.16344839998055,110.16344839998055,110.16344839998055,110.16344839998055,23,0,,,110.16344839998055,110.36363819998223,0.0,110.36363819998223,1,0.0,0,0,1000,num_4,0.8841696999734268,,22,5,2026-03-04_11h03.44.032,2026A_exp2,2022.2.4,59.92042568263299,
1000,1,4.9,6.1,0,0,18,18,36,,,,,111.26442809996661,111.91525459999684,111.91525459999684,112.39970090001589,45,315,112.39970090001589,112.39970090001589,112.39970090001589,112.39970090001589,112.39970090001589,112.39970090001589,112.39970090001589,112.39970090001589,112.39970090001589,112.76608599995961,112.76608599995961,112.76608599995961,112.76608599995961,112.76608599995961,112.76608599995961,112.76608599995961,112.76608599995961,112.76608599995961,23,0,,,112.76608599995961,112.96794369997224,1000,112.96794369997224,1000,1000,1000,1000,1,num_2,0.37614880001638085,,22,5,2026-03-04_11h03.44.032,2026A_exp2,2022.2.4,59.92042568263299,
1,0,0.0,4.9,0,0,19,19,14,,,,,113.37017860001652,114.01913639996201,114.01913639996201,114.51849190000212,315,45,114.51849190000212,114.51849190000212,114.51849190000212,114.51849190000212,114.51849190000212,114.51849190000212,114.51849190000212,114.51849190000212,114.51849190000212,114.88488209998468,114.88488209998468,114.88488209998468,114.88488209998468,114.88488209998468,114.88488209998468,114.88488209998468,114.88488209998468,114.88488209998468,23,0,,,114.88488209998468,115.08514769998146,0.0,115.08514769998146,0,0.0,0,1,1000,num_1,0.7232871999731287,,22,5,2026-03-04_11h03.44.032,2026A_exp2,2022.2.4,59.92042568263299,
1000,1,0.0,0.0,1,0,20,20,3,,,,,115.83572589996038,116.4864292999846,116.4864292999846,116.97097989998292,45,45,116.97097989998292,116.97097989998292,116.97097989998292,116.97097989998292,116.97097989998292,116.97097989998292,116.97097989998292,116.97097989998292,116.97097989998292,117.33730040001683,117.33730040001683,117.33730040001683,117.33730040001683,117.33730040001683,117.33730040001683,117.33730040001683,117.33730040001683,117.33730040001683,23,0,,,117.33730040001683,117.53953850001562,1000,117.53953850001562,1000,1000,1000,1000,1,num_2,1.1477004000335,,22,5,2026-03-04_11h03.44.032,2026A_exp2,2022.2.4,59.92042568263299,
1000,1,3.7,0.0,0,0,21,21,35,,,,,118.7052454999648,119.3560619999771,119.3560619999771,119.85711909999372,315,315,119.85711909999372,119.85711909999372,119.85711909999372,119.85711909999372,119.85711909999372,119.85711909999372,119.85711909999372,119.85711909999372,119.85711909999372,120.22357879998162,120.22357879998162,120.22357879998162,120.22357879998162,120.22357879998162,120.22357879998162,120.22357879998162,120.22357879998162,120.22357879998162,23,0,,,120.22357879998162,120.43419349996839,1000,120.43419349996839,1000,1000,1000,1000,0,num_3,0.358571800054051,,22,5,2026-03-04_11h03.44.032,2026A_exp2,2022.2.4,59.92042568263299,
0,0,6.1,0.0,0,0,22,22,41,,,,,120.8242591000162,121.47466129995883,121.47466129995883,121.97580760001438,45,45,121.97580760001438,121.97580760001438,121.97580760001438,121.97580760001438,121.97580760001438,121.97580760001438,121.97580760001438,121.97580760001438,121.97580760001438,122.3422292000032,122.3422292000032,122.3422292000032,122.3422292000032,122.3422292000032,122.3422292000032,122.3422292000032,122.3422292000032,122.3422292000032,23,0,,,122.3422292000032,122.54268909996608,0.0,122.54268909996608,0,0.0,0,1,1000,num_1,0.6814281999832019,,22,5,2026-03-04_11h03.44.032,2026A_exp2,2022.2.4,59.92042568263299,
0,0,3.7,0.0,1,0,23,23,1,,,,,123.2430192999891,123.89368019998074,123.89368019998074,124.37831190001452,45,45,124.37831190001452,124.37831190001452,124.37831190001452,124.37831190001452,124.37831190001452,124.37831190001452,124.37831190001452,124.37831190001452,124.37831190001452,124.74498839996522,124.74498839996522,124.74498839996522,124.74498839996522,124.74498839996522,124.74498839996522,124.74498839996522,124.74498839996522,124.74498839996522,23,0,,,124.74498839996522,124.94487790000858,3.7,124.94487790000858,1,3.7,1,1,1000,num_4,0.7751560999895446,,22,5,2026-03-04_11h03.44.032,2026A_exp2,2022.2.4,59.92042568263299,
1000,1,0.0,4.9,1,0,24,24,37,,,,,125.74574519996531,126.39632409997284,126.39632409997284,126.88071689999197,45,45,126.88071689999197,126.88071689999197,126.88071689999197,126.88071689999197,126.88071689999197,126.88071689999197,126.88071689999197,126.88071689999197,126.88071689999197,127.24718519998714,127.24718519998714,127.24718519998714,127.24718519998714,127.24718519998714,127.24718519998714,127.24718519998714,127.24718519998714,127.24718519998714,23,0,,,127.24718519998714,127.44963069999358,1000,127.44963069999358,1000,1000,1000,1000,1,num_2,0.5906978999846615,,22,5,2026-03-04_11h03.44.032,2026A_exp2,2022.2.4,59.92042568263299,
1000,1,3.7,0.0,0,0,25,25,69,,,,,128.06467489997158,128.71528659999603,128.71528659999603,129.21640639996622,45,315,129.21640639996622,129.21640639996622,129.21640639996622,129.21640639996622,129.21640639996622,129.21640639996622,129.21640639996622,129.21640639996622,129.21640639996622,129.58272529998794,129.58272529998794,129.58272529998794,129.58272529998794,129.58272529998794,129.58272529998794,129.58272529998794,129.58272529998794,129.58272529998794,6,1,[0.0011978999827988446],[0.2839576999540441],129.58272529998794,129.78518710000208,1000,129.78518710000208,1000,1000,1000,1000,0,num_3,1.2139980999636464,,22,5,2026-03-04_11h03.44.032,2026A_exp2,2022.2.4,59.92042568263299,
1000,1,4.9,6.1,1,0,26,26,5,,,,,131.0175485999789,131.6681927999598,131.6681927999598,132.1693885999848,45,315,132.1693885999848,132.1693885999848,132.1693885999848,132.1693885999848,132.1693885999848,132.1693885999848,132.1693885999848,132.1693885999848,132.1693885999848,132.53590279998025,132.53590279998025,132.53590279998025,132.53590279998025,132.53590279998025,132.53590279998025,132.53590279998025,132.53590279998025,132.53590279998025,23,0,,,132.53590279998025,132.73801779997302,1000,132.73801779997302,1000,1000,1000,1000,1,num_2,0.4218538000131957,,22,5,2026-03-04_11h03.44.032,2026A_exp2,2022.2.4,59.92042568263299,
1000,1,6.1,3.7,1,0,27,27,11,,,,,133.186379199964,133.83704579999903,133.83704579999903,134.3381946000154,315,45,134.3381946000154,134.3381946000154,134.3381946000154,134.3381946000154,134.3381946000154,134.3381946000154,134.3381946000154,134.3381946000154,134.3381946000154,134.70461650000652,134.70461650000652,134.70461650000652,134.70461650000652,134.70461650000652,134.70461650000652,134.70461650000652,134.70461650000652,134.70461650000652,23,0,,,134.70461650000652,134.90631759999087,1000,134.90631759999087,1000,1000,1000,1000,0,num_3,0.4937667000340298,,22,5,2026-03-04_11h03.44.032,2026A_exp2,2022.2.4,59.92042568263299,
1000,1,0.0,3.7,1,0,28,28,4,,,,,135.42201819998445,136.07267660001526,136.07267660001526,136.57387779996498,315,45,136.57387779996498,136.57387779996498,136.57387779996498,136.57387779996498,136.57387779996498,136.57387779996498,136.57387779996498,136.57387779996498,136.57387779996498,136.94022350001615,136.94022350001615,136.94022350001615,136.94022350001615,136.94022350001615,136.94022350001615,136.94022350001615,136.94022350001615,136.94022350001615,23,0,,,136.94022350001615,137.1423752999981,1000,137.1423752999981,1000,1000,1000,1000,0,num_3,0.5459551999811083,,22,5,2026-03-04_11h03.44.032,2026A_exp2,2022.2.4,59.92042568263299,
0,0,6.1,3.7,0,0,29,29,49,,,,,137.7074474999681,138.35827169998083,138.35827169998083,138.85943700000644,315,45,138.85943700000644,138.85943700000644,138.85943700000644,138.85943700000644,138.85943700000644,138.85943700000644,138.85943700000644,138.85943700000644,138.85943700000644,139.20927819999633,139.20927819999633,139.20927819999633,139.20927819999633,139.20927819999633,139.20927819999633,139.20927819999633,139.20927819999633,139.20927819999633,22,0,,,139.20927819999633,139.4095096999663,3.7,139.42613149998942,0,3.7,1,0,1000,num_1,0.621079100004863,,22,5,2026-03-04_11h03.44.032,2026A_exp2,2022.2.4,59.92042568263299,
1,0,3.7,0.0,1,0,30,30,30,,,,,140.0763694999623,140.71069809998153,140.71069809998153,141.21165919996565,315,45,141.21165919996565,141.21165919996565,141.21165919996565,141.21165919996565,141.21165919996565,141.21165919996565,141.21165919996565,141.21165919996565,141.21165919996565,141.5782131999731,141.5782131999731,141.5782131999731,141.5782131999731,141.5782131999731,141.5782131999731,141.5782131999731,141.5782131999731,141.5782131999731,23,0,,,141.5782131999731,141.77852029999485,0.0,141.77852029999485,0,0.0,0,1,1000,num_1,0.6852731999824755,,22,5,2026-03-04_11h03.44.032,2026A_exp2,2022.2.4,59.92042568263299,
1,0,6.1,0.0,0,0,31,31,85,,,,,142.4958559999941,143.14639269997133,143.14639269997133,143.63081269996474,315,315,143.63081269996474,143.63081269996474,143.63081269996474,143.63081269996474,143.63081269996474,143.63081269996474,143.63081269996474,143.63081269996474,143.63081269996474,143.99728869996034,143.99728869996034,143.99728869996034,143.99728869996034,143.99728869996034,143.99728869996034,143.99728869996034,143.99728869996034,143.99728869996034,23,0,,,143.99728869996034,144.19733659998747,6.1,144.19733659998747,1,6.1,1,1,1000,num_4,0.5470039999927394,,22,5,2026-03-04_11h03.44.032,2026A_exp2,2022.2.4,59.92042568263299,
1,0,4.9,6.1,0,0,32,32,82,,,,,144.76466569997137,145.4153551000054,145.4153551000054,145.8997719999752,45,315,145.8997719999752,145.8997719999752,145.8997719999752,145.8997719999752,145.8997719999752,145.8997719999752,145.8997719999752,145.8997719999752,145.8997719999752,146.2662174999714,146.2662174999714,146.2662174999714,146.2662174999714,146.2662174999714,146.2662174999714,146.2662174999714,146.2662174999714,146.2662174999714,23,0,,,146.2662174999714,146.46650959999533,4.9,146.46650959999533,0,4.9,1,0,1000,num_1,1.1095787000376731,,22,5,2026-03-04_11h03.44.032,2026A_exp2,2022.2.4,59.92042568263299,
1000,1,0.0,6.1,0,0,33,33,20,,,,,147.60074560000794,148.25159060000442,148.25159060000442,148.73592820001068,315,315,148.73592820001068,148.73592820001068,148.73592820001068,148.73592820001068,148.73592820001068,148.73592820001068,148.73592820001068,148.73592820001068,148.73592820001068,149.1024599999655,149.1024599999655,149.1024599999655,149.1024599999655,149.1024599999655,149.1024599999655,149.1024599999655,149.1024599999655,149.1024599999655,23,0,,,149.1024599999655,149.3048642000067,1000,149.3048642000067,1000,1000,1000,1000,1,num_2,0.551427899976261,,22,5,2026-03-04_11h03.44.032,2026A_exp2,2022.2.4,59.92042568263299,
1000,1,3.7,6.1,1,0,34,34,75,,,,,149.88647149997996,150.5372394999722,150.5372394999722,151.03819099999964,45,315,151.03819099999964,151.03819099999964,151.03819099999964,151.03819099999964,151.03819099999964,151.03819099999964,151.03819099999964,151.03819099999964,151.03819099999964,151.40474520000862,151.40474520000862,151.40474520000862,151.40474520000862,151.40474520000862,151.40474520000862,151.40474520000862,151.40474520000862,151.40474520000862,23,0,,,151.40474520000862,151.60536909999792,1000,151.60536909999792,1000,1000,1000,1000,1,num_2,0.43375060003018007,,22,5,2026-03-04_11h03.44.032,2026A_exp2,2022.2.4,59.92042568263299,
1000,1,0.0,6.1,1,0,35,35,74,,,,,152.055364299973,152.7059632000164,152.7059632000164,153.20702119998168,45,45,153.20702119998168,153.20702119998168,153.20702119998168,153.20702119998168,153.20702119998168,153.20702119998168,153.20702119998168,153.20702119998168,153.20702119998168,153.57356449996587,153.57356449996587,153.57356449996587,153.57356449996587,153.57356449996587,153.57356449996587,153.57356449996587,153.57356449996587,153.57356449996587,23,0,,,153.57356449996587,153.7754280999652,1000,153.7754280999652,1000,1000,1000,1000,1,num_2,0.4719123000395484,,22,5,2026-03-04_11h03.44.032,2026A_exp2,2022.2.4,59.92042568263299,
0,0,4.9,0.0,0,0,36,36,84,,,,,154.27418010000838,154.92478259996278,154.92478259996278,155.426121699973,315,45,155.426121699973,155.426121699973,155.426121699973,155.426121699973,155.426121699973,155.426121699973,155.426121699973,155.426121699973,155.426121699973,155.7923362000147,155.7923362000147,155.7923362000147,155.7923362000147,155.7923362000147,155.7923362000147,155.7923362000147,155.7923362000147,155.7923362000147,23,0,,,155.7923362000147,155.99270989996148,0.0,155.99270989996148,0,0.0,0,1,1000,num_1,0.686630200012587,,22,5,2026-03-04_11h03.44.032,2026A_exp2,2022.2.4,59.92042568263299,
1000,1,6.1,6.1,1,0,37,37,22,,,,,156.7097884999821,157.36058849998517,157.36058849998517,157.84493179997662,315,45,157.84493179997662,157.84493179997662,157.84493179997662,157.84493179997662,157.84493179997662,157.84493179997662,157.84493179997662,157.84493179997662,157.84493179997662,158.21156069997232,158.21156069997232,158.21156069997232,158.21156069997232,158.21156069997232,158.21156069997232,158.21156069997232,158.21156069997232,158.21156069997232,23,0,,,158.21156069997232,158.4133721999824,1000,158.4133721999824,1000,1000,1000,1000,0,num_3,1.362138899974525,,22,5,2026-03-04_11h03.44.032,2026A_exp2,2022.2.4,59.92042568263299,
1,0,0.0,6.1,1,0,38,38,19,,,,,159.79630360001465,160.4470738999662,160.4470738999662,160.94810809998307,45,45,160.94810809998307,160.94810809998307,160.94810809998307,160.94810809998307,160.94810809998307,160.94810809998307,160.94810809998307,160.94810809998307,160.94810809998307,161.3145940999966,161.3145940999966,161.3145940999966,161.3145940999966,161.3145940999966,161.3145940999966,161.3145940999966,161.3145940999966,161.3145940999966,23,0,,,161.3145940999966,161.5147389000049,6.1,161.5147389000049,1,6.1,1,1,1000,num_4,0.6210369999753311,,22,5,2026-03-04_11h03.44.032,2026A_exp2,2022.2.4,59.92042568263299,
1000,1,3.7,4.9,1,0,39,39,71,,,,,162.1654327000142,162.81617459998233,162.81617459998233,163.30061559996102,315,45,163.30061559996102,163.30061559996102,163.30061559996102,163.30061559996102,163.30061559996102,163.30061559996102,163.30061559996102,163.30061559996102,163.30061559996102,163.6669896999956,163.6669896999956,163.6669896999956,163.6669896999956,163.6669896999956,163.6669896999956,163.6669896999956,163.6669896999956,163.6669896999956,23,0,,,163.6669896999956,163.8688430999755,1000,163.8688430999755,1000,1000,1000,1000,1,num_2,0.939534500008449,,22,5,2026-03-04_11h03.44.032,2026A_exp2,2022.2.4,59.92042568263299,
1000,1,6.1,0.0,0,0,40,40,58,,,,,164.83467589999782,165.48541719996138,165.48541719996138,165.9865976999863,315,45,165.9865976999863,165.9865976999863,165.9865976999863,165.9865976999863,165.9865976999863,165.9865976999863,165.9865976999863,165.9865976999863,165.9865976999863,166.35296819999348,166.35296819999348,166.35296819999348,166.35296819999348,166.35296819999348,166.35296819999348,166.35296819999348,166.35296819999348,166.35296819999348,23,0,,,166.35296819999348,166.55526429996826,1000,166.55526429996826,1000,1000,1000,1000,0,num_3,0.5093958000070415,,22,5,2026-03-04_11h03.44.032,2026A_exp2,2022.2.4,59.92042568263299,
1000,1,4.9,3.7,0,0,41,41,28,,,,,167.0869612999959,167.73759079998126,167.73759079998126,168.2388648999622,45,315,168.2388648999622,168.2388648999622,168.2388648999622,168.2388648999622,168.2388648999622,168.2388648999622,168.2388648999622,168.2388648999622,168.2388648999622,168.60526529996423,168.60526529996423,168.60526529996423,168.60526529996423,168.60526529996423,168.60526529996423,168.60526529996423,168.60526529996423,168.60526529996423,23,0,,,168.60526529996423,168.80744309996953,1000,168.80744309996953,1000,1000,1000,1000,0,num_3,0.4322728000115603,,22,5,2026-03-04_11h03.44.032,2026A_exp2,2022.2.4,59.92042568263299,
1,0,0.0,0.0,1,0,42,42,83,,,,,169.25602629996138,169.9065751999733,169.9065751999733,170.40789520001272,45,315,170.40789520001272,170.40789520001272,170.40789520001272,170.40789520001272,170.40789520001272,170.40789520001272,170.40789520001272,170.40789520001272,170.40789520001272,170.77394109999295,170.77394109999295,170.77394109999295,170.77394109999295,170.77394109999295,170.77394109999295,170.77394109999295,170.77394109999295,170.77394109999295,23,0,,,170.77394109999295,170.97431720001623,0.0,170.97431720001623,1,0.0,0,0,1000,num_4,0.9861734000151046,,22,5,2026-03-04_11h03.44.032,2026A_exp2,2022.2.4,59.92042568263299,
1,0,3.7,0.0,0,0,43,43,26,,,,,171.99182990001282,172.64263899996877,172.64263899996877,173.12696550000692,45,45,173.12696550000692,173.12696550000692,173.12696550000692,173.12696550000692,173.12696550000692,173.12696550000692,173.12696550000692,173.12696550000692,173.12696550000692,173.49345269997139,173.49345269997139,173.49345269997139,173.49345269997139,173.49345269997139,173.49345269997139,173.49345269997139,173.49345269997139,173.49345269997139,23,0,,,173.49345269997139,173.69368789996952,3.7,173.69368789996952,1,3.7,1,1,1000,num_4,0.8902679000166245,,22,5,2026-03-04_11h03.44.032,2026A_exp2,2022.2.4,59.92042568263299,
1000,1,0.0,0.0,1,0,44,44,56,,,,,174.6113408000092,175.2619326999993,175.2619326999993,175.74637509998865,45,315,175.74637509998865,175.74637509998865,175.74637509998865,175.74637509998865,175.74637509998865,175.74637509998865,175.74637509998865,175.74637509998865,175.74637509998865,176.11270930001047,176.11270930001047,176.11270930001047,176.11270930001047,176.11270930001047,176.11270930001047,176.11270930001047,176.11270930001047,176.11270930001047,23,0,,,176.11270930001047,176.31481710000662,1000,176.31481710000662,1000,1000,1000,1000,0,num_3,0.621083100035321,,22,5,2026-03-04_11h03.44.032,2026A_exp2,2022.2.4,59.92042568263299,
1000,1,3.7,6.1,0,0,45,45,60,,,,,176.9635415999801,177.61414869996952,177.61414869996952,178.11545390001265,315,45,178.11545390001265,178.11545390001265,178.11545390001265,178.11545390001265,178.11545390001265,178.11545390001265,178.11545390001265,178.11545390001265,178.11545390001265,178.4816218999913,178.4816218999913,178.4816218999913,178.4816218999913,178.4816218999913,178.4816218999913,178.4816218999913,178.4816218999913,178.4816218999913,23,0,,,178.4816218999913,178.68441869999515,1000,178.68441869999515,1000,1000,1000,1000,0,num_3,0.40399359998991713,,22,5,2026-03-04_11h03.44.032,2026A_exp2,2022.2.4,59.92042568263299,
1000,1,0.0,6.1,0,0,46,46,61,,,,,179.1157613999676,179.76641649997327,179.76641649997327,180.26737379998667,45,315,180.26737379998667,180.26737379998667,180.26737379998667,180.26737379998667,180.26737379998667,180.26737379998667,180.26737379998667,180.26737379998667,180.26737379998667,180.63412689999677,180.63412689999677,180.63412689999677,180.63412689999677,180.63412689999677,180.63412689999677,180.63412689999677,180.63412689999677,180.63412689999677,23,0,,,180.63412689999677,180.83631410001544,1000,180.83631410001544,1000,1000,1000,1000,1,num_2,0.4760865999851376,,22,5,2026-03-04_11h03.44.032,2026A_exp2,2022.2.4,59.92042568263299,
1000,1,0.0,0.0,1,0,47,47,29,,,,,181.3344916999922,181.9853168000118,181.9853168000118,182.48645249998663,45,45,182.48645249998663,182.48645249998663,182.48645249998663,182.48645249998663,182.48645249998663,182.48645249998663,182.48645249998663,182.48645249998663,182.48645249998663,182.85289669997292,182.85289669997292,182.85289669997292,182.85289669997292,182.85289669997292,182.85289669997292,182.85289669997292,182.85289669997292,182.85289669997292,23,0,,,182.85289669997292,183.07473579997895,1000,183.07473579997895,1000,1000,1000,1000,1,num_2,1.1411853000172414,,22,5,2026-03-04_11h03.44.032,2026A_exp2,2022.2.4,59.92042568263299,
1,0,0.0,4.9,0,0,48,48,32,,,,,184.2374923999887,184.88807169999927,184.88807169999927,185.38919779995922,315,315,185.38919779995922,185.38919779995922,185.38919779995922,185.38919779995922,185.38919779995922,185.38919779995922,185.38919779995922,185.38919779995922,185.38919779995922,185.7390401000157,185.7390401000157,185.7390401000157,185.7390401000157,185.7390401000157,185.7390401000157,185.7390401000157,185.7390401000157,185.7390401000157,22,0,,,185.7390401000157,185.9393068999634,0.0,185.9393068999634,0,0.0,0,1,1000,num_1,0.6453461999772117,,22,5,2026-03-04_11h03.44.032,2026A_exp2,2022.2.4,59.92042568263299,
1000,1,0.0,4.9,0,0,49,49,0,,,,,186.60693969996646,187.2572327000089,187.2572327000089,187.74156799999764,315,315,187.74156799999764,187.74156799999764,187.74156799999764,187.74156799999764,187.74156799999764,187.74156799999764,187.74156799999764,187.74156799999764,187.74156799999764,188.1079555999604,188.1079555999604,188.1079555999604,188.1079555999604,188.1079555999604,188.1079555999604,188.1079555999604,188.1079555999604,188.1079555999604,23,0,,,188.1079555999604,188.30992189998506,1000,188.30992189998506,1000,1000,1000,1000,1,num_2,0.5619063000194728,,22,5,2026-03-04_11h03.44.032,2026A_exp2,2022.2.4,59.92042568263299,
1000,1,0.0,0.0,0,0,50,50,57,,,,,188.89287859998876,189.5429148999974,189.5429148999974,190.04386889998568,315,315,190.04386889998568,190.04386889998568,190.04386889998568,190.04386889998568,190.04386889998568,190.04386889998568,190.04386889998568,190.04386889998568,190.04386889998568,190.39364209998166,190.39364209998166,190.39364209998166,190.39364209998166,190.39364209998166,190.39364209998166,190.39364209998166,190.39364209998166,190.39364209998166,22,0,,,190.39364209998166,190.59600879997015,1000,190.59600879997015,1000,1000,1000,1000,1,num_2,0.5079570999951102,,22,5,2026-03-04_11h03.44.032,2026A_exp2,2022.2.4,59.92042568263299,
1000,1,0.0,3.7,0,0,51,51,23,,,,,191.12770589999855,191.77831699996023,191.77831699996023,192.27961610001512,45,315,192.27961610001512,192.27961610001512,192.27961610001512,192.27961610001512,192.27961610001512,192.27961610001512,192.27961610001512,192.27961610001512,192.27961610001512,192.62920079997275,192.62920079997275,192.62920079997275,192.62920079997275,192.62920079997275,192.62920079997275,192.62920079997275,192.62920079997275,192.62920079997275,22,0,,,192.62920079997275,192.8313918999629,1000,192.846151500009,1000,1000,1000,1000,0,num_3,0.5770556000061333,,22,5,2026-03-04_11h03.44.032,2026A_exp2,2022.2.4,59.92042568263299,
0,0,3.7,4.9,0,0,52,52,77,,,,,193.44702969997888,194.08077160001267,194.08077160001267,194.5817077999818,315,45,194.5817077999818,194.5817077999818,194.5817077999818,194.5817077999818,194.5817077999818,194.5817077999818,194.5817077999818,194.5817077999818,194.5817077999818,194.94820189999882,194.94820189999882,194.94820189999882,194.94820189999882,194.94820189999882,194.94820189999882,194.94820189999882,194.94820189999882,194.94820189999882,23,0,,,194.94820189999882,195.14853359997505,4.9,195.14853359997505,1,4.9,1,1,1000,num_4,0.7793760999920778,,22,5,2026-03-04_11h03.44.032,2026A_exp2,2022.2.4,59.92042568263299,
1000,1,3.7,0.0,0,0,53,53,86,,,,,195.9490999999689,196.59998639998958,196.59998639998958,197.0842999999877,45,45,197.0842999999877,197.0842999999877,197.0842999999877,197.0842999999877,197.0842999999877,197.0842999999877,197.0842999999877,197.0842999999877,197.0842999999877,197.4508155999938,197.4508155999938,197.4508155999938,197.4508155999938,197.4508155999938,197.4508155999938,197.4508155999938,197.4508155999938,197.4508155999938,23,0,,,197.4508155999938,197.65247069997713,1000,197.65247069997713,1000,1000,1000,1000,1,num_2,0.90691419999348,,22,5,2026-03-04_11h03.44.032,2026A_exp2,2022.2.4,59.92042568263299,
1000,1,4.9,0.0,0,0,54,54,50,,,,,198.58515780000016,199.2360613999772,199.2360613999772,199.7370250999811,45,315,199.7370250999811,199.7370250999811,199.7370250999811,199.7370250999811,199.7370250999811,199.7370250999811,199.7370250999811,199.7370250999811,199.7370250999811,200.10323820001213,200.10323820001213,200.10323820001213,200.10323820001213,200.10323820001213,200.10323820001213,200.10323820001213,200.10323820001213,200.10323820001213,23,0,,,200.10323820001213,200.30379219999304,1000,200.30379219999304,1000,1000,1000,1000,0,num_3,0.5127568999887444,,22,5,2026-03-04_11h03.44.032,2026A_exp2,2022.2.4,59.92042568263299,
1000,1,0.0,3.7,0,0,55,55,76,,,,,200.83750239998335,201.488048899977,201.488048899977,201.98917889996665,315,45,201.98917889996665,201.98917889996665,201.98917889996665,201.98917889996665,201.98917889996665,201.98917889996665,201.98917889996665,201.98917889996665,201.98917889996665,202.35566429997561,202.35566429997561,202.35566429997561,202.35566429997561,202.35566429997561,202.35566429997561,202.35566429997561,202.35566429997561,202.35566429997561,23,0,,,202.35566429997561,202.5561338000116,1000,202.5561338000116,1000,1000,1000,1000,0,num_3,1.0351742000202648,,22,5,2026-03-04_11h03.44.032,2026A_exp2,2022.2.4,59.92042568263299,
1000,1,0.0,0.0,1,0,56,56,2,,,,,203.60680989996763,204.25755099998787,204.25755099998787,204.75863519997802,315,45,204.75863519997802,204.75863519997802,204.75863519997802,204.75863519997802,204.75863519997802,204.75863519997802,204.75863519997802,204.75863519997802,204.75863519997802,205.1251673999941,205.1251673999941,205.1251673999941,205.1251673999941,205.1251673999941,205.1251673999941,205.1251673999941,205.1251673999941,205.1251673999941,23,0,,,205.1251673999941,205.3273473000154,1000,205.3273473000154,1000,1000,1000,1000,1,num_2,0.5682313999859616,,22,5,2026-03-04_11h03.44.032,2026A_exp2,2022.2.4,59.92042568263299,
1,0,0.0,0.0,1,0,57,57,31,,,,,205.92577520001214,206.57657330000075,206.57657330000075,207.077562499966,315,45,207.077562499966,207.077562499966,207.077562499966,207.077562499966,207.077562499966,207.077562499966,207.077562499966,207.077562499966,207.077562499966,207.44392009999137,207.44392009999137,207.44392009999137,207.44392009999137,207.44392009999137,207.44392009999137,207.44392009999137,207.44392009999137,207.44392009999137,23,0,,,207.44392009999137,207.64423899998656,0.0,207.64423899998656,1,0.0,0,0,1000,num_4,0.883419599966146,,22,5,2026-03-04_11h03.44.032,2026A_exp2,2022.2.4,59.92042568263299,
1,0,0.0,6.1,0,0,58,58,24,,,,,208.54533369996352,209.19579999998678,209.19579999998678,209.69677099998808,45,315,209.69677099998808,209.69677099998808,209.69677099998808,209.69677099998808,209.69677099998808,209.69677099998808,209.69677099998808,209.69677099998808,209.69677099998808,210.04661019996274,210.04661019996274,210.04661019996274,210.04661019996274,210.04661019996274,210.04661019996274,210.04661019996274,210.04661019996274,210.04661019996274,22,0,,,210.04661019996274,210.24682399997255,0.0,210.24682399997255,0,0.0,0,1,1000,num_1,0.6327007000218146,,22,5,2026-03-04_11h03.44.032,2026A_exp2,2022.2.4,59.92042568263299,
0,0,6.1,0.0,1,0,59,59,52,,,,,210.89734500000486,211.54818420001538,211.54818420001538,212.0490923000034,315,315,212.0490923000034,212.0490923000034,212.0490923000034,212.0490923000034,212.0490923000034,212.0490923000034,212.0490923000034,212.0490923000034,212.0490923000034,212.3990671999636,212.3990671999636,212.3990671999636,212.3990671999636,212.3990671999636,212.3990671999636,212.3990671999636,212.3990671999636,212.3990671999636,22,0,,,212.3990671999636,212.59929909999482,6.1,212.61596299998928,1,6.1,1,1,1000,num_4,0.6637748999637552,,22,5,2026-03-04_11h03.44.032,2026A_exp2,2022.2.4,59.92042568263299,
0,0,3.7,0.0,0,0,60,60,18,,,,,213.29976490000263,213.95052730001044,213.95052730001044,214.43501710001146,315,315,214.43501710001146,214.43501710001146,214.43501710001146,214.43501710001146,214.43501710001146,214.43501710001146,214.43501710001146,214.43501710001146,214.43501710001146,214.80149270000402,214.80149270000402,214.80149270000402,214.80149270000402,214.80149270000402,214.80149270000402,214.80149270000402,214.80149270000402,214.80149270000402,23,0,,,214.80149270000402,215.00153649999993,0.0,215.00153649999993,0,0.0,0,1,1000,num_1,0.7021451000473462,,22,5,2026-03-04_11h03.44.032,2026A_exp2,2022.2.4,59.92042568263299,
0,0,0.0,0.0,1,0,61,61,44,,,,,215.73555109999143,216.3862866999698,216.3862866999698,216.87072770000668,45,45,216.87072770000668,216.87072770000668,216.87072770000668,216.87072770000668,216.87072770000668,216.87072770000668,216.87072770000668,216.87072770000668,216.87072770000668,217.23714300000574,217.23714300000574,217.23714300000574,217.23714300000574,217.23714300000574,217.23714300000574,217.23714300000574,217.23714300000574,217.23714300000574,23,0,,,217.23714300000574,217.4373532999889,0.0,217.4373532999889,1,0.0,0,0,1000,num_4,1.0979571999632753,,22,5,2026-03-04_11h03.44.032,2026A_exp2,2022.2.4,59.92042568263299,
1000,1,4.9,3.7,1,0,62,62,78,,,,,218.55514529999346,219.20584780001082,219.20584780001082,219.7069300999865,315,45,219.7069300999865,219.7069300999865,219.7069300999865,219.7069300999865,219.7069300999865,219.7069300999865,219.7069300999865,219.7069300999865,219.7069300999865,220.05671299999813,220.05671299999813,220.05671299999813,220.05671299999813,220.05671299999813,220.05671299999813,220.05671299999813,220.05671299999813,220.05671299999813,1,2,"[0.0012302999966777861, 0.1671798000461422]","[0.1504063000320457, 0.35063820000505075]",220.05671299999813,220.2587565999711,1000,220.2587565999711,1000,1000,1000,1000,1,num_2,1.1727258000173606,,22,5,2026-03-04_11h03.44.032,2026A_exp2,2022.2.4,59.92042568263299,
1,0,3.7,0.0,0,0,63,63,10,,,,,221.45794960000785,222.10877019999316,222.10877019999316,222.60991579998517,45,45,222.60991579998517,222.60991579998517,222.60991579998517,222.60991579998517,222.60991579998517,222.60991579998517,222.60991579998517,222.60991579998517,222.60991579998517,222.97629069996765,222.97629069996765,222.97629069996765,222.97629069996765,222.97629069996765,222.97629069996765,222.97629069996765,222.97629069996765,222.97629069996765,23,0,,,222.97629069996765,223.1763982999837,3.7,223.1763982999837,1,3.7,1,1,1000,num_4,0.8470966999884695,,22,5,2026-03-04_11h03.44.032,2026A_exp2,2022.2.4,59.92042568263299,
1000,1,0.0,0.0,1,0,64,64,55,,,,,224.0439125999692,224.69455089996336,224.69455089996336,225.17915019998327,315,315,225.17915019998327,225.17915019998327,225.17915019998327,225.17915019998327,225.17915019998327,225.17915019998327,225.17915019998327,225.17915019998327,225.17915019998327,225.54550670000026,225.54550670000026,225.54550670000026,225.54550670000026,225.54550670000026,225.54550670000026,225.54550670000026,225.54550670000026,225.54550670000026,23,0,,,225.54550670000026,225.74770780000836,1000,225.74770780000836,1000,1000,1000,1000,1,num_2,0.4930282999994233,,22,5,2026-03-04_11h03.44.032,2026A_exp2,2022.2.4,59.92042568263299,
1000,1,0.0,0.0,0,0,65,65,64,,,,,226.262798700016,226.91356439999072,226.91356439999072,227.41459429997485,45,315,227.41459429997485,227.41459429997485,227.41459429997485,227.41459429997485,227.41459429997485,227.41459429997485,227.41459429997485,227.41459429997485,227.41459429997485,227.7810649999883,227.7810649999883,227.7810649999883,227.7810649999883,227.7810649999883,227.7810649999883,227.7810649999883,227.7810649999883,227.7810649999883,23,0,,,227.7810649999883,227.98327989998506,1000,227.98327989998506,1000,1000,1000,1000,1,num_2,1.8166412999853492,,22,5,2026-03-04_11h03.44.032,2026A_exp2,2022.2.4,59.92042568263299,
1,0,0.0,0.0,1,0,66,66,33,,,,,229.8164902999997,230.467100400012,230.467100400012,230.9681983999908,315,315,230.9681983999908,230.9681983999908,230.9681983999908,230.9681983999908,230.9681983999908,230.9681983999908,230.9681983999908,230.9681983999908,230.9681983999908,231.33462999999756,231.33462999999756,231.33462999999756,231.33462999999756,231.33462999999756,231.33462999999756,231.33462999999756,231.33462999999756,231.33462999999756,23,0,,,231.33462999999756,231.5348560999846,0.0,231.5348560999846,1,0.0,0,0,1000,num_4,0.5613889999804087,,22,5,2026-03-04_11h03.44.032,2026A_exp2,2022.2.4,59.92042568263299,
0,0,4.9,0.0,0,0,67,67,40,,,,,232.11843059997773,232.7694254000089,232.7694254000089,233.25388049997855,315,315,233.25388049997855,233.25388049997855,233.25388049997855,233.25388049997855,233.25388049997855,233.25388049997855,233.25388049997855,233.25388049997855,233.25388049997855,233.6201977999881,233.6201977999881,233.6201977999881,233.6201977999881,233.6201977999881,233.6201977999881,233.6201977999881,233.6201977999881,233.6201977999881,23,0,,,233.6201977999881,233.82031450001523,0.0,233.82031450001523,0,0.0,0,1,1000,num_1,0.6911146999918856,,22,5,2026-03-04_11h03.44.032,2026A_exp2,2022.2.4,59.92042568263299,
1000,1,0.0,0.0,0,0,68,68,45,,,,,234.53769560001092,235.18837160000112,235.18837160000112,235.68965379998554,315,315,235.68965379998554,235.68965379998554,235.68965379998554,235.68965379998554,235.68965379998554,235.68965379998554,235.68965379998554,235.68965379998554,235.68965379998554,236.03923270001542,236.03923270001542,236.03923270001542,236.03923270001542,236.03923270001542,236.03923270001542,236.03923270001542,236.03923270001542,236.03923270001542,22,0,,,236.03923270001542,236.24155639996752,1000,236.24155639996752,1000,1000,1000,1000,0,num_3,1.0143832000321709,,22,5,2026-03-04_11h03.44.032,2026A_exp2,2022.2.4,59.92042568263299,
1,0,0.0,0.0,1,0,69,69,38,,,,,237.27378869999666,237.92461799999,237.92461799999,238.42559870000696,315,45,238.42559870000696,238.42559870000696,238.42559870000696,238.42559870000696,238.42559870000696,238.42559870000696,238.42559870000696,238.42559870000696,238.42559870000696,238.79221439996036,238.79221439996036,238.79221439996036,238.79221439996036,238.79221439996036,238.79221439996036,238.79221439996036,238.79221439996036,238.79221439996036,23,0,,,238.79221439996036,238.99237110000104,0.0,238.99237110000104,1,0.0,0,0,1000,num_4,1.3517115999711677,,22,5,2026-03-04_11h03.44.032,2026A_exp2,2022.2.4,59.92042568263299,
1,0,4.9,4.9,1,0,70,70,9,,,,,240.36030759999994,241.01094289997127,241.01094289997127,241.51211399998283,315,315,241.51211399998283,241.51211399998283,241.51211399998283,241.51211399998283,241.51211399998283,241.51211399998283,241.51211399998283,241.51211399998283,241.51211399998283,241.86173269996652,241.86173269996652,241.86173269996652,241.86173269996652,241.86173269996652,241.86173269996652,241.86173269996652,241.86173269996652,241.86173269996652,22,0,,,241.86173269996652,242.0620386999799,4.9,242.0620386999799,1,4.9,1,1,1000,num_4,0.5696488000103272,,22,5,2026-03-04_11h03.44.032,2026A_exp2,2022.2.4,59.92042568263299,
1000,1,0.0,6.1,1,0,71,71,42,,,,,242.66252499999246,243.31325559999095,243.31325559999095,243.79777339997236,315,315,243.79777339997236,243.79777339997236,243.79777339997236,243.79777339997236,243.79777339997236,243.79777339997236,243.79777339997236,243.79777339997236,243.79777339997236,244.16419320000568,244.16419320000568,244.16419320000568,244.16419320000568,244.16419320000568,244.16419320000568,244.16419320000568,244.16419320000568,244.16419320000568,23,0,,,244.16419320000568,244.36606249999022,1000,244.36606249999022,1000,1000,1000,1000,1,num_2,0.5784150999970734,,22,5,2026-03-04_11h03.44.032,2026A_exp2,2022.2.4,59.92042568263299,
1000,1,0.0,0.0,0,0,72,72,65,,,,,244.96490570000606,245.61570199998096,245.61570199998096,246.11688499996671,315,45,246.11688499996671,246.11688499996671,246.11688499996671,246.11688499996671,246.11688499996671,246.11688499996671,246.11688499996671,246.11688499996671,246.11688499996671,246.48299659998156,246.48299659998156,246.48299659998156,246.48299659998156,246.48299659998156,246.48299659998156,246.48299659998156,246.48299659998156,246.48299659998156,23,0,,,246.48299659998156,246.68331519997446,1000,246.68331519997446,1000,1000,1000,1000,0,num_3,1.0288480000454001,,22,5,2026-03-04_11h03.44.032,2026A_exp2,2022.2.4,59.92042568263299,
1000,1,0.0,0.0,1,0,73,73,73,,,,,247.73432509996928,248.3850466000149,248.3850466000149,248.88598129997263,45,315,248.88598129997263,248.88598129997263,248.88598129997263,248.88598129997263,248.88598129997263,248.88598129997263,248.88598129997263,248.88598129997263,248.88598129997263,249.23591869999655,249.23591869999655,249.23591869999655,249.23591869999655,249.23591869999655,249.23591869999655,249.23591869999655,249.23591869999655,249.23591869999655,22,0,,,249.23591869999655,249.44687179999892,1000,249.44687179999892,1000,1000,1000,1000,1,num_2,0.4330483000376262,,22,5,2026-03-04_11h03.44.032,2026A_exp2,2022.2.4,59.92042568263299,
1000,1,0.0,0.0,0,0,74,74,72,,,,,249.90310609998414,250.55387090001022,250.55387090001022,251.05487469997024,315,315,251.05487469997024,251.05487469997024,251.05487469997024,251.05487469997024,251.05487469997024,251.05487469997024,251.05487469997024,251.05487469997024,251.05487469997024,251.4213573000161,251.4213573000161,251.4213573000161,251.4213573000161,251.4213573000161,251.4213573000161,251.4213573000161,251.4213573000161,251.4213573000161,23,0,,,251.4213573000161,251.62378929997794,1000,251.62378929997794,1000,1000,1000,1000,0,num_3,0.4240216999896802,,22,5,2026-03-04_11h03.44.032,2026A_exp2,2022.2.4,59.92042568263299,
1000,1,0.0,0.0,0,0,75,75,62,,,,,252.07185020000907,252.72268269996857,252.72268269996857,253.24035500001628,315,45,253.24035500001628,253.24035500001628,253.24035500001628,253.24035500001628,253.24035500001628,253.24035500001628,253.24035500001628,253.24035500001628,253.24035500001628,253.57376900000963,253.57376900000963,253.57376900000963,253.57376900000963,253.57376900000963,253.57376900000963,253.57376900000963,253.57376900000963,253.57376900000963,22,0,,,253.57376900000963,253.7766821999685,1000,253.7904836999951,1000,1000,1000,1000,1,num_2,0.881631699972786,,22,5,2026-03-04_11h03.44.032,2026A_exp2,2022.2.4,59.92042568263299,
1000,1,4.9,0.0,1,0,76,76,48,,,,,254.69130700000096,255.3420551000163,255.3420551000163,255.84300290001556,315,315,255.84300290001556,255.84300290001556,255.84300290001556,255.84300290001556,255.84300290001556,255.84300290001556,255.84300290001556,255.84300290001556,255.84300290001556,256.2095006000018,256.2095006000018,256.2095006000018,256.2095006000018,256.2095006000018,256.2095006000018,256.2095006000018,256.2095006000018,256.2095006000018,23,0,,,256.2095006000018,256.41150200000266,1000,256.41150200000266,1000,1000,1000,1000,0,num_3,0.3642177999718115,,22,5,2026-03-04_11h03.44.032,2026A_exp2,2022.2.4,59.92042568263299,
1000,1,0.0,0.0,0,0,77,77,89,,,,,256.7977310999995,257.44400399998995,257.44400399998995,257.9450693000108,45,45,257.9450693000108,257.9450693000108,257.9450693000108,257.9450693000108,257.9450693000108,257.9450693000108,257.9450693000108,257.9450693000108,257.9450693000108,258.3114768000087,258.3114768000087,258.3114768000087,258.3114768000087,258.3114768000087,258.3114768000087,258.3114768000087,258.3114768000087,258.3114768000087,23,0,,,258.3114768000087,258.51371619995916,1000,258.51371619995916,1000,1000,1000,1000,1,num_2,0.7022251000162214,,22,5,2026-03-04_11h03.44.032,2026A_exp2,2022.2.4,59.92042568263299,
1,0,4.9,0.0,0,0,78,78,66,,,,,259.24583179998444,259.89655639999546,259.89655639999546,260.3976785999839,315,45,260.3976785999839,260.3976785999839,260.3976785999839,260.3976785999839,260.3976785999839,260.3976785999839,260.3976785999839,260.3976785999839,260.3976785999839,260.7474232999957,260.7474232999957,260.7474232999957,260.7474232999957,260.7474232999957,260.7474232999957,260.7474232999957,260.7474232999957,260.7474232999957,22,0,,,260.7474232999957,260.9476283999975,4.9,260.9476283999975,1,4.9,1,1,1000,num_4,0.6117799000348896,,22,5,2026-03-04_11h03.44.032,2026A_exp2,2022.2.4,59.92042568263299,
0,0,6.1,0.0,1,0,79,79,25,,,,,261.5814643999911,262.23226129997056,262.23226129997056,262.716658499965,315,315,262.716658499965,262.716658499965,262.716658499965,262.716658499965,262.716658499965,262.716658499965,262.716658499965,262.716658499965,262.716658499965,263.0830494000111,263.0830494000111,263.0830494000111,263.0830494000111,263.0830494000111,263.0830494000111,263.0830494000111,263.0830494000111,263.0830494000111,23,0,,,263.0830494000111,263.2831625000108,6.1,263.2831625000108,0,6.1,1,0,1000,num_1,0.4449115000315942,,22,5,2026-03-04_11h03.44.032,2026A_exp2,2022.2.4,59.92042568263299,
1000,1,4.9,0.0,1,0,80,80,12,,,,,263.7503885999904,264.4010353999911,264.4010353999911,264.8853851999738,315,315,264.8853851999738,264.8853851999738,264.8853851999738,264.8853851999738,264.8853851999738,264.8853851999738,264.8853851999738,264.8853851999738,264.8853851999738,265.25193149998086,265.25193149998086,265.25193149998086,265.25193149998086,265.25193149998086,265.25193149998086,265.25193149998086,265.25193149998086,265.25193149998086,23,0,,,265.25193149998086,265.45365370000945,1000,265.45365370000945,1000,1000,1000,1000,0,num_3,0.5860838000080548,,22,5,2026-03-04_11h03.44.032,2026A_exp2,2022.2.4,59.92042568263299,
1000,1,0.0,3.7,0,0,81,81,43,,,,,266.06934859999456,266.7199820000096,266.7199820000096,267.2043868000037,45,315,267.2043868000037,267.2043868000037,267.2043868000037,267.2043868000037,267.2043868000037,267.2043868000037,267.2043868000037,267.2043868000037,267.2043868000037,267.5706964000128,267.5706964000128,267.5706964000128,267.5706964000128,267.5706964000128,267.5706964000128,267.5706964000128,267.5706964000128,267.5706964000128,23,0,,,267.5706964000128,267.7732909999904,1000,267.7732909999904,1000,1000,1000,1000,1,num_2,0.6750796000123955,,22,5,2026-03-04_11h03.44.032,2026A_exp2,2022.2.4,59.92042568263299,
0,0,0.0,3.7,1,0,82,82,53,,,,,268.47168099996634,269.1224726999644,269.1224726999644,269.6234664999647,315,45,269.6234664999647,269.6234664999647,269.6234664999647,269.6234664999647,269.6234664999647,269.6234664999647,269.6234664999647,269.6234664999647,269.6234664999647,269.99000529997284,269.99000529997284,269.99000529997284,269.99000529997284,269.99000529997284,269.99000529997284,269.99000529997284,269.99000529997284,269.99000529997284,23,0,,,269.99000529997284,270.1901687000063,0.0,270.1901687000063,0,0.0,0,1,1000,num_1,1.8982468000031076,,22,5,2026-03-04_11h03.44.032,2026A_exp2,2022.2.4,59.92042568263299,
1,0,6.1,0.0,1,0,83,83,17,,,,,272.1085716999951,272.7594141999725,272.7594141999725,273.2439231000026,315,45,273.2439231000026,273.2439231000026,273.2439231000026,273.2439231000026,273.2439231000026,273.2439231000026,273.2439231000026,273.2439231000026,273.2439231000026,273.61186429997906,273.61186429997906,273.61186429997906,273.61186429997906,273.61186429997906,273.61186429997906,273.61186429997906,273.61186429997906,273.61186429997906,23,0,,,273.61186429997906,273.8270928999991,0.0,273.8270928999991,0,0.0,0,1,1000,num_1,0.6604942999547347,,22,5,2026-03-04_11h03.44.032,2026A_exp2,2022.2.4,59.92042568263299,
1,0,3.7,6.1,1,0,84,84,68,,,,,274.5112715999712,275.16172400000505,275.16172400000505,275.64610519999405,45,315,275.64610519999405,275.64610519999405,275.64610519999405,275.64610519999405,275.64610519999405,275.64610519999405,275.64610519999405,275.64610519999405,275.64610519999405,276.0127431000001,276.0127431000001,276.0127431000001,276.0127431000001,276.0127431000001,276.0127431000001,276.0127431000001,276.0127431000001,276.0127431000001,23,0,,,276.0127431000001,276.212872300006,6.1,276.212872300006,1,6.1,1,1,1000,num_4,0.44374939997214824,,22,5,2026-03-04_11h03.44.032,2026A_exp2,2022.2.4,59.92042568263299,
1,0,0.0,4.9,0,0,85,85,70,,,,,276.67990370001644,277.33070829999633,277.33070829999633,277.8149979999871,45,315,277.8149979999871,277.8149979999871,277.8149979999871,277.8149979999871,277.8149979999871,277.8149979999871,277.8149979999871,277.8149979999871,277.8149979999871,278.18150149995927,278.18150149995927,278.18150149995927,278.18150149995927,278.18150149995927,278.18150149995927,278.18150149995927,278.18150149995927,278.18150149995927,23,0,,,278.18150149995927,278.389466899971,0.0,278.389466899971,0,0.0,0,1,1000,num_1,0.561792400025297,,22,5,2026-03-04_11h03.44.032,2026A_exp2,2022.2.4,59.92042568263299,
1000,1,0.0,3.7,1,0,86,86,88,,,,,278.9822034999961,279.6328944999841,279.6328944999841,280.11737960000755,315,315,280.11737960000755,280.11737960000755,280.11737960000755,280.11737960000755,280.11737960000755,280.11737960000755,280.11737960000755,280.11737960000755,280.11737960000755,280.4837679999764,280.4837679999764,280.4837679999764,280.4837679999764,280.4837679999764,280.4837679999764,280.4837679999764,280.4837679999764,280.4837679999764,23,0,,,280.4837679999764,280.6856264999951,1000,280.6856264999951,1000,1000,1000,1000,1,num_2,0.849880599998869,,22,5,2026-03-04_11h03.44.032,2026A_exp2,2022.2.4,59.92042568263299,
1000,1,0.0,4.9,0,0,87,87,8,,,,,281.55151179997483,282.2021995999967,282.2021995999967,282.7033199999714,315,45,282.7033199999714,282.7033199999714,282.7033199999714,282.7033199999714,282.7033199999714,282.7033199999714,282.7033199999714,282.7033199999714,282.7033199999714,283.06980990001466,283.06980990001466,283.06980990001466,283.06980990001466,283.06980990001466,283.06980990001466,283.06980990001466,283.06980990001466,283.06980990001466,23,0,,,283.06980990001466,283.27236599999014,1000,283.27236599999014,1000,1000,1000,1000,0,num_3,0.6717252000235021,,22,5,2026-03-04_11h03.44.032,2026A_exp2,2022.2.4,59.92042568263299,
1000,1,0.0,3.7,0,0,88,88,21,,,,,283.97083910001675,284.6212044999702,284.6212044999702,285.12244599999394,45,45,285.12244599999394,285.12244599999394,285.12244599999394,285.12244599999394,285.12244599999394,285.12244599999394,285.12244599999394,285.12244599999394,285.12244599999394,285.4887231999892,285.4887231999892,285.4887231999892,285.4887231999892,285.4887231999892,285.4887231999892,285.4887231999892,285.4887231999892,285.4887231999892,23,0,,,285.4887231999892,285.6907273000106,1000,285.6907273000106,1000,1000,1000,1000,1,num_2,0.5566664999932982,,22,5,2026-03-04_11h03.44.032,2026A_exp2,2022.2.4,59.92042568263299,
0,0,0.0,0.0,0,0,89,89,15,,,,,286.2731284999754,286.9234001999721,286.9234001999721,287.4247225999716,45,45,287.4247225999716,287.4247225999716,287.4247225999716,287.4247225999716,287.4247225999716,287.4247225999716,287.4247225999716,287.4247225999716,287.4247225999716,287.7742428999627,287.7742428999627,287.7742428999627,287.7742428999627,287.7742428999627,287.7742428999627,287.7742428999627,287.7742428999627,287.7742428999627,22,0,,,287.7742428999627,287.9745867999736,0.0,287.9745867999736,1,0.0,0,0,1000,num_4,1.8895583000266925,,22,5,2026-03-04_11h03.44.032,2026A_exp2,2022.2.4,59.92042568263299,
,,,,,,,,,,,,,,,,,,,,,,,,,,,,,,,,,,,,,,,,,,,,,,,,,,,,289.9005401000031,,,,,,,
