validity,detectorcomp,contrastCW,contrastCCW,precueCWorCCW,block_80trials.thisRepN,block_80trials.thisTrialN,block_80trials.thisN,block_80trials.thisIndex,etRecord.started,etRecord.stopped,text.started,text.stopped,text_4.started,text_4.stopped,text_6.started,text_6.stopped,oriCW,oriCCW,roi_2.started,grating_UR.started,grating_UL.started,grating_LR.started,grating_LL.started,noise_UR.started,noise_UL.started,noise_LR.started,noise_LL.started,roi_2.stopped,grating_UR.stopped,grating_UL.stopped,grating_LR.stopped,grating_LL.stopped,noise_UR.stopped,noise_UL.stopped,noise_LR.stopped,noise_LL.stopped,outframe,roi_2.numLooks,roi_2.timesOn,roi_2.timesOff,text_2.started,text_2.stopped,probedcontrast,key_resp.started,respdetect,relevantContrast,correctDetect,TorFdetect,respCWorCCW,key_resp.keys,key_resp.rt,feedback_display_.started,participantNo,blockNo,date,expName,psychopyVersion,frameRate,
1,0,0.0,4.9,0,0,0,0,17,3.860000288113952e-05,3.860000288113952e-05,58.8901135000051,60.894295200007036,60.894295200007036,61.527354599995306,61.527354599995306,62.051651799993124,315,315,62.051651799993124,62.051651799993124,62.051651799993124,62.051651799993124,62.051651799993124,62.051651799993124,62.051651799993124,62.051651799993124,62.051651799993124,62.395082300005015,62.395082300005015,62.395082300005015,62.395082300005015,62.395082300005015,62.395082300005015,62.395082300005015,62.395082300005015,62.395082300005015,0,1,[0.0009945000056177378],[0.36624179998761974],62.395082300005015,62.594885099999374,0.0,62.594885099999374,0,0.0,0,1,1000,num_1,0.7659650999994483,,21,11,2026-03-02_18h12.11.675,2026A_exp2,2022.2.4,59.9815976383927,
1,0,4.9,6.1,0,0,1,1,15,,,,,63.37892370001646,64.0293079999974,64.0293079999974,64.51377849999699,315,45,64.51377849999699,64.51377849999699,64.51377849999699,64.51377849999699,64.51377849999699,64.51377849999699,64.51377849999699,64.51377849999699,64.51377849999699,64.88031000000774,64.88031000000774,64.88031000000774,64.88031000000774,64.88031000000774,64.88031000000774,64.88031000000774,64.88031000000774,64.88031000000774,0,1,[0.0008684999775141478],[0.36725009998190217],64.88031000000774,65.0808462999994,4.9,65.0808462999994,1,4.9,1,1,1000,num_4,1.6878074000123888,,21,11,2026-03-02_18h12.11.675,2026A_exp2,2022.2.4,59.9815976383927,
0,0,3.7,0.0,1,0,2,2,83,,,,,66.79909710001084,67.4329640000069,67.4329640000069,67.93392899999162,45,45,67.93392899999162,67.93392899999162,67.93392899999162,67.93392899999162,67.93392899999162,67.93392899999162,67.93392899999162,67.93392899999162,67.93392899999162,68.3003391000093,68.3003391000093,68.3003391000093,68.3003391000093,68.3003391000093,68.3003391000093,68.3003391000093,68.3003391000093,68.3003391000093,0,1,[0.0007693999796174467],[0.3668613999907393],68.3003391000093,68.5007251999923,3.7,68.5007251999923,0,3.7,1,0,1000,num_1,2.156845699995756,,21,11,2026-03-02_18h12.11.675,2026A_exp2,2022.2.4,59.9815976383927,
1,0,0.0,6.1,0,0,3,3,68,,,,,70.68673980000312,71.33667340001557,71.33667340001557,71.82104440001422,45,45,71.82104440001422,71.82104440001422,71.82104440001422,71.82104440001422,71.82104440001422,71.82104440001422,71.82104440001422,71.82104440001422,71.82104440001422,72.1876898999908,72.1876898999908,72.1876898999908,72.1876898999908,72.1876898999908,72.1876898999908,72.1876898999908,72.1876898999908,72.1876898999908,0,1,[0.0014860999945085496],[0.36720659999991767],72.1876898999908,72.38813040000969,0.0,72.38813040000969,0,0.0,0,1,1000,num_1,0.5488601999823004,,21,11,2026-03-02_18h12.11.675,2026A_exp2,2022.2.4,59.9815976383927,
1,0,4.9,4.9,1,0,4,4,89,,,,,72.95508220000193,73.58989020000445,73.58989020000445,74.09025939999265,45,45,74.09025939999265,74.09025939999265,74.09025939999265,74.09025939999265,74.09025939999265,74.09025939999265,74.09025939999265,74.09025939999265,74.09025939999265,74.45658070000354,74.45658070000354,74.45658070000354,74.45658070000354,74.45658070000354,74.45658070000354,74.45658070000354,74.45658070000354,74.45658070000354,0,1,[0.0007946999976411462],[0.367080399999395],74.45658070000354,74.65671770001063,4.9,74.65671770001063,1,4.9,1,1,1000,num_4,1.4083239000174217,,21,11,2026-03-02_18h12.11.675,2026A_exp2,2022.2.4,59.9815976383927,
1,0,4.9,0.0,1,0,5,5,6,,,,,76.09156420000363,76.72530829999596,76.72530829999596,77.22643529999186,45,45,77.22643529999186,77.22643529999186,77.22643529999186,77.22643529999186,77.22643529999186,77.22643529999186,77.22643529999186,77.22643529999186,77.22643529999186,77.59308839999721,77.59308839999721,77.59308839999721,77.59308839999721,77.59308839999721,77.59308839999721,77.59308839999721,77.59308839999721,77.59308839999721,0,1,[0.0007282000151462853],[0.367665500001749],77.59308839999721,77.79295010000351,0.0,77.79295010000351,0,0.0,0,1,1000,num_1,0.5604393999965396,,21,11,2026-03-02_18h12.11.675,2026A_exp2,2022.2.4,59.9815976383927,
1,0,0.0,0.0,0,0,6,6,59,,,,,78.37710270000389,79.01091129999259,79.01091129999259,79.51210439999704,315,315,79.51210439999704,79.51210439999704,79.51210439999704,79.51210439999704,79.51210439999704,79.51210439999704,79.51210439999704,79.51210439999704,79.51210439999704,79.8785549000022,79.8785549000022,79.8785549000022,79.8785549000022,79.8785549000022,79.8785549000022,79.8785549000022,79.8785549000022,79.8785549000022,0,1,[0.0007505000103265047],[0.3670290000154637],79.8785549000022,80.07872819999466,0.0,80.07872819999466,0,0.0,0,1,1000,num_1,0.3383338999992702,,21,11,2026-03-02_18h12.11.675,2026A_exp2,2022.2.4,59.9815976383927,
1,0,0.0,0.0,1,0,7,7,41,,,,,80.44583919999423,81.08007429999998,81.08007429999998,81.58087219999288,315,315,81.58087219999288,81.58087219999288,81.58087219999288,81.58087219999288,81.58087219999288,81.58087219999288,81.58087219999288,81.58087219999288,81.58087219999288,81.94713020001655,81.94713020001655,81.94713020001655,81.94713020001655,81.94713020001655,81.94713020001655,81.94713020001655,81.94713020001655,81.94713020001655,0,1,[0.0007476999890059233],[0.36758809999446385],81.94713020001655,82.14742130000377,0.0,82.14742130000377,0,0.0,0,1,1000,num_1,0.6052485999825876,,21,11,2026-03-02_18h12.11.675,2026A_exp2,2022.2.4,59.9815976383927,
1000,1,0.0,0.0,1,0,8,8,29,,,,,82.78167900000699,83.41541980000329,83.41541980000329,83.91698219999671,315,45,83.91698219999671,83.91698219999671,83.91698219999671,83.91698219999671,83.91698219999671,83.91698219999671,83.91698219999671,83.91698219999671,83.91698219999671,84.28301680000732,84.28301680000732,84.28301680000732,84.28301680000732,84.28301680000732,84.28301680000732,84.28301680000732,84.28301680000732,84.28301680000732,0,1,[0.0007288000197149813],[0.36742759999469854],84.28301680000732,84.48346990000573,1000,84.48346990000573,1000,1000,1000,1000,0,num_3,0.8691995000117458,,21,11,2026-03-02_18h12.11.675,2026A_exp2,2022.2.4,59.9815976383927,
1,0,0.0,6.1,0,0,9,9,5,,,,,85.36757440000656,86.01808559999336,86.01808559999336,86.51916319999145,45,45,86.51916319999145,86.51916319999145,86.51916319999145,86.51916319999145,86.51916319999145,86.51916319999145,86.51916319999145,86.51916319999145,86.51916319999145,86.88560949999373,86.88560949999373,86.88560949999373,86.88560949999373,86.88560949999373,86.88560949999373,86.88560949999373,86.88560949999373,86.88560949999373,1,2,"[0.0007549000147264451, 0.2171292999992147]","[0.2001313999935519, 0.3668070000130683]",86.88560949999373,87.08619370000088,0.0,87.08619370000088,0,0.0,0,1,1000,num_1,0.6428653000039048,,21,11,2026-03-02_18h12.11.675,2026A_exp2,2022.2.4,59.9815976383927,
1000,1,0.0,0.0,0,0,10,10,65,,,,,87.75252690000343,88.38734809999005,88.38734809999005,88.88809220000985,315,315,88.88809220000985,88.88809220000985,88.88809220000985,88.88809220000985,88.88809220000985,88.88809220000985,88.88809220000985,88.88809220000985,88.88809220000985,89.25477600001614,89.25477600001614,89.25477600001614,89.25477600001614,89.25477600001614,89.25477600001614,89.25477600001614,89.25477600001614,89.25477600001614,0,1,[0.0007332999957725406],[0.3671112999727484],89.25477600001614,89.45484779999242,1000,89.45484779999242,1000,1000,1000,1000,0,num_3,1.2585497999971267,,21,11,2026-03-02_18h12.11.675,2026A_exp2,2022.2.4,59.9815976383927,
1,0,3.7,4.9,1,0,11,11,39,,,,,90.73981480000657,91.39049510000041,91.39049510000041,91.8747493000119,45,45,91.8747493000119,91.8747493000119,91.8747493000119,91.8747493000119,91.8747493000119,91.8747493000119,91.8747493000119,91.8747493000119,91.8747493000119,92.24132420000387,92.24132420000387,92.24132420000387,92.24132420000387,92.24132420000387,92.24132420000387,92.24132420000387,92.24132420000387,92.24132420000387,0,1,[0.000763899995945394],[0.36679080000612885],92.24132420000387,92.44124690000899,4.9,92.44124690000899,1,4.9,1,1,1000,num_4,0.6000075000047218,,21,11,2026-03-02_18h12.11.675,2026A_exp2,2022.2.4,59.9815976383927,
1000,1,0.0,0.0,0,0,12,12,20,,,,,93.05843810000806,93.69227510000928,93.69227510000928,94.19359840001562,315,315,94.19359840001562,94.19359840001562,94.19359840001562,94.19359840001562,94.19359840001562,94.19359840001562,94.19359840001562,94.19359840001562,94.19359840001562,94.55983559999731,94.55983559999731,94.55983559999731,94.55983559999731,94.55983559999731,94.55983559999731,94.55983559999731,94.55983559999731,94.55983559999731,0,1,[0.000767299992730841],[0.36711039999499917],94.55983559999731,94.7600999000133,1000,94.7600999000133,1000,1000,1000,1000,0,num_3,0.8485063999833073,,21,11,2026-03-02_18h12.11.675,2026A_exp2,2022.2.4,59.9815976383927,
1,0,0.0,4.9,1,0,13,13,45,,,,,95.62757260000217,96.26152410000213,96.26152410000213,96.76226220000535,45,315,96.76226220000535,96.76226220000535,96.76226220000535,96.76226220000535,96.76226220000535,96.76226220000535,96.76226220000535,96.76226220000535,96.76226220000535,97.12914679999813,97.12914679999813,97.12914679999813,97.12914679999813,97.12914679999813,97.12914679999813,97.12914679999813,97.12914679999813,97.12914679999813,0,1,[0.0007281999860424548],[0.3671392999822274],97.12914679999813,97.32942759999423,4.9,97.32942759999423,1,4.9,1,1,1000,num_4,0.37615549998008646,,21,11,2026-03-02_18h12.11.675,2026A_exp2,2022.2.4,59.9815976383927,
1000,1,3.7,6.1,0,0,14,14,28,,,,,97.72977320000064,98.3637599000067,98.3637599000067,98.864765300008,45,45,98.864765300008,98.864765300008,98.864765300008,98.864765300008,98.864765300008,98.864765300008,98.864765300008,98.864765300008,98.864765300008,99.23137600001064,99.23137600001064,99.23137600001064,99.23137600001064,99.23137600001064,99.23137600001064,99.23137600001064,99.23137600001064,99.23137600001064,0,1,[0.0007533000025432557],[0.3675922999973409],99.23137600001064,99.43145960001857,1000,99.43145960001857,1000,1000,1000,1000,1,num_2,0.7300309999845922,,21,11,2026-03-02_18h12.11.675,2026A_exp2,2022.2.4,59.9815976383927,
1,0,0.0,0.0,0,0,15,15,2,,,,,100.18232480000006,100.8162799999991,100.8162799999991,101.31728839999414,315,315,101.31728839999414,101.31728839999414,101.31728839999414,101.31728839999414,101.31728839999414,101.31728839999414,101.31728839999414,101.31728839999414,101.31728839999414,101.68412950000493,101.68412950000493,101.68412950000493,101.68412950000493,101.68412950000493,101.68412950000493,101.68412950000493,101.68412950000493,101.68412950000493,0,1,[0.0008374000026378781],[0.3672413000022061],101.68412950000493,101.88382920000004,0.0,101.88382920000004,0,0.0,0,1,1000,num_1,0.3339768000005279,,21,11,2026-03-02_18h12.11.675,2026A_exp2,2022.2.4,59.9815976383927,
1000,1,4.9,0.0,1,0,16,16,25,,,,,102.23448670000653,102.86818809999386,102.86818809999386,103.36947679999867,315,45,103.36947679999867,103.36947679999867,103.36947679999867,103.36947679999867,103.36947679999867,103.36947679999867,103.36947679999867,103.36947679999867,103.36947679999867,103.7356953000126,103.7356953000126,103.7356953000126,103.7356953000126,103.7356953000126,103.7356953000126,103.7356953000126,103.7356953000126,103.7356953000126,0,1,[0.000746900012018159],[0.3670494999969378],103.7356953000126,103.93599339999491,1000,103.93599339999491,1000,1000,1000,1000,0,num_3,0.513091800006805,,21,11,2026-03-02_18h12.11.675,2026A_exp2,2022.2.4,59.9815976383927,
1000,1,0.0,0.0,1,0,17,17,7,,,,,104.4701284999901,105.10405140000512,105.10405140000512,105.6052703000023,315,45,105.6052703000023,105.6052703000023,105.6052703000023,105.6052703000023,105.6052703000023,105.6052703000023,105.6052703000023,105.6052703000023,105.6052703000023,105.97125339999911,105.97125339999911,105.97125339999911,105.97125339999911,105.97125339999911,105.97125339999911,105.97125339999911,105.97125339999911,105.97125339999911,0,1,[0.000749099999666214],[0.3665792999963742],105.97125339999911,106.17173000000184,1000,106.17173000000184,1000,1000,1000,1000,0,num_3,0.8373434999957681,,21,11,2026-03-02_18h12.11.675,2026A_exp2,2022.2.4,59.9815976383927,
1000,1,4.9,6.1,1,0,18,18,1,,,,,107.03915910000796,107.67329999999492,107.67329999999492,108.17425670000375,45,315,108.17425670000375,108.17425670000375,108.17425670000375,108.17425670000375,108.17425670000375,108.17425670000375,108.17425670000375,108.17425670000375,108.17425670000375,108.54047820001142,108.54047820001142,108.54047820001142,108.54047820001142,108.54047820001142,108.54047820001142,108.54047820001142,108.54047820001142,108.54047820001142,0,1,[0.0007677000248804688],[0.3670946000202093],108.54047820001142,108.74087300000247,1000,108.74087300000247,1000,1000,1000,1000,0,num_3,0.8845796000096016,,21,11,2026-03-02_18h12.11.675,2026A_exp2,2022.2.4,59.9815976383927,
1,0,3.7,0.0,1,0,19,19,74,,,,,109.64162199999555,110.2923221999954,110.2923221999954,110.7763341999962,315,45,110.7763341999962,110.7763341999962,110.7763341999962,110.7763341999962,110.7763341999962,110.7763341999962,110.7763341999962,110.7763341999962,110.7763341999962,111.14304640001501,111.14304640001501,111.14304640001501,111.14304640001501,111.14304640001501,111.14304640001501,111.14304640001501,111.14304640001501,111.14304640001501,23,0,,,111.14304640001501,111.3433062999975,0.0,111.3433062999975,0,0.0,0,1,1000,num_1,0.5860034999786876,,21,11,2026-03-02_18h12.11.675,2026A_exp2,2022.2.4,59.9815976383927,
1,0,4.9,6.1,1,0,20,20,46,,,,,111.96075090000522,112.6114699000027,112.6114699000027,113.11237560000154,45,315,113.11237560000154,113.11237560000154,113.11237560000154,113.11237560000154,113.11237560000154,113.11237560000154,113.11237560000154,113.11237560000154,113.11237560000154,113.47895270001027,113.47895270001027,113.47895270001027,113.47895270001027,113.47895270001027,113.47895270001027,113.47895270001027,113.47895270001027,113.47895270001027,0,1,[0.0007981999951880425],[0.36713179998332635],113.47895270001027,113.67886650000582,6.1,113.67886650000582,1,6.1,1,1,1000,num_4,0.4506515999964904,,21,11,2026-03-02_18h12.11.675,2026A_exp2,2022.2.4,59.9815976383927,
1000,1,0.0,0.0,0,0,21,21,75,,,,,114.14606689999346,114.78022119999514,114.78022119999514,115.28096289999667,315,45,115.28096289999667,115.28096289999667,115.28096289999667,115.28096289999667,115.28096289999667,115.28096289999667,115.28096289999667,115.28096289999667,115.28096289999667,115.64756189999753,115.64756189999753,115.64756189999753,115.64756189999753,115.64756189999753,115.64756189999753,115.64756189999753,115.64756189999753,115.64756189999753,0,1,[0.0007849999819882214],[0.3676256999897305],115.64756189999753,115.8479049000016,1000,115.8479049000016,1000,1000,1000,1000,0,num_3,0.625413399975514,,21,11,2026-03-02_18h12.11.675,2026A_exp2,2022.2.4,59.9815976383927,
1,0,6.1,3.7,0,0,22,22,26,,,,,116.4986831000133,117.14919850000297,117.14919850000297,117.63334440000472,315,315,117.63334440000472,117.63334440000472,117.63334440000472,117.63334440000472,117.63334440000472,117.63334440000472,117.63334440000472,117.63334440000472,117.63334440000472,117.99996310001006,117.99996310001006,117.99996310001006,117.99996310001006,117.99996310001006,117.99996310001006,117.99996310001006,117.99996310001006,117.99996310001006,19,1,[0.000773799984017387],[0.06761179998284206],117.99996310001006,118.19997099999455,6.1,118.19997099999455,1,6.1,1,1,1000,num_4,0.7527994000120088,,21,11,2026-03-02_18h12.11.675,2026A_exp2,2022.2.4,59.9815976383927,
1000,1,0.0,4.9,1,0,23,23,51,,,,,118.98437069999636,119.63521510001738,119.63521510001738,120.11943849999807,45,315,120.11943849999807,120.11943849999807,120.11943849999807,120.11943849999807,120.11943849999807,120.11943849999807,120.11943849999807,120.11943849999807,120.11943849999807,120.48594020001474,120.48594020001474,120.48594020001474,120.48594020001474,120.48594020001474,120.48594020001474,120.48594020001474,120.48594020001474,120.48594020001474,2,1,[0.033522300014737993],[0.3669485000136774],120.48594020001474,120.68603360000998,1000,120.68603360000998,1000,1000,1000,1000,1,num_2,0.5472681999963243,,21,11,2026-03-02_18h12.11.675,2026A_exp2,2022.2.4,59.9815976383927,
1000,1,6.1,3.7,1,0,24,24,10,,,,,121.2534897000005,121.88746460000402,121.88746460000402,122.38835379999364,315,315,122.38835379999364,122.38835379999364,122.38835379999364,122.38835379999364,122.38835379999364,122.38835379999364,122.38835379999364,122.38835379999364,122.38835379999364,122.7546025000047,122.7546025000047,122.7546025000047,122.7546025000047,122.7546025000047,122.7546025000047,122.7546025000047,122.7546025000047,122.7546025000047,0,1,[0.0007369999948423356],[0.36693980000563897],122.7546025000047,122.95541560000856,1000,122.95541560000856,1000,1000,1000,1000,0,num_3,0.4855006999860052,,21,11,2026-03-02_18h12.11.675,2026A_exp2,2022.2.4,59.9815976383927,
1,0,4.9,0.0,1,0,25,25,82,,,,,123.47237780000432,124.10649669999839,124.10649669999839,124.60712679999415,315,315,124.60712679999415,124.60712679999415,124.60712679999415,124.60712679999415,124.60712679999415,124.60712679999415,124.60712679999415,124.60712679999415,124.60712679999415,124.97367470001336,124.97367470001336,124.97367470001336,124.97367470001336,124.97367470001336,124.97367470001336,124.97367470001336,124.97367470001336,124.97367470001336,0,1,[0.000989399995887652],[0.36751619999995455],124.97367470001336,125.17398409999441,0.0,125.17398409999441,0,0.0,0,1,1000,num_1,0.6746785999857821,,21,11,2026-03-02_18h12.11.675,2026A_exp2,2022.2.4,59.9815976383927,
1000,1,6.1,3.7,0,0,26,26,87,,,,,125.87464290001662,126.5253204999899,126.5253204999899,127.02639620000264,45,45,127.02639620000264,127.02639620000264,127.02639620000264,127.02639620000264,127.02639620000264,127.02639620000264,127.02639620000264,127.02639620000264,127.02639620000264,127.39286779999384,127.39286779999384,127.39286779999384,127.39286779999384,127.39286779999384,127.39286779999384,127.39286779999384,127.39286779999384,127.39286779999384,6,5,"[0.000960400007897988, 0.05022450000979006, 0.09984500001883134, 0.1833117000060156, 0.2168050000036601]","[0.01700600000913255, 0.06686120000085793, 0.16672960002324544, 0.2004097000171896, 0.36662539999815635]",127.39286779999384,127.59299000000465,1000,127.59299000000465,1000,1000,1000,1000,0,num_3,0.5444370999757666,,21,11,2026-03-02_18h12.11.675,2026A_exp2,2022.2.4,59.9815976383927,
1000,1,4.9,4.9,0,0,27,27,31,,,,,128.1602885000175,128.81128480000189,128.81128480000189,129.2953695000033,45,315,129.2953695000033,129.2953695000033,129.2953695000033,129.2953695000033,129.2953695000033,129.2953695000033,129.2953695000033,129.2953695000033,129.2953695000033,129.66159309999784,129.66159309999784,129.66159309999784,129.66159309999784,129.66159309999784,129.66159309999784,129.66159309999784,129.66159309999784,129.66159309999784,5,3,"[0.0007483999943360686, 0.21674540001549758, 0.3669458999938797]","[0.1999943999981042, 0.30041090000304393, 0.36694929999066517]",129.66159309999784,129.86185290000867,1000,129.86185290000867,1000,1000,1000,1000,0,num_3,0.435002699989127,,21,11,2026-03-02_18h12.11.675,2026A_exp2,2022.2.4,59.9815976383927,
1000,1,4.9,0.0,0,0,28,28,22,,,,,130.31266470000264,130.96307600001455,130.96307600001455,131.46403170001577,45,45,131.46403170001577,131.46403170001577,131.46403170001577,131.46403170001577,131.46403170001577,131.46403170001577,131.46403170001577,131.46403170001577,131.46403170001577,131.8138666000159,131.8138666000159,131.8138666000159,131.8138666000159,131.8138666000159,131.8138666000159,131.8138666000159,131.8138666000159,131.8138666000159,5,3,"[0.0007708999910391867, 0.2341813999810256, 0.26707259999238886]","[0.21702499999082647, 0.2505010000022594, 0.3171472999965772]",131.8138666000159,132.01403449999634,1000,132.03067939999164,1000,1000,1000,1000,0,num_3,0.42634380000527017,,21,11,2026-03-02_18h12.11.675,2026A_exp2,2022.2.4,59.9815976383927,
0,0,0.0,3.7,1,0,29,29,21,,,,,132.4813598000037,133.11503320001066,133.11503320001066,133.61613129999023,315,315,133.61613129999023,133.61613129999023,133.61613129999023,133.61613129999023,133.61613129999023,133.61613129999023,133.61613129999023,133.61613129999023,133.61613129999023,133.98281250000582,133.98281250000582,133.98281250000582,133.98281250000582,133.98281250000582,133.98281250000582,133.98281250000582,133.98281250000582,133.98281250000582,0,1,[0.0009501000167801976],[0.3669049000018276],133.98281250000582,134.18301659999997,0.0,134.18301659999997,0,0.0,0,1,1000,num_1,0.506021499983035,,21,11,2026-03-02_18h12.11.675,2026A_exp2,2022.2.4,59.9815976383927,
1000,1,0.0,0.0,1,0,30,30,23,,,,,134.71681489999173,135.36738730000798,135.36738730000798,135.8518807000073,45,45,135.8518807000073,135.8518807000073,135.8518807000073,135.8518807000073,135.8518807000073,135.8518807000073,135.8518807000073,135.8518807000073,135.8518807000073,136.21834190000664,136.21834190000664,136.21834190000664,136.21834190000664,136.21834190000664,136.21834190000664,136.21834190000664,136.21834190000664,136.21834190000664,0,1,[0.0007402999908663332],[0.3670163000060711],136.21834190000664,136.41922969999723,1000,136.41922969999723,1000,1000,1000,1000,0,num_3,1.0221943999931682,,21,11,2026-03-02_18h12.11.675,2026A_exp2,2022.2.4,59.9815976383927,
1,0,0.0,0.0,1,0,31,31,70,,,,,137.46983889999683,138.10345860000234,138.10345860000234,138.60490920001757,315,45,138.60490920001757,138.60490920001757,138.60490920001757,138.60490920001757,138.60490920001757,138.60490920001757,138.60490920001757,138.60490920001757,138.60490920001757,138.97106959999655,138.97106959999655,138.97106959999655,138.97106959999655,138.97106959999655,138.97106959999655,138.97106959999655,138.97106959999655,138.97106959999655,0,1,[0.0009246999979950488],[0.36756890002288856],138.97106959999655,139.17141390001052,0.0,139.17141390001052,0,0.0,0,1,1000,num_1,0.6219597000163049,,21,11,2026-03-02_18h12.11.675,2026A_exp2,2022.2.4,59.9815976383927,
1000,1,0.0,3.7,0,0,32,32,44,,,,,139.8220157000178,140.45559470000444,140.45559470000444,140.9572829999961,315,45,140.9572829999961,140.9572829999961,140.9572829999961,140.9572829999961,140.9572829999961,140.9572829999961,140.9572829999961,140.9572829999961,140.9572829999961,141.32323800001177,141.32323800001177,141.32323800001177,141.32323800001177,141.32323800001177,141.32323800001177,141.32323800001177,141.32323800001177,141.32323800001177,0,1,[0.0008895999926608056],[0.3671207999868784],141.32323800001177,141.52372530000866,1000,141.52372530000866,1000,1000,1000,1000,1,num_2,0.885327199997846,,21,11,2026-03-02_18h12.11.675,2026A_exp2,2022.2.4,59.9815976383927,
1,0,4.9,0.0,1,0,33,33,4,,,,,142.42464040001505,143.07498579999083,143.07498579999083,143.5760190000001,315,315,143.5760190000001,143.5760190000001,143.5760190000001,143.5760190000001,143.5760190000001,143.5760190000001,143.5760190000001,143.5760190000001,143.5760190000001,143.94272900000215,143.94272900000215,143.94272900000215,143.94272900000215,143.94272900000215,143.94272900000215,143.94272900000215,143.94272900000215,143.94272900000215,0,1,[0.0007283000159077346],[0.367332499998156],143.94272900000215,144.14279149999493,0.0,144.14279149999493,0,0.0,0,1,1000,num_1,0.5462775999912992,,21,11,2026-03-02_18h12.11.675,2026A_exp2,2022.2.4,59.9815976383927,
1,0,4.9,6.1,1,0,34,34,86,,,,,144.70995170000242,145.34417830000166,145.34417830000166,145.8449280000059,315,45,145.8449280000059,145.8449280000059,145.8449280000059,145.8449280000059,145.8449280000059,145.8449280000059,145.8449280000059,145.8449280000059,145.8449280000059,146.21149859999423,146.21149859999423,146.21149859999423,146.21149859999423,146.21149859999423,146.21149859999423,146.21149859999423,146.21149859999423,146.21149859999423,0,1,[0.000755299988668412],[0.36742019999655895],146.21149859999423,146.41156730000512,6.1,146.41156730000512,1,6.1,1,1,1000,num_4,0.5332096999918576,,21,11,2026-03-02_18h12.11.675,2026A_exp2,2022.2.4,59.9815976383927,
1,0,0.0,3.7,0,0,35,35,78,,,,,146.9623349000176,147.59607790000155,147.59607790000155,148.09787170001073,45,315,148.09787170001073,148.09787170001073,148.09787170001073,148.09787170001073,148.09787170001073,148.09787170001073,148.09787170001073,148.09787170001073,148.09787170001073,148.46465270000044,148.46465270000044,148.46465270000044,148.46465270000044,148.46465270000044,148.46465270000044,148.46465270000044,148.46465270000044,148.46465270000044,0,1,[0.0007433000137098134],[0.3683289999898989],148.46465270000044,148.66487710000365,0.0,148.66487710000365,0,0.0,0,1,1000,num_1,1.1838371999911033,,21,11,2026-03-02_18h12.11.675,2026A_exp2,2022.2.4,59.9815976383927,
1,0,0.0,4.9,0,0,36,36,71,,,,,149.86591090000002,150.5165685999964,150.5165685999964,151.00173000001814,45,315,151.00173000001814,151.00173000001814,151.00173000001814,151.00173000001814,151.00173000001814,151.00173000001814,151.00173000001814,151.00173000001814,151.00173000001814,151.36713540001074,151.36713540001074,151.36713540001074,151.36713540001074,151.36713540001074,151.36713540001074,151.36713540001074,151.36713540001074,151.36713540001074,0,1,[0.0008834999753162265],[0.36685839999699965],151.36713540001074,151.56738719998975,0.0,151.56738719998975,0,0.0,0,1,1000,num_1,0.46549360000062734,,21,11,2026-03-02_18h12.11.675,2026A_exp2,2022.2.4,59.9815976383927,
1,0,0.0,0.0,0,0,37,37,9,,,,,152.0513646999898,152.70133760001045,152.70133760001045,153.20246610001777,315,315,153.20246610001777,153.20246610001777,153.20246610001777,153.20246610001777,153.20246610001777,153.20246610001777,153.20246610001777,153.20246610001777,153.20246610001777,153.55197160001262,153.55197160001262,153.55197160001262,153.55197160001262,153.55197160001262,153.55197160001262,153.55197160001262,153.55197160001262,153.55197160001262,3,3,"[0.000676800002111122, 0.2671416999946814, 0.3335478999943007]","[0.2507513999880757, 0.31714739999733865, 0.3503433000005316]",153.55197160001262,153.75302520001424,0.0,153.75302520001424,0,0.0,0,1,1000,num_1,0.36764729997958057,,21,11,2026-03-02_18h12.11.675,2026A_exp2,2022.2.4,59.9815976383927,
0,0,0.0,6.1,1,0,38,38,76,,,,,154.1528590999951,154.7870543000172,154.7870543000172,155.28786959999707,315,45,155.28786959999707,155.28786959999707,155.28786959999707,155.28786959999707,155.28786959999707,155.28786959999707,155.28786959999707,155.28786959999707,155.28786959999707,155.65415889999713,155.65415889999713,155.65415889999713,155.65415889999713,155.65415889999713,155.65415889999713,155.65415889999713,155.65415889999713,155.65415889999713,23,0,,,155.65415889999713,155.8543484999973,0.0,155.8543484999973,0,0.0,0,1,1000,num_1,0.4905558000027668,,21,11,2026-03-02_18h12.11.675,2026A_exp2,2022.2.4,59.9815976383927,
1,0,4.9,0.0,0,0,39,39,48,,,,,156.3719165000075,157.0055895000114,157.0055895000114,157.5070554999984,45,45,157.5070554999984,157.5070554999984,157.5070554999984,157.5070554999984,157.5070554999984,157.5070554999984,157.5070554999984,157.5070554999984,157.5070554999984,157.87296810001135,157.87296810001135,157.87296810001135,157.87296810001135,157.87296810001135,157.87296810001135,157.87296810001135,157.87296810001135,157.87296810001135,11,1,[0.16754729999229312],[0.3668147999851499],157.87296810001135,158.0743013000174,4.9,158.0743013000174,1,4.9,1,1,1000,num_4,0.35121379999327473,,21,11,2026-03-02_18h12.11.675,2026A_exp2,2022.2.4,59.9815976383927,
1,0,0.0,3.7,0,0,40,40,12,,,,,158.45653329999186,159.09102880000137,159.09102880000137,159.59197249999852,315,45,159.59197249999852,159.59197249999852,159.59197249999852,159.59197249999852,159.59197249999852,159.59197249999852,159.59197249999852,159.59197249999852,159.59197249999852,159.95828369999072,159.95828369999072,159.95828369999072,159.95828369999072,159.95828369999072,159.95828369999072,159.95828369999072,159.95828369999072,159.95828369999072,23,0,,,159.95828369999072,160.15850009999122,0.0,160.15850009999122,0,0.0,0,1,1000,num_1,0.362202399992384,,21,11,2026-03-02_18h12.11.675,2026A_exp2,2022.2.4,59.9815976383927,
1000,1,0.0,4.9,1,0,41,41,27,,,,,160.54308020000462,161.19318510001176,161.19318510001176,161.677592299995,45,315,161.677592299995,161.677592299995,161.677592299995,161.677592299995,161.677592299995,161.677592299995,161.677592299995,161.677592299995,161.677592299995,162.04384180001216,162.04384180001216,162.04384180001216,162.04384180001216,162.04384180001216,162.04384180001216,162.04384180001216,162.04384180001216,162.04384180001216,6,4,"[0.03311509999912232, 0.0830773999914527, 0.2833405999990646, 0.36679499997990206]","[0.049959099997067824, 0.26704459998290986, 0.3500575999787543, 0.36679759999969974]",162.04384180001216,162.2441644000064,1000,162.2441644000064,1000,1000,1000,1000,1,num_2,0.6767894999939017,,21,11,2026-03-02_18h12.11.675,2026A_exp2,2022.2.4,59.9815976383927,
1,0,0.0,0.0,1,0,42,42,66,,,,,162.94497620000038,163.59547369999927,163.59547369999927,164.08012490000692,315,315,164.08012490000692,164.08012490000692,164.08012490000692,164.08012490000692,164.08012490000692,164.08012490000692,164.08012490000692,164.08012490000692,164.08012490000692,164.44834239999182,164.44834239999182,164.44834239999182,164.44834239999182,164.44834239999182,164.44834239999182,164.44834239999182,164.44834239999182,164.44834239999182,0,1,[0.0007689000049140304],[0.36690140000428073],164.44834239999182,164.64867950000917,0.0,164.64867950000917,0,0.0,0,1,1000,num_1,0.3851721999817528,,21,11,2026-03-02_18h12.11.675,2026A_exp2,2022.2.4,59.9815976383927,
1000,1,0.0,6.1,1,0,43,43,88,,,,,165.06486670000595,165.71495480000158,165.71495480000158,166.21868180000456,45,315,166.21868180000456,166.21868180000456,166.21868180000456,166.21868180000456,166.21868180000456,166.21868180000456,166.21868180000456,166.21868180000456,166.21868180000456,166.5661592000106,166.5661592000106,166.5661592000106,166.5661592000106,166.5661592000106,166.5661592000106,166.5661592000106,166.5661592000106,166.5661592000106,21,1,[0.21426430001156405],[0.23125290000461973],166.5661592000106,166.76976339999237,1000,166.76976339999237,1000,1000,1000,1000,1,num_2,0.4874316000204999,,21,11,2026-03-02_18h12.11.675,2026A_exp2,2022.2.4,59.9815976383927,
1000,1,4.9,3.7,1,0,44,44,67,,,,,167.28261510000448,167.93319129999145,167.93319129999145,168.41787710000062,315,315,168.41787710000062,168.41787710000062,168.41787710000062,168.41787710000062,168.41787710000062,168.41787710000062,168.41787710000062,168.41787710000062,168.41787710000062,168.78395529999398,168.78395529999398,168.78395529999398,168.78395529999398,168.78395529999398,168.78395529999398,168.78395529999398,168.78395529999398,168.78395529999398,2,3,"[0.0007428000099025667, 0.05029260000446811, 0.31702290000976063]","[0.033566300000529736, 0.30047439999179915, 0.36702979999245144]",168.78395529999398,168.98460900000646,1000,168.98460900000646,1000,1000,1000,1000,0,num_3,0.5368010000092909,,21,11,2026-03-02_18h12.11.675,2026A_exp2,2022.2.4,59.9815976383927,
1000,1,0.0,6.1,0,0,45,45,34,,,,,169.55217690000427,170.2031791000045,170.2031791000045,170.70325160000357,315,45,170.70325160000357,170.70325160000357,170.70325160000357,170.70325160000357,170.70325160000357,170.70325160000357,170.70325160000357,170.70325160000357,170.70325160000357,171.07037210001727,171.07037210001727,171.07037210001727,171.07037210001727,171.07037210001727,171.07037210001727,171.07037210001727,171.07037210001727,171.07037210001727,19,2,"[0.10077479999745265, 0.14961560000665486]","[0.13283300001057796, 0.18316529999719933]",171.07037210001727,171.27002470000298,1000,171.27002470000298,1000,1000,1000,1000,1,num_2,0.3632701000024099,,21,11,2026-03-02_18h12.11.675,2026A_exp2,2022.2.4,59.9815976383927,
0,0,3.7,4.9,1,0,46,46,3,,,,,171.65379100001883,172.30429200001527,172.30429200001527,172.80549070000416,45,45,172.80549070000416,172.80549070000416,172.80549070000416,172.80549070000416,172.80549070000416,172.80549070000416,172.80549070000416,172.80549070000416,172.80549070000416,173.15469980001217,173.15469980001217,173.15469980001217,173.15469980001217,173.15469980001217,173.15469980001217,173.15469980001217,173.15469980001217,173.15469980001217,21,1,[0.017791399994166568],[0.03405419999035075],173.15469980001217,173.35521559999324,3.7,173.35521559999324,1,3.7,1,1,1000,num_4,3.173580900009256,,21,11,2026-03-02_18h12.11.675,2026A_exp2,2022.2.4,59.9815976383927,
1,0,6.1,4.9,1,0,47,47,35,,,,,176.558385500015,177.1926761000068,177.1926761000068,177.6934916000173,315,45,177.6934916000173,177.6934916000173,177.6934916000173,177.6934916000173,177.6934916000173,177.6934916000173,177.6934916000173,177.6934916000173,177.6934916000173,178.06023180001648,178.06023180001648,178.06023180001648,178.06023180001648,178.06023180001648,178.06023180001648,178.06023180001648,178.06023180001648,178.06023180001648,18,3,"[0.001252600020961836, 0.23336090001976117, 0.35054940002737567]","[0.03331200001412071, 0.2501740000152495, 0.36707700000260957]",178.06023180001648,178.2603594000102,4.9,178.2603594000102,0,4.9,1,0,1000,num_1,0.6044501000142191,,21,11,2026-03-02_18h12.11.675,2026A_exp2,2022.2.4,59.9815976383927,
1,0,0.0,0.0,1,0,48,48,37,,,,,178.89422499999637,179.54497640000773,179.54497640000773,180.0293926000013,315,45,180.0293926000013,180.0293926000013,180.0293926000013,180.0293926000013,180.0293926000013,180.0293926000013,180.0293926000013,180.0293926000013,180.0293926000013,180.39592899999116,180.39592899999116,180.39592899999116,180.39592899999116,180.39592899999116,180.39592899999116,180.39592899999116,180.39592899999116,180.39592899999116,23,0,,,180.39592899999116,180.5964174999972,0.0,180.5964174999972,0,0.0,0,1,1000,num_1,0.365266699984204,,21,11,2026-03-02_18h12.11.675,2026A_exp2,2022.2.4,59.9815976383927,
1,0,0.0,0.0,0,0,49,49,49,,,,,180.97965940000722,181.6304827000131,181.6304827000131,182.11478219999117,315,315,182.11478219999117,182.11478219999117,182.11478219999117,182.11478219999117,182.11478219999117,182.11478219999117,182.11478219999117,182.11478219999117,182.11478219999117,182.48133740000776,182.48133740000776,182.48133740000776,182.48133740000776,182.48133740000776,182.48133740000776,182.48133740000776,182.48133740000776,182.48133740000776,23,0,,,182.48133740000776,182.6814854000113,0.0,182.6814854000113,0,0.0,0,1,1000,num_1,0.3356836000166368,,21,11,2026-03-02_18h12.11.675,2026A_exp2,2022.2.4,59.9815976383927,
1000,1,0.0,0.0,1,0,50,50,14,,,,,183.0484245000116,183.68619410000974,183.68619410000974,184.1835526000068,315,315,184.1835526000068,184.1835526000068,184.1835526000068,184.1835526000068,184.1835526000068,184.1835526000068,184.1835526000068,184.1835526000068,184.1835526000068,184.55003489999217,184.55003489999217,184.55003489999217,184.55003489999217,184.55003489999217,184.55003489999217,184.55003489999217,184.55003489999217,184.55003489999217,2,3,"[0.0012861000141128898, 0.10086330000194721, 0.3672921000106726]","[0.08375499999965541, 0.35050020000198856, 0.36729700001887977]",184.55003489999217,184.75205549999373,1000,184.75205549999373,1000,1000,1000,1000,0,num_3,0.7687499999883585,,21,11,2026-03-02_18h12.11.675,2026A_exp2,2022.2.4,59.9815976383927,
1,0,6.1,0.0,1,0,51,51,13,,,,,185.55108150001615,186.18587250000564,186.18587250000564,186.68613610000466,315,45,186.68613610000466,186.68613610000466,186.68613610000466,186.68613610000466,186.68613610000466,186.68613610000466,186.68613610000466,186.68613610000466,186.68613610000466,187.0526084000012,187.0526084000012,187.0526084000012,187.0526084000012,187.0526084000012,187.0526084000012,187.0526084000012,187.0526084000012,187.0526084000012,23,0,,,187.0526084000012,187.25666489999276,0.0,187.25666489999276,0,0.0,0,1,1000,num_1,0.5049567999958526,,21,11,2026-03-02_18h12.11.675,2026A_exp2,2022.2.4,59.9815976383927,
1000,1,4.9,0.0,0,0,52,52,58,,,,,187.78669400000945,188.4373276999977,188.4373276999977,188.93838750000577,45,315,188.93838750000577,188.93838750000577,188.93838750000577,188.93838750000577,188.93838750000577,188.93838750000577,188.93838750000577,188.93838750000577,188.93838750000577,189.30475119999028,189.30475119999028,189.30475119999028,189.30475119999028,189.30475119999028,189.30475119999028,189.30475119999028,189.30475119999028,189.30475119999028,19,2,"[0.0012023999879602343, 0.05000610000570305]","[0.03347850000136532, 0.08357849999447353]",189.30475119999028,189.50665150000714,1000,189.50665150000714,1000,1000,1000,1000,0,num_3,0.5114884999929927,,21,11,2026-03-02_18h12.11.675,2026A_exp2,2022.2.4,59.9815976383927,
1,0,0.0,0.0,1,0,53,53,73,,,,,190.0387474000163,190.68947959999787,190.68947959999787,191.19056429999182,315,315,191.19056429999182,191.19056429999182,191.19056429999182,191.19056429999182,191.19056429999182,191.19056429999182,191.19056429999182,191.19056429999182,191.19056429999182,191.55702549999114,191.55702549999114,191.55702549999114,191.55702549999114,191.55702549999114,191.55702549999114,191.55702549999114,191.55702549999114,191.55702549999114,23,0,,,191.55702549999114,191.7572754000139,0.0,191.7572754000139,0,0.0,0,1,1000,num_1,0.3641889000136871,,21,11,2026-03-02_18h12.11.675,2026A_exp2,2022.2.4,59.9815976383927,
1000,1,0.0,0.0,1,0,54,54,47,,,,,192.14083160000155,192.79146410000976,192.79146410000976,193.27595219999785,45,315,193.27595219999785,193.27595219999785,193.27595219999785,193.27595219999785,193.27595219999785,193.27595219999785,193.27595219999785,193.27595219999785,193.27595219999785,193.64242300001206,193.64242300001206,193.64242300001206,193.64242300001206,193.64242300001206,193.64242300001206,193.64242300001206,193.64242300001206,193.64242300001206,23,0,,,193.64242300001206,193.84436170000117,1000,193.84436170000117,1000,1000,1000,1000,0,num_3,0.8535402999841608,,21,11,2026-03-02_18h12.11.675,2026A_exp2,2022.2.4,59.9815976383927,
1,0,0.0,0.0,0,0,55,55,64,,,,,194.7267506000062,195.3775591000158,195.3775591000158,195.8786822000111,315,45,195.8786822000111,195.8786822000111,195.8786822000111,195.8786822000111,195.8786822000111,195.8786822000111,195.8786822000111,195.8786822000111,195.8786822000111,196.22831790000782,196.22831790000782,196.22831790000782,196.22831790000782,196.22831790000782,196.22831790000782,196.22831790000782,196.22831790000782,196.22831790000782,21,1,[0.01747680001426488],[0.033510400011437014],196.22831790000782,196.4284073000017,0.0,196.4449961000064,0,0.0,0,1,1000,num_1,0.5964322999934666,,21,11,2026-03-02_18h12.11.675,2026A_exp2,2022.2.4,59.9815976383927,
1,0,0.0,0.0,1,0,56,56,18,,,,,197.0623564000125,197.71305140000186,197.71305140000186,198.19760499999393,315,45,198.19760499999393,198.19760499999393,198.19760499999393,198.19760499999393,198.19760499999393,198.19760499999393,198.19760499999393,198.19760499999393,198.19760499999393,198.56414689999656,198.56414689999656,198.56414689999656,198.56414689999656,198.56414689999656,198.56414689999656,198.56414689999656,198.56414689999656,198.56414689999656,23,0,,,198.56414689999656,198.76412140001776,0.0,198.76412140001776,0,0.0,0,1,1000,num_1,0.532910100009758,,21,11,2026-03-02_18h12.11.675,2026A_exp2,2022.2.4,59.9815976383927,
1000,1,4.9,4.9,0,0,57,57,42,,,,,199.31456090000574,199.96547540000756,199.96547540000756,200.44988040000317,45,45,200.44988040000317,200.44988040000317,200.44988040000317,200.44988040000317,200.44988040000317,200.44988040000317,200.44988040000317,200.44988040000317,200.44988040000317,200.81692750001093,200.81692750001093,200.81692750001093,200.81692750001093,200.81692750001093,200.81692750001093,200.81692750001093,200.81692750001093,200.81692750001093,23,0,,,200.81692750001093,201.0259694000124,1000,201.0259694000124,1000,1000,1000,1000,0,num_3,0.486910200008424,,21,11,2026-03-02_18h12.11.675,2026A_exp2,2022.2.4,59.9815976383927,
1,0,0.0,0.0,0,0,58,58,81,,,,,201.53353670000797,202.18423820001772,202.18423820001772,202.68525820001378,315,315,202.68525820001378,202.68525820001378,202.68525820001378,202.68525820001378,202.68525820001378,202.68525820001378,202.68525820001378,202.68525820001378,202.68525820001378,203.03522769999108,203.03522769999108,203.03522769999108,203.03522769999108,203.03522769999108,203.03522769999108,203.03522769999108,203.03522769999108,203.03522769999108,22,0,,,203.03522769999108,203.2353315000073,0.0,203.25172739999834,0,0.0,0,1,1000,num_1,0.3339140999887604,,21,11,2026-03-02_18h12.11.675,2026A_exp2,2022.2.4,59.9815976383927,
1000,1,3.7,0.0,1,0,59,59,79,,,,,203.60250770000857,204.2364024000126,204.2364024000126,204.73754719999852,315,45,204.73754719999852,204.73754719999852,204.73754719999852,204.73754719999852,204.73754719999852,204.73754719999852,204.73754719999852,204.73754719999852,204.73754719999852,205.10379369999282,205.10379369999282,205.10379369999282,205.10379369999282,205.10379369999282,205.10379369999282,205.10379369999282,205.10379369999282,205.10379369999282,4,2,"[0.050064200011547655, 0.3348996000131592]","[0.3182729000109248, 0.3684151000052225]",205.10379369999282,205.30565840000054,1000,205.30565840000054,1000,1000,1000,1000,0,num_3,0.5120748000044841,,21,11,2026-03-02_18h12.11.675,2026A_exp2,2022.2.4,59.9815976383927,
1000,1,0.0,3.7,0,0,60,60,52,,,,,205.83787270000903,206.48855380000896,206.48855380000896,206.9899019000004,45,315,206.9899019000004,206.9899019000004,206.9899019000004,206.9899019000004,206.9899019000004,206.9899019000004,206.9899019000004,206.9899019000004,206.9899019000004,207.3561435000156,207.3561435000156,207.3561435000156,207.3561435000156,207.3561435000156,207.3561435000156,207.3561435000156,207.3561435000156,207.3561435000156,15,3,"[0.0012291999883018434, 0.03359289999934845, 0.2502794000029098]","[0.01738969999132678, 0.10003349999897182, 0.3003764000022784]",207.3561435000156,207.55824440001743,1000,207.55824440001743,1000,1000,1000,1000,0,num_3,0.7477150000049733,,21,11,2026-03-02_18h12.11.675,2026A_exp2,2022.2.4,59.9815976383927,
1,0,6.1,0.0,0,0,61,61,50,,,,,208.3237128999899,208.9743879000016,208.9743879000016,209.47544100001687,315,315,209.47544100001687,209.47544100001687,209.47544100001687,209.47544100001687,209.47544100001687,209.47544100001687,209.47544100001687,209.47544100001687,209.47544100001687,209.8419564999931,209.8419564999931,209.8419564999931,209.8419564999931,209.8419564999931,209.8419564999931,209.8419564999931,209.8419564999931,209.8419564999931,23,0,,,209.8419564999931,210.04227400000673,6.1,210.04227400000673,1,6.1,1,1,1000,num_4,0.4385803999903146,,21,11,2026-03-02_18h12.11.675,2026A_exp2,2022.2.4,59.9815976383927,
1,0,4.9,0.0,1,0,62,62,84,,,,,210.50904160001664,211.14330680001876,211.14330680001876,211.64441840001382,315,45,211.64441840001382,211.64441840001382,211.64441840001382,211.64441840001382,211.64441840001382,211.64441840001382,211.64441840001382,211.64441840001382,211.64441840001382,212.0108351999952,212.0108351999952,212.0108351999952,212.0108351999952,212.0108351999952,212.0108351999952,212.0108351999952,212.0108351999952,212.0108351999952,4,5,"[0.0012413999938871711, 0.18371380001190118, 0.2337390000175219, 0.26717160001862794, 0.3338579999981448]","[0.16711100001703016, 0.21716970001580194, 0.2505546000029426, 0.31723539999802597, 0.3672097999951802]",212.0108351999952,212.21094250000897,0.0,212.21094250000897,0,0.0,0,1,1000,num_1,0.4630745000031311,,21,11,2026-03-02_18h12.11.675,2026A_exp2,2022.2.4,59.9815976383927,
1000,1,4.9,3.7,1,0,63,63,32,,,,,212.69474030000856,213.34534630001872,213.34534630001872,213.82982089999132,315,45,213.82982089999132,213.82982089999132,213.82982089999132,213.82982089999132,213.82982089999132,213.82982089999132,213.82982089999132,213.82982089999132,213.82982089999132,214.1961583000084,214.1961583000084,214.1961583000084,214.1961583000084,214.1961583000084,214.1961583000084,214.1961583000084,214.1961583000084,214.1961583000084,12,3,"[0.0012046999763697386, 0.10029539998504333, 0.36685120000038296]","[0.05016829998930916, 0.2170674999943003, 0.3668543999956455]",214.1961583000084,214.39815220001037,1000,214.39815220001037,1000,1000,1000,1000,0,num_3,0.5710849000024609,,21,11,2026-03-02_18h12.11.675,2026A_exp2,2022.2.4,59.9815976383927,
0,0,0.0,4.9,1,0,64,64,56,,,,,214.99730230000569,215.65644489999977,215.65644489999977,216.16497800001525,315,315,216.16497800001525,216.16497800001525,216.16497800001525,216.16497800001525,216.16497800001525,216.16497800001525,216.16497800001525,216.16497800001525,216.16497800001525,216.51533379999455,216.51533379999455,216.51533379999455,216.51533379999455,216.51533379999455,216.51533379999455,216.51533379999455,216.51533379999455,216.51533379999455,20,3,"[0.14800040001864545, 0.2806729000003543, 0.31452690000878647]","[0.16494160000002012, 0.2972689000016544, 0.33072270001866855]",216.51533379999455,216.71551010000985,0.0,216.71551010000985,0,0.0,0,1,1000,num_1,0.5261607000138611,,21,11,2026-03-02_18h12.11.675,2026A_exp2,2022.2.4,59.9815976383927,
1000,1,6.1,4.9,1,0,65,65,16,,,,,217.26601530000335,217.92762850000872,217.92762850000872,218.41991779999807,315,45,218.41991779999807,218.41991779999807,218.41991779999807,218.41991779999807,218.41991779999807,218.41991779999807,218.41991779999807,218.41991779999807,218.41991779999807,218.7842454999918,218.7842454999918,218.7842454999918,218.7842454999918,218.7842454999918,218.7842454999918,218.7842454999918,218.7842454999918,218.7842454999918,23,0,,,218.7842454999918,218.98717770000803,1000,218.98717770000803,1000,1000,1000,1000,0,num_3,0.4056509000074584,,21,11,2026-03-02_18h12.11.675,2026A_exp2,2022.2.4,59.9815976383927,
1000,1,6.1,0.0,0,0,66,66,33,,,,,219.4184559000132,220.0688220000011,220.0688220000011,220.55320600001141,315,315,220.55320600001141,220.55320600001141,220.55320600001141,220.55320600001141,220.55320600001141,220.55320600001141,220.55320600001141,220.55320600001141,220.55320600001141,220.91974470001878,220.91974470001878,220.91974470001878,220.91974470001878,220.91974470001878,220.91974470001878,220.91974470001878,220.91974470001878,220.91974470001878,23,0,,,220.91974470001878,221.12191750001512,1000,221.12191750001512,1000,1000,1000,1000,0,num_3,0.4791069999919273,,21,11,2026-03-02_18h12.11.675,2026A_exp2,2022.2.4,59.9815976383927,
1000,1,0.0,0.0,0,0,67,67,69,,,,,221.62040990000241,222.27104330001748,222.27104330001748,222.7553287000046,45,45,222.7553287000046,222.7553287000046,222.7553287000046,222.7553287000046,222.7553287000046,222.7553287000046,222.7553287000046,222.7553287000046,222.7553287000046,223.12185809999937,223.12185809999937,223.12185809999937,223.12185809999937,223.12185809999937,223.12185809999937,223.12185809999937,223.12185809999937,223.12185809999937,23,0,,,223.12185809999937,223.32394619999104,1000,223.32394619999104,1000,1000,1000,1000,0,num_3,0.9011271000199486,,21,11,2026-03-02_18h12.11.675,2026A_exp2,2022.2.4,59.9815976383927,
1000,1,0.0,0.0,0,0,68,68,61,,,,,224.25645590000204,224.90701100000297,224.90701100000297,225.40817070001503,315,315,225.40817070001503,225.40817070001503,225.40817070001503,225.40817070001503,225.40817070001503,225.40817070001503,225.40817070001503,225.40817070001503,225.40817070001503,225.7578266999917,225.7578266999917,225.7578266999917,225.7578266999917,225.7578266999917,225.7578266999917,225.7578266999917,225.7578266999917,225.7578266999917,22,0,,,225.7578266999917,225.95975040001213,1000,225.97489020001376,1000,1000,1000,1000,0,num_3,0.5697712000110187,,21,11,2026-03-02_18h12.11.675,2026A_exp2,2022.2.4,59.9815976383927,
1000,1,0.0,4.9,0,0,69,69,11,,,,,226.57553390000248,227.22603119999985,227.22603119999985,227.72707470000023,315,315,227.72707470000023,227.72707470000023,227.72707470000023,227.72707470000023,227.72707470000023,227.72707470000023,227.72707470000023,227.72707470000023,227.72707470000023,228.07698199999868,228.07698199999868,228.07698199999868,228.07698199999868,228.07698199999868,228.07698199999868,228.07698199999868,228.07698199999868,228.07698199999868,22,0,,,228.07698199999868,228.27890679999837,1000,228.27890679999837,1000,1000,1000,1000,1,num_2,0.4903457000036724,,21,11,2026-03-02_18h12.11.675,2026A_exp2,2022.2.4,59.9815976383927,
1000,1,6.1,3.7,1,0,70,70,24,,,,,228.79417169999215,229.44488779999665,229.44488779999665,229.94604020001134,45,315,229.94604020001134,229.94604020001134,229.94604020001134,229.94604020001134,229.94604020001134,229.94604020001134,229.94604020001134,229.94604020001134,229.94604020001134,230.3124894000066,230.3124894000066,230.3124894000066,230.3124894000066,230.3124894000066,230.3124894000066,230.3124894000066,230.3124894000066,230.3124894000066,23,0,,,230.3124894000066,230.51469869998982,1000,230.51469869998982,1000,1000,1000,1000,0,num_3,0.37424870001268573,,21,11,2026-03-02_18h12.11.675,2026A_exp2,2022.2.4,59.9815976383927,
1,0,0.0,0.0,0,0,71,71,38,,,,,230.9129990999936,231.56373029999668,231.56373029999668,232.06470320001245,315,315,232.06470320001245,232.06470320001245,232.06470320001245,232.06470320001245,232.06470320001245,232.06470320001245,232.06470320001245,232.06470320001245,232.06470320001245,232.43126499999198,232.43126499999198,232.43126499999198,232.43126499999198,232.43126499999198,232.43126499999198,232.43126499999198,232.43126499999198,232.43126499999198,23,0,,,232.43126499999198,232.63129160000244,0.0,232.63129160000244,0,0.0,0,1,1000,num_1,0.49070750002283603,,21,11,2026-03-02_18h12.11.675,2026A_exp2,2022.2.4,59.9815976383927,
1,0,0.0,0.0,1,0,72,72,43,,,,,233.14845350000542,233.79906910000136,233.79906910000136,234.2836926000018,315,45,234.2836926000018,234.2836926000018,234.2836926000018,234.2836926000018,234.2836926000018,234.2836926000018,234.2836926000018,234.2836926000018,234.2836926000018,234.65013260001433,234.65013260001433,234.65013260001433,234.65013260001433,234.65013260001433,234.65013260001433,234.65013260001433,234.65013260001433,234.65013260001433,23,0,,,234.65013260001433,234.85031609999714,0.0,234.85031609999714,0,0.0,0,1,1000,num_1,0.41438899998320267,,21,11,2026-03-02_18h12.11.675,2026A_exp2,2022.2.4,59.9815976383927,
1,0,4.9,4.9,0,0,73,73,63,,,,,235.28397990000667,235.93461580001167,235.93461580001167,236.4190735000011,315,45,236.4190735000011,236.4190735000011,236.4190735000011,236.4190735000011,236.4190735000011,236.4190735000011,236.4190735000011,236.4190735000011,236.4190735000011,236.78560370000196,236.78560370000196,236.78560370000196,236.78560370000196,236.78560370000196,236.78560370000196,236.78560370000196,236.78560370000196,236.78560370000196,23,0,,,236.78560370000196,236.98584010000923,4.9,236.98584010000923,1,4.9,1,1,1000,num_4,2.6553523000038695,,21,11,2026-03-02_18h12.11.675,2026A_exp2,2022.2.4,59.9815976383927,
0,0,0.0,0.0,1,0,74,74,8,,,,,239.67181749999872,240.32245259999763,240.32245259999763,240.80676140001742,45,315,240.80676140001742,240.80676140001742,240.80676140001742,240.80676140001742,240.80676140001742,240.80676140001742,240.80676140001742,240.80676140001742,240.80676140001742,241.17301349999616,241.17301349999616,241.17301349999616,241.17301349999616,241.17301349999616,241.17301349999616,241.17301349999616,241.17301349999616,241.17301349999616,23,0,,,241.17301349999616,241.37349830000312,0.0,241.37349830000312,0,0.0,0,1,1000,num_1,0.627234400017187,,21,11,2026-03-02_18h12.11.675,2026A_exp2,2022.2.4,59.9815976383927,
0,0,0.0,4.9,0,0,75,75,54,,,,,242.024038500007,242.67467110001598,242.67467110001598,243.15913310000906,45,315,243.15913310000906,243.15913310000906,243.15913310000906,243.15913310000906,243.15913310000906,243.15913310000906,243.15913310000906,243.15913310000906,243.15913310000906,243.52565799999866,243.52565799999866,243.52565799999866,243.52565799999866,243.52565799999866,243.52565799999866,243.52565799999866,243.52565799999866,243.52565799999866,22,1,[0.21706289998837747],[0.23359899999923073],243.52565799999866,243.72582829999737,4.9,243.72582829999737,1,4.9,1,1,1000,num_4,0.9402736999909393,,21,11,2026-03-02_18h12.11.675,2026A_exp2,2022.2.4,59.9815976383927,
1000,1,0.0,4.9,0,0,76,76,77,,,,,244.69342349999351,245.3440796000068,245.3440796000068,245.8286122000136,315,45,245.8286122000136,245.8286122000136,245.8286122000136,245.8286122000136,245.8286122000136,245.8286122000136,245.8286122000136,245.8286122000136,245.8286122000136,246.19497300000512,246.19497300000512,246.19497300000512,246.19497300000512,246.19497300000512,246.19497300000512,246.19497300000512,246.19497300000512,246.19497300000512,23,0,,,246.19497300000512,246.418989400001,1000,246.418989400001,1000,1000,1000,1000,1,num_2,0.694111899996642,,21,11,2026-03-02_18h12.11.675,2026A_exp2,2022.2.4,59.9815976383927,
1000,1,3.7,0.0,1,0,77,77,55,,,,,247.12914959999034,247.77992699999595,247.77992699999595,248.28104030000395,315,315,248.28104030000395,248.28104030000395,248.28104030000395,248.28104030000395,248.28104030000395,248.28104030000395,248.28104030000395,248.28104030000395,248.28104030000395,248.63076269999146,248.63076269999146,248.63076269999146,248.63076269999146,248.63076269999146,248.63076269999146,248.63076269999146,248.63076269999146,248.63076269999146,22,0,,,248.63076269999146,248.8327355000074,1000,248.84770060001756,1000,1000,1000,1000,0,num_3,0.4337746000092011,,21,11,2026-03-02_18h12.11.675,2026A_exp2,2022.2.4,59.9815976383927,
1000,1,6.1,0.0,1,0,78,78,60,,,,,249.29803959999117,249.9486894000147,249.9486894000147,250.44953710000846,315,315,250.44953710000846,250.44953710000846,250.44953710000846,250.44953710000846,250.44953710000846,250.44953710000846,250.44953710000846,250.44953710000846,250.44953710000846,250.8162544000079,250.8162544000079,250.8162544000079,250.8162544000079,250.8162544000079,250.8162544000079,250.8162544000079,250.8162544000079,250.8162544000079,23,0,,,250.8162544000079,251.01852949999738,1000,251.01852949999738,1000,1000,1000,1000,0,num_3,0.4708039999823086,,21,11,2026-03-02_18h12.11.675,2026A_exp2,2022.2.4,59.9815976383927,
1000,1,6.1,0.0,0,0,79,79,19,,,,,251.5169437000004,252.16769669999485,252.16769669999485,252.66878670000006,45,315,252.66878670000006,252.66878670000006,252.66878670000006,252.66878670000006,252.66878670000006,252.66878670000006,252.66878670000006,252.66878670000006,252.66878670000006,253.035315599991,253.035315599991,253.035315599991,253.035315599991,253.035315599991,253.035315599991,253.035315599991,253.035315599991,253.035315599991,23,0,,,253.035315599991,253.24450580001576,1000,253.24450580001576,1000,1000,1000,1000,0,num_3,0.3164058999973349,,21,11,2026-03-02_18h12.11.675,2026A_exp2,2022.2.4,59.9815976383927,
1000,1,6.1,4.9,1,0,80,80,53,,,,,253.58563079999294,254.23629870000877,254.23629870000877,254.73733850001008,45,45,254.73733850001008,254.73733850001008,254.73733850001008,254.73733850001008,254.73733850001008,254.73733850001008,254.73733850001008,254.73733850001008,254.73733850001008,255.10382809999282,255.10382809999282,255.10382809999282,255.10382809999282,255.10382809999282,255.10382809999282,255.10382809999282,255.10382809999282,255.10382809999282,23,0,,,255.10382809999282,255.3057245000091,1000,255.3057245000091,1000,1000,1000,1000,0,num_3,0.4563592000049539,,21,11,2026-03-02_18h12.11.675,2026A_exp2,2022.2.4,59.9815976383927,
1000,1,4.9,0.0,1,0,81,81,72,,,,,255.78791099999216,256.43878699999186,256.43878699999186,256.93957020001835,45,315,256.93957020001835,256.93957020001835,256.93957020001835,256.93957020001835,256.93957020001835,256.93957020001835,256.93957020001835,256.93957020001835,256.93957020001835,257.30630799999926,257.30630799999926,257.30630799999926,257.30630799999926,257.30630799999926,257.30630799999926,257.30630799999926,257.30630799999926,257.30630799999926,23,0,,,257.30630799999926,257.5081285999913,1000,257.5081285999913,1000,1000,1000,1000,0,num_3,0.3256742999947164,,21,11,2026-03-02_18h12.11.675,2026A_exp2,2022.2.4,59.9815976383927,
0,0,0.0,0.0,1,0,82,82,62,,,,,257.85658300001523,258.50726620000205,258.50726620000205,259.00846000001184,45,45,259.00846000001184,259.00846000001184,259.00846000001184,259.00846000001184,259.00846000001184,259.00846000001184,259.00846000001184,259.00846000001184,259.00846000001184,259.35820700001204,259.35820700001204,259.35820700001204,259.35820700001204,259.35820700001204,259.35820700001204,259.35820700001204,259.35820700001204,259.35820700001204,22,0,,,259.35820700001204,259.5583639999968,0.0,259.5583639999968,0,0.0,0,1,1000,num_1,0.3954352999862749,,21,11,2026-03-02_18h12.11.675,2026A_exp2,2022.2.4,59.9815976383927,
1000,1,3.7,3.7,1,0,83,83,40,,,,,259.97531040001195,260.6262326000142,260.6262326000142,261.1105150000076,315,315,261.1105150000076,261.1105150000076,261.1105150000076,261.1105150000076,261.1105150000076,261.1105150000076,261.1105150000076,261.1105150000076,261.1105150000076,261.4768838000018,261.4768838000018,261.4768838000018,261.4768838000018,261.4768838000018,261.4768838000018,261.4768838000018,261.4768838000018,261.4768838000018,23,0,,,261.4768838000018,261.6789257999917,1000,261.6789257999917,1000,1000,1000,1000,0,num_3,0.6338209999958053,,21,11,2026-03-02_18h12.11.675,2026A_exp2,2022.2.4,59.9815976383927,
1000,1,6.1,3.7,1,0,84,84,0,,,,,262.32765009999275,262.97845470000175,262.97845470000175,263.47957809999934,45,315,263.47957809999934,263.47957809999934,263.47957809999934,263.47957809999934,263.47957809999934,263.47957809999934,263.47957809999934,263.47957809999934,263.47957809999934,263.8460170000035,263.8460170000035,263.8460170000035,263.8460170000035,263.8460170000035,263.8460170000035,263.8460170000035,263.8460170000035,263.8460170000035,23,0,,,263.8460170000035,264.0481063000043,1000,264.0481063000043,1000,1000,1000,1000,0,num_3,0.3768989999953192,,21,11,2026-03-02_18h12.11.675,2026A_exp2,2022.2.4,59.9815976383927,
1000,1,4.9,0.0,0,0,85,85,36,,,,,264.44647510000505,265.09713380000903,265.09713380000903,265.5983569000091,315,45,265.5983569000091,265.5983569000091,265.5983569000091,265.5983569000091,265.5983569000091,265.5983569000091,265.5983569000091,265.5983569000091,265.5983569000091,265.9480406999937,265.9480406999937,265.9480406999937,265.9480406999937,265.9480406999937,265.9480406999937,265.9480406999937,265.9480406999937,265.9480406999937,22,0,,,265.9480406999937,266.150555500004,1000,266.150555500004,1000,1000,1000,1000,0,num_3,0.39529670000774786,,21,11,2026-03-02_18h12.11.675,2026A_exp2,2022.2.4,59.9815976383927,
1,0,0.0,4.9,0,0,86,86,85,,,,,266.5652656000166,267.216044300003,267.216044300003,267.71709640001063,45,315,267.71709640001063,267.71709640001063,267.71709640001063,267.71709640001063,267.71709640001063,267.71709640001063,267.71709640001063,267.71709640001063,267.71709640001063,268.06643330000225,268.06643330000225,268.06643330000225,268.06643330000225,268.06643330000225,268.06643330000225,268.06643330000225,268.06643330000225,268.06643330000225,22,0,,,268.06643330000225,268.26703079999425,0.0,268.283774200012,0,0.0,0,1,1000,num_1,0.7972219999937806,,21,11,2026-03-02_18h12.11.675,2026A_exp2,2022.2.4,59.9815976383927,
1000,1,0.0,3.7,1,0,87,87,80,,,,,269.10317350001424,269.7519372999959,269.7519372999959,270.2527471999929,315,45,270.2527471999929,270.2527471999929,270.2527471999929,270.2527471999929,270.2527471999929,270.2527471999929,270.2527471999929,270.2527471999929,270.2527471999929,270.61904789999244,270.61904789999244,270.61904789999244,270.61904789999244,270.61904789999244,270.61904789999244,270.61904789999244,270.61904789999244,270.61904789999244,23,0,,,270.61904789999244,270.81954600001336,1000,270.81954600001336,1000,1000,1000,1000,1,num_2,0.581263999978546,,21,11,2026-03-02_18h12.11.675,2026A_exp2,2022.2.4,59.9815976383927,
1,0,0.0,3.7,1,0,88,88,57,,,,,271.4203334999911,272.0541985000018,272.0541985000018,272.5554104000039,315,45,272.5554104000039,272.5554104000039,272.5554104000039,272.5554104000039,272.5554104000039,272.5554104000039,272.5554104000039,272.5554104000039,272.5554104000039,272.92182049999246,272.92182049999246,272.92182049999246,272.92182049999246,272.92182049999246,272.92182049999246,272.92182049999246,272.92182049999246,272.92182049999246,23,0,,,272.92182049999246,273.1220164000115,3.7,273.1220164000115,0,3.7,1,0,1000,num_1,0.46276850000140257,,21,11,2026-03-02_18h12.11.675,2026A_exp2,2022.2.4,59.9815976383927,
0,0,4.9,0.0,0,0,89,89,30,,,,,273.6055854000151,274.2564335000061,274.2564335000061,274.74085160001414,315,315,274.74085160001414,274.74085160001414,274.74085160001414,274.74085160001414,274.74085160001414,274.74085160001414,274.74085160001414,274.74085160001414,274.74085160001414,275.10721370001556,275.10721370001556,275.10721370001556,275.10721370001556,275.10721370001556,275.10721370001556,275.10721370001556,275.10721370001556,275.10721370001556,23,0,,,275.10721370001556,275.3073793000076,0.0,275.3073793000076,0,0.0,0,1,1000,num_1,0.5816830999974627,,21,11,2026-03-02_18h12.11.675,2026A_exp2,2022.2.4,59.9815976383927,
,,,,,,,,,,,,,,,,,,,,,,,,,,,,,,,,,,,,,,,,,,,,,,,,,,,,275.92871410000953,,,,,,,
