validity,detectorcomp,contrastCW,contrastCCW,precueCWorCCW,block_80trials.thisRepN,block_80trials.thisTrialN,block_80trials.thisN,block_80trials.thisIndex,etRecord.started,etRecord.stopped,text.started,text.stopped,text_4.started,text_4.stopped,text_6.started,text_6.stopped,oriCW,oriCCW,roi_2.started,grating_UR.started,grating_UL.started,grating_LR.started,grating_LL.started,noise_UR.started,noise_UL.started,noise_LR.started,noise_LL.started,roi_2.stopped,grating_UR.stopped,grating_UL.stopped,grating_LR.stopped,grating_LL.stopped,noise_UR.stopped,noise_UL.stopped,noise_LR.stopped,noise_LL.stopped,outframe,roi_2.numLooks,roi_2.timesOn,roi_2.timesOff,text_2.started,text_2.stopped,probedcontrast,key_resp.started,respdetect,relevantContrast,correctDetect,TorFdetect,respCWorCCW,key_resp.keys,key_resp.rt,feedback_display_.started,participantNo,blockNo,date,expName,psychopyVersion,frameRate,
1000,1,4.9,0.0,0,0,0,0,54,3.909994848072529e-05,3.909994848072529e-05,55.53164849989116,57.53446280001663,57.53446280001663,58.18500049994327,58.18500049994327,58.687089500017464,45,45,58.687089500017464,58.687089500017464,58.687089500017464,58.687089500017464,58.687089500017464,58.687089500017464,58.687089500017464,58.687089500017464,58.687089500017464,59.03544269991107,59.03544269991107,59.03544269991107,59.03544269991107,59.03544269991107,59.03544269991107,59.03544269991107,59.03544269991107,59.03544269991107,23,0,,,59.03544269991107,59.242793099954724,1000,59.242793099954724,1000,1000,1000,1000,0,num_3,0.7730163999367505,,31,2,2026-03-12_13h24.58.575,2026A_exp2,2022.2.4,60.02710830876626,
1000,1,0.0,0.0,0,0,1,1,85,,,,,60.03657440003008,60.68712779995985,60.68712779995985,61.18813890009187,315,45,61.18813890009187,61.18813890009187,61.18813890009187,61.18813890009187,61.18813890009187,61.18813890009187,61.18813890009187,61.18813890009187,61.18813890009187,61.554709600051865,61.554709600051865,61.554709600051865,61.554709600051865,61.554709600051865,61.554709600051865,61.554709600051865,61.554709600051865,61.554709600051865,23,0,,,61.554709600051865,61.756946299923584,1000,61.756946299923584,1000,1000,1000,1000,0,num_3,0.9068422000855207,,31,2,2026-03-12_13h24.58.575,2026A_exp2,2022.2.4,60.02710830876626,
1,0,6.1,4.9,0,0,2,2,24,,,,,62.68914610007778,63.341460099909455,63.341460099909455,63.8409392000176,45,45,63.8409392000176,63.8409392000176,63.8409392000176,63.8409392000176,63.8409392000176,63.8409392000176,63.8409392000176,63.8409392000176,63.8409392000176,64.20727799995802,64.20727799995802,64.20727799995802,64.20727799995802,64.20727799995802,64.20727799995802,64.20727799995802,64.20727799995802,64.20727799995802,23,0,,,64.20727799995802,64.40732769994065,6.1,64.40732769994065,1,6.1,1,1,1000,num_4,0.9615569999441504,,31,2,2026-03-12_13h24.58.575,2026A_exp2,2022.2.4,60.02710830876626,
1000,1,0.0,4.9,1,0,3,3,76,,,,,65.39180390001275,66.04252010001801,66.04252010001801,66.52707839990035,45,315,66.52707839990035,66.52707839990035,66.52707839990035,66.52707839990035,66.52707839990035,66.52707839990035,66.52707839990035,66.52707839990035,66.52707839990035,66.89338400005363,66.89338400005363,66.89338400005363,66.89338400005363,66.89338400005363,66.89338400005363,66.89338400005363,66.89338400005363,66.89338400005363,23,0,,,66.89338400005363,67.09483329998329,1000,67.09483329998329,1000,1000,1000,1000,1,num_2,0.7780893002636731,,31,2,2026-03-12_13h24.58.575,2026A_exp2,2022.2.4,60.02710830876626,
0,0,0.0,3.7,1,0,4,4,10,,,,,67.89446579990909,68.54477600008249,68.54477600008249,69.05365399993025,315,45,69.05365399993025,69.05365399993025,69.05365399993025,69.05365399993025,69.05365399993025,69.05365399993025,69.05365399993025,69.05365399993025,69.05365399993025,69.39586169994436,69.39586169994436,69.39586169994436,69.39586169994436,69.39586169994436,69.39586169994436,69.39586169994436,69.39586169994436,69.39586169994436,22,0,,,69.39586169994436,69.59591639996506,0.0,69.59591639996506,0,0.0,0,1,1000,num_1,1.2598886000923812,,31,2,2026-03-12_13h24.58.575,2026A_exp2,2022.2.4,60.02710830876626,
1,0,0.0,3.7,0,0,5,5,61,,,,,70.88066620007157,71.53125909995288,71.53125909995288,72.01565250009298,315,45,72.01565250009298,72.01565250009298,72.01565250009298,72.01565250009298,72.01565250009298,72.01565250009298,72.01565250009298,72.01565250009298,72.01565250009298,72.38223799993284,72.38223799993284,72.38223799993284,72.38223799993284,72.38223799993284,72.38223799993284,72.38223799993284,72.38223799993284,72.38223799993284,23,0,,,72.38223799993284,72.58222340000793,0.0,72.58222340000793,0,0.0,0,1,1000,num_1,0.9945822001900524,,31,2,2026-03-12_13h24.58.575,2026A_exp2,2022.2.4,60.02710830876626,
1000,1,3.7,0.0,0,0,6,6,2,,,,,73.60000850004144,74.25053719989955,74.25053719989955,74.73479019990191,315,45,74.73479019990191,74.73479019990191,74.73479019990191,74.73479019990191,74.73479019990191,74.73479019990191,74.73479019990191,74.73479019990191,74.73479019990191,75.10159839992411,75.10159839992411,75.10159839992411,75.10159839992411,75.10159839992411,75.10159839992411,75.10159839992411,75.10159839992411,75.10159839992411,23,0,,,75.10159839992411,75.30352189997211,1000,75.30352189997211,1000,1000,1000,1000,0,num_3,0.8652460002340376,,31,2,2026-03-12_13h24.58.575,2026A_exp2,2022.2.4,60.02710830876626,
1000,1,4.9,6.1,1,0,7,7,28,,,,,76.18588780006394,76.83630970004015,76.83630970004015,77.33761629997753,45,45,77.33761629997753,77.33761629997753,77.33761629997753,77.33761629997753,77.33761629997753,77.33761629997753,77.33761629997753,77.33761629997753,77.33761629997753,77.68743330007419,77.68743330007419,77.68743330007419,77.68743330007419,77.68743330007419,77.68743330007419,77.68743330007419,77.68743330007419,77.68743330007419,22,0,,,77.68743330007419,77.88971469993703,1000,77.88971469993703,1000,1000,1000,1000,1,num_2,0.6871503000147641,,31,2,2026-03-12_13h24.58.575,2026A_exp2,2022.2.4,60.02710830876626,
1000,1,6.1,0.0,0,0,8,8,14,,,,,78.60503179999068,79.25578220002353,79.25578220002353,79.75677410000935,315,45,79.75677410000935,79.75677410000935,79.75677410000935,79.75677410000935,79.75677410000935,79.75677410000935,79.75677410000935,79.75677410000935,79.75677410000935,80.10662070009857,80.10662070009857,80.10662070009857,80.10662070009857,80.10662070009857,80.10662070009857,80.10662070009857,80.10662070009857,80.10662070009857,22,0,,,80.10662070009857,80.3084410999436,1000,80.32351149991155,1000,1000,1000,1000,0,num_3,0.46039420017041266,,31,2,2026-03-12_13h24.58.575,2026A_exp2,2022.2.4,60.02710830876626,
0,0,0.0,0.0,1,0,9,9,89,,,,,80.80742170009762,81.45782439992763,81.45782439992763,81.95906040002592,45,315,81.95906040002592,81.95906040002592,81.95906040002592,81.95906040002592,81.95906040002592,81.95906040002592,81.95906040002592,81.95906040002592,81.95906040002592,82.30879650008865,82.30879650008865,82.30879650008865,82.30879650008865,82.30879650008865,82.30879650008865,82.30879650008865,82.30879650008865,82.30879650008865,22,0,,,82.30879650008865,82.50891080009751,0.0,82.50891080009751,1,0.0,0,0,1000,num_4,0.8511192000005394,,31,2,2026-03-12_13h24.58.575,2026A_exp2,2022.2.4,60.02710830876626,
1000,1,0.0,0.0,0,0,10,10,81,,,,,83.37636000011116,84.02715840004385,84.02715840004385,84.51148230000399,45,45,84.51148230000399,84.51148230000399,84.51148230000399,84.51148230000399,84.51148230000399,84.51148230000399,84.51148230000399,84.51148230000399,84.51148230000399,84.87801719992422,84.87801719992422,84.87801719992422,84.87801719992422,84.87801719992422,84.87801719992422,84.87801719992422,84.87801719992422,84.87801719992422,23,0,,,84.87801719992422,85.07940859999508,1000,85.07940859999508,1000,1000,1000,1000,0,num_3,0.6725247001741081,,31,2,2026-03-12_13h24.58.575,2026A_exp2,2022.2.4,60.02710830876626,
0,0,0.0,6.1,0,0,11,11,7,,,,,85.77869309997186,86.4294936999213,86.4294936999213,86.93054990004748,45,315,86.93054990004748,86.93054990004748,86.93054990004748,86.93054990004748,86.93054990004748,86.93054990004748,86.93054990004748,86.93054990004748,86.93054990004748,87.28047419991344,87.28047419991344,87.28047419991344,87.28047419991344,87.28047419991344,87.28047419991344,87.28047419991344,87.28047419991344,87.28047419991344,22,0,,,87.28047419991344,87.48080149991438,6.1,87.48080149991438,1,6.1,1,1,1000,num_4,0.88724230020307,,31,2,2026-03-12_13h24.58.575,2026A_exp2,2022.2.4,60.02710830876626,
1,0,4.9,0.0,1,0,12,12,8,,,,,88.3980872000102,89.04882719996385,89.04882719996385,89.53324580006301,315,315,89.53324580006301,89.53324580006301,89.53324580006301,89.53324580006301,89.53324580006301,89.53324580006301,89.53324580006301,89.53324580006301,89.53324580006301,89.89969159988686,89.89969159988686,89.89969159988686,89.89969159988686,89.89969159988686,89.89969159988686,89.89969159988686,89.89969159988686,89.89969159988686,23,0,,,89.89969159988686,90.09992379997857,0.0,90.09992379997857,0,0.0,0,1,1000,num_1,0.7799438000656664,,31,2,2026-03-12_13h24.58.575,2026A_exp2,2022.2.4,60.02710830876626,
1000,1,0.0,0.0,1,0,13,13,33,,,,,90.90037690009922,91.55136739998125,91.55136739998125,92.0357494999189,45,45,92.0357494999189,92.0357494999189,92.0357494999189,92.0357494999189,92.0357494999189,92.0357494999189,92.0357494999189,92.0357494999189,92.0357494999189,92.40221170010045,92.40221170010045,92.40221170010045,92.40221170010045,92.40221170010045,92.40221170010045,92.40221170010045,92.40221170010045,92.40221170010045,23,0,,,92.40221170010045,92.60441219992936,1000,92.60441219992936,1000,1000,1000,1000,1,num_2,1.1316982002463192,,31,2,2026-03-12_13h24.58.575,2026A_exp2,2022.2.4,60.02710830876626,
1000,1,0.0,0.0,1,0,14,14,27,,,,,93.75362930004485,94.3873719999101,94.3873719999101,94.88869519997388,45,315,94.88869519997388,94.88869519997388,94.88869519997388,94.88869519997388,94.88869519997388,94.88869519997388,94.88869519997388,94.88869519997388,94.88869519997388,95.25507869990543,95.25507869990543,95.25507869990543,95.25507869990543,95.25507869990543,95.25507869990543,95.25507869990543,95.25507869990543,95.25507869990543,23,0,,,95.25507869990543,95.45663130003959,1000,95.45663130003959,1000,1000,1000,1000,1,num_2,1.135068700183183,,31,2,2026-03-12_13h24.58.575,2026A_exp2,2022.2.4,60.02710830876626,
1000,1,0.0,0.0,0,0,15,15,86,,,,,96.62322110007517,97.27387199993245,97.27387199993245,97.77473490010016,45,45,97.77473490010016,97.77473490010016,97.77473490010016,97.77473490010016,97.77473490010016,97.77473490010016,97.77473490010016,97.77473490010016,97.77473490010016,98.12461600010283,98.12461600010283,98.12461600010283,98.12461600010283,98.12461600010283,98.12461600010283,98.12461600010283,98.12461600010283,98.12461600010283,22,0,,,98.12461600010283,98.3264582999982,1000,98.3264582999982,1000,1000,1000,1000,0,num_3,0.7065967002417892,,31,2,2026-03-12_13h24.58.575,2026A_exp2,2022.2.4,60.02710830876626,
1000,1,0.0,3.7,0,0,16,16,78,,,,,99.05875320010819,99.70932139991783,99.70932139991783,100.19379019993357,315,315,100.19379019993357,100.19379019993357,100.19379019993357,100.19379019993357,100.19379019993357,100.19379019993357,100.19379019993357,100.19379019993357,100.19379019993357,100.56039200001396,100.56039200001396,100.56039200001396,100.56039200001396,100.56039200001396,100.56039200001396,100.56039200001396,100.56039200001396,100.56039200001396,23,0,,,100.56039200001396,100.76285509997979,1000,100.76285509997979,1000,1000,1000,1000,1,num_2,0.6052892000880092,,31,2,2026-03-12_13h24.58.575,2026A_exp2,2022.2.4,60.02710830876626,
1,0,0.0,6.1,1,0,17,17,36,,,,,101.39438539999537,102.04515830008313,102.04515830008313,102.54611360002309,315,45,102.54611360002309,102.54611360002309,102.54611360002309,102.54611360002309,102.54611360002309,102.54611360002309,102.54611360002309,102.54611360002309,102.54611360002309,102.9127712000627,102.9127712000627,102.9127712000627,102.9127712000627,102.9127712000627,102.9127712000627,102.9127712000627,102.9127712000627,102.9127712000627,23,0,,,102.9127712000627,103.11275249999017,6.1,103.11275249999017,1,6.1,1,1,1000,num_4,0.8395965001545846,,31,2,2026-03-12_13h24.58.575,2026A_exp2,2022.2.4,60.02710830876626,
1,0,0.0,6.1,0,0,18,18,34,,,,,103.98020170000382,104.64004159998149,104.64004159998149,105.12055110000074,45,315,105.12055110000074,105.12055110000074,105.12055110000074,105.12055110000074,105.12055110000074,105.12055110000074,105.12055110000074,105.12055110000074,105.12055110000074,105.4820616999641,105.4820616999641,105.4820616999641,105.4820616999641,105.4820616999641,105.4820616999641,105.4820616999641,105.4820616999641,105.4820616999641,23,0,,,105.4820616999641,105.69520239997655,0.0,105.69520239997655,0,0.0,0,1,1000,num_1,1.64167940011248,,31,2,2026-03-12_13h24.58.575,2026A_exp2,2022.2.4,60.02710830876626,
1000,1,0.0,0.0,0,0,19,19,74,,,,,107.36694699991494,108.01775399991311,108.01775399991311,108.50227180006914,315,45,108.50227180006914,108.50227180006914,108.50227180006914,108.50227180006914,108.50227180006914,108.50227180006914,108.50227180006914,108.50227180006914,108.50227180006914,108.86862189997919,108.86862189997919,108.86862189997919,108.86862189997919,108.86862189997919,108.86862189997919,108.86862189997919,108.86862189997919,108.86862189997919,23,0,,,108.86862189997919,109.07061749999411,1000,109.07061749999411,1000,1000,1000,1000,1,num_2,1.8260351002682,,31,2,2026-03-12_13h24.58.575,2026A_exp2,2022.2.4,60.02710830876626,
1,0,0.0,6.1,1,0,20,20,52,,,,,110.92060380009934,111.57126070000231,111.57126070000231,112.07234350009821,315,315,112.07234350009821,112.07234350009821,112.07234350009821,112.07234350009821,112.07234350009821,112.07234350009821,112.07234350009821,112.07234350009821,112.07234350009821,112.43891549995169,112.43891549995169,112.43891549995169,112.43891549995169,112.43891549995169,112.43891549995169,112.43891549995169,112.43891549995169,112.43891549995169,23,0,,,112.43891549995169,112.63912419998087,6.1,112.63912419998087,1,6.1,1,1,1000,num_4,0.7292408000212163,,31,2,2026-03-12_13h24.58.575,2026A_exp2,2022.2.4,60.02710830876626,
0,0,4.9,0.0,1,0,21,21,25,,,,,113.38966779992916,114.04058900009841,114.04058900009841,114.52496549999341,315,315,114.52496549999341,114.52496549999341,114.52496549999341,114.52496549999341,114.52496549999341,114.52496549999341,114.52496549999341,114.52496549999341,114.52496549999341,114.8913849000819,114.8913849000819,114.8913849000819,114.8913849000819,114.8913849000819,114.8913849000819,114.8913849000819,114.8913849000819,114.8913849000819,23,0,,,114.8913849000819,115.0915216000285,4.9,115.0915216000285,1,4.9,1,1,1000,num_4,1.877201700117439,,31,2,2026-03-12_13h24.58.575,2026A_exp2,2022.2.4,60.02710830876626,
1,0,6.1,4.9,0,0,22,22,39,,,,,116.99327640002593,117.64416950009763,117.64416950009763,118.12855429993942,315,315,118.12855429993942,118.12855429993942,118.12855429993942,118.12855429993942,118.12855429993942,118.12855429993942,118.12855429993942,118.12855429993942,118.12855429993942,118.49498390010558,118.49498390010558,118.49498390010558,118.49498390010558,118.49498390010558,118.49498390010558,118.49498390010558,118.49498390010558,118.49498390010558,23,0,,,118.49498390010558,118.69520920002833,6.1,118.69520920002833,1,6.1,1,1,1000,num_4,0.9204842001199722,,31,2,2026-03-12_13h24.58.575,2026A_exp2,2022.2.4,60.02710830876626,
1000,1,3.7,0.0,1,0,23,23,48,,,,,119.64596159989014,120.29684090008959,120.29684090008959,120.79642329993658,315,315,120.79642329993658,120.79642329993658,120.79642329993658,120.79642329993658,120.79642329993658,120.79642329993658,120.79642329993658,120.79642329993658,120.79642329993658,121.14747030008584,121.14747030008584,121.14747030008584,121.14747030008584,121.14747030008584,121.14747030008584,121.14747030008584,121.14747030008584,121.14747030008584,23,0,,,121.14747030008584,121.34958350006491,1000,121.34958350006491,1000,1000,1000,1000,0,num_3,0.8985430002212524,,31,2,2026-03-12_13h24.58.575,2026A_exp2,2022.2.4,60.02710830876626,
1000,1,4.9,0.0,1,0,24,24,72,,,,,122.26555810007267,122.91598680010065,122.91598680010065,123.4171953999903,315,315,123.4171953999903,123.4171953999903,123.4171953999903,123.4171953999903,123.4171953999903,123.4171953999903,123.4171953999903,123.4171953999903,123.4171953999903,123.76682869996876,123.76682869996876,123.76682869996876,123.76682869996876,123.76682869996876,123.76682869996876,123.76682869996876,123.76682869996876,123.76682869996876,22,0,,,123.76682869996876,123.96729939989746,1000,123.9839027998969,1000,1000,1000,1000,0,num_3,0.8567059002816677,,31,2,2026-03-12_13h24.58.575,2026A_exp2,2022.2.4,60.02710830876626,
1000,1,3.7,4.9,1,0,25,25,44,,,,,124.86786519992165,125.51865529990755,125.51865529990755,126.01981809991412,315,315,126.01981809991412,126.01981809991412,126.01981809991412,126.01981809991412,126.01981809991412,126.01981809991412,126.01981809991412,126.01981809991412,126.01981809991412,126.36954659991898,126.36954659991898,126.36954659991898,126.36954659991898,126.36954659991898,126.36954659991898,126.36954659991898,126.36954659991898,126.36954659991898,22,0,,,126.36954659991898,126.57126579992473,1000,126.58604860003106,1000,1000,1000,1000,1,num_2,1.0056021001655608,,31,2,2026-03-12_13h24.58.575,2026A_exp2,2022.2.4,60.02710830876626,
1000,1,0.0,4.9,1,0,26,26,79,,,,,127.6205309999641,128.271450500004,128.271450500004,128.7724391000811,45,315,128.7724391000811,128.7724391000811,128.7724391000811,128.7724391000811,128.7724391000811,128.7724391000811,128.7724391000811,128.7724391000811,128.7724391000811,129.13897090009414,129.13897090009414,129.13897090009414,129.13897090009414,129.13897090009414,129.13897090009414,129.13897090009414,129.13897090009414,129.13897090009414,23,0,,,129.13897090009414,129.34094300004654,1000,129.34094300004654,1000,1000,1000,1000,1,num_2,0.6915261000394821,,31,2,2026-03-12_13h24.58.575,2026A_exp2,2022.2.4,60.02710830876626,
1,0,0.0,6.1,1,0,27,27,40,,,,,130.05665810010396,130.7073196999263,130.7073196999263,131.20815269998275,315,45,131.20815269998275,131.20815269998275,131.20815269998275,131.20815269998275,131.20815269998275,131.20815269998275,131.20815269998275,131.20815269998275,131.20815269998275,131.57452360005118,131.57452360005118,131.57452360005118,131.57452360005118,131.57452360005118,131.57452360005118,131.57452360005118,131.57452360005118,131.57452360005118,14,3,"[0.0011984000448137522, 0.15048250020481646, 0.3174062001053244]","[0.033714800141751766, 0.2339304001070559, 0.35070960014127195]",131.57452360005118,131.77476969989948,6.1,131.77476969989948,1,6.1,1,1,1000,num_4,0.7928954001981765,,31,2,2026-03-12_13h24.58.575,2026A_exp2,2022.2.4,60.02710830876626,
1000,1,6.1,0.0,1,0,28,28,69,,,,,132.59213349991478,133.22651059995405,133.22651059995405,133.72734549990855,45,315,133.72734549990855,133.72734549990855,133.72734549990855,133.72734549990855,133.72734549990855,133.72734549990855,133.72734549990855,133.72734549990855,133.72734549990855,134.0938931000419,134.0938931000419,134.0938931000419,134.0938931000419,134.0938931000419,134.0938931000419,134.0938931000419,134.0938931000419,134.0938931000419,23,0,,,134.0938931000419,134.29502650001086,1000,134.29502650001086,1000,1000,1000,1000,0,num_3,0.8247903999872506,,31,2,2026-03-12_13h24.58.575,2026A_exp2,2022.2.4,60.02710830876626,
1000,1,4.9,0.0,1,0,29,29,5,,,,,135.1447958999779,135.795187599957,135.795187599957,136.29665990010835,315,45,136.29665990010835,136.29665990010835,136.29665990010835,136.29665990010835,136.29665990010835,136.29665990010835,136.29665990010835,136.29665990010835,136.29665990010835,136.64642879995517,136.64642879995517,136.64642879995517,136.64642879995517,136.64642879995517,136.64642879995517,136.64642879995517,136.64642879995517,136.64642879995517,22,0,,,136.64642879995517,136.84869550005533,1000,136.84869550005533,1000,1000,1000,1000,0,num_3,0.8084681001491845,,31,2,2026-03-12_13h24.58.575,2026A_exp2,2022.2.4,60.02710830876626,
1000,1,6.1,0.0,1,0,30,30,68,,,,,137.68067230004817,138.3314370000735,138.3314370000735,138.83244800008833,315,45,138.83244800008833,138.83244800008833,138.83244800008833,138.83244800008833,138.83244800008833,138.83244800008833,138.83244800008833,138.83244800008833,138.83244800008833,139.18229499994777,139.18229499994777,139.18229499994777,139.18229499994777,139.18229499994777,139.18229499994777,139.18229499994777,139.18229499994777,139.18229499994777,22,0,,,139.18229499994777,139.38470209995285,1000,139.3992802000139,1000,1000,1000,1000,0,num_3,0.5770342003088444,,31,2,2026-03-12_13h24.58.575,2026A_exp2,2022.2.4,60.02710830876626,
1,0,0.0,3.7,1,0,31,31,41,,,,,139.9998127000872,140.65036399988458,140.65036399988458,141.15118169994093,315,45,141.15118169994093,141.15118169994093,141.15118169994093,141.15118169994093,141.15118169994093,141.15118169994093,141.15118169994093,141.15118169994093,141.15118169994093,141.51804420002736,141.51804420002736,141.51804420002736,141.51804420002736,141.51804420002736,141.51804420002736,141.51804420002736,141.51804420002736,141.51804420002736,5,2,"[0.0012157999444752932, 0.3004993998911232]","[0.2839252999983728, 0.31735899997875094]",141.51804420002736,141.71825010003522,3.7,141.71825010003522,1,3.7,1,1,1000,num_4,0.7788027001079172,,31,2,2026-03-12_13h24.58.575,2026A_exp2,2022.2.4,60.02710830876626,
1,0,0.0,0.0,0,0,32,32,63,,,,,142.51870699995197,143.1695580999367,143.1695580999367,143.6541383001022,315,45,143.6541383001022,143.6541383001022,143.6541383001022,143.6541383001022,143.6541383001022,143.6541383001022,143.6541383001022,143.6541383001022,143.6541383001022,144.02073649992235,144.02073649992235,144.02073649992235,144.02073649992235,144.02073649992235,144.02073649992235,144.02073649992235,144.02073649992235,144.02073649992235,23,0,,,144.02073649992235,144.22030239994638,0.0,144.22030239994638,1,0.0,0,0,1000,num_4,0.7883852999657393,,31,2,2026-03-12_13h24.58.575,2026A_exp2,2022.2.4,60.02710830876626,
1000,1,0.0,0.0,0,0,33,33,17,,,,,145.037891499931,145.67217879998498,145.67217879998498,146.19071400002576,45,45,146.19071400002576,146.19071400002576,146.19071400002576,146.19071400002576,146.19071400002576,146.19071400002576,146.19071400002576,146.19071400002576,146.19071400002576,146.539738799911,146.539738799911,146.539738799911,146.539738799911,146.539738799911,146.539738799911,146.539738799911,146.539738799911,146.539738799911,23,0,,,146.539738799911,146.74209060007706,1000,146.74209060007706,1000,1000,1000,1000,0,num_3,1.1226284001022577,,31,2,2026-03-12_13h24.58.575,2026A_exp2,2022.2.4,60.02710830876626,
1000,1,0.0,6.1,0,0,34,34,9,,,,,147.89088979992084,148.54161030007526,148.54161030007526,149.0427574000787,315,315,149.0427574000787,149.0427574000787,149.0427574000787,149.0427574000787,149.0427574000787,149.0427574000787,149.0427574000787,149.0427574000787,149.0427574000787,149.39247970003635,149.39247970003635,149.39247970003635,149.39247970003635,149.39247970003635,149.39247970003635,149.39247970003635,149.39247970003635,149.39247970003635,22,0,,,149.39247970003635,149.5947853999678,1000,149.60944649996236,1000,1000,1000,1000,1,num_2,0.4949758001603186,,31,2,2026-03-12_13h24.58.575,2026A_exp2,2022.2.4,60.02710830876626,
1,0,0.0,6.1,0,0,35,35,60,,,,,150.1263925000094,150.77715469989926,150.77715469989926,151.27835569996387,45,315,151.27835569996387,151.27835569996387,151.27835569996387,151.27835569996387,151.27835569996387,151.27835569996387,151.27835569996387,151.27835569996387,151.27835569996387,151.64474790007807,151.64474790007807,151.64474790007807,151.64474790007807,151.64474790007807,151.64474790007807,151.64474790007807,151.64474790007807,151.64474790007807,23,0,,,151.64474790007807,151.84500239999034,0.0,151.84500239999034,0,0.0,0,1,1000,num_1,0.8836345002055168,,31,2,2026-03-12_13h24.58.575,2026A_exp2,2022.2.4,60.02710830876626,
1000,1,0.0,0.0,0,0,36,36,80,,,,,152.745620300062,153.39639950008132,153.39639950008132,153.88084220001474,45,315,153.88084220001474,153.88084220001474,153.88084220001474,153.88084220001474,153.88084220001474,153.88084220001474,153.88084220001474,153.88084220001474,153.88084220001474,154.24714089999907,154.24714089999907,154.24714089999907,154.24714089999907,154.24714089999907,154.24714089999907,154.24714089999907,154.24714089999907,154.24714089999907,23,0,,,154.24714089999907,154.44754020008259,1000,154.44754020008259,1000,1000,1000,1000,0,num_3,1.0970602000597864,,31,2,2026-03-12_13h24.58.575,2026A_exp2,2022.2.4,60.02710830876626,
1,0,3.7,6.1,0,0,37,37,55,,,,,155.56522940006107,156.21603509993292,156.21603509993292,156.72245960007422,45,315,156.72245960007422,156.72245960007422,156.72245960007422,156.72245960007422,156.72245960007422,156.72245960007422,156.72245960007422,156.72245960007422,156.72245960007422,157.0834556000773,157.0834556000773,157.0834556000773,157.0834556000773,157.0834556000773,157.0834556000773,157.0834556000773,157.0834556000773,157.0834556000773,23,0,,,157.0834556000773,157.2836792001035,3.7,157.2836792001035,0,3.7,1,0,1000,num_1,0.9326230001170188,,31,2,2026-03-12_13h24.58.575,2026A_exp2,2022.2.4,60.02710830876626,
1000,1,0.0,4.9,1,0,38,38,59,,,,,158.2344839000143,158.88532039988786,158.88532039988786,159.36963000008836,45,45,159.36963000008836,159.36963000008836,159.36963000008836,159.36963000008836,159.36963000008836,159.36963000008836,159.36963000008836,159.36963000008836,159.36963000008836,159.73608159995638,159.73608159995638,159.73608159995638,159.73608159995638,159.73608159995638,159.73608159995638,159.73608159995638,159.73608159995638,159.73608159995638,19,1,[0.11694550001993775],[0.18363380013033748],159.73608159995638,159.93835700000636,1000,159.93835700000636,1000,1000,1000,1000,1,num_2,0.7492508001159877,,31,2,2026-03-12_13h24.58.575,2026A_exp2,2022.2.4,60.02710830876626,
1,0,0.0,0.0,1,0,39,39,73,,,,,160.70371189992875,161.35439460002817,161.35439460002817,161.85547340009362,45,45,161.85547340009362,161.85547340009362,161.85547340009362,161.85547340009362,161.85547340009362,161.85547340009362,161.85547340009362,161.85547340009362,161.85547340009362,162.22187969996594,162.22187969996594,162.22187969996594,162.22187969996594,162.22187969996594,162.22187969996594,162.22187969996594,162.22187969996594,162.22187969996594,23,0,,,162.22187969996594,162.4220644000452,0.0,162.4220644000452,1,0.0,0,0,1000,num_4,0.8019707000348717,,31,2,2026-03-12_13h24.58.575,2026A_exp2,2022.2.4,60.02710830876626,
1,0,0.0,3.7,0,0,40,40,35,,,,,163.24014539993368,163.88993360009044,163.88993360009044,164.3910892000422,45,315,164.3910892000422,164.3910892000422,164.3910892000422,164.3910892000422,164.3910892000422,164.3910892000422,164.3910892000422,164.3910892000422,164.3910892000422,164.741132899886,164.741132899886,164.741132899886,164.741132899886,164.741132899886,164.741132899886,164.741132899886,164.741132899886,164.741132899886,22,0,,,164.741132899886,164.9413453999441,0.0,164.9413453999441,0,0.0,0,1,1000,num_1,0.9943283000029624,,31,2,2026-03-12_13h24.58.575,2026A_exp2,2022.2.4,60.02710830876626,
1,0,0.0,0.0,1,0,41,41,6,,,,,165.95904020010494,166.6097595000174,166.6097595000174,167.09418709995225,45,45,167.09418709995225,167.09418709995225,167.09418709995225,167.09418709995225,167.09418709995225,167.09418709995225,167.09418709995225,167.09418709995225,167.09418709995225,167.46060210000724,167.46060210000724,167.46060210000724,167.46060210000724,167.46060210000724,167.46060210000724,167.46060210000724,167.46060210000724,167.46060210000724,23,0,,,167.46060210000724,167.6607200000435,0.0,167.6607200000435,1,0.0,0,0,1000,num_4,0.6358790001831949,,31,2,2026-03-12_13h24.58.575,2026A_exp2,2022.2.4,60.02710830876626,
1,0,0.0,0.0,1,0,42,42,87,,,,,168.3279812000692,168.9787361000199,168.9787361000199,169.46323910006322,315,45,169.46323910006322,169.46323910006322,169.46323910006322,169.46323910006322,169.46323910006322,169.46323910006322,169.46323910006322,169.46323910006322,169.46323910006322,169.82961119990796,169.82961119990796,169.82961119990796,169.82961119990796,169.82961119990796,169.82961119990796,169.82961119990796,169.82961119990796,169.82961119990796,22,1,[0.01749469991773367],[0.033491200068965554],169.82961119990796,170.02968459995463,0.0,170.02968459995463,1,0.0,0,0,1000,num_4,0.9941253000870347,,31,2,2026-03-12_13h24.58.575,2026A_exp2,2022.2.4,60.02710830876626,
1000,1,0.0,6.1,1,0,43,43,88,,,,,171.04746420006268,171.6980657998938,171.6980657998938,172.1825790000148,315,45,172.1825790000148,172.1825790000148,172.1825790000148,172.1825790000148,172.1825790000148,172.1825790000148,172.1825790000148,172.1825790000148,172.1825790000148,172.54859620006755,172.54859620006755,172.54859620006755,172.54859620006755,172.54859620006755,172.54859620006755,172.54859620006755,172.54859620006755,172.54859620006755,23,0,,,172.54859620006755,172.7509431000799,1000,172.7509431000799,1000,1000,1000,1000,1,num_2,0.8495309001300484,,31,2,2026-03-12_13h24.58.575,2026A_exp2,2022.2.4,60.02710830876626,
1,0,3.7,0.0,1,0,44,44,19,,,,,173.61661819997244,174.267289099982,174.267289099982,174.76853480003774,315,315,174.76853480003774,174.76853480003774,174.76853480003774,174.76853480003774,174.76853480003774,174.76853480003774,174.76853480003774,174.76853480003774,174.76853480003774,175.13486150000244,175.13486150000244,175.13486150000244,175.13486150000244,175.13486150000244,175.13486150000244,175.13486150000244,175.13486150000244,175.13486150000244,23,0,,,175.13486150000244,175.33510869997554,0.0,175.33510869997554,0,0.0,0,1,1000,num_1,1.1849231000524014,,31,2,2026-03-12_13h24.58.575,2026A_exp2,2022.2.4,60.02710830876626,
1000,1,0.0,4.9,1,0,45,45,31,,,,,176.53607910010032,177.18690759991296,177.18690759991296,177.6714472998865,315,45,177.6714472998865,177.6714472998865,177.6714472998865,177.6714472998865,177.6714472998865,177.6714472998865,177.6714472998865,177.6714472998865,177.6714472998865,178.03785190009512,178.03785190009512,178.03785190009512,178.03785190009512,178.03785190009512,178.03785190009512,178.03785190009512,178.03785190009512,178.03785190009512,23,0,,,178.03785190009512,178.2396581999492,1000,178.2396581999492,1000,1000,1000,1000,1,num_2,0.8167924000881612,,31,2,2026-03-12_13h24.58.575,2026A_exp2,2022.2.4,60.02710830876626,
1000,1,6.1,0.0,1,0,46,46,30,,,,,179.07218770007603,179.72280379990116,179.72280379990116,180.2241269000806,45,315,180.2241269000806,180.2241269000806,180.2241269000806,180.2241269000806,180.2241269000806,180.2241269000806,180.2241269000806,180.2241269000806,180.2241269000806,180.59028959996067,180.59028959996067,180.59028959996067,180.59028959996067,180.59028959996067,180.59028959996067,180.59028959996067,180.59028959996067,180.59028959996067,23,0,,,180.59028959996067,180.79227799992077,1000,180.79227799992077,1000,1000,1000,1000,0,num_3,0.776259200181812,,31,2,2026-03-12_13h24.58.575,2026A_exp2,2022.2.4,60.02710830876626,
1000,1,6.1,0.0,1,0,47,47,16,,,,,181.59125240007415,182.24209650000557,182.24209650000557,182.74297960009426,315,45,182.74297960009426,182.74297960009426,182.74297960009426,182.74297960009426,182.74297960009426,182.74297960009426,182.74297960009426,182.74297960009426,182.74297960009426,183.10956460004672,183.10956460004672,183.10956460004672,183.10956460004672,183.10956460004672,183.10956460004672,183.10956460004672,183.10956460004672,183.10956460004672,23,0,,,183.10956460004672,183.31150939990766,1000,183.31150939990766,1000,1000,1000,1000,0,num_3,0.8805726002901793,,31,2,2026-03-12_13h24.58.575,2026A_exp2,2022.2.4,60.02710830876626,
1,0,3.7,0.0,0,0,48,48,65,,,,,184.2104799998924,184.86135910009034,184.86135910009034,185.3624589999672,315,315,185.3624589999672,185.3624589999672,185.3624589999672,185.3624589999672,185.3624589999672,185.3624589999672,185.3624589999672,185.3624589999672,185.3624589999672,185.72874399996363,185.72874399996363,185.72874399996363,185.72874399996363,185.72874399996363,185.72874399996363,185.72874399996363,185.72874399996363,185.72874399996363,23,0,,,185.72874399996363,185.92915829992853,3.7,185.92915829992853,1,3.7,1,1,1000,num_4,0.8786450000479817,,31,2,2026-03-12_13h24.58.575,2026A_exp2,2022.2.4,60.02710830876626,
1000,1,3.7,0.0,0,0,49,49,45,,,,,186.82972269994207,187.48057130002417,187.48057130002417,187.96506690001115,315,315,187.96506690001115,187.96506690001115,187.96506690001115,187.96506690001115,187.96506690001115,187.96506690001115,187.96506690001115,187.96506690001115,187.96506690001115,188.33144919993356,188.33144919993356,188.33144919993356,188.33144919993356,188.33144919993356,188.33144919993356,188.33144919993356,188.33144919993356,188.33144919993356,23,0,,,188.33144919993356,188.5332933999598,1000,188.5332933999598,1000,1000,1000,1000,0,num_3,0.7236677999608219,,31,2,2026-03-12_13h24.58.575,2026A_exp2,2022.2.4,60.02710830876626,
1,0,0.0,4.9,1,0,50,50,53,,,,,189.28225090005435,189.93290099990554,189.93290099990554,190.43415710004047,45,45,190.43415710004047,190.43415710004047,190.43415710004047,190.43415710004047,190.43415710004047,190.43415710004047,190.43415710004047,190.43415710004047,190.43415710004047,190.80058109993115,190.80058109993115,190.80058109993115,190.80058109993115,190.80058109993115,190.80058109993115,190.80058109993115,190.80058109993115,190.80058109993115,23,0,,,190.80058109993115,191.00078090000898,4.9,191.00078090000898,1,4.9,1,1,1000,num_4,0.751227600267157,,31,2,2026-03-12_13h24.58.575,2026A_exp2,2022.2.4,60.02710830876626,
1,0,0.0,6.1,0,0,51,51,11,,,,,191.76802009996027,192.41879409994,192.41879409994,192.90314950002357,45,45,192.90314950002357,192.90314950002357,192.90314950002357,192.90314950002357,192.90314950002357,192.90314950002357,192.90314950002357,192.90314950002357,192.90314950002357,193.269574200036,193.269574200036,193.269574200036,193.269574200036,193.269574200036,193.269574200036,193.269574200036,193.269574200036,193.269574200036,23,0,,,193.269574200036,193.46948880003765,0.0,193.46948880003765,0,0.0,0,1,1000,num_1,0.8742568001616746,,31,2,2026-03-12_13h24.58.575,2026A_exp2,2022.2.4,60.02710830876626,
1000,1,3.7,6.1,0,0,52,52,84,,,,,194.37093110010028,195.00542890001088,195.00542890001088,195.50556059996597,315,315,195.50556059996597,195.50556059996597,195.50556059996597,195.50556059996597,195.50556059996597,195.50556059996597,195.50556059996597,195.50556059996597,195.50556059996597,195.87203050008975,195.87203050008975,195.87203050008975,195.87203050008975,195.87203050008975,195.87203050008975,195.87203050008975,195.87203050008975,195.87203050008975,23,0,,,195.87203050008975,196.07249319995753,1000,196.07249319995753,1000,1000,1000,1000,1,num_2,1.087961700046435,,31,2,2026-03-12_13h24.58.575,2026A_exp2,2022.2.4,60.02710830876626,
0,0,6.1,3.7,1,0,53,53,49,,,,,197.19036350003444,197.824113199953,197.824113199953,198.32510900008492,45,315,198.32510900008492,198.32510900008492,198.32510900008492,198.32510900008492,198.32510900008492,198.32510900008492,198.32510900008492,198.32510900008492,198.32510900008492,198.69141829991713,198.69141829991713,198.69141829991713,198.69141829991713,198.69141829991713,198.69141829991713,198.69141829991713,198.69141829991713,198.69141829991713,23,0,,,198.69141829991713,198.89170149993151,6.1,198.89170149993151,1,6.1,1,1,1000,num_4,1.3323570000939071,,31,2,2026-03-12_13h24.58.575,2026A_exp2,2022.2.4,60.02710830876626,
1000,1,0.0,0.0,0,0,54,54,83,,,,,200.24304759991355,200.87700870004483,200.87700870004483,201.37816510000266,315,45,201.37816510000266,201.37816510000266,201.37816510000266,201.37816510000266,201.37816510000266,201.37816510000266,201.37816510000266,201.37816510000266,201.37816510000266,201.744748899946,201.744748899946,201.744748899946,201.744748899946,201.744748899946,201.744748899946,201.744748899946,201.744748899946,201.744748899946,23,0,,,201.744748899946,201.9447683999315,1000,201.9447683999315,1000,1000,1000,1000,0,num_3,0.9589370002504438,,31,2,2026-03-12_13h24.58.575,2026A_exp2,2022.2.4,60.02710830876626,
1,0,0.0,0.0,0,0,55,55,29,,,,,202.92933929990977,203.57973019988276,203.57973019988276,204.06396239995956,315,45,204.06396239995956,204.06396239995956,204.06396239995956,204.06396239995956,204.06396239995956,204.06396239995956,204.06396239995956,204.06396239995956,204.06396239995956,204.43073830008507,204.43073830008507,204.43073830008507,204.43073830008507,204.43073830008507,204.43073830008507,204.43073830008507,204.43073830008507,204.43073830008507,23,0,,,204.43073830008507,204.6306576000061,0.0,204.6306576000061,1,0.0,0,0,1000,num_4,0.9856383001897484,,31,2,2026-03-12_13h24.58.575,2026A_exp2,2022.2.4,60.02710830876626,
1000,1,3.7,4.9,1,0,56,56,46,,,,,205.64846220007166,206.28246299992315,206.28246299992315,206.7836404000409,315,45,206.7836404000409,206.7836404000409,206.7836404000409,206.7836404000409,206.7836404000409,206.7836404000409,206.7836404000409,206.7836404000409,206.7836404000409,207.15038220002316,207.15038220002316,207.15038220002316,207.15038220002316,207.15038220002316,207.15038220002316,207.15038220002316,207.15038220002316,207.15038220002316,23,0,,,207.15038220002316,207.3505460000597,1000,207.3505460000597,1000,1000,1000,1000,1,num_2,0.8496709000319242,,31,2,2026-03-12_13h24.58.575,2026A_exp2,2022.2.4,60.02710830876626,
1000,1,4.9,6.1,0,0,57,57,20,,,,,208.2179825999774,208.86824190011248,208.86824190011248,209.35287180007435,315,315,209.35287180007435,209.35287180007435,209.35287180007435,209.35287180007435,209.35287180007435,209.35287180007435,209.35287180007435,209.35287180007435,209.35287180007435,209.7191159001086,209.7191159001086,209.7191159001086,209.7191159001086,209.7191159001086,209.7191159001086,209.7191159001086,209.7191159001086,209.7191159001086,23,0,,,209.7191159001086,209.92088210000657,1000,209.92088210000657,1000,1000,1000,1000,1,num_2,0.968440700089559,,31,2,2026-03-12_13h24.58.575,2026A_exp2,2022.2.4,60.02710830876626,
1,0,4.9,0.0,0,0,58,58,58,,,,,210.92047780007124,211.55442679999396,211.55442679999396,212.0557136000134,315,315,212.0557136000134,212.0557136000134,212.0557136000134,212.0557136000134,212.0557136000134,212.0557136000134,212.0557136000134,212.0557136000134,212.0557136000134,212.42185959988274,212.42185959988274,212.42185959988274,212.42185959988274,212.42185959988274,212.42185959988274,212.42185959988274,212.42185959988274,212.42185959988274,23,0,,,212.42185959988274,212.62226619990543,4.9,212.62226619990543,1,4.9,1,1,1000,num_4,0.8420613000635058,,31,2,2026-03-12_13h24.58.575,2026A_exp2,2022.2.4,60.02710830876626,
1000,1,0.0,0.0,1,0,59,59,67,,,,,213.49042370007373,214.14027930004522,214.14027930004522,214.62463010009378,45,315,214.62463010009378,214.62463010009378,214.62463010009378,214.62463010009378,214.62463010009378,214.62463010009378,214.62463010009378,214.62463010009378,214.62463010009378,214.99098200001754,214.99098200001754,214.99098200001754,214.99098200001754,214.99098200001754,214.99098200001754,214.99098200001754,214.99098200001754,214.99098200001754,23,0,,,214.99098200001754,215.19178169989027,1000,215.19178169989027,1000,1000,1000,1000,1,num_2,0.6723590001929551,,31,2,2026-03-12_13h24.58.575,2026A_exp2,2022.2.4,60.02710830876626,
1,0,0.0,3.7,1,0,60,60,66,,,,,215.8923031000886,216.5429509000387,216.5429509000387,217.02705310005695,315,45,217.02705310005695,217.02705310005695,217.02705310005695,217.02705310005695,217.02705310005695,217.02705310005695,217.02705310005695,217.02705310005695,217.02705310005695,217.3942442999687,217.3942442999687,217.3942442999687,217.3942442999687,217.3942442999687,217.3942442999687,217.3942442999687,217.3942442999687,217.3942442999687,23,0,,,217.3942442999687,217.59372020000592,3.7,217.59372020000592,1,3.7,1,1,1000,num_4,0.6702821000944823,,31,2,2026-03-12_13h24.58.575,2026A_exp2,2022.2.4,60.02710830876626,
1000,1,6.1,0.0,1,0,61,61,75,,,,,218.29437040002085,218.9284852000419,218.9284852000419,219.4295342999976,45,315,219.4295342999976,219.4295342999976,219.4295342999976,219.4295342999976,219.4295342999976,219.4295342999976,219.4295342999976,219.4295342999976,219.4295342999976,219.79614780005068,219.79614780005068,219.79614780005068,219.79614780005068,219.79614780005068,219.79614780005068,219.79614780005068,219.79614780005068,219.79614780005068,23,0,,,219.79614780005068,219.9960706999991,1000,219.9960706999991,1000,1000,1000,1000,0,num_3,0.988459900021553,,31,2,2026-03-12_13h24.58.575,2026A_exp2,2022.2.4,60.02710830876626,
1000,1,0.0,3.7,1,0,62,62,47,,,,,221.01369239995256,221.64767260011286,221.64767260011286,222.1497086000163,315,315,222.1497086000163,222.1497086000163,222.1497086000163,222.1497086000163,222.1497086000163,222.1497086000163,222.1497086000163,222.1497086000163,222.1497086000163,222.51561090000905,222.51561090000905,222.51561090000905,222.51561090000905,222.51561090000905,222.51561090000905,222.51561090000905,222.51561090000905,222.51561090000905,23,0,,,222.51561090000905,222.7156829999294,1000,222.7156829999294,1000,1000,1000,1000,1,num_2,0.7965915002860129,,31,2,2026-03-12_13h24.58.575,2026A_exp2,2022.2.4,60.02710830876626,
1000,1,3.7,0.0,0,0,63,63,57,,,,,223.53288919990882,224.1836612999905,224.1836612999905,224.6680161000695,45,315,224.6680161000695,224.6680161000695,224.6680161000695,224.6680161000695,224.6680161000695,224.6680161000695,224.6680161000695,224.6680161000695,224.6680161000695,225.03447460010648,225.03447460010648,225.03447460010648,225.03447460010648,225.03447460010648,225.03447460010648,225.03447460010648,225.03447460010648,225.03447460010648,23,0,,,225.03447460010648,225.2355049001053,1000,225.2355049001053,1000,1000,1000,1000,0,num_3,0.5562348002567887,,31,2,2026-03-12_13h24.58.575,2026A_exp2,2022.2.4,60.02710830876626,
1,0,6.1,0.0,0,0,64,64,56,,,,,225.81880889995955,226.4693519999273,226.4693519999273,226.95380820007995,45,45,226.95380820007995,226.95380820007995,226.95380820007995,226.95380820007995,226.95380820007995,226.95380820007995,226.95380820007995,226.95380820007995,226.95380820007995,227.32006009994075,227.32006009994075,227.32006009994075,227.32006009994075,227.32006009994075,227.32006009994075,227.32006009994075,227.32006009994075,227.32006009994075,23,0,,,227.32006009994075,227.5204610999208,6.1,227.5204610999208,1,6.1,1,1,1000,num_4,0.8234989002812654,,31,2,2026-03-12_13h24.58.575,2026A_exp2,2022.2.4,60.02710830876626,
1,0,0.0,4.9,0,0,65,65,4,,,,,228.3714302999433,229.00518870004453,229.00518870004453,229.50632799998857,315,315,229.50632799998857,229.50632799998857,229.50632799998857,229.50632799998857,229.50632799998857,229.50632799998857,229.50632799998857,229.50632799998857,229.50632799998857,229.87251299992204,229.87251299992204,229.87251299992204,229.87251299992204,229.87251299992204,229.87251299992204,229.87251299992204,229.87251299992204,229.87251299992204,23,0,,,229.87251299992204,230.07312320009805,0.0,230.07312320009805,0,0.0,0,1,1000,num_1,1.2391850999556482,,31,2,2026-03-12_13h24.58.575,2026A_exp2,2022.2.4,60.02710830876626,
1000,1,6.1,6.1,1,0,66,66,77,,,,,231.34087230009027,231.97481189994141,231.97481189994141,232.47595919994637,315,45,232.47595919994637,232.47595919994637,232.47595919994637,232.47595919994637,232.47595919994637,232.47595919994637,232.47595919994637,232.47595919994637,232.47595919994637,232.84229859989136,232.84229859989136,232.84229859989136,232.84229859989136,232.84229859989136,232.84229859989136,232.84229859989136,232.84229859989136,232.84229859989136,23,0,,,232.84229859989136,233.04259840003215,1000,233.04259840003215,1000,1000,1000,1000,1,num_2,0.6296943002380431,,31,2,2026-03-12_13h24.58.575,2026A_exp2,2022.2.4,60.02710830876626,
1000,1,4.9,0.0,1,0,67,67,22,,,,,233.69335009995848,234.34390480001457,234.34390480001457,234.84525820007548,315,315,234.84525820007548,234.84525820007548,234.84525820007548,234.84525820007548,234.84525820007548,234.84525820007548,234.84525820007548,234.84525820007548,234.84525820007548,235.21120000001974,235.21120000001974,235.21120000001974,235.21120000001974,235.21120000001974,235.21120000001974,235.21120000001974,235.21120000001974,235.21120000001974,23,0,,,235.21120000001974,235.41147179994732,1000,235.41147179994732,1000,1000,1000,1000,0,num_3,0.8209201002027839,,31,2,2026-03-12_13h24.58.575,2026A_exp2,2022.2.4,60.02710830876626,
1000,1,4.9,0.0,0,0,68,68,26,,,,,236.26251000002958,236.91324219992384,236.91324219992384,237.3978273998946,45,45,237.3978273998946,237.3978273998946,237.3978273998946,237.3978273998946,237.3978273998946,237.3978273998946,237.3978273998946,237.3978273998946,237.3978273998946,237.76392220007256,237.76392220007256,237.76392220007256,237.76392220007256,237.76392220007256,237.76392220007256,237.76392220007256,237.76392220007256,237.76392220007256,23,0,,,237.76392220007256,237.96401520003565,1000,237.96401520003565,1000,1000,1000,1000,0,num_3,0.5644520001951605,,31,2,2026-03-12_13h24.58.575,2026A_exp2,2022.2.4,60.02710830876626,
1000,1,0.0,0.0,1,0,69,69,23,,,,,238.54819429991767,239.1985396000091,239.1985396000091,239.68307900009677,45,45,239.68307900009677,239.68307900009677,239.68307900009677,239.68307900009677,239.68307900009677,239.68307900009677,239.68307900009677,239.68307900009677,239.68307900009677,240.04935380001552,240.04935380001552,240.04935380001552,240.04935380001552,240.04935380001552,240.04935380001552,240.04935380001552,240.04935380001552,240.04935380001552,23,0,,,240.04935380001552,240.24979589995928,1000,240.24979589995928,1000,1000,1000,1000,0,num_3,1.1265910002402961,,31,2,2026-03-12_13h24.58.575,2026A_exp2,2022.2.4,60.02710830876626,
1000,1,0.0,0.0,0,0,70,70,64,,,,,241.40106289996766,242.05159100005403,242.05159100005403,242.53611449990422,315,45,242.53611449990422,242.53611449990422,242.53611449990422,242.53611449990422,242.53611449990422,242.53611449990422,242.53611449990422,242.53611449990422,242.53611449990422,242.9022822000552,242.9022822000552,242.9022822000552,242.9022822000552,242.9022822000552,242.9022822000552,242.9022822000552,242.9022822000552,242.9022822000552,23,0,,,242.9022822000552,243.10264199995436,1000,243.10264199995436,1000,1000,1000,1000,0,num_3,0.7929438999854028,,31,2,2026-03-12_13h24.58.575,2026A_exp2,2022.2.4,60.02710830876626,
1000,1,0.0,3.7,0,0,71,71,51,,,,,243.920398700051,244.57089970004745,244.57089970004745,245.05619019991718,315,315,245.05619019991718,245.05619019991718,245.05619019991718,245.05619019991718,245.05619019991718,245.05619019991718,245.05619019991718,245.05619019991718,245.05619019991718,245.4215325000696,245.4215325000696,245.4215325000696,245.4215325000696,245.4215325000696,245.4215325000696,245.4215325000696,245.4215325000696,245.4215325000696,23,0,,,245.4215325000696,245.62212769989856,1000,245.62212769989856,1000,1000,1000,1000,1,num_2,0.6178302001208067,,31,2,2026-03-12_13h24.58.575,2026A_exp2,2022.2.4,60.02710830876626,
1,0,3.7,0.0,1,0,72,72,50,,,,,246.25582280009985,246.90632080007344,246.90632080007344,247.39090200001374,45,315,247.39090200001374,247.39090200001374,247.39090200001374,247.39090200001374,247.39090200001374,247.39090200001374,247.39090200001374,247.39090200001374,247.39090200001374,247.7578195000533,247.7578195000533,247.7578195000533,247.7578195000533,247.7578195000533,247.7578195000533,247.7578195000533,247.7578195000533,247.7578195000533,23,0,,,247.7578195000533,247.9578662000131,0.0,247.9578662000131,0,0.0,0,1,1000,num_1,0.9148197001777589,,31,2,2026-03-12_13h24.58.575,2026A_exp2,2022.2.4,60.02710830876626,
1000,1,3.7,4.9,1,0,73,73,43,,,,,248.89199659996666,249.54217380005866,249.54217380005866,250.02721889992245,315,315,250.02721889992245,250.02721889992245,250.02721889992245,250.02721889992245,250.02721889992245,250.02721889992245,250.02721889992245,250.02721889992245,250.02721889992245,250.3931843000464,250.3931843000464,250.3931843000464,250.3931843000464,250.3931843000464,250.3931843000464,250.3931843000464,250.3931843000464,250.3931843000464,9,3,"[0.0009153001010417938, 0.10026370012201369, 0.13333300012163818]","[0.03368430002592504, 0.11708500003442168, 0.3336960000451654]",250.3931843000464,250.59465279988945,1000,250.59465279988945,1000,1000,1000,1000,1,num_2,0.8532391001936048,,31,2,2026-03-12_13h24.58.575,2026A_exp2,2022.2.4,60.02710830876626,
1000,1,6.1,0.0,0,0,74,74,82,,,,,251.47767390008084,252.12820690008812,252.12820690008812,252.61290899990126,45,315,252.61290899990126,252.61290899990126,252.61290899990126,252.61290899990126,252.61290899990126,252.61290899990126,252.61290899990126,252.61290899990126,252.61290899990126,252.97925850003958,252.97925850003958,252.97925850003958,252.97925850003958,252.97925850003958,252.97925850003958,252.97925850003958,252.97925850003958,252.97925850003958,23,0,,,252.97925850003958,253.17968189995736,1000,253.17968189995736,1000,1000,1000,1000,0,num_3,0.51630730018951,,31,2,2026-03-12_13h24.58.575,2026A_exp2,2022.2.4,60.02710830876626,
1,0,3.7,3.7,0,0,75,75,13,,,,,253.7131874000188,254.34709649998695,254.34709649998695,254.84844209998846,45,45,254.84844209998846,254.84844209998846,254.84844209998846,254.84844209998846,254.84844209998846,254.84844209998846,254.84844209998846,254.84844209998846,254.84844209998846,255.21565239992924,255.21565239992924,255.21565239992924,255.21565239992924,255.21565239992924,255.21565239992924,255.21565239992924,255.21565239992924,255.21565239992924,23,0,,,255.21565239992924,255.43140490003861,3.7,255.43140490003861,1,3.7,1,1,1000,num_4,0.7850005000364035,,31,2,2026-03-12_13h24.58.575,2026A_exp2,2022.2.4,60.02710830876626,
0,0,0.0,0.0,1,0,76,76,71,,,,,256.2324872999452,256.86637350008823,256.86637350008823,257.36740190000273,315,45,257.36740190000273,257.36740190000273,257.36740190000273,257.36740190000273,257.36740190000273,257.36740190000273,257.36740190000273,257.36740190000273,257.36740190000273,257.7336569998879,257.7336569998879,257.7336569998879,257.7336569998879,257.7336569998879,257.7336569998879,257.7336569998879,257.7336569998879,257.7336569998879,23,0,,,257.7336569998879,257.93399669998325,0.0,257.93399669998325,1,0.0,0,0,1000,num_4,1.890644900035113,,31,2,2026-03-12_13h24.58.575,2026A_exp2,2022.2.4,60.02710830876626,
1000,1,0.0,6.1,1,0,77,77,62,,,,,259.8527524000965,260.4867004000116,260.4867004000116,260.98836550000124,45,45,260.98836550000124,260.98836550000124,260.98836550000124,260.98836550000124,260.98836550000124,260.98836550000124,260.98836550000124,260.98836550000124,260.98836550000124,261.3544433999341,261.3544433999341,261.3544433999341,261.3544433999341,261.3544433999341,261.3544433999341,261.3544433999341,261.3544433999341,261.3544433999341,23,0,,,261.3544433999341,261.55459910002537,1000,261.55459910002537,1000,1000,1000,1000,1,num_2,0.7815048003103584,,31,2,2026-03-12_13h24.58.575,2026A_exp2,2022.2.4,60.02710830876626,
1,0,3.7,0.0,0,0,78,78,3,,,,,262.35537500004284,262.9893839000724,262.9893839000724,263.4902311998885,45,315,263.4902311998885,263.4902311998885,263.4902311998885,263.4902311998885,263.4902311998885,263.4902311998885,263.4902311998885,263.4902311998885,263.4902311998885,263.8564575999044,263.8564575999044,263.8564575999044,263.8564575999044,263.8564575999044,263.8564575999044,263.8564575999044,263.8564575999044,263.8564575999044,23,0,,,263.8564575999044,264.05676879989915,3.7,264.05676879989915,1,3.7,1,1,1000,num_4,0.7754822000861168,,31,2,2026-03-12_13h24.58.575,2026A_exp2,2022.2.4,60.02710830876626,
1000,1,0.0,0.0,1,0,79,79,12,,,,,264.85784239997156,265.5082779000513,265.5082779000513,265.99287410010584,45,315,265.99287410010584,265.99287410010584,265.99287410010584,265.99287410010584,265.99287410010584,265.99287410010584,265.99287410010584,265.99287410010584,265.99287410010584,266.35915110004134,266.35915110004134,266.35915110004134,266.35915110004134,266.35915110004134,266.35915110004134,266.35915110004134,266.35915110004134,266.35915110004134,23,0,,,266.35915110004134,266.560219099978,1000,266.560219099978,1000,1000,1000,1000,1,num_2,0.7920854000840336,,31,2,2026-03-12_13h24.58.575,2026A_exp2,2022.2.4,60.02710830876626,
1,0,0.0,4.9,1,0,80,80,21,,,,,267.37683170009404,268.0275781999808,268.0275781999808,268.511777699925,45,45,268.511777699925,268.511777699925,268.511777699925,268.511777699925,268.511777699925,268.511777699925,268.511777699925,268.511777699925,268.511777699925,268.87848600000143,268.87848600000143,268.87848600000143,268.87848600000143,268.87848600000143,268.87848600000143,268.87848600000143,268.87848600000143,268.87848600000143,23,0,,,268.87848600000143,269.07837660005316,4.9,269.07837660005316,1,4.9,1,1,1000,num_4,0.6735986000858247,,31,2,2026-03-12_13h24.58.575,2026A_exp2,2022.2.4,60.02710830876626,
1,0,3.7,0.0,0,0,81,81,42,,,,,269.77913359995,270.4132155999541,270.4132155999541,270.9144228999503,315,45,270.9144228999503,270.9144228999503,270.9144228999503,270.9144228999503,270.9144228999503,270.9144228999503,270.9144228999503,270.9144228999503,270.9144228999503,271.2806486999616,271.2806486999616,271.2806486999616,271.2806486999616,271.2806486999616,271.2806486999616,271.2806486999616,271.2806486999616,271.2806486999616,23,0,,,271.2806486999616,271.4808825000655,3.7,271.4808825000655,0,3.7,1,0,1000,num_1,0.8712211002130061,,31,2,2026-03-12_13h24.58.575,2026A_exp2,2022.2.4,60.02710830876626,
1000,1,3.7,6.1,0,0,82,82,0,,,,,272.38206210010685,273.0156006999314,273.0156006999314,273.51676820009016,45,45,273.51676820009016,273.51676820009016,273.51676820009016,273.51676820009016,273.51676820009016,273.51676820009016,273.51676820009016,273.51676820009016,273.51676820009016,273.8832018999383,273.8832018999383,273.8832018999383,273.8832018999383,273.8832018999383,273.8832018999383,273.8832018999383,273.8832018999383,273.8832018999383,23,0,,,273.8832018999383,274.0835369999986,1000,274.0835369999986,1000,1000,1000,1000,0,num_3,0.7562458999454975,,31,2,2026-03-12_13h24.58.575,2026A_exp2,2022.2.4,60.02710830876626,
1000,1,0.0,0.0,0,0,83,83,18,,,,,274.8677018000744,275.50201230007224,275.50201230007224,276.00286810006946,45,315,276.00286810006946,276.00286810006946,276.00286810006946,276.00286810006946,276.00286810006946,276.00286810006946,276.00286810006946,276.00286810006946,276.00286810006946,276.36911379988305,276.36911379988305,276.36911379988305,276.36911379988305,276.36911379988305,276.36911379988305,276.36911379988305,276.36911379988305,276.36911379988305,23,0,,,276.36911379988305,276.56959279999137,1000,276.56959279999137,1000,1000,1000,1000,1,num_2,1.1264852001331747,,31,2,2026-03-12_13h24.58.575,2026A_exp2,2022.2.4,60.02710830876626,
1000,1,0.0,6.1,0,0,84,84,37,,,,,277.7210389999673,278.3546784000937,278.3546784000937,278.85574729996733,315,45,278.85574729996733,278.85574729996733,278.85574729996733,278.85574729996733,278.85574729996733,278.85574729996733,278.85574729996733,278.85574729996733,278.85574729996733,279.22283559991047,279.22283559991047,279.22283559991047,279.22283559991047,279.22283559991047,279.22283559991047,279.22283559991047,279.22283559991047,279.22283559991047,23,0,,,279.22283559991047,279.42287170002237,1000,279.42287170002237,1000,1000,1000,1000,0,num_3,0.6973974001593888,,31,2,2026-03-12_13h24.58.575,2026A_exp2,2022.2.4,60.02710830876626,
1000,1,4.9,3.7,0,0,85,85,32,,,,,280.14000210002996,280.79028509999625,280.79028509999625,281.2920969000552,45,45,281.2920969000552,281.2920969000552,281.2920969000552,281.2920969000552,281.2920969000552,281.2920969000552,281.2920969000552,281.2920969000552,281.2920969000552,281.64113090001047,281.64113090001047,281.64113090001047,281.64113090001047,281.64113090001047,281.64113090001047,281.64113090001047,281.64113090001047,281.64113090001047,22,0,,,281.64113090001047,281.8414004999213,1000,281.8414004999213,1000,1000,1000,1000,0,num_3,0.6065081001725048,,31,2,2026-03-12_13h24.58.575,2026A_exp2,2022.2.4,60.02710830876626,
1,0,0.0,0.0,0,0,86,86,1,,,,,282.4754373000469,283.1263202999253,283.1263202999253,283.6272350999061,45,45,283.6272350999061,283.6272350999061,283.6272350999061,283.6272350999061,283.6272350999061,283.6272350999061,283.6272350999061,283.6272350999061,283.6272350999061,283.9767787999008,283.9767787999008,283.9767787999008,283.9767787999008,283.9767787999008,283.9767787999008,283.9767787999008,283.9767787999008,283.9767787999008,22,0,,,283.9767787999008,284.17700439994223,0.0,284.17700439994223,1,0.0,0,0,1000,num_4,1.1276905999984592,,31,2,2026-03-12_13h24.58.575,2026A_exp2,2022.2.4,60.02710830876626,
1,0,6.1,0.0,0,0,87,87,70,,,,,285.32818960002623,285.96213550004177,285.96213550004177,286.46320399991237,315,45,286.46320399991237,286.46320399991237,286.46320399991237,286.46320399991237,286.46320399991237,286.46320399991237,286.46320399991237,286.46320399991237,286.46320399991237,286.82958119991235,286.82958119991235,286.82958119991235,286.82958119991235,286.82958119991235,286.82958119991235,286.82958119991235,286.82958119991235,286.82958119991235,23,0,,,286.82958119991235,287.03000509995036,6.1,287.03000509995036,0,6.1,1,0,1000,num_1,0.6823074002750218,,31,2,2026-03-12_13h24.58.575,2026A_exp2,2022.2.4,60.02710830876626,
1000,1,0.0,0.0,0,0,88,88,15,,,,,287.73055549990386,288.36444199993275,288.36444199993275,288.865689399885,315,45,288.865689399885,288.865689399885,288.865689399885,288.865689399885,288.865689399885,288.865689399885,288.865689399885,288.865689399885,288.865689399885,289.2319680999499,289.2319680999499,289.2319680999499,289.2319680999499,289.2319680999499,289.2319680999499,289.2319680999499,289.2319680999499,289.2319680999499,23,0,,,289.2319680999499,289.4322935999371,1000,289.4322935999371,1000,1000,1000,1000,0,num_3,1.1596462002489716,,31,2,2026-03-12_13h24.58.575,2026A_exp2,2022.2.4,60.02710830876626,
1,0,4.9,0.0,1,0,89,89,38,,,,,290.616884799907,291.26746860006824,291.26746860006824,291.75251780007966,315,315,291.75251780007966,291.75251780007966,291.75251780007966,291.75251780007966,291.75251780007966,291.75251780007966,291.75251780007966,291.75251780007966,291.75251780007966,292.11832499993034,292.11832499993034,292.11832499993034,292.11832499993034,292.11832499993034,292.11832499993034,292.11832499993034,292.11832499993034,292.11832499993034,23,0,,,292.11832499993034,292.318498800043,0.0,292.318498800043,0,0.0,0,1,1000,num_1,1.137668500188738,,31,2,2026-03-12_13h24.58.575,2026A_exp2,2022.2.4,60.02710830876626,
,,,,,,,,,,,,,,,,,,,,,,,,,,,,,,,,,,,,,,,,,,,,,,,,,,,,293.48876539990306,,,,,,,
