validity,detectorcomp,contrastCW,contrastCCW,precueCWorCCW,block_80trials.thisRepN,block_80trials.thisTrialN,block_80trials.thisN,block_80trials.thisIndex,etRecord.started,etRecord.stopped,text.started,text.stopped,text_4.started,text_4.stopped,text_6.started,text_6.stopped,oriCW,oriCCW,roi_2.started,grating_UR.started,grating_UL.started,grating_LR.started,grating_LL.started,noise_UR.started,noise_UL.started,noise_LR.started,noise_LL.started,roi_2.stopped,grating_UR.stopped,grating_UL.stopped,grating_LR.stopped,grating_LL.stopped,noise_UR.stopped,noise_UL.stopped,noise_LR.stopped,noise_LL.stopped,outframe,roi_2.numLooks,roi_2.timesOn,roi_2.timesOff,text_2.started,text_2.stopped,probedcontrast,key_resp.started,respdetect,relevantContrast,correctDetect,TorFdetect,respCWorCCW,key_resp.keys,key_resp.rt,feedback_display_.started,participantNo,blockNo,date,expName,psychopyVersion,frameRate,
0,0,6.1,6.1,1,0,0,0,48,5.3000025218352675e-05,5.3000025218352675e-05,44.04191169998376,46.0496888999769,46.0496888999769,46.69442990000243,46.69442990000243,47.207572199986316,315,45,47.207572199986316,47.207572199986316,47.207572199986316,47.207572199986316,47.207572199986316,47.207572199986316,47.207572199986316,47.207572199986316,47.207572199986316,47.54555439998512,47.54555439998512,47.54555439998512,47.54555439998512,47.54555439998512,47.54555439998512,47.54555439998512,47.54555439998512,47.54555439998512,23,0,,,47.54555439998512,47.745781599980546,6.1,47.745781599980546,1,6.1,1,1,1000,num_4,1.2539968000201043,,18,7,2026-03-02_10h50.02.988,2026A_exp2,2022.2.4,59.94855215510075,
1,0,3.7,3.7,0,0,1,1,8,,,,,49.03039709999575,49.66399800000363,49.66399800000363,50.16530399999465,315,45,50.16530399999465,50.16530399999465,50.16530399999465,50.16530399999465,50.16530399999465,50.16530399999465,50.16530399999465,50.16530399999465,50.16530399999465,50.53136959997937,50.53136959997937,50.53136959997937,50.53136959997937,50.53136959997937,50.53136959997937,50.53136959997937,50.53136959997937,50.53136959997937,23,0,,,50.53136959997937,50.73173859997769,3.7,50.73173859997769,0,3.7,1,0,1000,num_1,0.4041131999983918,,18,7,2026-03-02_10h50.02.988,2026A_exp2,2022.2.4,59.94855215510075,
1,0,0.0,0.0,0,0,2,2,39,,,,,51.165893600002164,51.816922400001204,51.816922400001204,52.31785920000402,315,315,52.31785920000402,52.31785920000402,52.31785920000402,52.31785920000402,52.31785920000402,52.31785920000402,52.31785920000402,52.31785920000402,52.31785920000402,52.68395559999044,52.68395559999044,52.68395559999044,52.68395559999044,52.68395559999044,52.68395559999044,52.68395559999044,52.68395559999044,52.68395559999044,23,0,,,52.68395559999044,52.88450659997761,0.0,52.88450659997761,0,0.0,0,1,1000,num_1,0.3711987999849953,,18,7,2026-03-02_10h50.02.988,2026A_exp2,2022.2.4,59.94855215510075,
1,0,0.0,3.7,0,0,3,3,76,,,,,53.28458909998881,53.935020100005204,53.935020100005204,54.43592639997951,45,315,54.43592639997951,54.43592639997951,54.43592639997951,54.43592639997951,54.43592639997951,54.43592639997951,54.43592639997951,54.43592639997951,54.43592639997951,54.80228370000259,54.80228370000259,54.80228370000259,54.80228370000259,54.80228370000259,54.80228370000259,54.80228370000259,54.80228370000259,54.80228370000259,23,0,,,54.80228370000259,55.00261949998094,0.0,55.00261949998094,0,0.0,0,1,1000,num_1,0.7490981000009924,,18,7,2026-03-02_10h50.02.988,2026A_exp2,2022.2.4,59.94855215510075,
1000,1,0.0,0.0,1,0,4,4,44,,,,,55.7706474000006,56.420722099981504,56.420722099981504,56.921887399978004,315,315,56.921887399978004,56.921887399978004,56.921887399978004,56.921887399978004,56.921887399978004,56.921887399978004,56.921887399978004,56.921887399978004,56.921887399978004,57.28811130000395,57.28811130000395,57.28811130000395,57.28811130000395,57.28811130000395,57.28811130000395,57.28811130000395,57.28811130000395,57.28811130000395,23,0,,,57.28811130000395,57.48853069997858,1000,57.48853069997858,1000,1000,1000,1000,0,num_3,0.7276099000009708,,18,7,2026-03-02_10h50.02.988,2026A_exp2,2022.2.4,59.94855215510075,
0,0,3.7,3.7,1,0,5,5,62,,,,,58.23922190000303,58.87309829998412,58.87309829998412,59.3744571999996,315,315,59.3744571999996,59.3744571999996,59.3744571999996,59.3744571999996,59.3744571999996,59.3744571999996,59.3744571999996,59.3744571999996,59.3744571999996,59.74091480000061,59.74091480000061,59.74091480000061,59.74091480000061,59.74091480000061,59.74091480000061,59.74091480000061,59.74091480000061,59.74091480000061,23,0,,,59.74091480000061,59.94093369998154,3.7,59.94093369998154,0,3.7,1,0,1000,num_1,1.0027130999951623,,18,7,2026-03-02_10h50.02.988,2026A_exp2,2022.2.4,59.94855215510075,
1,0,3.7,3.7,0,0,6,6,60,,,,,60.975253999989945,61.6093736999901,61.6093736999901,62.110333099990385,45,315,62.110333099990385,62.110333099990385,62.110333099990385,62.110333099990385,62.110333099990385,62.110333099990385,62.110333099990385,62.110333099990385,62.110333099990385,62.47674329997972,62.47674329997972,62.47674329997972,62.47674329997972,62.47674329997972,62.47674329997972,62.47674329997972,62.47674329997972,62.47674329997972,23,0,,,62.47674329997972,62.67684259999078,3.7,62.67684259999078,1,3.7,1,1,1000,num_4,0.5946021999989171,,18,7,2026-03-02_10h50.02.988,2026A_exp2,2022.2.4,59.94855215510075,
1000,1,4.9,0.0,1,0,7,7,56,,,,,63.294380599982105,63.94515479999245,63.94515479999245,64.42960939998738,45,315,64.42960939998738,64.42960939998738,64.42960939998738,64.42960939998738,64.42960939998738,64.42960939998738,64.42960939998738,64.42960939998738,64.42960939998738,64.79566099998192,64.79566099998192,64.79566099998192,64.79566099998192,64.79566099998192,64.79566099998192,64.79566099998192,64.79566099998192,64.79566099998192,23,0,,,64.79566099998192,64.99611680000089,1000,64.99611680000089,1000,1000,1000,1000,0,num_3,0.6918526000226848,,18,7,2026-03-02_10h50.02.988,2026A_exp2,2022.2.4,59.94855215510075,
1000,1,4.9,0.0,1,0,8,8,84,,,,,65.7132883000013,66.3642617999867,66.3642617999867,66.84858599997824,45,315,66.84858599997824,66.84858599997824,66.84858599997824,66.84858599997824,66.84858599997824,66.84858599997824,66.84858599997824,66.84858599997824,66.84858599997824,67.21575209998991,67.21575209998991,67.21575209998991,67.21575209998991,67.21575209998991,67.21575209998991,67.21575209998991,67.21575209998991,67.21575209998991,23,0,,,67.21575209998991,67.4151789000025,1000,67.4151789000025,1000,1000,1000,1000,0,num_3,0.6324394000112079,,18,7,2026-03-02_10h50.02.988,2026A_exp2,2022.2.4,59.94855215510075,
1,0,0.0,0.0,1,0,9,9,66,,,,,68.0657852999866,68.69975400000112,68.69975400000112,69.20138879999286,315,45,69.20138879999286,69.20138879999286,69.20138879999286,69.20138879999286,69.20138879999286,69.20138879999286,69.20138879999286,69.20138879999286,69.20138879999286,69.56759459999739,69.56759459999739,69.56759459999739,69.56759459999739,69.56759459999739,69.56759459999739,69.56759459999739,69.56759459999739,69.56759459999739,23,0,,,69.56759459999739,69.76743079998414,0.0,69.76743079998414,0,0.0,0,1,1000,num_1,0.6164504999760538,,18,7,2026-03-02_10h50.02.988,2026A_exp2,2022.2.4,59.94855215510075,
1,0,4.9,4.9,1,0,10,10,18,,,,,70.40159279998625,71.03527579997899,71.03527579997899,71.53639619998285,45,45,71.53639619998285,71.53639619998285,71.53639619998285,71.53639619998285,71.53639619998285,71.53639619998285,71.53639619998285,71.53639619998285,71.53639619998285,71.9025760999939,71.9025760999939,71.9025760999939,71.9025760999939,71.9025760999939,71.9025760999939,71.9025760999939,71.9025760999939,71.9025760999939,23,0,,,71.9025760999939,72.10304739998537,4.9,72.10304739998537,1,4.9,1,1,1000,num_4,0.37740969998412766,,18,7,2026-03-02_10h50.02.988,2026A_exp2,2022.2.4,59.94855215510075,
1,0,0.0,3.7,0,0,11,11,64,,,,,72.50363789999392,73.1542520999792,73.1542520999792,73.63841059998958,315,315,73.63841059998958,73.63841059998958,73.63841059998958,73.63841059998958,73.63841059998958,73.63841059998958,73.63841059998958,73.63841059998958,73.63841059998958,74.00532299999031,74.00532299999031,74.00532299999031,74.00532299999031,74.00532299999031,74.00532299999031,74.00532299999031,74.00532299999031,74.00532299999031,23,0,,,74.00532299999031,74.2059006000054,0.0,74.2059006000054,0,0.0,0,1,1000,num_1,0.7699622999934945,,18,7,2026-03-02_10h50.02.988,2026A_exp2,2022.2.4,59.94855215510075,
1000,1,0.0,0.0,0,0,12,12,2,,,,,75.00602509998134,75.65648649999639,75.65648649999639,76.1578215000045,45,45,76.1578215000045,76.1578215000045,76.1578215000045,76.1578215000045,76.1578215000045,76.1578215000045,76.1578215000045,76.1578215000045,76.1578215000045,76.50736739998683,76.50736739998683,76.50736739998683,76.50736739998683,76.50736739998683,76.50736739998683,76.50736739998683,76.50736739998683,76.50736739998683,22,0,,,76.50736739998683,76.70787789998576,1000,76.70787789998576,1000,1000,1000,1000,1,num_2,0.6280010000045877,,18,7,2026-03-02_10h50.02.988,2026A_exp2,2022.2.4,59.94855215510075,
0,0,6.1,4.9,1,0,13,13,42,,,,,77.35848619998433,77.9929535999836,77.9929535999836,78.49346189998323,45,45,78.49346189998323,78.49346189998323,78.49346189998323,78.49346189998323,78.49346189998323,78.49346189998323,78.49346189998323,78.49346189998323,78.49346189998323,78.86003749998054,78.86003749998054,78.86003749998054,78.86003749998054,78.86003749998054,78.86003749998054,78.86003749998054,78.86003749998054,78.86003749998054,23,0,,,78.86003749998054,79.06025290000252,6.1,79.06025290000252,1,6.1,1,1,1000,num_4,1.4595526999910362,,18,7,2026-03-02_10h50.02.988,2026A_exp2,2022.2.4,59.94855215510075,
1000,1,3.7,0.0,0,0,14,14,55,,,,,80.54532750000362,81.1788455999922,81.1788455999922,81.68039219998172,315,315,81.68039219998172,81.68039219998172,81.68039219998172,81.68039219998172,81.68039219998172,81.68039219998172,81.68039219998172,81.68039219998172,81.68039219998172,82.04802719998406,82.04802719998406,82.04802719998406,82.04802719998406,82.04802719998406,82.04802719998406,82.04802719998406,82.04802719998406,82.04802719998406,23,0,,,82.04802719998406,,1000,82.26392379999743,1000,1000,1000,1000,1,num_2,0.7837071999965701,,18,7,2026-03-02_10h50.02.988,2026A_exp2,2022.2.4,59.94855215510075,
1000,1,0.0,3.7,1,0,15,15,1,,,,,83.06514759999118,83.71467399998801,83.71467399998801,84.21659719999298,315,45,84.21659719999298,84.21659719999298,84.21659719999298,84.21659719999298,84.21659719999298,84.21659719999298,84.21659719999298,84.21659719999298,84.21659719999298,84.56566719998955,84.56566719998955,84.56566719998955,84.56566719998955,84.56566719998955,84.56566719998955,84.56566719998955,84.56566719998955,84.56566719998955,22,0,,,84.56566719998955,84.76581559999613,1000,84.76581559999613,1000,1000,1000,1000,1,num_2,0.49030970002058893,,18,7,2026-03-02_10h50.02.988,2026A_exp2,2022.2.4,59.94855215510075,
1,0,0.0,0.0,0,0,16,16,11,,,,,85.28303530000267,85.91713509999681,85.91713509999681,86.41816959998687,45,315,86.41816959998687,86.41816959998687,86.41816959998687,86.41816959998687,86.41816959998687,86.41816959998687,86.41816959998687,86.41816959998687,86.41816959998687,86.78442919999361,86.78442919999361,86.78442919999361,86.78442919999361,86.78442919999361,86.78442919999361,86.78442919999361,86.78442919999361,86.78442919999361,23,0,,,86.78442919999361,86.9848406999954,0.0,86.9848406999954,0,0.0,0,1,1000,num_1,0.5907474999839906,,18,7,2026-03-02_10h50.02.988,2026A_exp2,2022.2.4,59.94855215510075,
0,0,0.0,0.0,1,0,17,17,14,,,,,87.60166439999011,88.25244680000469,88.25244680000469,88.73700169997755,315,45,88.73700169997755,88.73700169997755,88.73700169997755,88.73700169997755,88.73700169997755,88.73700169997755,88.73700169997755,88.73700169997755,88.73700169997755,89.10355289999279,89.10355289999279,89.10355289999279,89.10355289999279,89.10355289999279,89.10355289999279,89.10355289999279,89.10355289999279,89.10355289999279,23,0,,,89.10355289999279,89.30378289998043,0.0,89.30378289998043,1,0.0,0,0,1000,num_4,0.6881046999769751,,18,7,2026-03-02_10h50.02.988,2026A_exp2,2022.2.4,59.94855215510075,
1000,1,4.9,3.7,0,0,18,18,40,,,,,90.02114759999677,90.65520700000343,90.65520700000343,91.15612469997723,315,45,91.15612469997723,91.15612469997723,91.15612469997723,91.15612469997723,91.15612469997723,91.15612469997723,91.15612469997723,91.15612469997723,91.15612469997723,91.52290339997853,91.52290339997853,91.52290339997853,91.52290339997853,91.52290339997853,91.52290339997853,91.52290339997853,91.52290339997853,91.52290339997853,23,0,,,91.52290339997853,91.72287889997824,1000,91.72287889997824,1000,1000,1000,1000,1,num_2,1.2606628000212368,,18,7,2026-03-02_10h50.02.988,2026A_exp2,2022.2.4,59.94855215510075,
1,0,6.1,3.7,1,0,19,19,16,,,,,93.00793379999232,93.65819849999389,93.65819849999389,94.15930159998243,45,45,94.15930159998243,94.15930159998243,94.15930159998243,94.15930159998243,94.15930159998243,94.15930159998243,94.15930159998243,94.15930159998243,94.15930159998243,94.50898809998762,94.50898809998762,94.50898809998762,94.50898809998762,94.50898809998762,94.50898809998762,94.50898809998762,94.50898809998762,94.50898809998762,22,0,,,94.50898809998762,94.70966130000306,3.7,94.70966130000306,1,3.7,1,1,1000,num_4,0.42658850000589155,,18,7,2026-03-02_10h50.02.988,2026A_exp2,2022.2.4,59.94855215510075,
1000,1,6.1,6.1,0,0,20,20,87,,,,,95.1597322000016,95.81015659999684,95.81015659999684,96.31135819997871,315,315,96.31135819997871,96.31135819997871,96.31135819997871,96.31135819997871,96.31135819997871,96.31135819997871,96.31135819997871,96.31135819997871,96.31135819997871,96.66123919998063,96.66123919998063,96.66123919998063,96.66123919998063,96.66123919998063,96.66123919998063,96.66123919998063,96.66123919998063,96.66123919998063,22,0,,,96.66123919998063,96.86143269998138,1000,96.86143269998138,1000,1000,1000,1000,0,num_3,0.59474629999022,,18,7,2026-03-02_10h50.02.988,2026A_exp2,2022.2.4,59.94855215510075,
1000,1,0.0,0.0,0,0,21,21,79,,,,,97.47862379997969,98.12920239998493,98.12920239998493,98.61355789998197,315,315,98.61355789998197,98.61355789998197,98.61355789998197,98.61355789998197,98.61355789998197,98.61355789998197,98.61355789998197,98.61355789998197,98.61355789998197,98.98251839997829,98.98251839997829,98.98251839997829,98.98251839997829,98.98251839997829,98.98251839997829,98.98251839997829,98.98251839997829,98.98251839997829,23,0,,,98.98251839997829,99.19760489999317,1000,99.19760489999317,1000,1000,1000,1000,1,num_2,0.6588737000129186,,18,7,2026-03-02_10h50.02.988,2026A_exp2,2022.2.4,59.94855215510075,
1000,1,0.0,3.7,1,0,22,22,67,,,,,99.88109179999446,100.51504479997675,100.51504479997675,101.01751720000175,45,315,101.01751720000175,101.01751720000175,101.01751720000175,101.01751720000175,101.01751720000175,101.01751720000175,101.01751720000175,101.01751720000175,101.01751720000175,101.38237969999318,101.38237969999318,101.38237969999318,101.38237969999318,101.38237969999318,101.38237969999318,101.38237969999318,101.38237969999318,101.38237969999318,23,0,,,101.38237969999318,101.58263799999258,1000,101.58263799999258,1000,1000,1000,1000,1,num_2,0.9057203000120353,,18,7,2026-03-02_10h50.02.988,2026A_exp2,2022.2.4,59.94855215510075,
1,0,6.1,6.1,0,0,23,23,89,,,,,102.51704189999145,103.16777119998005,103.16777119998005,103.6522549999936,45,315,103.6522549999936,103.6522549999936,103.6522549999936,103.6522549999936,103.6522549999936,103.6522549999936,103.6522549999936,103.6522549999936,103.6522549999936,104.0186305999814,104.0186305999814,104.0186305999814,104.0186305999814,104.0186305999814,104.0186305999814,104.0186305999814,104.0186305999814,104.0186305999814,23,0,,,104.0186305999814,104.21894309998606,6.1,104.21894309998606,1,6.1,1,1,1000,num_4,0.7725611999921966,,18,7,2026-03-02_10h50.02.988,2026A_exp2,2022.2.4,59.94855215510075,
1000,1,0.0,0.0,0,0,24,24,24,,,,,105.02020659999107,105.67006179998862,105.67006179998862,106.17119409999577,45,45,106.17119409999577,106.17119409999577,106.17119409999577,106.17119409999577,106.17119409999577,106.17119409999577,106.17119409999577,106.17119409999577,106.17119409999577,106.53856769998674,106.53856769998674,106.53856769998674,106.53856769998674,106.53856769998674,106.53856769998674,106.53856769998674,106.53856769998674,106.53856769998674,23,0,,,106.53856769998674,106.73783979998552,1000,106.73783979998552,1000,1000,1000,1000,1,num_2,0.6383806000230834,,18,7,2026-03-02_10h50.02.988,2026A_exp2,2022.2.4,59.94855215510075,
1000,1,0.0,0.0,1,0,25,25,35,,,,,107.4050357999804,108.05602619997808,108.05602619997808,108.54034429998137,315,315,108.54034429998137,108.54034429998137,108.54034429998137,108.54034429998137,108.54034429998137,108.54034429998137,108.54034429998137,108.54034429998137,108.54034429998137,108.90697240000009,108.90697240000009,108.90697240000009,108.90697240000009,108.90697240000009,108.90697240000009,108.90697240000009,108.90697240000009,108.90697240000009,23,0,,,108.90697240000009,109.10688089998439,1000,109.10688089998439,1000,1000,1000,1000,0,num_3,0.5974111000250559,,18,7,2026-03-02_10h50.02.988,2026A_exp2,2022.2.4,59.94855215510075,
1000,1,0.0,4.9,0,0,26,26,23,,,,,109.7242178999877,110.37477639998542,110.37477639998542,110.85916279998492,45,315,110.85916279998492,110.85916279998492,110.85916279998492,110.85916279998492,110.85916279998492,110.85916279998492,110.85916279998492,110.85916279998492,110.85916279998492,111.22701370000141,111.22701370000141,111.22701370000141,111.22701370000141,111.22701370000141,111.22701370000141,111.22701370000141,111.22701370000141,111.22701370000141,23,0,,,111.22701370000141,111.42711180000333,1000,111.42711180000333,1000,1000,1000,1000,1,num_2,0.5248432999942452,,18,7,2026-03-02_10h50.02.988,2026A_exp2,2022.2.4,59.94855215510075,
1000,1,0.0,0.0,1,0,27,27,63,,,,,111.97664280000026,112.62696429999778,112.62696429999778,113.11197669999092,45,315,113.11197669999092,113.11197669999092,113.11197669999092,113.11197669999092,113.11197669999092,113.11197669999092,113.11197669999092,113.11197669999092,113.11197669999092,113.49458539998159,113.49458539998159,113.49458539998159,113.49458539998159,113.49458539998159,113.49458539998159,113.49458539998159,113.49458539998159,113.49458539998159,24,0,,,113.49458539998159,113.6950692999817,1000,113.6950692999817,1000,1000,1000,1000,0,num_3,0.8966663999890443,,18,7,2026-03-02_10h50.02.988,2026A_exp2,2022.2.4,59.94855215510075,
1,0,0.0,4.9,1,0,28,28,73,,,,,114.61250540000037,115.2628904999874,115.2628904999874,115.76486419999856,45,45,115.76486419999856,115.76486419999856,115.76486419999856,115.76486419999856,115.76486419999856,115.76486419999856,115.76486419999856,115.76486419999856,115.76486419999856,116.13041250000242,116.13041250000242,116.13041250000242,116.13041250000242,116.13041250000242,116.13041250000242,116.13041250000242,116.13041250000242,116.13041250000242,23,0,,,116.13041250000242,116.33067779999692,4.9,116.33067779999692,1,4.9,1,1,1000,num_4,0.47741120000137016,,18,7,2026-03-02_10h50.02.988,2026A_exp2,2022.2.4,59.94855215510075,
1000,1,0.0,0.0,1,0,29,29,88,,,,,116.83115709997946,117.48220639998908,117.48220639998908,117.96688399999402,45,315,117.96688399999402,117.96688399999402,117.96688399999402,117.96688399999402,117.96688399999402,117.96688399999402,117.96688399999402,117.96688399999402,117.96688399999402,118.33270169998286,118.33270169998286,118.33270169998286,118.33270169998286,118.33270169998286,118.33270169998286,118.33270169998286,118.33270169998286,118.33270169998286,23,0,,,118.33270169998286,118.53394439999829,1000,118.53394439999829,1000,1000,1000,1000,0,num_3,0.6261387999984436,,18,7,2026-03-02_10h50.02.988,2026A_exp2,2022.2.4,59.94855215510075,
1,0,0.0,0.0,0,0,30,30,6,,,,,119.18384129999322,119.83436169999186,119.83436169999186,120.33507899998222,315,315,120.33507899998222,120.33507899998222,120.33507899998222,120.33507899998222,120.33507899998222,120.33507899998222,120.33507899998222,120.33507899998222,120.33507899998222,120.7018416999781,120.7018416999781,120.7018416999781,120.7018416999781,120.7018416999781,120.7018416999781,120.7018416999781,120.7018416999781,120.7018416999781,23,0,,,120.7018416999781,120.90192760000355,0.0,120.90192760000355,0,0.0,0,1,1000,num_1,0.6177978999912739,,18,7,2026-03-02_10h50.02.988,2026A_exp2,2022.2.4,59.94855215510075,
1000,1,3.7,0.0,1,0,31,31,52,,,,,121.53596769997966,122.18634559999919,122.18634559999919,122.6875475999841,45,45,122.6875475999841,122.6875475999841,122.6875475999841,122.6875475999841,122.6875475999841,122.6875475999841,122.6875475999841,122.6875475999841,122.6875475999841,123.03753400000278,123.03753400000278,123.03753400000278,123.03753400000278,123.03753400000278,123.03753400000278,123.03753400000278,123.03753400000278,123.03753400000278,22,0,,,123.03753400000278,123.23748029998387,1000,123.2541201999993,1000,1000,1000,1000,0,num_3,0.6897952999861445,,18,7,2026-03-02_10h50.02.988,2026A_exp2,2022.2.4,59.94855215510075,
1,0,0.0,6.1,1,0,32,32,5,,,,,123.97165399999358,124.62231429998064,124.62231429998064,125.10669240000425,45,315,125.10669240000425,125.10669240000425,125.10669240000425,125.10669240000425,125.10669240000425,125.10669240000425,125.10669240000425,125.10669240000425,125.10669240000425,125.47315129998606,125.47315129998606,125.47315129998606,125.47315129998606,125.47315129998606,125.47315129998606,125.47315129998606,125.47315129998606,125.47315129998606,23,0,,,125.47315129998606,125.67336769998656,6.1,125.67336769998656,1,6.1,1,1,1000,num_4,0.4066623999970034,,18,7,2026-03-02_10h50.02.988,2026A_exp2,2022.2.4,59.94855215510075,
0,0,0.0,6.1,1,0,33,33,46,,,,,126.10726669998257,126.75790619998588,126.75790619998588,127.24217749998206,315,45,127.24217749998206,127.24217749998206,127.24217749998206,127.24217749998206,127.24217749998206,127.24217749998206,127.24217749998206,127.24217749998206,127.24217749998206,127.60854610000388,127.60854610000388,127.60854610000388,127.60854610000388,127.60854610000388,127.60854610000388,127.60854610000388,127.60854610000388,127.60854610000388,23,0,,,127.60854610000388,127.80876859999262,0.0,127.80876859999262,0,0.0,0,1,1000,num_1,0.535492199996952,,18,7,2026-03-02_10h50.02.988,2026A_exp2,2022.2.4,59.94855215510075,
0,0,0.0,4.9,1,0,34,34,33,,,,,128.3760626000003,129.0267574999889,129.0267574999889,129.51107859998592,315,45,129.51107859998592,129.51107859998592,129.51107859998592,129.51107859998592,129.51107859998592,129.51107859998592,129.51107859998592,129.51107859998592,129.51107859998592,129.87748339999234,129.87748339999234,129.87748339999234,129.87748339999234,129.87748339999234,129.87748339999234,129.87748339999234,129.87748339999234,129.87748339999234,23,0,,,129.87748339999234,130.07759629999055,0.0,130.07759629999055,0,0.0,0,1,1000,num_1,0.46686650000629015,,18,7,2026-03-02_10h50.02.988,2026A_exp2,2022.2.4,59.94855215510075,
1,0,4.9,4.9,0,0,35,35,28,,,,,130.56219789999886,131.1955975999881,131.1955975999881,131.6966407999862,45,45,131.6966407999862,131.6966407999862,131.6966407999862,131.6966407999862,131.6966407999862,131.6966407999862,131.6966407999862,131.6966407999862,131.6966407999862,132.06307219999144,132.06307219999144,132.06307219999144,132.06307219999144,132.06307219999144,132.06307219999144,132.06307219999144,132.06307219999144,132.06307219999144,23,0,,,132.06307219999144,132.2632825000037,4.9,132.2632825000037,1,4.9,1,1,1000,num_4,1.0651724000053946,,18,7,2026-03-02_10h50.02.988,2026A_exp2,2022.2.4,59.94855215510075,
1,0,3.7,0.0,0,0,36,36,3,,,,,133.34768069998245,133.98238010000205,133.98238010000205,134.48279039998306,45,315,134.48279039998306,134.48279039998306,134.48279039998306,134.48279039998306,134.48279039998306,134.48279039998306,134.48279039998306,134.48279039998306,134.48279039998306,134.8494217999978,134.8494217999978,134.8494217999978,134.8494217999978,134.8494217999978,134.8494217999978,134.8494217999978,134.8494217999978,134.8494217999978,23,0,,,134.8494217999978,135.04999579998548,3.7,135.04999579998548,1,3.7,1,1,1000,num_4,0.4303784999938216,,18,7,2026-03-02_10h50.02.988,2026A_exp2,2022.2.4,59.94855215510075,
1,0,0.0,0.0,1,0,37,37,59,,,,,135.49987619998865,136.15085959999124,136.15085959999124,136.63474349997705,45,45,136.63474349997705,136.63474349997705,136.63474349997705,136.63474349997705,136.63474349997705,136.63474349997705,136.63474349997705,136.63474349997705,136.63474349997705,137.00122469998314,137.00122469998314,137.00122469998314,137.00122469998314,137.00122469998314,137.00122469998314,137.00122469998314,137.00122469998314,137.00122469998314,23,0,,,137.00122469998314,137.20157069998095,0.0,137.20157069998095,0,0.0,0,1,1000,num_1,3.5503759999992326,,18,7,2026-03-02_10h50.02.988,2026A_exp2,2022.2.4,59.94855215510075,
1000,1,6.1,6.1,1,0,38,38,53,,,,,140.77228549998836,141.4060363000026,141.4060363000026,141.9068047000037,45,315,141.9068047000037,141.9068047000037,141.9068047000037,141.9068047000037,141.9068047000037,141.9068047000037,141.9068047000037,141.9068047000037,141.9068047000037,142.2736653999891,142.2736653999891,142.2736653999891,142.2736653999891,142.2736653999891,142.2736653999891,142.2736653999891,142.2736653999891,142.2736653999891,23,0,,,142.2736653999891,142.47475359999225,1000,142.47475359999225,1000,1000,1000,1000,1,num_2,0.8137343999696895,,18,7,2026-03-02_10h50.02.988,2026A_exp2,2022.2.4,59.94855215510075,
1,0,0.0,0.0,0,0,39,39,85,,,,,143.30820349999703,143.95861790000345,143.95861790000345,144.4596826999914,315,45,144.4596826999914,144.4596826999914,144.4596826999914,144.4596826999914,144.4596826999914,144.4596826999914,144.4596826999914,144.4596826999914,144.4596826999914,144.82562249997864,144.82562249997864,144.82562249997864,144.82562249997864,144.82562249997864,144.82562249997864,144.82562249997864,144.82562249997864,144.82562249997864,23,0,,,144.82562249997864,145.02617939998163,0.0,145.02617939998163,0,0.0,0,1,1000,num_1,0.6935027999861632,,18,7,2026-03-02_10h50.02.988,2026A_exp2,2022.2.4,59.94855215510075,
1,0,6.1,6.1,1,0,40,40,49,,,,,145.7439982999931,146.37720119999722,146.37720119999722,146.87823939998634,315,315,146.87823939998634,146.87823939998634,146.87823939998634,146.87823939998634,146.87823939998634,146.87823939998634,146.87823939998634,146.87823939998634,146.87823939998634,147.24448530000518,147.24448530000518,147.24448530000518,147.24448530000518,147.24448530000518,147.24448530000518,147.24448530000518,147.24448530000518,147.24448530000518,23,0,,,147.24448530000518,147.4449233999767,6.1,147.4449233999767,1,6.1,1,1,1000,num_4,0.4033849000115879,,18,7,2026-03-02_10h50.02.988,2026A_exp2,2022.2.4,59.94855215510075,
1,0,3.7,0.0,0,0,41,41,9,,,,,147.8790020000015,148.52934389997972,148.52934389997972,149.01443219999783,45,315,149.01443219999783,149.01443219999783,149.01443219999783,149.01443219999783,149.01443219999783,149.01443219999783,149.01443219999783,149.01443219999783,149.01443219999783,149.38024080000469,149.38024080000469,149.38024080000469,149.38024080000469,149.38024080000469,149.38024080000469,149.38024080000469,149.38024080000469,149.38024080000469,23,0,,,149.38024080000469,149.58115349998116,3.7,149.58115349998116,1,3.7,1,1,1000,num_4,0.5065319999994244,,18,7,2026-03-02_10h50.02.988,2026A_exp2,2022.2.4,59.94855215510075,
1000,1,3.7,0.0,1,0,42,42,19,,,,,150.11517789997743,150.76564090000466,150.76564090000466,151.2494338999968,45,45,151.2494338999968,151.2494338999968,151.2494338999968,151.2494338999968,151.2494338999968,151.2494338999968,151.2494338999968,151.2494338999968,151.2494338999968,151.63265789998695,151.63265789998695,151.63265789998695,151.63265789998695,151.63265789998695,151.63265789998695,151.63265789998695,151.63265789998695,151.63265789998695,24,0,,,151.63265789998695,151.83307549997699,1000,151.83307549997699,1000,1000,1000,1000,0,num_3,0.6952341999858618,,18,7,2026-03-02_10h50.02.988,2026A_exp2,2022.2.4,59.94855215510075,
0,0,0.0,4.9,1,0,43,43,0,,,,,152.55025830000523,153.20058579999022,153.20058579999022,153.70220219998737,315,315,153.70220219998737,153.70220219998737,153.70220219998737,153.70220219998737,153.70220219998737,153.70220219998737,153.70220219998737,153.70220219998737,153.70220219998737,154.05178109998815,154.05178109998815,154.05178109998815,154.05178109998815,154.05178109998815,154.05178109998815,154.05178109998815,154.05178109998815,154.05178109998815,22,0,,,154.05178109998815,154.2521635000012,0.0,154.26878220000071,0,0.0,0,1,1000,num_1,0.5790274000028148,,18,7,2026-03-02_10h50.02.988,2026A_exp2,2022.2.4,59.94855215510075,
1,0,6.1,0.0,0,0,44,44,51,,,,,154.86963339999784,155.50315249999403,155.50315249999403,156.00474989999202,45,315,156.00474989999202,156.00474989999202,156.00474989999202,156.00474989999202,156.00474989999202,156.00474989999202,156.00474989999202,156.00474989999202,156.00474989999202,156.37136759998975,156.37136759998975,156.37136759998975,156.37136759998975,156.37136759998975,156.37136759998975,156.37136759998975,156.37136759998975,156.37136759998975,23,0,,,156.37136759998975,156.57237650000025,6.1,156.57237650000025,1,6.1,1,1,1000,num_4,0.3072089000197593,,18,7,2026-03-02_10h50.02.988,2026A_exp2,2022.2.4,59.94855215510075,
1000,1,0.0,0.0,1,0,45,45,34,,,,,156.90487139998004,157.55528639999102,157.55528639999102,158.03950449998956,315,315,158.03950449998956,158.03950449998956,158.03950449998956,158.03950449998956,158.03950449998956,158.03950449998956,158.03950449998956,158.03950449998956,158.03950449998956,158.40584500000114,158.40584500000114,158.40584500000114,158.40584500000114,158.40584500000114,158.40584500000114,158.40584500000114,158.40584500000114,158.40584500000114,23,0,,,158.40584500000114,158.60620369997923,1000,158.60620369997923,1000,1000,1000,1000,0,num_3,0.6257964000105858,,18,7,2026-03-02_10h50.02.988,2026A_exp2,2022.2.4,59.94855215510075,
1000,1,6.1,4.9,1,0,46,46,86,,,,,159.25738309998997,159.89080589998048,159.89080589998048,160.39222199999494,45,315,160.39222199999494,160.39222199999494,160.39222199999494,160.39222199999494,160.39222199999494,160.39222199999494,160.39222199999494,160.39222199999494,160.39222199999494,160.75844029997825,160.75844029997825,160.75844029997825,160.75844029997825,160.75844029997825,160.75844029997825,160.75844029997825,160.75844029997825,160.75844029997825,23,0,,,160.75844029997825,160.95851820000098,1000,160.95851820000098,1000,1000,1000,1000,1,num_2,0.5138098999741487,,18,7,2026-03-02_10h50.02.988,2026A_exp2,2022.2.4,59.94855215510075,
1000,1,0.0,3.7,0,0,47,47,50,,,,,161.492390600004,162.12643380000372,162.12643380000372,162.62764530000277,45,45,162.62764530000277,162.62764530000277,162.62764530000277,162.62764530000277,162.62764530000277,162.62764530000277,162.62764530000277,162.62764530000277,162.62764530000277,162.99406129997806,162.99406129997806,162.99406129997806,162.99406129997806,162.99406129997806,162.99406129997806,162.99406129997806,162.99406129997806,162.99406129997806,23,0,,,162.99406129997806,163.1944186000037,1000,163.1944186000037,1000,1000,1000,1000,1,num_2,0.541103600000497,,18,7,2026-03-02_10h50.02.988,2026A_exp2,2022.2.4,59.94855215510075,
1000,1,3.7,0.0,1,0,48,48,38,,,,,163.76170829997864,164.41212559997803,164.41212559997803,164.89640369999688,45,315,164.89640369999688,164.89640369999688,164.89640369999688,164.89640369999688,164.89640369999688,164.89640369999688,164.89640369999688,164.89640369999688,164.89640369999688,165.26309209997999,165.26309209997999,165.26309209997999,165.26309209997999,165.26309209997999,165.26309209997999,165.26309209997999,165.26309209997999,165.26309209997999,23,0,,,165.26309209997999,165.4632333999907,1000,165.4632333999907,1000,1000,1000,1000,0,num_3,0.5369052999885753,,18,7,2026-03-02_10h50.02.988,2026A_exp2,2022.2.4,59.94855215510075,
1,0,0.0,0.0,0,0,49,49,22,,,,,166.0307643999986,166.681184999994,166.681184999994,167.16539129999,315,315,167.16539129999,167.16539129999,167.16539129999,167.16539129999,167.16539129999,167.16539129999,167.16539129999,167.16539129999,167.16539129999,167.53210079998826,167.53210079998826,167.53210079998826,167.53210079998826,167.53210079998826,167.53210079998826,167.53210079998826,167.53210079998826,167.53210079998826,23,0,,,167.53210079998826,167.73279969999567,0.0,167.73279969999567,1,0.0,0,0,1000,num_4,0.9387016000109725,,18,7,2026-03-02_10h50.02.988,2026A_exp2,2022.2.4,59.94855215510075,
1000,1,3.7,4.9,0,0,50,50,25,,,,,168.6997449999908,169.3504963000014,169.3504963000014,169.83490529999835,315,315,169.83490529999835,169.83490529999835,169.83490529999835,169.83490529999835,169.83490529999835,169.83490529999835,169.83490529999835,169.83490529999835,169.83490529999835,170.201155799994,170.201155799994,170.201155799994,170.201155799994,170.201155799994,170.201155799994,170.201155799994,170.201155799994,170.201155799994,23,0,,,170.201155799994,170.40127539998502,1000,170.40127539998502,1000,1000,1000,1000,1,num_2,0.6152344000001904,,18,7,2026-03-02_10h50.02.988,2026A_exp2,2022.2.4,59.94855215510075,
1,0,0.0,4.9,1,0,51,51,41,,,,,171.0360873999889,171.68642119999276,171.68642119999276,172.18944319998263,45,45,172.18944319998263,172.18944319998263,172.18944319998263,172.18944319998263,172.18944319998263,172.18944319998263,172.18944319998263,172.18944319998263,172.18944319998263,172.55451329998323,172.55451329998323,172.55451329998323,172.55451329998323,172.55451329998323,172.55451329998323,172.55451329998323,172.55451329998323,172.55451329998323,23,0,,,172.55451329998323,172.75412999998662,4.9,172.75412999998662,1,4.9,1,1,1000,num_4,0.5095580999914091,,18,7,2026-03-02_10h50.02.988,2026A_exp2,2022.2.4,59.94855215510075,
1,0,4.9,6.1,0,0,52,52,29,,,,,173.28782149998005,173.93847549997736,173.93847549997736,174.43949779999093,45,315,174.43949779999093,174.43949779999093,174.43949779999093,174.43949779999093,174.43949779999093,174.43949779999093,174.43949779999093,174.43949779999093,174.43949779999093,174.80594150000252,174.80594150000252,174.80594150000252,174.80594150000252,174.80594150000252,174.80594150000252,174.80594150000252,174.80594150000252,174.80594150000252,23,0,,,174.80594150000252,175.00596280000173,4.9,175.00596280000173,1,4.9,1,1,1000,num_4,0.47393730000476353,,18,7,2026-03-02_10h50.02.988,2026A_exp2,2022.2.4,59.94855215510075,
1,0,3.7,6.1,1,0,53,53,75,,,,,175.50871709999046,176.15717709998717,176.15717709998717,176.65827049998916,45,315,176.65827049998916,176.65827049998916,176.65827049998916,176.65827049998916,176.65827049998916,176.65827049998916,176.65827049998916,176.65827049998916,176.65827049998916,177.02466989998356,177.02466989998356,177.02466989998356,177.02466989998356,177.02466989998356,177.02466989998356,177.02466989998356,177.02466989998356,177.02466989998356,23,0,,,177.02466989998356,177.22478259998024,6.1,177.22478259998024,1,6.1,1,1,1000,num_4,0.35175709999748506,,18,7,2026-03-02_10h50.02.988,2026A_exp2,2022.2.4,59.94855215510075,
1,0,0.0,3.7,1,0,54,54,30,,,,,177.60855989999254,178.242886299995,178.242886299995,178.7438471999776,45,45,178.7438471999776,178.7438471999776,178.7438471999776,178.7438471999776,178.7438471999776,178.7438471999776,178.7438471999776,178.7438471999776,178.7438471999776,179.1103310000035,179.1103310000035,179.1103310000035,179.1103310000035,179.1103310000035,179.1103310000035,179.1103310000035,179.1103310000035,179.1103310000035,23,0,,,179.1103310000035,179.31080730000394,3.7,179.31080730000394,1,3.7,1,1,1000,num_4,0.3607787999790162,,18,7,2026-03-02_10h50.02.988,2026A_exp2,2022.2.4,59.94855215510075,
1000,1,4.9,0.0,0,0,55,55,12,,,,,179.69427700000233,180.32841769998777,180.32841769998777,180.82937369999127,45,45,180.82937369999127,180.82937369999127,180.82937369999127,180.82937369999127,180.82937369999127,180.82937369999127,180.82937369999127,180.82937369999127,180.82937369999127,181.1955425000051,181.1955425000051,181.1955425000051,181.1955425000051,181.1955425000051,181.1955425000051,181.1955425000051,181.1955425000051,181.1955425000051,23,0,,,181.1955425000051,181.3956675999798,1000,181.3956675999798,1000,1000,1000,1000,0,num_3,0.5484404999879189,,18,7,2026-03-02_10h50.02.988,2026A_exp2,2022.2.4,59.94855215510075,
1000,1,3.7,0.0,0,0,56,56,81,,,,,181.96309730000212,182.61384099998395,182.61384099998395,183.0982233999821,45,315,183.0982233999821,183.0982233999821,183.0982233999821,183.0982233999821,183.0982233999821,183.0982233999821,183.0982233999821,183.0982233999821,183.0982233999821,183.46464849999757,183.46464849999757,183.46464849999757,183.46464849999757,183.46464849999757,183.46464849999757,183.46464849999757,183.46464849999757,183.46464849999757,23,0,,,183.46464849999757,183.66484889999265,1000,183.66484889999265,1000,1000,1000,1000,0,num_3,0.15863449999596924,,18,7,2026-03-02_10h50.02.988,2026A_exp2,2022.2.4,59.94855215510075,
1000,1,0.0,4.9,1,0,57,57,57,,,,,183.84832059999462,184.48234159999993,184.48234159999993,184.98311739999917,45,315,184.98311739999917,184.98311739999917,184.98311739999917,184.98311739999917,184.98311739999917,184.98311739999917,184.98311739999917,184.98311739999917,184.98311739999917,185.3505021999881,185.3505021999881,185.3505021999881,185.3505021999881,185.3505021999881,185.3505021999881,185.3505021999881,185.3505021999881,185.3505021999881,23,0,,,185.3505021999881,185.54979259998072,1000,185.54979259998072,1000,1000,1000,1000,1,num_2,0.4343469000014011,,18,7,2026-03-02_10h50.02.988,2026A_exp2,2022.2.4,59.94855215510075,
1000,1,0.0,6.1,0,0,58,58,27,,,,,186.0004246000026,186.65108199999668,186.65108199999668,187.13652319999528,45,45,187.13652319999528,187.13652319999528,187.13652319999528,187.13652319999528,187.13652319999528,187.13652319999528,187.13652319999528,187.13652319999528,187.13652319999528,187.5018397999811,187.5018397999811,187.5018397999811,187.5018397999811,187.5018397999811,187.5018397999811,187.5018397999811,187.5018397999811,187.5018397999811,23,0,,,187.5018397999811,187.70215409999946,1000,187.70215409999946,1000,1000,1000,1000,1,num_2,0.43381469999440014,,18,7,2026-03-02_10h50.02.988,2026A_exp2,2022.2.4,59.94855215510075,
1,0,3.7,0.0,0,0,59,59,7,,,,,188.15301609999733,188.78646559998742,188.78646559998742,189.28757879999466,45,315,189.28757879999466,189.28757879999466,189.28757879999466,189.28757879999466,189.28757879999466,189.28757879999466,189.28757879999466,189.28757879999466,189.28757879999466,189.65378469999996,189.65378469999996,189.65378469999996,189.65378469999996,189.65378469999996,189.65378469999996,189.65378469999996,189.65378469999996,189.65378469999996,23,0,,,189.65378469999996,189.85423189998255,3.7,189.85423189998255,1,3.7,1,1,1000,num_4,0.625178499991307,,18,7,2026-03-02_10h50.02.988,2026A_exp2,2022.2.4,59.94855215510075,
1,0,0.0,0.0,0,0,60,60,32,,,,,190.50488379999297,191.13879420000012,191.13879420000012,191.63977359997807,45,315,191.63977359997807,191.63977359997807,191.63977359997807,191.63977359997807,191.63977359997807,191.63977359997807,191.63977359997807,191.63977359997807,191.63977359997807,192.00654339999892,192.00654339999892,192.00654339999892,192.00654339999892,192.00654339999892,192.00654339999892,192.00654339999892,192.00654339999892,192.00654339999892,23,0,,,192.00654339999892,192.20716279998305,0.0,192.20716279998305,0,0.0,0,1,1000,num_1,0.3922288999892771,,18,7,2026-03-02_10h50.02.988,2026A_exp2,2022.2.4,59.94855215510075,
1,0,6.1,0.0,0,0,61,61,77,,,,,192.6238880000019,193.27466379999532,193.27466379999532,193.7602928999986,45,45,193.7602928999986,193.7602928999986,193.7602928999986,193.7602928999986,193.7602928999986,193.7602928999986,193.7602928999986,193.7602928999986,193.7602928999986,194.1249399999797,194.1249399999797,194.1249399999797,194.1249399999797,194.1249399999797,194.1249399999797,194.1249399999797,194.1249399999797,194.1249399999797,23,0,,,194.1249399999797,194.32548400000087,6.1,194.32548400000087,1,6.1,1,1,1000,num_4,0.2820071000023745,,18,7,2026-03-02_10h50.02.988,2026A_exp2,2022.2.4,59.94855215510075,
1000,1,0.0,0.0,0,0,62,62,13,,,,,194.62586599998758,195.2759245999914,195.2759245999914,195.7608333999815,315,315,195.7608333999815,195.7608333999815,195.7608333999815,195.7608333999815,195.7608333999815,195.7608333999815,195.7608333999815,195.7608333999815,195.7608333999815,196.14359729998978,196.14359729998978,196.14359729998978,196.14359729998978,196.14359729998978,196.14359729998978,196.14359729998978,196.14359729998978,196.14359729998978,24,0,,,196.14359729998978,196.34419919998618,1000,196.34419919998618,1000,1000,1000,1000,1,num_2,0.823343099997146,,18,7,2026-03-02_10h50.02.988,2026A_exp2,2022.2.4,59.94855215510075,
1000,1,6.1,0.0,0,0,63,63,21,,,,,197.19535850000102,197.82990959999734,197.82990959999734,198.32996159998584,315,315,198.32996159998584,198.32996159998584,198.32996159998584,198.32996159998584,198.32996159998584,198.32996159998584,198.32996159998584,198.32996159998584,198.32996159998584,198.69639689999167,198.69639689999167,198.69639689999167,198.69639689999167,198.69639689999167,198.69639689999167,198.69639689999167,198.69639689999167,198.69639689999167,23,0,,,198.69639689999167,198.8968796999834,1000,198.8968796999834,1000,1000,1000,1000,0,num_3,0.6471569999994244,,18,7,2026-03-02_10h50.02.988,2026A_exp2,2022.2.4,59.94855215510075,
1000,1,6.1,0.0,0,0,64,64,69,,,,,199.5642667999782,200.21491449998575,200.21491449998575,,45,315,200.71611449998454,200.71611449998454,200.71611449998454,200.71611449998454,200.71611449998454,200.71611449998454,200.71611449998454,200.71611449998454,200.71611449998454,201.08235889999196,201.08235889999196,201.08235889999196,201.08235889999196,201.08235889999196,201.08235889999196,201.08235889999196,201.08235889999196,201.08235889999196,23,0,,,201.08235889999196,201.2826038999774,1000,201.2826038999774,1000,1000,1000,1000,0,num_3,0.36503620000439696,,18,7,2026-03-02_10h50.02.988,2026A_exp2,2022.2.4,59.94855215510075,
1,0,4.9,0.0,0,0,65,65,47,,,,,201.6663980000012,202.31908339998336,202.31908339998336,,315,315,202.81852349999826,202.81852349999826,202.81852349999826,202.81852349999826,202.81852349999826,202.81852349999826,202.81852349999826,202.81852349999826,202.81852349999826,203.16787889998523,203.16787889998523,203.16787889998523,203.16787889998523,203.16787889998523,203.16787889998523,203.16787889998523,203.16787889998523,203.16787889998523,22,0,,,203.16787889998523,203.36778449997655,4.9,203.38442919999943,1,4.9,1,1,1000,num_4,0.816292200004682,,18,7,2026-03-02_10h50.02.988,2026A_exp2,2022.2.4,59.94855215510075,
1000,1,3.7,3.7,1,0,66,66,54,,,,,204.21841099997982,204.85277939998196,204.85277939998196,205.35344509998686,315,45,205.35344509998686,205.35344509998686,205.35344509998686,205.35344509998686,205.35344509998686,205.35344509998686,205.35344509998686,205.35344509998686,205.35344509998686,205.71990739999455,205.71990739999455,205.71990739999455,205.71990739999455,205.71990739999455,205.71990739999455,205.71990739999455,205.71990739999455,205.71990739999455,23,0,,,205.71990739999455,205.9202687999932,1000,205.9202687999932,1000,1000,1000,1000,1,num_2,0.5519169000035618,,18,7,2026-03-02_10h50.02.988,2026A_exp2,2022.2.4,59.94855215510075,
1000,1,0.0,3.7,1,0,67,67,82,,,,,206.50407329999143,207.13808269999572,207.13808269999572,207.63949969998794,315,315,207.63949969998794,207.63949969998794,207.63949969998794,207.63949969998794,207.63949969998794,207.63949969998794,207.63949969998794,207.63949969998794,207.63949969998794,208.00592080000206,208.00592080000206,208.00592080000206,208.00592080000206,208.00592080000206,208.00592080000206,208.00592080000206,208.00592080000206,208.00592080000206,23,0,,,208.00592080000206,208.20573309998144,1000,208.20573309998144,1000,1000,1000,1000,1,num_2,0.4021401999925729,,18,7,2026-03-02_10h50.02.988,2026A_exp2,2022.2.4,59.94855215510075,
1,0,0.0,0.0,1,0,68,68,4,,,,,208.63961429998744,209.27381379998405,209.27381379998405,209.77501059998758,315,315,209.77501059998758,209.77501059998758,209.77501059998758,209.77501059998758,209.77501059998758,209.77501059998758,209.77501059998758,209.77501059998758,209.77501059998758,210.14098629998625,210.14098629998625,210.14098629998625,210.14098629998625,210.14098629998625,210.14098629998625,210.14098629998625,210.14098629998625,210.14098629998625,23,0,,,210.14098629998625,210.3417288000055,0.0,210.3417288000055,0,0.0,0,1,1000,num_1,0.4899839000136126,,18,7,2026-03-02_10h50.02.988,2026A_exp2,2022.2.4,59.94855215510075,
0,0,0.0,4.9,0,0,69,69,65,,,,,210.85834599999362,211.49248129999614,211.49248129999614,211.9937418999907,45,315,211.9937418999907,211.9937418999907,211.9937418999907,211.9937418999907,211.9937418999907,211.9937418999907,211.9937418999907,211.9937418999907,211.9937418999907,212.36001649999525,212.36001649999525,212.36001649999525,212.36001649999525,212.36001649999525,212.36001649999525,212.36001649999525,212.36001649999525,212.36001649999525,23,0,,,212.36001649999525,212.56057810000493,4.9,212.56057810000493,0,4.9,1,0,1000,num_1,0.3749682999914512,,18,7,2026-03-02_10h50.02.988,2026A_exp2,2022.2.4,59.94855215510075,
1000,1,0.0,0.0,1,0,70,70,68,,,,,212.9614225999976,213.61110849998659,213.61110849998659,214.0955822999822,45,45,214.0955822999822,214.0955822999822,214.0955822999822,214.0955822999822,214.0955822999822,214.0955822999822,214.0955822999822,214.0955822999822,214.0955822999822,214.4623733999906,214.4623733999906,214.4623733999906,214.4623733999906,214.4623733999906,214.4623733999906,214.4623733999906,214.4623733999906,214.4623733999906,23,0,,,214.4623733999906,214.66236639997805,1000,214.66236639997805,1000,1000,1000,1000,1,num_2,0.6012874000007287,,18,7,2026-03-02_10h50.02.988,2026A_exp2,2022.2.4,59.94855215510075,
1,0,3.7,0.0,0,0,71,71,10,,,,,215.27981489998638,215.93064769997727,215.93064769997727,216.43143739999505,315,45,216.43143739999505,216.43143739999505,216.43143739999505,216.43143739999505,216.43143739999505,216.43143739999505,216.43143739999505,216.43143739999505,216.43143739999505,216.78131920000305,216.78131920000305,216.78131920000305,216.78131920000305,216.78131920000305,216.78131920000305,216.78131920000305,216.78131920000305,216.78131920000305,22,0,,,216.78131920000305,216.98122570000123,3.7,216.99806099999114,0,3.7,1,0,1000,num_1,0.8261638999974821,,18,7,2026-03-02_10h50.02.988,2026A_exp2,2022.2.4,59.94855215510075,
1,0,0.0,0.0,1,0,72,72,20,,,,,217.84905759998946,218.4992951999884,218.4992951999884,218.98403649998363,315,45,218.98403649998363,218.98403649998363,218.98403649998363,218.98403649998363,218.98403649998363,218.98403649998363,218.98403649998363,218.98403649998363,218.98403649998363,219.35038180000265,219.35038180000265,219.35038180000265,219.35038180000265,219.35038180000265,219.35038180000265,219.35038180000265,219.35038180000265,219.35038180000265,23,0,,,219.35038180000265,219.5507330999826,0.0,219.5507330999826,0,0.0,0,1,1000,num_1,0.6650338999752421,,18,7,2026-03-02_10h50.02.988,2026A_exp2,2022.2.4,59.94855215510075,
1,0,0.0,3.7,0,0,73,73,31,,,,,220.23443049998605,220.8686929999967,220.8686929999967,221.36984479997773,315,315,221.36984479997773,221.36984479997773,221.36984479997773,221.36984479997773,221.36984479997773,221.36984479997773,221.36984479997773,221.36984479997773,221.36984479997773,221.73613029997796,221.73613029997796,221.73613029997796,221.73613029997796,221.73613029997796,221.73613029997796,221.73613029997796,221.73613029997796,221.73613029997796,23,0,,,221.73613029997796,221.93633589998353,0.0,221.93633589998353,0,0.0,0,1,1000,num_1,1.9994697000074666,,18,7,2026-03-02_10h50.02.988,2026A_exp2,2022.2.4,59.94855215510075,
1,0,0.0,0.0,1,0,74,74,58,,,,,223.95512060000328,224.60555369997746,224.60555369997746,225.09006539999973,315,315,225.09006539999973,225.09006539999973,225.09006539999973,225.09006539999973,225.09006539999973,225.09006539999973,225.09006539999973,225.09006539999973,225.09006539999973,225.45634730000165,225.45634730000165,225.45634730000165,225.45634730000165,225.45634730000165,225.45634730000165,225.45634730000165,225.45634730000165,225.45634730000165,23,0,,,225.45634730000165,225.65710719997878,0.0,225.65710719997878,0,0.0,0,1,1000,num_1,0.4308057999878656,,18,7,2026-03-02_10h50.02.988,2026A_exp2,2022.2.4,59.94855215510075,
1,0,6.1,0.0,1,0,75,75,17,,,,,226.10720519997994,226.74115689998143,226.74115689998143,227.24208060000092,315,45,227.24208060000092,227.24208060000092,227.24208060000092,227.24208060000092,227.24208060000092,227.24208060000092,227.24208060000092,227.24208060000092,227.24208060000092,227.6100133,227.6100133,227.6100133,227.6100133,227.6100133,227.6100133,227.6100133,227.6100133,227.6100133,23,0,,,227.6100133,,0.0,227.82552260000375,0,0.0,0,1,1000,num_1,0.43105470002046786,,18,7,2026-03-02_10h50.02.988,2026A_exp2,2022.2.4,59.94855215510075,
0,0,0.0,0.0,1,0,76,76,80,,,,,228.27590789998067,228.90982359999907,228.90982359999907,229.41111749998527,45,315,229.41111749998527,229.41111749998527,229.41111749998527,229.41111749998527,229.41111749998527,229.41111749998527,229.41111749998527,229.41111749998527,229.41111749998527,229.7775610999961,229.7775610999961,229.7775610999961,229.7775610999961,229.7775610999961,229.7775610999961,229.7775610999961,229.7775610999961,229.7775610999961,23,0,,,229.7775610999961,229.97769539998262,0.0,229.97769539998262,1,0.0,0,0,1000,num_4,0.6777952999982517,,18,7,2026-03-02_10h50.02.988,2026A_exp2,2022.2.4,59.94855215510075,
1000,1,4.9,0.0,0,0,77,77,45,,,,,230.6786908999784,231.32983790000435,231.32983790000435,231.81415579997702,315,315,231.81415579997702,231.81415579997702,231.81415579997702,231.81415579997702,231.81415579997702,231.81415579997702,231.81415579997702,231.81415579997702,231.81415579997702,232.1810744999966,232.1810744999966,232.1810744999966,232.1810744999966,232.1810744999966,232.1810744999966,232.1810744999966,232.1810744999966,232.1810744999966,23,0,,,232.1810744999966,232.38065769997775,1000,232.38065769997775,1000,1000,1000,1000,0,num_3,0.5630438999796752,,18,7,2026-03-02_10h50.02.988,2026A_exp2,2022.2.4,59.94855215510075,
0,0,4.9,6.1,1,0,78,78,70,,,,,232.9643285999773,233.61467670000275,233.61467670000275,234.0990582999948,315,45,234.0990582999948,234.0990582999948,234.0990582999948,234.0990582999948,234.0990582999948,234.0990582999948,234.0990582999948,234.0990582999948,234.0990582999948,234.48211749998154,234.48211749998154,234.48211749998154,234.48211749998154,234.48211749998154,234.48211749998154,234.48211749998154,234.48211749998154,234.48211749998154,24,0,,,234.48211749998154,234.6825200000021,4.9,234.6825200000021,0,4.9,1,0,1000,num_1,0.5657256999984384,,18,7,2026-03-02_10h50.02.988,2026A_exp2,2022.2.4,59.94855215510075,
1000,1,3.7,0.0,1,0,79,79,78,,,,,235.26673139998456,235.91641649999656,235.91641649999656,236.403545499983,315,315,236.403545499983,236.403545499983,236.403545499983,236.403545499983,236.403545499983,236.403545499983,236.403545499983,236.403545499983,236.403545499983,236.76756710000336,236.76756710000336,236.76756710000336,236.76756710000336,236.76756710000336,236.76756710000336,236.76756710000336,236.76756710000336,236.76756710000336,23,0,,,236.76756710000336,236.96786969999084,1000,236.96786969999084,1000,1000,1000,1000,1,num_2,0.6480788999760989,,18,7,2026-03-02_10h50.02.988,2026A_exp2,2022.2.4,59.94855215510075,
1000,1,3.7,6.1,1,0,80,80,43,,,,,237.63524159998633,238.28575629999978,238.28575629999978,238.77052649998222,315,315,238.77052649998222,238.77052649998222,238.77052649998222,238.77052649998222,238.77052649998222,238.77052649998222,238.77052649998222,238.77052649998222,238.77052649998222,239.1540277999884,239.1540277999884,239.1540277999884,239.1540277999884,239.1540277999884,239.1540277999884,239.1540277999884,239.1540277999884,239.1540277999884,24,0,,,239.1540277999884,239.3539600999793,1000,239.3539600999793,1000,1000,1000,1000,1,num_2,0.5100480999972206,,18,7,2026-03-02_10h50.02.988,2026A_exp2,2022.2.4,59.94855215510075,
1,0,4.9,3.7,1,0,81,81,71,,,,,239.88756589998957,240.52173340000445,240.52173340000445,241.0226589999802,45,45,241.0226589999802,241.0226589999802,241.0226589999802,241.0226589999802,241.0226589999802,241.0226589999802,241.0226589999802,241.0226589999802,241.0226589999802,241.38904300000286,241.38904300000286,241.38904300000286,241.38904300000286,241.38904300000286,241.38904300000286,241.38904300000286,241.38904300000286,241.38904300000286,23,0,,,241.38904300000286,241.5893451999873,3.7,241.5893451999873,0,3.7,1,0,1000,num_1,0.9785587000078522,,18,7,2026-03-02_10h50.02.988,2026A_exp2,2022.2.4,59.94855215510075,
1,0,0.0,0.0,0,0,82,82,61,,,,,242.59053769998718,243.22416379998322,243.22416379998322,243.72575019998476,315,45,243.72575019998476,243.72575019998476,243.72575019998476,243.72575019998476,243.72575019998476,243.72575019998476,243.72575019998476,243.72575019998476,243.72575019998476,244.09198899997864,244.09198899997864,244.09198899997864,244.09198899997864,244.09198899997864,244.09198899997864,244.09198899997864,244.09198899997864,244.09198899997864,23,0,,,244.09198899997864,244.29193879998638,0.0,244.29193879998638,0,0.0,0,1,1000,num_1,0.5404536999994889,,18,7,2026-03-02_10h50.02.988,2026A_exp2,2022.2.4,59.94855215510075,
1,0,4.9,6.1,1,0,83,83,36,,,,,244.86061589999008,245.51066359999822,245.51066359999822,246.01255369998398,315,315,246.01255369998398,246.01255369998398,246.01255369998398,246.01255369998398,246.01255369998398,246.01255369998398,246.01255369998398,246.01255369998398,246.01255369998398,246.37883810000494,246.37883810000494,246.37883810000494,246.37883810000494,246.37883810000494,246.37883810000494,246.37883810000494,246.37883810000494,246.37883810000494,23,0,,,246.37883810000494,,6.1,246.59436960000312,1,6.1,1,1,1000,num_4,0.42999499998404644,,18,7,2026-03-02_10h50.02.988,2026A_exp2,2022.2.4,59.94855215510075,
1000,1,0.0,4.9,1,0,84,84,72,,,,,247.04503549999208,247.6955569999991,247.6955569999991,248.18019240000285,45,315,248.18019240000285,248.18019240000285,248.18019240000285,248.18019240000285,248.18019240000285,248.18019240000285,248.18019240000285,248.18019240000285,248.18019240000285,248.54670039998018,248.54670039998018,248.54670039998018,248.54670039998018,248.54670039998018,248.54670039998018,248.54670039998018,248.54670039998018,248.54670039998018,23,0,,,248.54670039998018,248.74731219999376,1000,248.74731219999376,1000,1000,1000,1000,1,num_2,0.6284180000075139,,18,7,2026-03-02_10h50.02.988,2026A_exp2,2022.2.4,59.94855215510075,
1000,1,4.9,0.0,1,0,85,85,74,,,,,249.39722620000248,250.04849200000172,250.04849200000172,250.53240139997797,45,45,250.53240139997797,250.53240139997797,250.53240139997797,250.53240139997797,250.53240139997797,250.53240139997797,250.53240139997797,250.53240139997797,250.53240139997797,250.89877119997982,250.89877119997982,250.89877119997982,250.89877119997982,250.89877119997982,250.89877119997982,250.89877119997982,250.89877119997982,250.89877119997982,23,0,,,250.89877119997982,251.09899519997998,1000,251.09899519997998,1000,1000,1000,1000,0,num_3,0.525057699996978,,18,7,2026-03-02_10h50.02.988,2026A_exp2,2022.2.4,59.94855215510075,
1,0,6.1,3.7,1,0,86,86,83,,,,,251.65014290000545,252.3001519999816,252.3001519999816,252.78457809999236,315,315,252.78457809999236,252.78457809999236,252.78457809999236,252.78457809999236,252.78457809999236,252.78457809999236,252.78457809999236,252.78457809999236,252.78457809999236,253.1508963999804,253.1508963999804,253.1508963999804,253.1508963999804,253.1508963999804,253.1508963999804,253.1508963999804,253.1508963999804,253.1508963999804,23,0,,,253.1508963999804,253.35235069997725,3.7,253.35235069997725,0,3.7,1,0,1000,num_1,1.8958982999902219,,18,7,2026-03-02_10h50.02.988,2026A_exp2,2022.2.4,59.94855215510075,
1000,1,6.1,4.9,1,0,87,87,15,,,,,255.2692613999825,255.90357029999723,255.90357029999723,256.4046787999978,45,315,256.4046787999978,256.4046787999978,256.4046787999978,256.4046787999978,256.4046787999978,256.4046787999978,256.4046787999978,256.4046787999978,256.4046787999978,256.7711255000031,256.7711255000031,256.7711255000031,256.7711255000031,256.7711255000031,256.7711255000031,256.7711255000031,256.7711255000031,256.7711255000031,23,0,,,256.7711255000031,256.97143619999406,1000,256.97143619999406,1000,1000,1000,1000,1,num_2,0.564150200021686,,18,7,2026-03-02_10h50.02.988,2026A_exp2,2022.2.4,59.94855215510075,
1000,1,4.9,0.0,0,0,88,88,37,,,,,257.55565840000054,258.20570049999515,258.20570049999515,258.70743209999637,315,45,258.70743209999637,258.70743209999637,258.70743209999637,258.70743209999637,258.70743209999637,258.70743209999637,258.70743209999637,258.70743209999637,258.70743209999637,259.0733620999963,259.0733620999963,259.0733620999963,259.0733620999963,259.0733620999963,259.0733620999963,259.0733620999963,259.0733620999963,259.0733620999963,23,0,,,259.0733620999963,259.2744532999932,1000,259.2744532999932,1000,1000,1000,1000,0,num_3,0.5897269999841228,,18,7,2026-03-02_10h50.02.988,2026A_exp2,2022.2.4,59.94855215510075,
0,0,4.9,0.0,1,0,89,89,26,,,,,259.89132389999577,260.5251965999778,260.5251965999778,261.0266668999975,45,45,261.0266668999975,261.0266668999975,261.0266668999975,261.0266668999975,261.0266668999975,261.0266668999975,261.0266668999975,261.0266668999975,261.0266668999975,261.3929239999852,261.3929239999852,261.3929239999852,261.3929239999852,261.3929239999852,261.3929239999852,261.3929239999852,261.3929239999852,261.3929239999852,23,0,,,261.3929239999852,261.59458999999333,4.9,261.59458999999333,0,4.9,1,0,1000,num_1,0.5732701999950223,,18,7,2026-03-02_10h50.02.988,2026A_exp2,2022.2.4,59.94855215510075,
,,,,,,,,,,,,,,,,,,,,,,,,,,,,,,,,,,,,,,,,,,,,,,,,,,,,262.20475609999266,,,,,,,
