validity,detectorcomp,contrastCW,contrastCCW,precueCWorCCW,block_80trials.thisRepN,block_80trials.thisTrialN,block_80trials.thisN,block_80trials.thisIndex,etRecord.started,etRecord.stopped,text.started,text.stopped,text_4.started,text_4.stopped,text_6.started,text_6.stopped,oriCW,oriCCW,roi_2.started,grating_UR.started,grating_UL.started,grating_LR.started,grating_LL.started,noise_UR.started,noise_UL.started,noise_LR.started,noise_LL.started,roi_2.stopped,grating_UR.stopped,grating_UL.stopped,grating_LR.stopped,grating_LL.stopped,noise_UR.stopped,noise_UL.stopped,noise_LR.stopped,noise_LL.stopped,outframe,roi_2.numLooks,roi_2.timesOn,roi_2.timesOff,text_2.started,text_2.stopped,probedcontrast,key_resp.started,respdetect,relevantContrast,correctDetect,TorFdetect,respCWorCCW,key_resp.keys,key_resp.rt,feedback_display_.started,participantNo,blockNo,date,expName,psychopyVersion,frameRate,
1,0,0.0,0.0,0,0,0,0,64,0.0001474000164307654,0.0001474000164307654,60.28343980002683,62.299324900028296,62.299324900028296,62.93659060000209,62.93659060000209,63.44469269999536,315,45,63.44469269999536,63.44469269999536,63.44469269999536,63.44469269999536,63.44469269999536,63.44469269999536,63.44469269999536,63.44469269999536,63.44469269999536,63.787614300032146,63.787614300032146,63.787614300032146,63.787614300032146,63.787614300032146,63.787614300032146,63.787614300032146,63.787614300032146,63.787614300032146,23,0,,,63.787614300032146,63.987664700020105,0.0,63.987664700020105,1,0.0,0,0,1000,num_4,0.7011448999983259,,23,6,2026-03-04_13h46.14.710,2026A_exp2,2022.2.4,59.93486280446282,
1,0,0.0,0.0,1,0,1,1,77,,,,,64.70505809999304,65.3558275999967,65.3558275999967,65.84021729999222,45,315,65.84021729999222,65.84021729999222,65.84021729999222,65.84021729999222,65.84021729999222,65.84021729999222,65.84021729999222,65.84021729999222,65.84021729999222,66.20670280000195,66.20670280000195,66.20670280000195,66.20670280000195,66.20670280000195,66.20670280000195,66.20670280000195,66.20670280000195,66.20670280000195,23,0,,,66.20670280000195,66.40689280000515,0.0,66.40689280000515,0,0.0,0,1,1000,num_1,0.8902547999750823,,23,6,2026-03-04_13h46.14.710,2026A_exp2,2022.2.4,59.93486280446282,
1000,1,0.0,0.0,1,0,2,2,72,,,,,67.3244546999922,67.95844269997906,67.95844269997906,68.45949300000211,45,315,68.45949300000211,68.45949300000211,68.45949300000211,68.45949300000211,68.45949300000211,68.45949300000211,68.45949300000211,68.45949300000211,68.45949300000211,68.82576139998855,68.82576139998855,68.82576139998855,68.82576139998855,68.82576139998855,68.82576139998855,68.82576139998855,68.82576139998855,68.82576139998855,0,1,[0.0012183000217191875],[0.36716880003223196],68.82576139998855,69.03094530000817,1000,69.03094530000817,1000,1000,1000,1000,1,num_2,1.034077599993907,,23,6,2026-03-04_13h46.14.710,2026A_exp2,2022.2.4,59.93486280446282,
1,0,6.1,0.0,1,0,3,3,29,,,,,70.09393720002845,70.74451109999791,70.74451109999791,71.24554869998246,45,315,71.24554869998246,71.24554869998246,71.24554869998246,71.24554869998246,71.24554869998246,71.24554869998246,71.24554869998246,71.24554869998246,71.24554869998246,71.61210420000134,71.61210420000134,71.61210420000134,71.61210420000134,71.61210420000134,71.61210420000134,71.61210420000134,71.61210420000134,71.61210420000134,23,0,,,71.61210420000134,71.81223239999963,0.0,71.81223239999963,0,0.0,0,1,1000,num_1,0.7646252000122331,,23,6,2026-03-04_13h46.14.710,2026A_exp2,2022.2.4,59.93486280446282,
1,0,0.0,4.9,0,0,4,4,9,,,,,72.59636309999041,73.24701599997934,73.24701599997934,73.73136089998297,45,45,73.73136089998297,73.73136089998297,73.73136089998297,73.73136089998297,73.73136089998297,73.73136089998297,73.73136089998297,73.73136089998297,73.73136089998297,74.09776740003144,74.09776740003144,74.09776740003144,74.09776740003144,74.09776740003144,74.09776740003144,74.09776740003144,74.09776740003144,74.09776740003144,0,1,[0.001205399981699884],[0.3674379999865778],74.09776740003144,74.29799440002535,0.0,74.29799440002535,1,0.0,0,0,1000,num_4,1.014707599999383,,23,6,2026-03-04_13h46.14.710,2026A_exp2,2022.2.4,59.93486280446282,
1000,1,0.0,3.7,1,0,5,5,86,,,,,75.33232719998341,75.98306230001617,75.98306230001617,76.46746810001787,315,315,76.46746810001787,76.46746810001787,76.46746810001787,76.46746810001787,76.46746810001787,76.46746810001787,76.46746810001787,76.46746810001787,76.46746810001787,76.83398900000611,76.83398900000611,76.83398900000611,76.83398900000611,76.83398900000611,76.83398900000611,76.83398900000611,76.83398900000611,76.83398900000611,0,1,[0.0012057999847456813],[0.3672128999605775],76.83398900000611,77.03626969998004,1000,77.03626969998004,1000,1000,1000,1000,1,num_2,0.48494990001199767,,23,6,2026-03-04_13h46.14.710,2026A_exp2,2022.2.4,59.93486280446282,
1000,1,4.9,4.9,0,0,6,6,6,,,,,77.551434300025,78.20199500001036,78.20199500001036,78.7031889000209,315,315,78.7031889000209,78.7031889000209,78.7031889000209,78.7031889000209,78.7031889000209,78.7031889000209,78.7031889000209,78.7031889000209,78.7031889000209,79.06940640002722,79.06940640002722,79.06940640002722,79.06940640002722,79.06940640002722,79.06940640002722,79.06940640002722,79.06940640002722,79.06940640002722,21,1,[0.0012466000043787062],[0.033625899988692254],79.06940640002722,79.26962909998838,1000,79.26962909998838,1000,1000,1000,1000,0,num_3,0.7154810000211,,23,6,2026-03-04_13h46.14.710,2026A_exp2,2022.2.4,59.93486280446282,
1,0,3.7,0.0,1,0,7,7,73,,,,,80.00364599999739,80.65433370001847,80.65433370001847,81.15561980003258,315,315,81.15561980003258,81.15561980003258,81.15561980003258,81.15561980003258,81.15561980003258,81.15561980003258,81.15561980003258,81.15561980003258,81.15561980003258,81.52195900003426,81.52195900003426,81.52195900003426,81.52195900003426,81.52195900003426,81.52195900003426,81.52195900003426,81.52195900003426,81.52195900003426,0,1,[0.0012108999653719366],[0.36729149997700006],81.52195900003426,81.72210539999651,0.0,81.72210539999651,1,0.0,0,0,1000,num_4,0.9026281000114977,,23,6,2026-03-04_13h46.14.710,2026A_exp2,2022.2.4,59.93486280446282,
1,0,0.0,4.9,0,0,8,8,48,,,,,82.65643520001322,83.30716750002466,83.30716750002466,83.79139840003336,315,315,83.79139840003336,83.79139840003336,83.79139840003336,83.79139840003336,83.79139840003336,83.79139840003336,83.79139840003336,83.79139840003336,83.79139840003336,84.15794499998447,84.15794499998447,84.15794499998447,84.15794499998447,84.15794499998447,84.15794499998447,84.15794499998447,84.15794499998447,84.15794499998447,0,1,[0.0012698000064119697],[0.36706990003585815],84.15794499998447,84.3579677999951,0.0,84.3579677999951,0,0.0,0,1,1000,num_1,0.9958501000073738,,23,6,2026-03-04_13h46.14.710,2026A_exp2,2022.2.4,59.93486280446282,
1,0,4.9,3.7,0,0,9,9,89,,,,,85.37567789998138,86.02645060000941,86.02645060000941,86.51079400000162,45,315,86.51079400000162,86.51079400000162,86.51079400000162,86.51079400000162,86.51079400000162,86.51079400000162,86.51079400000162,86.51079400000162,86.51079400000162,86.87728000001516,86.87728000001516,86.87728000001516,86.87728000001516,86.87728000001516,86.87728000001516,86.87728000001516,86.87728000001516,86.87728000001516,15,4,"[0.16686070000287145, 0.23356480000074953, 0.30040720000397414, 0.3504283999791369]","[0.20022289996268228, 0.28366419998928905, 0.3171060999738984, 0.3670572999981232]",86.87728000001516,87.07756170001812,4.9,87.07756170001812,0,4.9,1,0,1000,num_1,0.6923911000485532,,23,6,2026-03-04_13h46.14.710,2026A_exp2,2022.2.4,59.93486280446282,
1,0,4.9,0.0,0,0,10,10,57,,,,,87.79480640002294,88.44552280002972,88.44552280002972,88.92992329999106,45,45,88.92992329999106,88.92992329999106,88.92992329999106,88.92992329999106,88.92992329999106,88.92992329999106,88.92992329999106,88.92992329999106,88.92992329999106,89.29626050003571,89.29626050003571,89.29626050003571,89.29626050003571,89.29626050003571,89.29626050003571,89.29626050003571,89.29626050003571,89.29626050003571,3,2,"[0.03361609997227788, 0.1503845999832265]","[0.13384680001763627, 0.3673269000137225]",89.29626050003571,89.49661149998428,4.9,89.49661149998428,1,4.9,1,1,1000,num_4,0.6413606000132859,,23,6,2026-03-04_13h46.14.710,2026A_exp2,2022.2.4,59.93486280446282,
0,0,4.9,4.9,0,0,11,11,88,,,,,90.16386610001791,90.81459720002022,90.81459720002022,91.29906659998232,45,45,91.29906659998232,91.29906659998232,91.29906659998232,91.29906659998232,91.29906659998232,91.29906659998232,91.29906659998232,91.29906659998232,91.29906659998232,91.66543779999483,91.66543779999483,91.66543779999483,91.66543779999483,91.66543779999483,91.66543779999483,91.66543779999483,91.66543779999483,91.66543779999483,4,3,"[0.0336204000050202, 0.1503489000024274, 0.23342699999921024]","[0.13373930001398548, 0.21652800001902506, 0.3671769999782555]",91.66543779999483,91.8655076000141,4.9,91.8655076000141,1,4.9,1,1,1000,num_4,0.8873905999935232,,23,6,2026-03-04_13h46.14.710,2026A_exp2,2022.2.4,59.93486280446282,
1000,1,3.7,3.7,1,0,12,12,25,,,,,92.78314680000767,93.4338786000153,93.4338786000153,93.91837329999544,315,315,93.91837329999544,93.91837329999544,93.91837329999544,93.91837329999544,93.91837329999544,93.91837329999544,93.91837329999544,93.91837329999544,93.91837329999544,94.28475510003045,94.28475510003045,94.28475510003045,94.28475510003045,94.28475510003045,94.28475510003045,94.28475510003045,94.28475510003045,94.28475510003045,2,1,[0.033440499973949045],[0.366907799965702],94.28475510003045,94.48695520003093,1000,94.48695520003093,1000,1000,1000,1000,0,num_3,1.8816185999894515,,23,6,2026-03-04_13h46.14.710,2026A_exp2,2022.2.4,59.93486280446282,
1,0,0.0,0.0,0,0,13,13,87,,,,,96.38693209999474,97.03739100001985,97.03739100001985,97.52196969999932,45,45,97.52196969999932,97.52196969999932,97.52196969999932,97.52196969999932,97.52196969999932,97.52196969999932,97.52196969999932,97.52196969999932,97.52196969999932,97.88809319998836,97.88809319998836,97.88809319998836,97.88809319998836,97.88809319998836,97.88809319998836,97.88809319998836,97.88809319998836,97.88809319998836,10,2,"[0.13353739999001846, 0.18360639997990802]","[0.15005979995476082, 0.3671398999867961]",97.88809319998836,98.08853549999185,0.0,98.08853549999185,0,0.0,0,1,1000,num_1,1.2887158999801613,,23,6,2026-03-04_13h46.14.710,2026A_exp2,2022.2.4,59.93486280446282,
1000,1,4.9,4.9,0,0,14,14,36,,,,,99.40636299998732,100.05697780003538,100.05697780003538,100.5415931000025,45,45,100.5415931000025,100.5415931000025,100.5415931000025,100.5415931000025,100.5415931000025,100.5415931000025,100.5415931000025,100.5415931000025,100.5415931000025,100.90784250001889,100.90784250001889,100.90784250001889,100.90784250001889,100.90784250001889,100.90784250001889,100.90784250001889,100.90784250001889,100.90784250001889,0,1,[0.001218099961988628],[0.3671422000043094],100.90784250001889,101.11059699999169,1000,101.11059699999169,1000,1000,1000,1000,1,num_2,0.49803309998242185,,23,6,2026-03-04_13h46.14.710,2026A_exp2,2022.2.4,59.93486280446282,
1,0,0.0,0.0,1,0,15,15,68,,,,,101.6255141000147,102.27605679997941,102.27605679997941,102.77719310001703,45,45,102.77719310001703,102.77719310001703,102.77719310001703,102.77719310001703,102.77719310001703,102.77719310001703,102.77719310001703,102.77719310001703,102.77719310001703,103.14358700002776,103.14358700002776,103.14358700002776,103.14358700002776,103.14358700002776,103.14358700002776,103.14358700002776,103.14358700002776,103.14358700002776,0,1,[0.0012045999756082892],[0.36725140002090484],103.14358700002776,103.3436195999966,0.0,103.3436195999966,1,0.0,0,0,1000,num_4,0.745409999974072,,23,6,2026-03-04_13h46.14.710,2026A_exp2,2022.2.4,59.93486280446282,
1000,1,0.0,0.0,1,0,16,16,8,,,,,104.11108380003134,104.76160730002448,104.76160730002448,105.24633550003637,315,315,105.24633550003637,105.24633550003637,105.24633550003637,105.24633550003637,105.24633550003637,105.24633550003637,105.24633550003637,105.24633550003637,105.24633550003637,105.61279570002807,105.61279570002807,105.61279570002807,105.61279570002807,105.61279570002807,105.61279570002807,105.61279570002807,105.61279570002807,105.61279570002807,3,3,"[0.001233799965120852, 0.1169891000026837, 0.3504815999767743]","[0.10026039998047054, 0.3339126000064425, 0.3671553999884054]",105.61279570002807,105.8128679000074,1000,105.8128679000074,1000,1000,1000,1000,1,num_2,0.8921992999967188,,23,6,2026-03-04_13h46.14.710,2026A_exp2,2022.2.4,59.93486280446282,
1000,1,4.9,4.9,1,0,17,17,67,,,,,106.73075480002444,107.38120549998712,107.38120549998712,107.86565160000464,45,315,107.86565160000464,107.86565160000464,107.86565160000464,107.86565160000464,107.86565160000464,107.86565160000464,107.86565160000464,107.86565160000464,107.86565160000464,108.23188410000876,108.23188410000876,108.23188410000876,108.23188410000876,108.23188410000876,108.23188410000876,108.23188410000876,108.23188410000876,108.23188410000876,2,3,"[0.000991299981251359, 0.11730749998241663, 0.3508663999964483]","[0.10064159997273237, 0.33410919999005273, 0.36747259995900095]",108.23188410000876,108.43452090001665,1000,108.43452090001665,1000,1000,1000,1000,1,num_2,0.5189859999809414,,23,6,2026-03-04_13h46.14.710,2026A_exp2,2022.2.4,59.93486280446282,
1,0,6.1,0.0,1,0,18,18,23,,,,,108.98280150000937,109.64370900002541,109.64370900002541,110.13435050001135,45,45,110.13435050001135,110.13435050001135,110.13435050001135,110.13435050001135,110.13435050001135,110.13435050001135,110.13435050001135,110.13435050001135,110.13435050001135,110.50098559999606,110.50098559999606,110.50098559999606,110.50098559999606,110.50098559999606,110.50098559999606,110.50098559999606,110.50098559999606,110.50098559999606,23,0,,,110.50098559999606,110.70118199998979,0.0,110.70118199998979,0,0.0,0,1,1000,num_1,0.6833703999873251,,23,6,2026-03-04_13h46.14.710,2026A_exp2,2022.2.4,59.93486280446282,
1,0,3.7,3.7,1,0,19,19,11,,,,,111.40180629998213,112.0523419000092,112.0523419000092,112.55348509998294,45,315,112.55348509998294,112.55348509998294,112.55348509998294,112.55348509998294,112.55348509998294,112.55348509998294,112.55348509998294,112.55348509998294,112.55348509998294,112.90338939998765,112.90338939998765,112.90338939998765,112.90338939998765,112.90338939998765,112.90338939998765,112.90338939998765,112.90338939998765,112.90338939998765,22,0,,,112.90338939998765,113.10360199998831,3.7,113.10360199998831,1,3.7,1,1,1000,num_4,0.8811213999870233,,23,6,2026-03-04_13h46.14.710,2026A_exp2,2022.2.4,59.93486280446282,
1000,1,0.0,6.1,0,0,20,20,85,,,,,114.00429710000753,114.65497650002362,114.65497650002362,115.1394244999974,45,315,115.1394244999974,115.1394244999974,115.1394244999974,115.1394244999974,115.1394244999974,115.1394244999974,115.1394244999974,115.1394244999974,115.1394244999974,115.5059925999958,115.5059925999958,115.5059925999958,115.5059925999958,115.5059925999958,115.5059925999958,115.5059925999958,115.5059925999958,115.5059925999958,23,0,,,115.5059925999958,115.70805690000998,1000,115.70805690000998,1000,1000,1000,1000,1,num_2,0.43717429996468127,,23,6,2026-03-04_13h46.14.710,2026A_exp2,2022.2.4,59.93486280446282,
1,0,0.0,4.9,1,0,21,21,44,,,,,116.17342130001634,116.82394720002776,116.82394720002776,117.32505260000471,315,45,117.32505260000471,117.32505260000471,117.32505260000471,117.32505260000471,117.32505260000471,117.32505260000471,117.32505260000471,117.32505260000471,117.32505260000471,117.69148909999058,117.69148909999058,117.69148909999058,117.69148909999058,117.69148909999058,117.69148909999058,117.69148909999058,117.69148909999058,117.69148909999058,23,0,,,117.69148909999058,117.89161019999301,4.9,117.89161019999301,1,4.9,1,1,1000,num_4,0.6537844999693334,,23,6,2026-03-04_13h46.14.710,2026A_exp2,2022.2.4,59.93486280446282,
1,0,6.1,0.0,0,0,22,22,58,,,,,118.57559229998151,119.22624170000199,119.22624170000199,119.71068349998677,45,45,119.71068349998677,119.71068349998677,119.71068349998677,119.71068349998677,119.71068349998677,119.71068349998677,119.71068349998677,119.71068349998677,119.71068349998677,120.07736649998697,120.07736649998697,120.07736649998697,120.07736649998697,120.07736649998697,120.07736649998697,120.07736649998697,120.07736649998697,120.07736649998697,9,4,"[0.0012137999874539673, 0.11699690000386909, 0.26719230000162497, 0.317176999989897]","[0.050314499996602535, 0.20030349999433383, 0.28388859995175153, 0.3671679999679327]",120.07736649998697,120.27724760002457,6.1,120.27724760002457,1,6.1,1,1,1000,num_4,0.8194317999877967,,23,6,2026-03-04_13h46.14.710,2026A_exp2,2022.2.4,59.93486280446282,
1,0,3.7,6.1,0,0,23,23,74,,,,,121.12811819999479,121.77879660000326,121.77879660000326,122.26335170003586,315,315,122.26335170003586,122.26335170003586,122.26335170003586,122.26335170003586,122.26335170003586,122.26335170003586,122.26335170003586,122.26335170003586,122.26335170003586,122.62969859997975,122.62969859997975,122.62969859997975,122.62969859997975,122.62969859997975,122.62969859997975,122.62969859997975,122.62969859997975,122.62969859997975,23,0,,,122.62969859997975,122.82996390003245,3.7,122.82996390003245,0,3.7,1,0,1000,num_1,0.8907761999871582,,23,6,2026-03-04_13h46.14.710,2026A_exp2,2022.2.4,59.93486280446282,
1,0,3.7,0.0,1,0,24,24,55,,,,,123.74746210000012,124.39806119998684,124.39806119998684,124.88254309998592,45,45,124.88254309998592,124.88254309998592,124.88254309998592,124.88254309998592,124.88254309998592,124.88254309998592,124.88254309998592,124.88254309998592,124.88254309998592,125.24891720002051,125.24891720002051,125.24891720002051,125.24891720002051,125.24891720002051,125.24891720002051,125.24891720002051,125.24891720002051,125.24891720002051,23,0,,,125.24891720002051,125.45633339998312,0.0,125.45633339998312,1,0.0,0,0,1000,num_4,0.6565905999741517,,23,6,2026-03-04_13h46.14.710,2026A_exp2,2022.2.4,59.93486280446282,
1000,1,4.9,6.1,0,0,25,25,59,,,,,126.13319060002686,126.78375890001189,126.78375890001189,127.28500859998167,45,45,127.28500859998167,127.28500859998167,127.28500859998167,127.28500859998167,127.28500859998167,127.28500859998167,127.28500859998167,127.28500859998167,127.28500859998167,127.63492969999788,127.63492969999788,127.63492969999788,127.63492969999788,127.63492969999788,127.63492969999788,127.63492969999788,127.63492969999788,127.63492969999788,22,0,,,127.63492969999788,127.85088400001405,1000,127.85088400001405,1000,1000,1000,1000,1,num_2,0.5422271999996156,,23,6,2026-03-04_13h46.14.710,2026A_exp2,2022.2.4,59.93486280446282,
1,0,4.9,0.0,0,0,26,26,19,,,,,128.4189121000236,129.06947739998577,129.06947739998577,129.58648589998484,315,45,129.58648589998484,129.58648589998484,129.58648589998484,129.58648589998484,129.58648589998484,129.58648589998484,129.58648589998484,129.58648589998484,129.58648589998484,129.937070999993,129.937070999993,129.937070999993,129.937070999993,129.937070999993,129.937070999993,129.937070999993,129.937070999993,129.937070999993,11,1,[0.1800717000151053],[0.36399330000858754],129.937070999993,130.13719420001144,4.9,130.13719420001144,1,4.9,1,1,1000,num_4,1.0313688999740407,,23,6,2026-03-04_13h46.14.710,2026A_exp2,2022.2.4,59.93486280446282,
1,0,4.9,0.0,0,0,27,27,47,,,,,131.18824190000305,131.83885639999062,131.83885639999062,132.32331850001356,45,45,132.32331850001356,132.32331850001356,132.32331850001356,132.32331850001356,132.32331850001356,132.32331850001356,132.32331850001356,132.32331850001356,132.32331850001356,132.68985460000113,132.68985460000113,132.68985460000113,132.68985460000113,132.68985460000113,132.68985460000113,132.68985460000113,132.68985460000113,132.68985460000113,23,0,,,132.68985460000113,132.88996770000085,4.9,132.88996770000085,1,4.9,1,1,1000,num_4,0.6709486999898218,,23,6,2026-03-04_13h46.14.710,2026A_exp2,2022.2.4,59.93486280446282,
0,0,4.9,6.1,0,0,28,28,1,,,,,133.59060190001037,134.22451810003258,134.22451810003258,134.72578410001006,45,315,134.72578410001006,134.72578410001006,134.72578410001006,134.72578410001006,134.72578410001006,134.72578410001006,134.72578410001006,134.72578410001006,134.72578410001006,135.09218799998052,135.09218799998052,135.09218799998052,135.09218799998052,135.09218799998052,135.09218799998052,135.09218799998052,135.09218799998052,135.09218799998052,14,1,[0.233766499964986],[0.36721549998037517],135.09218799998052,135.292274300009,6.1,135.292274300009,1,6.1,1,1,1000,num_4,0.6774729999597184,,23,6,2026-03-04_13h46.14.710,2026A_exp2,2022.2.4,59.93486280446282,
1000,1,6.1,0.0,1,0,29,29,71,,,,,135.99289430002682,136.64367479999783,136.64367479999783,137.1281831000233,315,45,137.1281831000233,137.1281831000233,137.1281831000233,137.1281831000233,137.1281831000233,137.1281831000233,137.1281831000233,137.1281831000233,137.1281831000233,137.494666100014,137.494666100014,137.494666100014,137.494666100014,137.494666100014,137.494666100014,137.494666100014,137.494666100014,137.494666100014,0,1,[0.0012312000035308301],[0.3671151999733411],137.494666100014,137.69711320003262,1000,137.69711320003262,1000,1000,1000,1000,1,num_2,0.7041363000171259,,23,6,2026-03-04_13h46.14.710,2026A_exp2,2022.2.4,59.93486280446282,
1,0,6.1,0.0,1,0,30,30,41,,,,,138.4287129000295,139.0794965000241,139.0794965000241,139.56397100002505,45,315,139.56397100002505,139.56397100002505,139.56397100002505,139.56397100002505,139.56397100002505,139.56397100002505,139.56397100002505,139.56397100002505,139.56397100002505,139.9304118999862,139.9304118999862,139.9304118999862,139.9304118999862,139.9304118999862,139.9304118999862,139.9304118999862,139.9304118999862,139.9304118999862,18,2,"[0.001201000006403774, 0.36721490003401414]","[0.06696490000467747, 0.36721990001387894]",139.9304118999862,140.1306004000362,0.0,140.1306004000362,0,0.0,0,1,1000,num_1,0.7499500999692827,,23,6,2026-03-04_13h46.14.710,2026A_exp2,2022.2.4,59.93486280446282,
1000,1,4.9,3.7,1,0,31,31,46,,,,,140.89785519998986,141.54852330003632,141.54852330003632,142.03302420000546,45,315,142.03302420000546,142.03302420000546,142.03302420000546,142.03302420000546,142.03302420000546,142.03302420000546,142.03302420000546,142.03302420000546,142.03302420000546,142.39949059998617,142.39949059998617,142.39949059998617,142.39949059998617,142.39949059998617,142.39949059998617,142.39949059998617,142.39949059998617,142.39949059998617,9,2,"[0.13384029996814206, 0.16733049997128546]","[0.15068610000889748, 0.36761030001798645]",142.39949059998617,142.60184900002787,1000,142.60184900002787,1000,1000,1000,1000,0,num_3,0.9993978000129573,,23,6,2026-03-04_13h46.14.710,2026A_exp2,2022.2.4,59.93486280446282,
1000,1,0.0,0.0,1,0,32,32,78,,,,,143.61740240000654,144.2679793999996,144.2679793999996,144.76926590001676,45,315,144.76926590001676,144.76926590001676,144.76926590001676,144.76926590001676,144.76926590001676,144.76926590001676,144.76926590001676,144.76926590001676,144.76926590001676,145.1355584000121,145.1355584000121,145.1355584000121,145.1355584000121,145.1355584000121,145.1355584000121,145.1355584000121,145.1355584000121,145.1355584000121,19,1,[0.00120599998626858],[0.06676319998223335],145.1355584000121,145.3376280000084,1000,145.3376280000084,1000,1000,1000,1000,0,num_3,1.3359040999785066,,23,6,2026-03-04_13h46.14.710,2026A_exp2,2022.2.4,59.93486280446282,
0,0,0.0,0.0,0,0,33,33,20,,,,,146.7038338999846,147.3378068000311,147.3378068000311,147.83893830003217,315,315,147.83893830003217,147.83893830003217,147.83893830003217,147.83893830003217,147.83893830003217,147.83893830003217,147.83893830003217,147.83893830003217,147.83893830003217,148.20534500002395,148.20534500002395,148.20534500002395,148.20534500002395,148.20534500002395,148.20534500002395,148.20534500002395,148.20534500002395,148.20534500002395,0,1,[0.001213999988976866],[0.3672281000181101],148.20534500002395,148.41962000000058,0.0,148.41962000000058,1,0.0,0,0,1000,num_4,1.7975983999785967,,23,6,2026-03-04_13h46.14.710,2026A_exp2,2022.2.4,59.93486280446282,
0,0,0.0,6.1,0,0,34,34,30,,,,,150.24069589999272,150.89121030003298,150.89121030003298,151.37577690003673,315,45,151.37577690003673,151.37577690003673,151.37577690003673,151.37577690003673,151.37577690003673,151.37577690003673,151.37577690003673,151.37577690003673,151.37577690003673,151.74224540003343,151.74224540003343,151.74224540003343,151.74224540003343,151.74224540003343,151.74224540003343,151.74224540003343,151.74224540003343,151.74224540003343,23,0,,,151.74224540003343,151.94246659998316,6.1,151.94246659998316,0,6.1,1,0,1000,num_1,1.8261289999936707,,23,6,2026-03-04_13h46.14.710,2026A_exp2,2022.2.4,59.93486280446282,
1000,1,6.1,0.0,1,0,35,35,61,,,,,153.7942064999952,154.4447062999825,154.4447062999825,154.92933910002466,45,45,154.92933910002466,154.92933910002466,154.92933910002466,154.92933910002466,154.92933910002466,154.92933910002466,154.92933910002466,154.92933910002466,154.92933910002466,155.29573000001255,155.29573000001255,155.29573000001255,155.29573000001255,155.29573000001255,155.29573000001255,155.29573000001255,155.29573000001255,155.29573000001255,23,0,,,155.29573000001255,155.49843149998924,1000,155.49843149998924,1000,1000,1000,1000,0,num_3,0.622250400017947,,23,6,2026-03-04_13h46.14.710,2026A_exp2,2022.2.4,59.93486280446282,
1,0,0.0,6.1,1,0,36,36,17,,,,,156.14679810003145,156.79728500003694,156.79728500003694,157.29838860000018,315,315,157.29838860000018,157.29838860000018,157.29838860000018,157.29838860000018,157.29838860000018,157.29838860000018,157.29838860000018,157.29838860000018,157.29838860000018,157.64789920003386,157.64789920003386,157.64789920003386,157.64789920003386,157.64789920003386,157.64789920003386,157.64789920003386,157.64789920003386,157.64789920003386,0,1,[0.0012276999768801033],[0.35059350001392886],157.64789920003386,157.84836599999107,6.1,157.84836599999107,1,6.1,1,1,1000,num_4,0.6573038999922574,,23,6,2026-03-04_13h46.14.710,2026A_exp2,2022.2.4,59.93486280446282,
1000,1,0.0,0.0,0,0,37,37,33,,,,,158.5321949000354,159.18293260002974,159.18293260002974,159.66742509999312,315,45,159.66742509999312,159.66742509999312,159.66742509999312,159.66742509999312,159.66742509999312,159.66742509999312,159.66742509999312,159.66742509999312,159.66742509999312,160.03386690001935,160.03386690001935,160.03386690001935,160.03386690001935,160.03386690001935,160.03386690001935,160.03386690001935,160.03386690001935,160.03386690001935,21,1,[0.0012451999937184155],[0.033400600019376725],160.03386690001935,160.23702470003627,1000,160.23702470003627,1000,1000,1000,1000,1,num_2,1.2679612999781966,,23,6,2026-03-04_13h46.14.710,2026A_exp2,2022.2.4,59.93486280446282,
1,0,4.9,6.1,1,0,38,38,62,,,,,161.5352620999911,162.18597779999254,162.18597779999254,162.68698450003285,45,315,162.68698450003285,162.68698450003285,162.68698450003285,162.68698450003285,162.68698450003285,162.68698450003285,162.68698450003285,162.68698450003285,162.68698450003285,163.05331200000364,163.05331200000364,163.05331200000364,163.05331200000364,163.05331200000364,163.05331200000364,163.05331200000364,163.05331200000364,163.05331200000364,2,1,[0.033581399999093264],[0.3668616999639198],163.05331200000364,163.2536724000238,6.1,163.2536724000238,1,6.1,1,1,1000,num_4,0.6511183000402525,,23,6,2026-03-04_13h46.14.710,2026A_exp2,2022.2.4,59.93486280446282,
1,0,6.1,4.9,1,0,39,39,38,,,,,163.92096730001504,164.5716152000241,164.5716152000241,165.0560057000257,315,45,165.0560057000257,165.0560057000257,165.0560057000257,165.0560057000257,165.0560057000257,165.0560057000257,165.0560057000257,165.0560057000257,165.0560057000257,165.42234709998593,165.42234709998593,165.42234709998593,165.42234709998593,165.42234709998593,165.42234709998593,165.42234709998593,165.42234709998593,165.42234709998593,23,0,,,165.42234709998593,165.62279870000202,4.9,165.62279870000202,1,4.9,1,1,1000,num_4,1.1617540000006557,,23,6,2026-03-04_13h46.14.710,2026A_exp2,2022.2.4,59.93486280446282,
0,0,0.0,6.1,1,0,40,40,84,,,,,166.80705210001906,167.44111770001473,167.44111770001473,167.94236190000083,315,315,167.94236190000083,167.94236190000083,167.94236190000083,167.94236190000083,167.94236190000083,167.94236190000083,167.94236190000083,167.94236190000083,167.94236190000083,168.30866730003618,168.30866730003618,168.30866730003618,168.30866730003618,168.30866730003618,168.30866730003618,168.30866730003618,168.30866730003618,168.30866730003618,23,0,,,168.30866730003618,168.50890449999133,0.0,168.50890449999133,0,0.0,0,1,1000,num_1,1.3476665999623947,,23,6,2026-03-04_13h46.14.710,2026A_exp2,2022.2.4,59.93486280446282,
1000,1,3.7,0.0,0,0,41,41,28,,,,,169.8766490999842,170.52763830003096,170.52763830003096,171.02878679998685,45,315,171.02878679998685,171.02878679998685,171.02878679998685,171.02878679998685,171.02878679998685,171.02878679998685,171.02878679998685,171.02878679998685,171.02878679998685,171.3950922000222,171.3950922000222,171.3950922000222,171.3950922000222,171.3950922000222,171.3950922000222,171.3950922000222,171.3950922000222,171.3950922000222,19,2,"[0.16709400003310293, 0.21727939997799695]","[0.18374890001723543, 0.2504320000298321]",171.3950922000222,171.59698760003084,1000,171.59698760003084,1000,1000,1000,1000,0,num_3,0.4840519999852404,,23,6,2026-03-04_13h46.14.710,2026A_exp2,2022.2.4,59.93486280446282,
1000,1,0.0,4.9,1,0,42,42,51,,,,,172.11224630003562,172.763148500002,172.763148500002,173.26420189999044,315,315,173.26420189999044,173.26420189999044,173.26420189999044,173.26420189999044,173.26420189999044,173.26420189999044,173.26420189999044,173.26420189999044,173.26420189999044,173.61411870003212,173.61411870003212,173.61411870003212,173.61411870003212,173.61411870003212,173.61411870003212,173.61411870003212,173.61411870003212,173.61411870003212,0,1,[0.0012796999653801322],[0.35043220000807196],173.61411870003212,173.81591669999762,1000,173.83095640002284,1000,1000,1000,1000,1,num_2,0.7621931999456137,,23,6,2026-03-04_13h46.14.710,2026A_exp2,2022.2.4,59.93486280446282,
1,0,0.0,0.0,1,0,43,43,42,,,,,174.61498579999898,175.26574649999384,175.26574649999384,175.766862199991,45,315,175.766862199991,175.766862199991,175.766862199991,175.766862199991,175.766862199991,175.766862199991,175.766862199991,175.766862199991,175.766862199991,176.11650950001786,176.11650950001786,176.11650950001786,176.11650950001786,176.11650950001786,176.11650950001786,176.11650950001786,176.11650950001786,176.11650950001786,0,1,[0.001296199974603951],[0.3506229000049643],176.11650950001786,176.3168518000166,0.0,176.33329560002312,1,0.0,0,0,1000,num_4,0.8992704999982379,,23,6,2026-03-04_13h46.14.710,2026A_exp2,2022.2.4,59.93486280446282,
1,0,0.0,3.7,1,0,44,44,83,,,,,177.25098349998007,177.90164009999717,177.90164009999717,178.38613290002104,315,315,178.38613290002104,178.38613290002104,178.38613290002104,178.38613290002104,178.38613290002104,178.38613290002104,178.38613290002104,178.38613290002104,178.38613290002104,178.7525512999855,178.7525512999855,178.7525512999855,178.7525512999855,178.7525512999855,178.7525512999855,178.7525512999855,178.7525512999855,178.7525512999855,1,2,"[0.0012365999864414334, 0.33378789998823777]","[0.31697519996669143, 0.3671099999919534]",178.7525512999855,178.95259990001796,3.7,178.95259990001796,1,3.7,1,1,1000,num_4,0.9439797000377439,,23,6,2026-03-04_13h46.14.710,2026A_exp2,2022.2.4,59.93486280446282,
1,0,0.0,3.7,0,0,45,45,34,,,,,179.92020420002518,180.57099740003468,180.57099740003468,181.05537790001836,315,315,181.05537790001836,181.05537790001836,181.05537790001836,181.05537790001836,181.05537790001836,181.05537790001836,181.05537790001836,181.05537790001836,181.05537790001836,181.42185530002462,181.42185530002462,181.42185530002462,181.42185530002462,181.42185530002462,181.42185530002462,181.42185530002462,181.42185530002462,181.42185530002462,5,3,"[0.0012201000354252756, 0.06692070001736283, 0.1502023000502959]","[0.05012980004539713, 0.08354130003135651, 0.367268200032413]",181.42185530002462,181.62206040002638,0.0,181.62206040002638,0,0.0,0,1,1000,num_1,1.4433485000045039,,23,6,2026-03-04_13h46.14.710,2026A_exp2,2022.2.4,59.93486280446282,
0,0,3.7,0.0,0,0,46,46,16,,,,,183.0900553999818,183.74071630003164,183.74071630003164,184.2253006999963,315,315,184.2253006999963,184.2253006999963,184.2253006999963,184.2253006999963,184.2253006999963,184.2253006999963,184.2253006999963,184.2253006999963,184.2253006999963,184.59170560003258,184.59170560003258,184.59170560003258,184.59170560003258,184.59170560003258,184.59170560003258,184.59170560003258,184.59170560003258,184.59170560003258,4,3,"[0.0012588999816216528, 0.033369500015396625, 0.11681460001273081]","[0.01733339997008443, 0.0667754000169225, 0.36701789998915046]",184.59170560003258,184.79192749998765,0.0,184.79192749998765,1,0.0,0,0,1000,num_4,1.610068699985277,,23,6,2026-03-04_13h46.14.710,2026A_exp2,2022.2.4,59.93486280446282,
1,0,3.7,3.7,0,0,47,47,69,,,,,186.42674920003628,187.07749779999722,187.07749779999722,187.57731860002968,45,45,187.57731860002968,187.57731860002968,187.57731860002968,187.57731860002968,187.57731860002968,187.57731860002968,187.57731860002968,187.57731860002968,187.57731860002968,187.9284384000348,187.9284384000348,187.9284384000348,187.9284384000348,187.9284384000348,187.9284384000348,187.9284384000348,187.9284384000348,187.9284384000348,0,1,[0.004439900047145784],[0.36550150002585724],187.9284384000348,188.132558399986,3.7,188.132558399986,1,3.7,1,1,1000,num_4,0.8129151999601163,,23,6,2026-03-04_13h46.14.710,2026A_exp2,2022.2.4,59.93486280446282,
1,0,0.0,0.0,1,0,48,48,56,,,,,188.96257309999783,189.62483270000666,189.62483270000666,190.1144903000095,45,45,190.1144903000095,190.1144903000095,190.1144903000095,190.1144903000095,190.1144903000095,190.1144903000095,190.1144903000095,190.1144903000095,190.1144903000095,190.46424750000006,190.46424750000006,190.46424750000006,190.46424750000006,190.46424750000006,190.46424750000006,190.46424750000006,190.46424750000006,190.46424750000006,19,2,"[0.10025099996710196, 0.33343180001247674]","[0.11691439995774999, 0.3502174000022933]",190.46424750000006,190.66449130000547,0.0,190.66449130000547,1,0.0,0,0,1000,num_4,1.8810197000275366,,23,6,2026-03-04_13h46.14.710,2026A_exp2,2022.2.4,59.93486280446282,
1,0,6.1,3.7,0,0,49,49,79,,,,,192.5662437999854,193.21693930000765,193.21693930000765,193.70148620003602,315,315,193.70148620003602,193.70148620003602,193.70148620003602,193.70148620003602,193.70148620003602,193.70148620003602,193.70148620003602,193.70148620003602,193.70148620003602,194.06783459999133,194.06783459999133,194.06783459999133,194.06783459999133,194.06783459999133,194.06783459999133,194.06783459999133,194.06783459999133,194.06783459999133,10,3,"[0.0008868000004440546, 0.033744299958925694, 0.10039859998505563]","[0.017674900009296834, 0.05049549997784197, 0.284168399986811]",194.06783459999133,194.26809239998693,6.1,194.26809239998693,1,6.1,1,1,1000,num_4,0.6686730000074022,,23,6,2026-03-04_13h46.14.710,2026A_exp2,2022.2.4,59.93486280446282,
1,0,0.0,0.0,0,0,50,50,31,,,,,194.96878789999755,195.61933590000262,195.61933590000262,196.1038106000051,45,45,196.1038106000051,196.1038106000051,196.1038106000051,196.1038106000051,196.1038106000051,196.1038106000051,196.1038106000051,196.1038106000051,196.1038106000051,196.47026550001465,196.47026550001465,196.47026550001465,196.47026550001465,196.47026550001465,196.47026550001465,196.47026550001465,196.47026550001465,196.47026550001465,3,1,[0.05016409995732829],[0.36715969996294007],196.47026550001465,196.67039109999314,0.0,196.67039109999314,1,0.0,0,0,1000,num_4,0.714170599996578,,23,6,2026-03-04_13h46.14.710,2026A_exp2,2022.2.4,59.93486280446282,
0,0,3.7,0.0,1,0,51,51,0,,,,,197.40438680001535,198.0550367999822,198.0550367999822,198.53942540002754,315,45,198.53942540002754,198.53942540002754,198.53942540002754,198.53942540002754,198.53942540002754,198.53942540002754,198.53942540002754,198.53942540002754,198.53942540002754,198.90604540001368,198.90604540001368,198.90604540001368,198.90604540001368,198.90604540001368,198.90604540001368,198.90604540001368,198.90604540001368,198.90604540001368,23,0,,,198.90604540001368,199.10620680003194,3.7,199.10620680003194,0,3.7,1,0,1000,num_1,1.5752167999744415,,23,6,2026-03-04_13h46.14.710,2026A_exp2,2022.2.4,59.93486280446282,
1,0,0.0,6.1,1,0,52,52,39,,,,,200.70796100003645,201.35848540003644,201.35848540003644,201.8428997999872,315,315,201.8428997999872,201.8428997999872,201.8428997999872,201.8428997999872,201.8428997999872,201.8428997999872,201.8428997999872,201.8428997999872,201.8428997999872,202.2089130000095,202.2089130000095,202.2089130000095,202.2089130000095,202.2089130000095,202.2089130000095,202.2089130000095,202.2089130000095,202.2089130000095,23,0,,,202.2089130000095,202.40953370003263,6.1,202.40953370003263,1,6.1,1,1,1000,num_4,0.5988683000323363,,23,6,2026-03-04_13h46.14.710,2026A_exp2,2022.2.4,59.93486280446282,
1000,1,0.0,6.1,0,0,53,53,5,,,,,203.02658890001476,203.67741449997993,203.67741449997993,204.1618928000098,45,45,204.1618928000098,204.1618928000098,204.1618928000098,204.1618928000098,204.1618928000098,204.1618928000098,204.1618928000098,204.1618928000098,204.1618928000098,204.52831920003518,204.52831920003518,204.52831920003518,204.52831920003518,204.52831920003518,204.52831920003518,204.52831920003518,204.52831920003518,204.52831920003518,16,3,"[0.21708289999514818, 0.2506334999925457, 0.3671085999812931]","[0.2338484000065364, 0.3506273999810219, 0.36711320001631975]",204.52831920003518,204.73071010003332,1000,204.73071010003332,1000,1000,1000,1000,1,num_2,0.8538229000405408,,23,6,2026-03-04_13h46.14.710,2026A_exp2,2022.2.4,59.93486280446282,
1000,1,4.9,3.7,0,0,54,54,26,,,,,205.61245140002575,206.26334340003086,206.26334340003086,206.76448930002516,315,45,206.76448930002516,206.76448930002516,206.76448930002516,206.76448930002516,206.76448930002516,206.76448930002516,206.76448930002516,206.76448930002516,206.76448930002516,207.114323900023,207.114323900023,207.114323900023,207.114323900023,207.114323900023,207.114323900023,207.114323900023,207.114323900023,207.114323900023,0,1,[0.0012082000030204654],[0.3500869999988936],207.114323900023,207.31614539999282,1000,207.31614539999282,1000,1000,1000,1000,1,num_2,0.6055314000113867,,23,6,2026-03-04_13h46.14.710,2026A_exp2,2022.2.4,59.93486280446282,
1000,1,0.0,3.7,0,0,55,55,21,,,,,207.9483585000271,208.59890390001237,208.59890390001237,209.1000795,315,315,209.1000795,209.1000795,209.1000795,209.1000795,209.1000795,209.1000795,209.1000795,209.1000795,209.1000795,209.46645569999237,209.46645569999237,209.46645569999237,209.46645569999237,209.46645569999237,209.46645569999237,209.46645569999237,209.46645569999237,209.46645569999237,16,2,"[0.001289099978748709, 0.3504588999785483]","[0.0835112999775447, 0.3670439999550581]",209.46645569999237,209.6681861000252,1000,209.6681861000252,1000,1000,1000,1000,1,num_2,0.4930488999816589,,23,6,2026-03-04_13h46.14.710,2026A_exp2,2022.2.4,59.93486280446282,
1000,1,0.0,0.0,1,0,56,56,80,,,,,210.1838965000352,210.83461200003512,210.83461200003512,211.33574479998788,45,45,211.33574479998788,211.33574479998788,211.33574479998788,211.33574479998788,211.33574479998788,211.33574479998788,211.33574479998788,211.33574479998788,211.33574479998788,211.70210090000182,211.70210090000182,211.70210090000182,211.70210090000182,211.70210090000182,211.70210090000182,211.70210090000182,211.70210090000182,211.70210090000182,14,6,"[0.0012045000330545008, 0.06685230002040043, 0.15031400002771989, 0.21701419999590144, 0.25031810003565624, 0.30049550003604963]","[0.03356400004122406, 0.10027340002125129, 0.2004118000040762, 0.2335993000306189, 0.2672040000325069, 0.31711350003024563]",211.70210090000182,211.9039858999895,1000,211.9039858999895,1000,1000,1000,1000,0,num_3,0.5854872000054456,,23,6,2026-03-04_13h46.14.710,2026A_exp2,2022.2.4,59.93486280446282,
1000,1,4.9,6.1,0,0,57,57,35,,,,,212.51953089999733,213.17023990000598,213.17023990000598,213.67154880001908,315,45,213.67154880001908,213.67154880001908,213.67154880001908,213.67154880001908,213.67154880001908,213.67154880001908,213.67154880001908,213.67154880001908,213.67154880001908,214.03781140001956,214.03781140001956,214.03781140001956,214.03781140001956,214.03781140001956,214.03781140001956,214.03781140001956,214.03781140001956,214.03781140001956,23,0,,,214.03781140001956,214.2404240000178,1000,214.2404240000178,1000,1000,1000,1000,1,num_2,0.624548899999354,,23,6,2026-03-04_13h46.14.710,2026A_exp2,2022.2.4,59.93486280446282,
1000,1,3.7,3.7,0,0,58,58,76,,,,,214.88874050002778,215.53937030001543,215.53937030001543,216.0237534000189,315,315,216.0237534000189,216.0237534000189,216.0237534000189,216.0237534000189,216.0237534000189,216.0237534000189,216.0237534000189,216.0237534000189,216.0237534000189,216.40685090003535,216.40685090003535,216.40685090003535,216.40685090003535,216.40685090003535,216.40685090003535,216.40685090003535,216.40685090003535,216.40685090003535,0,1,[0.001251300040166825],[0.3834117000224069],216.40685090003535,216.60909069998888,1000,216.60909069998888,1000,1000,1000,1000,1,num_2,0.42369790002703667,,23,6,2026-03-04_13h46.14.710,2026A_exp2,2022.2.4,59.93486280446282,
1,0,0.0,4.9,1,0,59,59,2,,,,,217.05754290003097,217.7080721000093,217.7080721000093,218.20927410002332,315,45,218.20927410002332,218.20927410002332,218.20927410002332,218.20927410002332,218.20927410002332,218.20927410002332,218.20927410002332,218.20927410002332,218.20927410002332,218.57565010001417,218.57565010001417,218.57565010001417,218.57565010001417,218.57565010001417,218.57565010001417,218.57565010001417,218.57565010001417,218.57565010001417,13,1,[0.001261299999896437],[0.1667351999785751],218.57565010001417,218.7759196999832,4.9,218.7759196999832,1,4.9,1,1,1000,num_4,0.744857800018508,,23,6,2026-03-04_13h46.14.710,2026A_exp2,2022.2.4,59.93486280446282,
1000,1,0.0,4.9,0,0,60,60,50,,,,,219.54332699999213,220.193889999995,220.193889999995,220.67841009999393,315,45,220.67841009999393,220.67841009999393,220.67841009999393,220.67841009999393,220.67841009999393,220.67841009999393,220.67841009999393,220.67841009999393,220.67841009999393,221.04470780002885,221.04470780002885,221.04470780002885,221.04470780002885,221.04470780002885,221.04470780002885,221.04470780002885,221.04470780002885,221.04470780002885,23,0,,,221.04470780002885,221.24679020000622,1000,221.24679020000622,1000,1000,1000,1000,1,num_2,1.0910534000140615,,23,6,2026-03-04_13h46.14.710,2026A_exp2,2022.2.4,59.93486280446282,
1,0,4.9,4.9,1,0,61,61,32,,,,,222.3627791000181,223.0134049000335,223.0134049000335,223.51445200003218,315,45,223.51445200003218,223.51445200003218,223.51445200003218,223.51445200003218,223.51445200003218,223.51445200003218,223.51445200003218,223.51445200003218,223.51445200003218,223.8808982000337,223.8808982000337,223.8808982000337,223.8808982000337,223.8808982000337,223.8808982000337,223.8808982000337,223.8808982000337,223.8808982000337,1,1,[0.017342700040899217],[0.3673135000281036],223.8808982000337,224.08115929999622,4.9,224.08115929999622,1,4.9,1,1,1000,num_4,0.6161455999827012,,23,6,2026-03-04_13h46.14.710,2026A_exp2,2022.2.4,59.93486280446282,
1000,1,4.9,0.0,0,0,62,62,82,,,,,224.7158752999967,225.34909440000774,225.34909440000774,225.85025660000974,315,45,225.85025660000974,225.85025660000974,225.85025660000974,225.85025660000974,225.85025660000974,225.85025660000974,225.85025660000974,225.85025660000974,225.85025660000974,226.2164916000329,226.2164916000329,226.2164916000329,226.2164916000329,226.2164916000329,226.2164916000329,226.2164916000329,226.2164916000329,226.2164916000329,23,0,,,226.2164916000329,226.41669310000725,1000,226.41669310000725,1000,1000,1000,1000,0,num_3,1.2242542000021785,,23,6,2026-03-04_13h46.14.710,2026A_exp2,2022.2.4,59.93486280446282,
1000,1,0.0,3.7,0,0,63,63,18,,,,,227.66828149999492,228.31831469997996,228.31831469997996,228.80276069999672,45,315,228.80276069999672,228.80276069999672,228.80276069999672,228.80276069999672,228.80276069999672,228.80276069999672,228.80276069999672,228.80276069999672,228.80276069999672,229.16929180000443,229.16929180000443,229.16929180000443,229.16929180000443,229.16929180000443,229.16929180000443,229.16929180000443,229.16929180000443,229.16929180000443,23,0,,,229.16929180000443,229.36955420003505,1000,229.36955420003505,1000,1000,1000,1000,1,num_2,0.3836447999929078,,23,6,2026-03-04_13h46.14.710,2026A_exp2,2022.2.4,59.93486280446282,
0,0,0.0,0.0,0,0,64,64,10,,,,,229.76987180003198,230.4045559000224,230.4045559000224,230.90512280003168,45,315,230.90512280003168,230.90512280003168,230.90512280003168,230.90512280003168,230.90512280003168,230.90512280003168,230.90512280003168,230.90512280003168,230.90512280003168,231.27155489998404,231.27155489998404,231.27155489998404,231.27155489998404,231.27155489998404,231.27155489998404,231.27155489998404,231.27155489998404,231.27155489998404,15,1,[0.2501541000092402],[0.36712020001141354],231.27155489998404,231.47241530002793,0.0,231.47241530002793,0,0.0,0,1,1000,num_1,2.624286799982656,,23,6,2026-03-04_13h46.14.710,2026A_exp2,2022.2.4,59.93486280446282,
1,0,3.7,0.0,0,0,65,65,15,,,,,234.124502199993,234.7752613000339,234.7752613000339,235.25960220000707,45,45,235.25960220000707,235.25960220000707,235.25960220000707,235.25960220000707,235.25960220000707,235.25960220000707,235.25960220000707,235.25960220000707,235.25960220000707,235.62587480002549,235.62587480002549,235.62587480002549,235.62587480002549,235.62587480002549,235.62587480002549,235.62587480002549,235.62587480002549,235.62587480002549,23,0,,,235.62587480002549,235.8261952000321,3.7,235.8261952000321,1,3.7,1,1,1000,num_4,1.206893199996557,,23,6,2026-03-04_13h46.14.710,2026A_exp2,2022.2.4,59.93486280446282,
1,0,6.1,0.0,1,0,66,66,53,,,,,237.06068310001865,237.71144959999947,237.71144959999947,238.1959513000329,315,315,238.1959513000329,238.1959513000329,238.1959513000329,238.1959513000329,238.1959513000329,238.1959513000329,238.1959513000329,238.1959513000329,238.1959513000329,238.56226720003178,238.56226720003178,238.56226720003178,238.56226720003178,238.56226720003178,238.56226720003178,238.56226720003178,238.56226720003178,238.56226720003178,23,0,,,238.56226720003178,238.76255400001537,0.0,238.76255400001537,0,0.0,0,1,1000,num_1,1.422447400051169,,23,6,2026-03-04_13h46.14.710,2026A_exp2,2022.2.4,59.93486280446282,
1000,1,3.7,0.0,1,0,67,67,54,,,,,240.21392200002447,240.86464330001036,240.86464330001036,241.34907749999547,315,45,241.34907749999547,241.34907749999547,241.34907749999547,241.34907749999547,241.34907749999547,241.34907749999547,241.34907749999547,241.34907749999547,241.34907749999547,241.71549349999987,241.71549349999987,241.71549349999987,241.71549349999987,241.71549349999987,241.71549349999987,241.71549349999987,241.71549349999987,241.71549349999987,15,1,[0.25045769999269396],[0.36720510001759976],241.71549349999987,241.91810230002739,1000,241.91810230002739,1000,1000,1000,1000,1,num_2,0.5463126000249758,,23,6,2026-03-04_13h46.14.710,2026A_exp2,2022.2.4,59.93486280446282,
1000,1,0.0,0.0,1,0,68,68,63,,,,,242.48301070003072,243.13347320002504,243.13347320002504,243.63471980002942,45,315,243.63471980002942,243.63471980002942,243.63471980002942,243.63471980002942,243.63471980002942,243.63471980002942,243.63471980002942,243.63471980002942,243.63471980002942,244.00102540000807,244.00102540000807,244.00102540000807,244.00102540000807,244.00102540000807,244.00102540000807,244.00102540000807,244.00102540000807,244.00102540000807,23,0,,,244.00102540000807,244.20330910000484,1000,244.20330910000484,1000,1000,1000,1000,0,num_3,0.86924159998307,,23,6,2026-03-04_13h46.14.710,2026A_exp2,2022.2.4,59.93486280446282,
1000,1,0.0,6.1,1,0,69,69,40,,,,,245.10218779998831,245.75293100002455,245.75293100002455,246.2538566000294,45,45,246.2538566000294,246.2538566000294,246.2538566000294,246.2538566000294,246.2538566000294,246.2538566000294,246.2538566000294,246.2538566000294,246.2538566000294,246.60366070002783,246.60366070002783,246.60366070002783,246.60366070002783,246.60366070002783,246.60366070002783,246.60366070002783,246.60366070002783,246.60366070002783,22,0,,,246.60366070002783,246.80610190000152,1000,246.80610190000152,1000,1000,1000,1000,1,num_2,0.47537579998606816,,23,6,2026-03-04_13h46.14.710,2026A_exp2,2022.2.4,59.93486280446282,
1,0,0.0,0.0,1,0,70,70,66,,,,,247.30473109998275,247.9550939000328,247.9550939000328,248.456101400021,45,315,248.456101400021,248.456101400021,248.456101400021,248.456101400021,248.456101400021,248.456101400021,248.456101400021,248.456101400021,248.456101400021,248.82260419998784,248.82260419998784,248.82260419998784,248.82260419998784,248.82260419998784,248.82260419998784,248.82260419998784,248.82260419998784,248.82260419998784,23,0,,,248.82260419998784,249.02279830002226,0.0,249.02279830002226,1,0.0,0,0,1000,num_4,0.626986899995245,,23,6,2026-03-04_13h46.14.710,2026A_exp2,2022.2.4,59.93486280446282,
1,0,4.9,0.0,1,0,71,71,52,,,,,249.67345569998724,250.32399479998276,250.32399479998276,250.82499579997966,45,315,250.82499579997966,250.82499579997966,250.82499579997966,250.82499579997966,250.82499579997966,250.82499579997966,250.82499579997966,250.82499579997966,250.82499579997966,251.17498010001145,251.17498010001145,251.17498010001145,251.17498010001145,251.17498010001145,251.17498010001145,251.17498010001145,251.17498010001145,251.17498010001145,7,2,"[0.0007605999708175659, 0.28413559996988624]","[0.1674648000043817, 0.3509900000062771]",251.17498010001145,251.37519679998513,0.0,251.37519679998513,0,0.0,0,1,1000,num_1,1.6982723000110127,,23,6,2026-03-04_13h46.14.710,2026A_exp2,2022.2.4,59.93486280446282,
1000,1,6.1,3.7,0,0,72,72,43,,,,,253.09341249999125,253.74411100003636,253.74411100003636,254.22850430000108,45,315,254.22850430000108,254.22850430000108,254.22850430000108,254.22850430000108,254.22850430000108,254.22850430000108,254.22850430000108,254.22850430000108,254.22850430000108,254.59501190000447,254.59501190000447,254.59501190000447,254.59501190000447,254.59501190000447,254.59501190000447,254.59501190000447,254.59501190000447,254.59501190000447,23,0,,,254.59501190000447,254.79733670002315,1000,254.79733670002315,1000,1000,1000,1000,0,num_3,0.5316703999997117,,23,6,2026-03-04_13h46.14.710,2026A_exp2,2022.2.4,59.93486280446282,
1000,1,0.0,0.0,1,0,73,73,37,,,,,255.3457008000114,255.99640920001548,255.99640920001548,256.4973951000138,45,45,256.4973951000138,256.4973951000138,256.4973951000138,256.4973951000138,256.4973951000138,256.4973951000138,256.4973951000138,256.4973951000138,256.4973951000138,256.86380510003073,256.86380510003073,256.86380510003073,256.86380510003073,256.86380510003073,256.86380510003073,256.86380510003073,256.86380510003073,256.86380510003073,1,1,[0.0011983999866060913],[0.36719119996996596],256.86380510003073,257.0661048000329,1000,257.0661048000329,1000,1000,1000,1000,1,num_2,0.6151202999753878,,23,6,2026-03-04_13h46.14.710,2026A_exp2,2022.2.4,59.93486280446282,
1,0,3.7,4.9,0,0,74,74,70,,,,,257.6981212000246,258.3486686000251,258.3486686000251,258.8497934000334,45,45,258.8497934000334,258.8497934000334,258.8497934000334,258.8497934000334,258.8497934000334,258.8497934000334,258.8497934000334,258.8497934000334,258.8497934000334,259.21623690001434,259.21623690001434,259.21623690001434,259.21623690001434,259.21623690001434,259.21623690001434,259.21623690001434,259.21623690001434,259.21623690001434,23,0,,,259.21623690001434,259.4164650000166,3.7,259.4164650000166,1,3.7,1,1,1000,num_4,0.8652784000150859,,23,6,2026-03-04_13h46.14.710,2026A_exp2,2022.2.4,59.93486280446282,
0,0,0.0,6.1,0,0,75,75,12,,,,,260.3006339999847,260.9515638999874,260.9515638999874,261.4525538000162,45,45,261.4525538000162,261.4525538000162,261.4525538000162,261.4525538000162,261.4525538000162,261.4525538000162,261.4525538000162,261.4525538000162,261.4525538000162,261.81894399999874,261.81894399999874,261.81894399999874,261.81894399999874,261.81894399999874,261.81894399999874,261.81894399999874,261.81894399999874,261.81894399999874,1,1,[0.0011905999854207039],[0.3671197999501601],261.81894399999874,262.0190548999817,6.1,262.0190548999817,1,6.1,1,1,1000,num_4,0.6303875999874435,,23,6,2026-03-04_13h46.14.710,2026A_exp2,2022.2.4,59.93486280446282,
0,0,4.9,3.7,1,0,76,76,13,,,,,262.66962729999796,263.32044300000416,263.32044300000416,263.80484699999215,315,45,263.80484699999215,263.80484699999215,263.80484699999215,263.80484699999215,263.80484699999215,263.80484699999215,263.80484699999215,263.80484699999215,263.80484699999215,264.1712456999812,264.1712456999812,264.1712456999812,264.1712456999812,264.1712456999812,264.1712456999812,264.1712456999812,264.1712456999812,264.1712456999812,2,2,"[0.0012310000020079315, 0.2170194000354968]","[0.18375640001613647, 0.3671574000036344]",264.1712456999812,264.3713947000215,4.9,264.3713947000215,1,4.9,1,1,1000,num_4,1.5815110999974422,,23,6,2026-03-04_13h46.14.710,2026A_exp2,2022.2.4,59.93486280446282,
1,0,0.0,0.0,0,0,77,77,75,,,,,265.973021599988,266.6234891000204,266.6234891000204,267.1081341999816,315,315,267.1081341999816,267.1081341999816,267.1081341999816,267.1081341999816,267.1081341999816,267.1081341999816,267.1081341999816,267.1081341999816,267.1081341999816,267.4742712000152,267.4742712000152,267.4742712000152,267.4742712000152,267.4742712000152,267.4742712000152,267.4742712000152,267.4742712000152,267.4742712000152,0,1,[0.001263100013602525],[0.36708660004660487],267.4742712000152,267.6745793999871,0.0,267.6745793999871,1,0.0,0,0,1000,num_4,0.8629055000492372,,23,6,2026-03-04_13h46.14.710,2026A_exp2,2022.2.4,59.93486280446282,
1,0,6.1,0.0,0,0,78,78,22,,,,,268.5588563000201,269.20965640002396,269.20965640002396,269.69405879999977,45,45,269.69405879999977,269.69405879999977,269.69405879999977,269.69405879999977,269.69405879999977,269.69405879999977,269.69405879999977,269.69405879999977,269.69405879999977,270.0602879000362,270.0602879000362,270.0602879000362,270.0602879000362,270.0602879000362,270.0602879000362,270.0602879000362,270.0602879000362,270.0602879000362,23,0,,,270.0602879000362,270.26054560003104,6.1,270.26054560003104,1,6.1,1,1,1000,num_4,0.6132015999755822,,23,6,2026-03-04_13h46.14.710,2026A_exp2,2022.2.4,59.93486280446282,
1000,1,0.0,3.7,1,0,79,79,7,,,,,270.8945443999837,271.54533960000845,271.54533960000845,272.02976890001446,315,315,272.02976890001446,272.02976890001446,272.02976890001446,272.02976890001446,272.02976890001446,272.02976890001446,272.02976890001446,272.02976890001446,272.02976890001446,272.3961157000158,272.3961157000158,272.3961157000158,272.3961157000158,272.3961157000158,272.3961157000158,272.3961157000158,272.3961157000158,272.3961157000158,23,0,,,272.3961157000158,272.5983639000333,1000,272.5983639000333,1000,1000,1000,1000,1,num_2,0.6915384999592789,,23,6,2026-03-04_13h46.14.710,2026A_exp2,2022.2.4,59.93486280446282,
1000,1,4.9,6.1,1,0,80,80,4,,,,,273.31364910001867,273.96435590001056,273.96435590001056,274.46543350000866,315,45,274.46543350000866,274.46543350000866,274.46543350000866,274.46543350000866,274.46543350000866,274.46543350000866,274.46543350000866,274.46543350000866,274.46543350000866,274.83187100000214,274.83187100000214,274.83187100000214,274.83187100000214,274.83187100000214,274.83187100000214,274.83187100000214,274.83187100000214,274.83187100000214,11,7,"[0.001209300011396408, 0.1336874000262469, 0.1671082000248134, 0.20043660001829267, 0.2505445000133477, 0.317275499983225, 0.36712120001902804]","[0.10038979997625574, 0.15049159998307005, 0.18379340000683442, 0.2169927000068128, 0.2673503999831155, 0.333759100001771, 0.3671250999905169]",274.83187100000214,275.03421180002624,1000,275.03421180002624,1000,1000,1000,1000,1,num_2,0.5264096999890171,,23,6,2026-03-04_13h46.14.710,2026A_exp2,2022.2.4,59.93486280446282,
1,0,0.0,0.0,1,0,81,81,60,,,,,275.5826088000322,276.2332427999936,276.2332427999936,276.7344434999977,45,45,276.7344434999977,276.7344434999977,276.7344434999977,276.7344434999977,276.7344434999977,276.7344434999977,276.7344434999977,276.7344434999977,276.7344434999977,277.08417230000487,277.08417230000487,277.08417230000487,277.08417230000487,277.08417230000487,277.08417230000487,277.08417230000487,277.08417230000487,277.08417230000487,22,0,,,277.08417230000487,277.2845910000033,0.0,277.30106259998865,1,0.0,0,0,1000,num_4,1.6835253000026569,,23,6,2026-03-04_13h46.14.710,2026A_exp2,2022.2.4,59.93486280446282,
1000,1,0.0,3.7,1,0,82,82,81,,,,,279.0026591999922,279.6533424999798,279.6533424999798,280.1378941999865,315,315,280.1378941999865,280.1378941999865,280.1378941999865,280.1378941999865,280.1378941999865,280.1378941999865,280.1378941999865,280.1378941999865,280.1378941999865,280.504247200035,280.504247200035,280.504247200035,280.504247200035,280.504247200035,280.504247200035,280.504247200035,280.504247200035,280.504247200035,23,0,,,280.504247200035,280.70444050000515,1000,280.70444050000515,1000,1000,1000,1000,1,num_2,0.48100610001711175,,23,6,2026-03-04_13h46.14.710,2026A_exp2,2022.2.4,59.93486280446282,
1000,1,0.0,0.0,1,0,83,83,27,,,,,281.20496519998414,281.85555919999024,281.85555919999024,282.3567817999865,45,45,282.3567817999865,282.3567817999865,282.3567817999865,282.3567817999865,282.3567817999865,282.3567817999865,282.3567817999865,282.3567817999865,282.3567817999865,282.72295959998155,282.72295959998155,282.72295959998155,282.72295959998155,282.72295959998155,282.72295959998155,282.72295959998155,282.72295959998155,282.72295959998155,23,0,,,282.72295959998155,282.9252498000278,1000,282.9252498000278,1000,1000,1000,1000,0,num_3,0.6117810999858193,,23,6,2026-03-04_13h46.14.710,2026A_exp2,2022.2.4,59.93486280446282,
1,0,4.9,0.0,0,0,84,84,14,,,,,283.5572367000277,284.2079162999871,284.2079162999871,284.7090247999877,315,45,284.7090247999877,284.7090247999877,284.7090247999877,284.7090247999877,284.7090247999877,284.7090247999877,284.7090247999877,284.7090247999877,284.7090247999877,285.0755152000347,285.0755152000347,285.0755152000347,285.0755152000347,285.0755152000347,285.0755152000347,285.0755152000347,285.0755152000347,285.0755152000347,23,0,,,285.0755152000347,285.2757753999904,4.9,285.2757753999904,1,4.9,1,1,1000,num_4,0.5092188999988139,,23,6,2026-03-04_13h46.14.710,2026A_exp2,2022.2.4,59.93486280446282,
1000,1,4.9,6.1,0,0,85,85,49,,,,,285.8094618000323,286.44353049999336,286.44353049999336,286.9446629000013,45,45,286.9446629000013,286.9446629000013,286.9446629000013,286.9446629000013,286.9446629000013,286.9446629000013,286.9446629000013,286.9446629000013,286.9446629000013,287.31103779998375,287.31103779998375,287.31103779998375,287.31103779998375,287.31103779998375,287.31103779998375,287.31103779998375,287.31103779998375,287.31103779998375,23,0,,,287.31103779998375,287.5133385999943,1000,287.5133385999943,1000,1000,1000,1000,1,num_2,0.6161250000004657,,23,6,2026-03-04_13h46.14.710,2026A_exp2,2022.2.4,59.93486280446282,
1,0,0.0,0.0,1,0,86,86,24,,,,,288.14529439999023,288.7958486999851,288.7958486999851,289.29700140003115,315,315,289.29700140003115,289.29700140003115,289.29700140003115,289.29700140003115,289.29700140003115,289.29700140003115,289.29700140003115,289.29700140003115,289.29700140003115,289.6633228000137,289.6633228000137,289.6633228000137,289.6633228000137,289.6633228000137,289.6633228000137,289.6633228000137,289.6633228000137,289.6633228000137,0,1,[0.0012220999924466014],[0.3671546000405215],289.6633228000137,289.86350000003586,0.0,289.86350000003586,1,0.0,0,0,1000,num_4,0.6263262999709696,,23,6,2026-03-04_13h46.14.710,2026A_exp2,2022.2.4,59.93486280446282,
0,0,6.1,0.0,0,0,87,87,65,,,,,290.5141145000234,291.16510240000207,291.16510240000207,291.6492634000024,45,45,291.6492634000024,291.6492634000024,291.6492634000024,291.6492634000024,291.6492634000024,291.6492634000024,291.6492634000024,291.6492634000024,291.6492634000024,292.01561529998435,292.01561529998435,292.01561529998435,292.01561529998435,292.01561529998435,292.01561529998435,292.01561529998435,292.01561529998435,292.01561529998435,23,0,,,292.01561529998435,292.21591630001785,0.0,292.21591630001785,0,0.0,0,1,1000,num_1,1.225781499990262,,23,6,2026-03-04_13h46.14.710,2026A_exp2,2022.2.4,59.93486280446282,
1,0,6.1,3.7,1,0,88,88,45,,,,,293.467192400014,294.1178596999962,294.1178596999962,294.60218849999364,45,315,294.60218849999364,294.60218849999364,294.60218849999364,294.60218849999364,294.60218849999364,294.60218849999364,294.60218849999364,294.60218849999364,294.60218849999364,294.96856750000734,294.96856750000734,294.96856750000734,294.96856750000734,294.96856750000734,294.96856750000734,294.96856750000734,294.96856750000734,294.96856750000734,23,0,,,294.96856750000734,295.16892750002444,3.7,295.16892750002444,1,3.7,1,1,1000,num_4,0.8241916000260971,,23,6,2026-03-04_13h46.14.710,2026A_exp2,2022.2.4,59.93486280446282,
1,0,0.0,6.1,0,0,89,89,3,,,,,296.0198480000254,296.670256900019,296.670256900019,297.1548349999939,45,315,297.1548349999939,297.1548349999939,297.1548349999939,297.1548349999939,297.1548349999939,297.1548349999939,297.1548349999939,297.1548349999939,297.1548349999939,297.5213543000282,297.5213543000282,297.5213543000282,297.5213543000282,297.5213543000282,297.5213543000282,297.5213543000282,297.5213543000282,297.5213543000282,22,1,[0.13327990000834689],[0.14991169999120757],297.5213543000282,297.721743000031,0.0,297.721743000031,0,0.0,0,1,1000,num_1,1.0800206999992952,,23,6,2026-03-04_13h46.14.710,2026A_exp2,2022.2.4,59.93486280446282,
,,,,,,,,,,,,,,,,,,,,,,,,,,,,,,,,,,,,,,,,,,,,,,,,,,,,298.8305460999836,,,,,,,
