validity,detectorcomp,contrastCW,contrastCCW,precueCWorCCW,block_80trials.thisRepN,block_80trials.thisTrialN,block_80trials.thisN,block_80trials.thisIndex,etRecord.started,etRecord.stopped,text.started,text.stopped,text_4.started,text_4.stopped,text_6.started,text_6.stopped,oriCW,oriCCW,roi_2.started,grating_UR.started,grating_UL.started,grating_LR.started,grating_LL.started,noise_UR.started,noise_UL.started,noise_LR.started,noise_LL.started,roi_2.stopped,grating_UR.stopped,grating_UL.stopped,grating_LR.stopped,grating_LL.stopped,noise_UR.stopped,noise_UL.stopped,noise_LR.stopped,noise_LL.stopped,outframe,roi_2.numLooks,roi_2.timesOn,roi_2.timesOff,text_2.started,text_2.stopped,probedcontrast,key_resp.started,respdetect,relevantContrast,correctDetect,TorFdetect,respCWorCCW,key_resp.keys,key_resp.rt,feedback_display_.started,participantNo,blockNo,date,expName,psychopyVersion,frameRate,
1000,1,0.0,6.1,1,0,0,0,88,3.660004585981369e-05,3.660004585981369e-05,48.99292559991591,51.00158889987506,51.00158889987506,51.62950909999199,51.62950909999199,52.155720100039616,45,45,52.155720100039616,52.155720100039616,52.155720100039616,52.155720100039616,52.155720100039616,52.155720100039616,52.155720100039616,52.155720100039616,52.155720100039616,52.49696010001935,52.49696010001935,52.49696010001935,52.49696010001935,52.49696010001935,52.49696010001935,52.49696010001935,52.49696010001935,52.49696010001935,23,0,,,52.49696010001935,52.69778009993024,1000,52.69778009993024,1000,1000,1000,1000,1,num_2,0.6321763002779335,,31,10,2026-03-12_14h12.09.832,2026A_exp2,2022.2.4,59.917840645136835,
1,0,0.0,4.9,0,0,1,1,4,,,,,53.347890299977735,53.99865589989349,53.99865589989349,54.49958659987897,45,315,54.49958659987897,54.49958659987897,54.49958659987897,54.49958659987897,54.49958659987897,54.49958659987897,54.49958659987897,54.49958659987897,54.49958659987897,54.84925580001436,54.84925580001436,54.84925580001436,54.84925580001436,54.84925580001436,54.84925580001436,54.84925580001436,54.84925580001436,54.84925580001436,17,1,[0.000894700177013874],[0.08351070014759898],54.84925580001436,55.04940290004015,0.0,55.06607569986954,0,0.0,0,1,1000,num_1,0.8718078001402318,,31,10,2026-03-12_14h12.09.832,2026A_exp2,2022.2.4,59.917840645136835,
1000,1,0.0,0.0,0,0,2,2,86,,,,,55.967055999906734,56.60096860001795,56.60096860001795,57.10203539999202,45,315,57.10203539999202,57.10203539999202,57.10203539999202,57.10203539999202,57.10203539999202,57.10203539999202,57.10203539999202,57.10203539999202,57.10203539999202,57.46961129992269,57.46961129992269,57.46961129992269,57.46961129992269,57.46961129992269,57.46961129992269,57.46961129992269,57.46961129992269,57.46961129992269,0,1,[0.0007284998428076506],[0.36843020003288984],57.46961129992269,57.66874479991384,1000,57.66874479991384,1000,1000,1000,1000,0,num_3,0.7332260999828577,,31,10,2026-03-12_14h12.09.832,2026A_exp2,2022.2.4,59.917840645136835,
1000,1,6.1,6.1,1,0,3,3,77,,,,,58.419488299870864,59.05357449990697,59.05357449990697,59.55457319994457,45,45,59.55457319994457,59.55457319994457,59.55457319994457,59.55457319994457,59.55457319994457,59.55457319994457,59.55457319994457,59.55457319994457,59.55457319994457,59.92096689995378,59.92096689995378,59.92096689995378,59.92096689995378,59.92096689995378,59.92096689995378,59.92096689995378,59.92096689995378,59.92096689995378,23,0,,,59.92096689995378,60.121262199943885,1000,60.121262199943885,1000,1000,1000,1000,1,num_2,0.48831259994767606,,31,10,2026-03-12_14h12.09.832,2026A_exp2,2022.2.4,59.917840645136835,
1000,1,0.0,0.0,0,0,4,4,74,,,,,60.63855369994417,61.288881900021806,61.288881900021806,61.77344699995592,315,315,61.77344699995592,61.77344699995592,61.77344699995592,61.77344699995592,61.77344699995592,61.77344699995592,61.77344699995592,61.77344699995592,61.77344699995592,62.13983360002749,62.13983360002749,62.13983360002749,62.13983360002749,62.13983360002749,62.13983360002749,62.13983360002749,62.13983360002749,62.13983360002749,23,0,,,62.13983360002749,62.34009399986826,1000,62.34009399986826,1000,1000,1000,1000,1,num_2,1.1733222000766546,,31,10,2026-03-12_14h12.09.832,2026A_exp2,2022.2.4,59.917840645136835,
1000,1,3.7,0.0,1,0,5,5,48,,,,,63.54133319994435,64.19204419991001,64.19204419991001,64.67685719998553,45,315,64.67685719998553,64.67685719998553,64.67685719998553,64.67685719998553,64.67685719998553,64.67685719998553,64.67685719998553,64.67685719998553,64.67685719998553,65.04259299999103,65.04259299999103,65.04259299999103,65.04259299999103,65.04259299999103,65.04259299999103,65.04259299999103,65.04259299999103,65.04259299999103,23,0,,,65.04259299999103,65.2435725000687,1000,65.2435725000687,1000,1000,1000,1000,0,num_3,0.4939140002243221,,31,10,2026-03-12_14h12.09.832,2026A_exp2,2022.2.4,59.917840645136835,
1,0,4.9,0.0,0,0,6,6,58,,,,,65.76026870007627,66.41079379990697,66.41079379990697,66.8955566000659,315,45,66.8955566000659,66.8955566000659,66.8955566000659,66.8955566000659,66.8955566000659,66.8955566000659,66.8955566000659,66.8955566000659,66.8955566000659,67.26155299996026,67.26155299996026,67.26155299996026,67.26155299996026,67.26155299996026,67.26155299996026,67.26155299996026,67.26155299996026,67.26155299996026,23,0,,,67.26155299996026,67.46192869986407,4.9,67.46192869986407,1,4.9,1,1,1000,num_4,0.6836028001271188,,31,10,2026-03-12_14h12.09.832,2026A_exp2,2022.2.4,59.917840645136835,
1000,1,0.0,6.1,0,0,7,7,37,,,,,68.1626422998961,68.79711459996179,68.79711459996179,69.29762810003012,45,45,69.29762810003012,69.29762810003012,69.29762810003012,69.29762810003012,69.29762810003012,69.29762810003012,69.29762810003012,69.29762810003012,69.29762810003012,69.66415439988486,69.66415439988486,69.66415439988486,69.66415439988486,69.66415439988486,69.66415439988486,69.66415439988486,69.66415439988486,69.66415439988486,23,0,,,69.66415439988486,69.86429370008409,1000,69.86429370008409,1000,1000,1000,1000,1,num_2,0.5128508000634611,,31,10,2026-03-12_14h12.09.832,2026A_exp2,2022.2.4,59.917840645136835,
1000,1,3.7,0.0,0,0,8,8,2,,,,,70.39826390007511,71.04884459986351,71.04884459986351,71.53324209991843,45,45,71.53324209991843,71.53324209991843,71.53324209991843,71.53324209991843,71.53324209991843,71.53324209991843,71.53324209991843,71.53324209991843,71.53324209991843,71.89962509996258,71.89962509996258,71.89962509996258,71.89962509996258,71.89962509996258,71.89962509996258,71.89962509996258,71.89962509996258,71.89962509996258,23,0,,,71.89962509996258,72.09972749999724,1000,72.09972749999724,1000,1000,1000,1000,0,num_3,0.4697052000556141,,31,10,2026-03-12_14h12.09.832,2026A_exp2,2022.2.4,59.917840645136835,
1000,1,4.9,0.0,0,0,9,9,54,,,,,72.60042760008946,73.25199689995497,73.25199689995497,73.73553399997763,315,45,73.73553399997763,73.73553399997763,73.73553399997763,73.73553399997763,73.73553399997763,73.73553399997763,73.73553399997763,73.73553399997763,73.73553399997763,74.10174739989452,74.10174739989452,74.10174739989452,74.10174739989452,74.10174739989452,74.10174739989452,74.10174739989452,74.10174739989452,74.10174739989452,0,1,[0.0009041999001055956],[0.36732939979992807],74.10174739989452,74.3021146999672,1000,74.3021146999672,1000,1000,1000,1000,0,num_3,0.38764020008966327,,31,10,2026-03-12_14h12.09.832,2026A_exp2,2022.2.4,59.917840645136835,
1000,1,0.0,3.7,0,0,10,10,51,,,,,74.71936969994567,75.36951999994926,75.36951999994926,75.85409169993363,45,315,75.85409169993363,75.85409169993363,75.85409169993363,75.85409169993363,75.85409169993363,75.85409169993363,75.85409169993363,75.85409169993363,75.85409169993363,76.22050040005706,76.22050040005706,76.22050040005706,76.22050040005706,76.22050040005706,76.22050040005706,76.22050040005706,76.22050040005706,76.22050040005706,3,3,"[0.0007772999815642834, 0.3008104998152703, 0.3674084998201579]","[0.26696409983560443, 0.35054849996231496, 0.36741139995865524]",76.22050040005706,76.42076339991763,1000,76.42076339991763,1000,1000,1000,1000,1,num_2,0.4448196003213525,,31,10,2026-03-12_14h12.09.832,2026A_exp2,2022.2.4,59.917840645136835,
1000,1,0.0,4.9,1,0,11,11,76,,,,,76.88797959988005,77.53858819999732,77.53858819999732,78.02364520006813,45,315,78.02364520006813,78.02364520006813,78.02364520006813,78.02364520006813,78.02364520006813,78.02364520006813,78.02364520006813,78.02364520006813,78.02364520006813,78.38933879998513,78.38933879998513,78.38933879998513,78.38933879998513,78.38933879998513,78.38933879998513,78.38933879998513,78.38933879998513,78.38933879998513,23,0,,,78.38933879998513,78.58957890002057,1000,78.58957890002057,1000,1000,1000,1000,1,num_2,0.4677484000567347,,31,10,2026-03-12_14h12.09.832,2026A_exp2,2022.2.4,59.917840645136835,
1000,1,6.1,0.0,1,0,12,12,68,,,,,79.07360849995166,79.7241146999877,79.7241146999877,80.22526780003682,45,45,80.22526780003682,80.22526780003682,80.22526780003682,80.22526780003682,80.22526780003682,80.22526780003682,80.22526780003682,80.22526780003682,80.22526780003682,80.59151519997977,80.59151519997977,80.59151519997977,80.59151519997977,80.59151519997977,80.59151519997977,80.59151519997977,80.59151519997977,80.59151519997977,6,4,"[0.0009298999793827534, 0.03395959991030395, 0.06752909999340773, 0.16729340003803372]","[0.017838200088590384, 0.05069150007329881, 0.10066660004667938, 0.367524900007993]",80.59151519997977,80.79167339997366,1000,80.79167339997366,1000,1000,1000,1000,0,num_3,0.4103246999438852,,31,10,2026-03-12_14h12.09.832,2026A_exp2,2022.2.4,59.917840645136835,
1,0,0.0,0.0,1,0,13,13,6,,,,,81.225762499962,81.85959689994343,81.85959689994343,82.36064839991741,315,315,82.36064839991741,82.36064839991741,82.36064839991741,82.36064839991741,82.36064839991741,82.36064839991741,82.36064839991741,82.36064839991741,82.36064839991741,82.72697019996122,82.72697019996122,82.72697019996122,82.72697019996122,82.72697019996122,82.72697019996122,82.72697019996122,82.72697019996122,82.72697019996122,0,1,[0.0007706999313086271],[0.3675889999140054],82.72697019996122,82.92759620002471,0.0,82.92759620002471,0,0.0,0,1,1000,num_1,0.6337032001465559,,31,10,2026-03-12_14h12.09.832,2026A_exp2,2022.2.4,59.917840645136835,
0,0,0.0,0.0,1,0,14,14,71,,,,,83.57812769990414,84.21359029994346,84.21359029994346,84.71332739992067,315,315,84.71332739992067,84.71332739992067,84.71332739992067,84.71332739992067,84.71332739992067,84.71332739992067,84.71332739992067,84.71332739992067,84.71332739992067,85.07929040002637,85.07929040002637,85.07929040002637,85.07929040002637,85.07929040002637,85.07929040002637,85.07929040002637,85.07929040002637,85.07929040002637,23,0,,,85.07929040002637,85.27970599988475,0.0,85.27970599988475,0,0.0,0,1,1000,num_1,0.7296965001150966,,31,10,2026-03-12_14h12.09.832,2026A_exp2,2022.2.4,59.917840645136835,
1,0,0.0,6.1,1,0,15,15,40,,,,,86.03030039998703,86.68111229990609,86.68111229990609,87.16543080005795,315,45,87.16543080005795,87.16543080005795,87.16543080005795,87.16543080005795,87.16543080005795,87.16543080005795,87.16543080005795,87.16543080005795,87.16543080005795,87.53183360002004,87.53183360002004,87.53183360002004,87.53183360002004,87.53183360002004,87.53183360002004,87.53183360002004,87.53183360002004,87.53183360002004,23,0,,,87.53183360002004,87.73204750008881,6.1,87.73204750008881,1,6.1,1,1,1000,num_4,0.669240000192076,,31,10,2026-03-12_14h12.09.832,2026A_exp2,2022.2.4,59.917840645136835,
0,0,6.1,3.7,1,0,16,16,49,,,,,88.43285669991747,89.06734830001369,89.06734830001369,89.56802490004338,45,45,89.56802490004338,89.56802490004338,89.56802490004338,89.56802490004338,89.56802490004338,89.56802490004338,89.56802490004338,89.56802490004338,89.56802490004338,89.93462230009027,89.93462230009027,89.93462230009027,89.93462230009027,89.93462230009027,89.93462230009027,89.93462230009027,89.93462230009027,89.93462230009027,23,0,,,89.93462230009027,90.13444279995747,6.1,90.13444279995747,1,6.1,1,1,1000,num_4,1.0906656002625823,,31,10,2026-03-12_14h12.09.832,2026A_exp2,2022.2.4,59.917840645136835,
1,0,0.0,4.9,1,0,17,17,21,,,,,91.25223139999434,91.88616689993069,91.88616689993069,92.38791729998775,45,315,92.38791729998775,92.38791729998775,92.38791729998775,92.38791729998775,92.38791729998775,92.38791729998775,92.38791729998775,92.38791729998775,92.38791729998775,92.75387610006146,92.75387610006146,92.75387610006146,92.75387610006146,92.75387610006146,92.75387610006146,92.75387610006146,92.75387610006146,92.75387610006146,23,0,,,92.75387610006146,92.95414160005748,4.9,92.95414160005748,1,4.9,1,1,1000,num_4,0.43978350004181266,,31,10,2026-03-12_14h12.09.832,2026A_exp2,2022.2.4,59.917840645136835,
1000,1,0.0,4.9,1,0,18,18,59,,,,,93.42127200006507,94.05535689997487,94.05535689997487,94.55652919993736,45,315,94.55652919993736,94.55652919993736,94.55652919993736,94.55652919993736,94.55652919993736,94.55652919993736,94.55652919993736,94.55652919993736,94.55652919993736,94.92381149996072,94.92381149996072,94.92381149996072,94.92381149996072,94.92381149996072,94.92381149996072,94.92381149996072,94.92381149996072,94.92381149996072,23,0,,,94.92381149996072,95.13954899995588,1000,95.13954899995588,1000,1000,1000,1000,1,num_2,1.134173600235954,,31,10,2026-03-12_14h12.09.832,2026A_exp2,2022.2.4,59.917840645136835,
1,0,0.0,6.1,1,0,19,19,36,,,,,96.29074470000342,96.94132829993032,96.94132829993032,97.42569539998658,45,45,97.42569539998658,97.42569539998658,97.42569539998658,97.42569539998658,97.42569539998658,97.42569539998658,97.42569539998658,97.42569539998658,97.42569539998658,97.79206070001237,97.79206070001237,97.79206070001237,97.79206070001237,97.79206070001237,97.79206070001237,97.79206070001237,97.79206070001237,97.79206070001237,23,0,,,97.79206070001237,97.99256749986671,6.1,97.99256749986671,1,6.1,1,1,1000,num_4,0.9131279999855906,,31,10,2026-03-12_14h12.09.832,2026A_exp2,2022.2.4,59.917840645136835,
1000,1,6.1,0.0,1,0,20,20,75,,,,,98.92700969986618,99.57707939995453,99.57707939995453,100.06165040004998,45,45,100.06165040004998,100.06165040004998,100.06165040004998,100.06165040004998,100.06165040004998,100.06165040004998,100.06165040004998,100.06165040004998,100.06165040004998,100.42806669999845,100.42806669999845,100.42806669999845,100.42806669999845,100.42806669999845,100.42806669999845,100.42806669999845,100.42806669999845,100.42806669999845,18,2,"[0.26702529983595014, 0.3337573998142034]","[0.3002615999430418, 0.36709149996750057]",100.42806669999845,100.62883269996382,1000,100.62883269996382,1000,1000,1000,1000,0,num_3,0.46902530011720955,,31,10,2026-03-12_14h12.09.832,2026A_exp2,2022.2.4,59.917840645136835,
1,0,0.0,0.0,1,0,21,21,73,,,,,101.12888149986975,101.77944840001874,101.77944840001874,102.26385609991848,45,45,102.26385609991848,102.26385609991848,102.26385609991848,102.26385609991848,102.26385609991848,102.26385609991848,102.26385609991848,102.26385609991848,102.26385609991848,102.63019900000654,102.63019900000654,102.63019900000654,102.63019900000654,102.63019900000654,102.63019900000654,102.63019900000654,102.63019900000654,102.63019900000654,23,0,,,102.63019900000654,102.8303507999517,0.0,102.8303507999517,0,0.0,0,1,1000,num_1,1.0037013001274318,,31,10,2026-03-12_14h12.09.832,2026A_exp2,2022.2.4,59.917840645136835,
1,0,0.0,3.7,1,0,22,22,41,,,,,103.86500660004094,104.49883390008472,104.49883390008472,105.00088419998065,45,45,105.00088419998065,105.00088419998065,105.00088419998065,105.00088419998065,105.00088419998065,105.00088419998065,105.00088419998065,105.00088419998065,105.00088419998065,105.36629320005886,105.36629320005886,105.36629320005886,105.36629320005886,105.36629320005886,105.36629320005886,105.36629320005886,105.36629320005886,105.36629320005886,23,0,,,105.36629320005886,105.56652079988271,3.7,105.56652079988271,1,3.7,1,1,1000,num_4,0.6190422000363469,,31,10,2026-03-12_14h12.09.832,2026A_exp2,2022.2.4,59.917840645136835,
1000,1,3.7,0.0,0,0,23,23,57,,,,,106.21713640005328,106.8511669000145,106.8511669000145,107.35232249996625,45,315,107.35232249996625,107.35232249996625,107.35232249996625,107.35232249996625,107.35232249996625,107.35232249996625,107.35232249996625,107.35232249996625,107.35232249996625,107.7185204999987,107.7185204999987,107.7185204999987,107.7185204999987,107.7185204999987,107.7185204999987,107.7185204999987,107.7185204999987,107.7185204999987,23,0,,,107.7185204999987,107.91890199994668,1000,107.91890199994668,1000,1000,1000,1000,0,num_3,0.514291699975729,,31,10,2026-03-12_14h12.09.832,2026A_exp2,2022.2.4,59.917840645136835,
1000,1,4.9,0.0,1,0,24,24,72,,,,,108.4530175998807,109.1032878998667,109.1032878998667,109.58791909995489,315,45,109.58791909995489,109.58791909995489,109.58791909995489,109.58791909995489,109.58791909995489,109.58791909995489,109.58791909995489,109.58791909995489,109.58791909995489,109.95546339987777,109.95546339987777,109.95546339987777,109.95546339987777,109.95546339987777,109.95546339987777,109.95546339987777,109.95546339987777,109.95546339987777,23,0,,,109.95546339987777,110.17140559991822,1000,110.17140559991822,1000,1000,1000,1000,1,num_2,1.5498313002754003,,31,10,2026-03-12_14h12.09.832,2026A_exp2,2022.2.4,59.917840645136835,
1,0,3.7,3.7,0,0,25,25,13,,,,,111.73935330007225,112.37344209989533,112.37344209989533,112.87450070003979,45,45,112.87450070003979,112.87450070003979,112.87450070003979,112.87450070003979,112.87450070003979,112.87450070003979,112.87450070003979,112.87450070003979,112.87450070003979,113.24087610002607,113.24087610002607,113.24087610002607,113.24087610002607,113.24087610002607,113.24087610002607,113.24087610002607,113.24087610002607,113.24087610002607,23,0,,,113.24087610002607,113.44129680003971,3.7,113.44129680003971,1,3.7,1,1,1000,num_4,0.7358489001635462,,31,10,2026-03-12_14h12.09.832,2026A_exp2,2022.2.4,59.917840645136835,
1000,1,0.0,0.0,0,0,26,26,64,,,,,114.20857749995776,114.85927619994618,114.85927619994618,115.34372969996184,45,315,115.34372969996184,115.34372969996184,115.34372969996184,115.34372969996184,115.34372969996184,115.34372969996184,115.34372969996184,115.34372969996184,115.34372969996184,115.70997460000217,115.70997460000217,115.70997460000217,115.70997460000217,115.70997460000217,115.70997460000217,115.70997460000217,115.70997460000217,115.70997460000217,23,0,,,115.70997460000217,115.91035529994406,1000,115.91035529994406,1000,1000,1000,1000,0,num_3,0.6991362001281232,,31,10,2026-03-12_14h12.09.832,2026A_exp2,2022.2.4,59.917840645136835,
1000,1,6.1,0.0,0,0,27,27,14,,,,,116.62765290006064,117.2617744000163,117.2617744000163,117.76273850002326,45,45,117.76273850002326,117.76273850002326,117.76273850002326,117.76273850002326,117.76273850002326,117.76273850002326,117.76273850002326,117.76273850002326,117.76273850002326,118.1293021000456,118.1293021000456,118.1293021000456,118.1293021000456,118.1293021000456,118.1293021000456,118.1293021000456,118.1293021000456,118.1293021000456,23,0,,,118.1293021000456,118.32940039993264,1000,118.32940039993264,1000,1000,1000,1000,0,num_3,0.4081406001932919,,31,10,2026-03-12_14h12.09.832,2026A_exp2,2022.2.4,59.917840645136835,
1000,1,3.7,4.9,1,0,28,28,46,,,,,118.76347730006091,119.41372459987178,119.41372459987178,119.91562450001948,315,45,119.91562450001948,119.91562450001948,119.91562450001948,119.91562450001948,119.91562450001948,119.91562450001948,119.91562450001948,119.91562450001948,119.91562450001948,120.28117479989305,120.28117479989305,120.28117479989305,120.28117479989305,120.28117479989305,120.28117479989305,120.28117479989305,120.28117479989305,120.28117479989305,23,0,,,120.28117479989305,120.48162849992514,1000,120.48162849992514,1000,1000,1000,1000,1,num_2,0.5839842001441866,,31,10,2026-03-12_14h12.09.832,2026A_exp2,2022.2.4,59.917840645136835,
1000,1,4.9,3.7,0,0,29,29,32,,,,,121.08224530005828,121.73304399987683,121.73304399987683,122.21735340007581,45,45,122.21735340007581,122.21735340007581,122.21735340007581,122.21735340007581,122.21735340007581,122.21735340007581,122.21735340007581,122.21735340007581,122.21735340007581,122.58353030006401,122.58353030006401,122.58353030006401,122.58353030006401,122.58353030006401,122.58353030006401,122.58353030006401,122.58353030006401,122.58353030006401,23,0,,,122.58353030006401,122.78397400001995,1000,122.78397400001995,1000,1000,1000,1000,0,num_3,0.465587800135836,,31,10,2026-03-12_14h12.09.832,2026A_exp2,2022.2.4,59.917840645136835,
1,0,0.0,3.7,0,0,30,30,35,,,,,123.26814460009336,123.91819830005988,123.91819830005988,124.42000630008988,315,45,124.42000630008988,124.42000630008988,124.42000630008988,124.42000630008988,124.42000630008988,124.42000630008988,124.42000630008988,124.42000630008988,124.42000630008988,124.78597930003889,124.78597930003889,124.78597930003889,124.78597930003889,124.78597930003889,124.78597930003889,124.78597930003889,124.78597930003889,124.78597930003889,23,0,,,124.78597930003889,124.98597779986449,0.0,124.98597779986449,0,0.0,0,1,1000,num_1,0.7757139001041651,,31,10,2026-03-12_14h12.09.832,2026A_exp2,2022.2.4,59.917840645136835,
1,0,0.0,6.1,0,0,31,31,34,,,,,125.78713509999216,126.42083840002306,126.42083840002306,126.92199350008741,315,315,126.92199350008741,126.92199350008741,126.92199350008741,126.92199350008741,126.92199350008741,126.92199350008741,126.92199350008741,126.92199350008741,126.92199350008741,127.28826289996505,127.28826289996505,127.28826289996505,127.28826289996505,127.28826289996505,127.28826289996505,127.28826289996505,127.28826289996505,127.28826289996505,1,2,"[0.0009326001163572073, 0.3673513999674469]","[0.3507433000486344, 0.3673539999872446]",127.28826289996505,127.4884766000323,0.0,127.4884766000323,0,0.0,0,1,1000,num_1,1.2007383001036942,,31,10,2026-03-12_14h12.09.832,2026A_exp2,2022.2.4,59.917840645136835,
1,0,3.7,0.0,1,0,32,32,19,,,,,128.70655989996158,129.35710199992172,129.35710199992172,129.85864649992436,315,315,129.85864649992436,129.85864649992436,129.85864649992436,129.85864649992436,129.85864649992436,129.85864649992436,129.85864649992436,129.85864649992436,129.85864649992436,130.207861199975,130.207861199975,130.207861199975,130.207861199975,130.207861199975,130.207861199975,130.207861199975,130.207861199975,130.207861199975,22,0,,,130.207861199975,130.40805369988084,0.0,130.40805369988084,1,0.0,0,0,1000,num_4,0.9213454001583159,,31,10,2026-03-12_14h12.09.832,2026A_exp2,2022.2.4,59.917840645136835,
1,0,0.0,3.7,1,0,33,33,66,,,,,131.35905279987492,131.99329630006105,131.99329630006105,132.49629619996995,315,315,132.49629619996995,132.49629619996995,132.49629619996995,132.49629619996995,132.49629619996995,132.49629619996995,132.49629619996995,132.49629619996995,132.49629619996995,132.86052550002933,132.86052550002933,132.86052550002933,132.86052550002933,132.86052550002933,132.86052550002933,132.86052550002933,132.86052550002933,132.86052550002933,23,0,,,132.86052550002933,133.0607777000405,3.7,133.0607777000405,1,3.7,1,1,1000,num_4,0.5084721001330763,,31,10,2026-03-12_14h12.09.832,2026A_exp2,2022.2.4,59.917840645136835,
1000,1,3.7,6.1,0,0,34,34,84,,,,,133.5949530999642,134.24558959994465,134.24558959994465,134.74666079995222,315,315,134.74666079995222,134.74666079995222,134.74666079995222,134.74666079995222,134.74666079995222,134.74666079995222,134.74666079995222,134.74666079995222,134.74666079995222,135.11286920006387,135.11286920006387,135.11286920006387,135.11286920006387,135.11286920006387,135.11286920006387,135.11286920006387,135.11286920006387,135.11286920006387,8,1,[0.0007559000514447689],[0.2504004000220448],135.11286920006387,135.3131961999461,1000,135.3131961999461,1000,1000,1000,1000,0,num_3,0.5042706001549959,,31,10,2026-03-12_14h12.09.832,2026A_exp2,2022.2.4,59.917840645136835,
1,0,0.0,0.0,0,0,35,35,63,,,,,135.84747159993276,136.49753260007128,136.49753260007128,136.98184789996594,45,45,136.98184789996594,136.98184789996594,136.98184789996594,136.98184789996594,136.98184789996594,136.98184789996594,136.98184789996594,136.98184789996594,136.98184789996594,137.34827479999512,137.34827479999512,137.34827479999512,137.34827479999512,137.34827479999512,137.34827479999512,137.34827479999512,137.34827479999512,137.34827479999512,23,0,,,137.34827479999512,137.54878679988906,0.0,137.54878679988906,0,0.0,0,1,1000,num_1,0.6767488003242761,,31,10,2026-03-12_14h12.09.832,2026A_exp2,2022.2.4,59.917840645136835,
1,0,6.1,0.0,0,0,36,36,56,,,,,138.24960709991865,138.88322549988516,138.88322549988516,139.38458029995672,315,315,139.38458029995672,139.38458029995672,139.38458029995672,139.38458029995672,139.38458029995672,139.38458029995672,139.38458029995672,139.38458029995672,139.38458029995672,139.75083189993165,139.75083189993165,139.75083189993165,139.75083189993165,139.75083189993165,139.75083189993165,139.75083189993165,139.75083189993165,139.75083189993165,23,0,,,139.75083189993165,139.9511434000451,6.1,139.9511434000451,1,6.1,1,1,1000,num_4,0.8432229000609368,,31,10,2026-03-12_14h12.09.832,2026A_exp2,2022.2.4,59.917840645136835,
1,0,0.0,6.1,1,0,37,37,52,,,,,140.81866250000894,141.46950450004078,141.46950450004078,141.95383069990203,315,45,141.95383069990203,141.95383069990203,141.95383069990203,141.95383069990203,141.95383069990203,141.95383069990203,141.95383069990203,141.95383069990203,141.95383069990203,142.32035659998655,142.32035659998655,142.32035659998655,142.32035659998655,142.32035659998655,142.32035659998655,142.32035659998655,142.32035659998655,142.32035659998655,23,0,,,142.32035659998655,142.52053579990752,6.1,142.52053579990752,1,6.1,1,1,1000,num_4,0.48125279997475445,,31,10,2026-03-12_14h12.09.832,2026A_exp2,2022.2.4,59.917840645136835,
0,0,4.9,0.0,1,0,38,38,25,,,,,143.0208850998897,143.67172849993221,143.67172849993221,144.15621190005913,45,315,144.15621190005913,144.15621190005913,144.15621190005913,144.15621190005913,144.15621190005913,144.15621190005913,144.15621190005913,144.15621190005913,144.15621190005913,144.52243530005217,144.52243530005217,144.52243530005217,144.52243530005217,144.52243530005217,144.52243530005217,144.52243530005217,144.52243530005217,144.52243530005217,23,0,,,144.52243530005217,144.7227400999982,4.9,144.7227400999982,1,4.9,1,1,1000,num_4,0.7029440002515912,,31,10,2026-03-12_14h12.09.832,2026A_exp2,2022.2.4,59.917840645136835,
1,0,3.7,0.0,1,0,39,39,50,,,,,145.45668830000795,146.10730380006135,146.10730380006135,146.59172159992158,45,45,146.59172159992158,146.59172159992158,146.59172159992158,146.59172159992158,146.59172159992158,146.59172159992158,146.59172159992158,146.59172159992158,146.59172159992158,146.95833089994267,146.95833089994267,146.95833089994267,146.95833089994267,146.95833089994267,146.95833089994267,146.95833089994267,146.95833089994267,146.95833089994267,23,0,,,146.95833089994267,147.15862570004538,0.0,147.15862570004538,0,0.0,0,1,1000,num_1,0.7078383001498878,,31,10,2026-03-12_14h12.09.832,2026A_exp2,2022.2.4,59.917840645136835,
1000,1,3.7,0.0,0,0,40,40,45,,,,,147.89241430000402,148.54321700008586,148.54321700008586,149.02753859991208,45,45,149.02753859991208,149.02753859991208,149.02753859991208,149.02753859991208,149.02753859991208,149.02753859991208,149.02753859991208,149.02753859991208,149.02753859991208,149.3940566999372,149.3940566999372,149.3940566999372,149.3940566999372,149.3940566999372,149.3940566999372,149.3940566999372,149.3940566999372,149.3940566999372,23,0,,,149.3940566999372,149.5964391999878,1000,149.5964391999878,1000,1000,1000,1000,0,num_3,0.5329494001343846,,31,10,2026-03-12_14h12.09.832,2026A_exp2,2022.2.4,59.917840645136835,
1,0,0.0,4.9,1,0,41,41,53,,,,,150.1447743999306,150.79541440005414,150.79541440005414,151.27992850006558,315,45,151.27992850006558,151.27992850006558,151.27992850006558,151.27992850006558,151.27992850006558,151.27992850006558,151.27992850006558,151.27992850006558,151.27992850006558,151.64632910001092,151.64632910001092,151.64632910001092,151.64632910001092,151.64632910001092,151.64632910001092,151.64632910001092,151.64632910001092,151.64632910001092,10,2,"[0.0011844001710414886, 0.21714990003965795]","[0.15030240011401474, 0.26722809998318553]",151.64632910001092,151.84646030003205,4.9,151.84646030003205,1,4.9,1,1,1000,num_4,0.6434699001256377,,31,10,2026-03-12_14h12.09.832,2026A_exp2,2022.2.4,59.917840645136835,
0,0,0.0,0.0,1,0,42,42,89,,,,,152.51359519991092,153.1644796000328,153.1644796000328,153.64895509998314,45,45,153.64895509998314,153.64895509998314,153.64895509998314,153.64895509998314,153.64895509998314,153.64895509998314,153.64895509998314,153.64895509998314,153.64895509998314,154.01532760006376,154.01532760006376,154.01532760006376,154.01532760006376,154.01532760006376,154.01532760006376,154.01532760006376,154.01532760006376,154.01532760006376,23,0,,,154.01532760006376,154.21549149998464,0.0,154.21549149998464,0,0.0,0,1,1000,num_1,0.7948206001892686,,31,10,2026-03-12_14h12.09.832,2026A_exp2,2022.2.4,59.917840645136835,
1,0,3.7,0.0,0,0,43,43,42,,,,,155.03285939991474,155.68374080001377,155.68374080001377,156.16804379993118,45,45,156.16804379993118,156.16804379993118,156.16804379993118,156.16804379993118,156.16804379993118,156.16804379993118,156.16804379993118,156.16804379993118,156.16804379993118,156.5345556999091,156.5345556999091,156.5345556999091,156.5345556999091,156.5345556999091,156.5345556999091,156.5345556999091,156.5345556999091,156.5345556999091,4,2,"[0.0012744998093694448, 0.13351859990507364]","[0.06677409983240068, 0.36722239991649985]",156.5345556999091,156.73477560002357,3.7,156.73477560002357,1,3.7,1,1,1000,num_4,0.6105082002468407,,31,10,2026-03-12_14h12.09.832,2026A_exp2,2022.2.4,59.917840645136835,
1000,1,0.0,0.0,1,0,44,44,12,,,,,157.36854299996048,158.01941059995443,158.01941059995443,158.50371550000273,45,45,158.50371550000273,158.50371550000273,158.50371550000273,158.50371550000273,158.50371550000273,158.50371550000273,158.50371550000273,158.50371550000273,158.50371550000273,158.86999089992605,158.86999089992605,158.86999089992605,158.86999089992605,158.86999089992605,158.86999089992605,158.86999089992605,158.86999089992605,158.86999089992605,23,0,,,158.86999089992605,159.07200290006585,1000,159.07200290006585,1000,1000,1000,1000,0,num_3,0.7704406001139432,,31,10,2026-03-12_14h12.09.832,2026A_exp2,2022.2.4,59.917840645136835,
1000,1,6.1,0.0,1,0,45,45,69,,,,,159.8711200999096,160.5218368000351,160.5218368000351,161.02295999997295,45,315,161.02295999997295,161.02295999997295,161.02295999997295,161.02295999997295,161.02295999997295,161.02295999997295,161.02295999997295,161.02295999997295,161.02295999997295,161.3727678998839,161.3727678998839,161.3727678998839,161.3727678998839,161.3727678998839,161.3727678998839,161.3727678998839,161.3727678998839,161.3727678998839,15,5,"[0.08354849996976554, 0.1837627999484539, 0.23397989990189672, 0.26704479986801744, 0.3338317000307143]","[0.10019130003638566, 0.20036179991438985, 0.2504950000438839, 0.3004898000508547, 0.3505979999899864]",161.3727678998839,161.57471559988335,1000,161.58969870000146,1000,1000,1000,1000,0,num_3,0.3798959001433104,,31,10,2026-03-12_14h12.09.832,2026A_exp2,2022.2.4,59.917840645136835,
1000,1,4.9,0.0,0,0,46,46,26,,,,,161.98992200009525,162.6406030000653,162.6406030000653,163.14172709989361,45,45,163.14172709989361,163.14172709989361,163.14172709989361,163.14172709989361,163.14172709989361,163.14172709989361,163.14172709989361,163.14172709989361,163.14172709989361,163.49146170006134,163.49146170006134,163.49146170006134,163.49146170006134,163.49146170006134,163.49146170006134,163.49146170006134,163.49146170006134,163.49146170006134,0,1,[0.001208700006827712],[0.3503511000890285],163.49146170006134,163.69395149988122,1000,163.69395149988122,1000,1000,1000,1000,0,num_3,0.8360190002713352,,31,10,2026-03-12_14h12.09.832,2026A_exp2,2022.2.4,59.917840645136835,
1000,1,0.0,0.0,1,0,47,47,33,,,,,164.5592761998996,165.209935199935,165.209935199935,165.71088399994187,315,315,165.71088399994187,165.71088399994187,165.71088399994187,165.71088399994187,165.71088399994187,165.71088399994187,165.71088399994187,165.71088399994187,165.71088399994187,166.0606545000337,166.0606545000337,166.0606545000337,166.0606545000337,166.0606545000337,166.0606545000337,166.0606545000337,166.0606545000337,166.0606545000337,6,4,"[0.001240900019183755, 0.1336125999223441, 0.2170719001442194, 0.30041190003976226]","[0.10018700012005866, 0.1670111999846995, 0.2836301000788808, 0.35056510008871555]",166.0606545000337,166.2612519999966,1000,166.2775810000021,1000,1000,1000,1000,1,num_2,1.8686720000114292,,31,10,2026-03-12_14h12.09.832,2026A_exp2,2022.2.4,59.917840645136835,
1000,1,6.1,0.0,0,0,48,48,82,,,,,168.16278739995323,168.81339920009486,168.81339920009486,169.31462479988113,45,315,169.31462479988113,169.31462479988113,169.31462479988113,169.31462479988113,169.31462479988113,169.31462479988113,169.31462479988113,169.31462479988113,169.31462479988113,169.6811225998681,169.6811225998681,169.6811225998681,169.6811225998681,169.6811225998681,169.6811225998681,169.6811225998681,169.6811225998681,169.6811225998681,0,1,[0.0012060001026839018],[0.3671572001185268],169.6811225998681,169.8832439999096,1000,169.8832439999096,1000,1000,1000,1000,0,num_3,0.40665270015597343,,31,10,2026-03-12_14h12.09.832,2026A_exp2,2022.2.4,59.917840645136835,
1000,1,0.0,0.0,0,0,49,49,83,,,,,170.31508089997806,170.965688199969,170.965688199969,171.46676500001922,315,315,171.46676500001922,171.46676500001922,171.46676500001922,171.46676500001922,171.46676500001922,171.46676500001922,171.46676500001922,171.46676500001922,171.46676500001922,171.83321009995416,171.83321009995416,171.83321009995416,171.83321009995416,171.83321009995416,171.83321009995416,171.83321009995416,171.83321009995416,171.83321009995416,0,1,[0.001264100195840001],[0.3670813001226634],171.83321009995416,172.03529209992848,1000,172.03529209992848,1000,1000,1000,1000,0,num_3,0.7742808002512902,,31,10,2026-03-12_14h12.09.832,2026A_exp2,2022.2.4,59.917840645136835,
1,0,0.0,3.7,0,0,50,50,61,,,,,172.8339867000468,173.4846882999409,173.4846882999409,173.9860050000716,45,45,173.9860050000716,173.9860050000716,173.9860050000716,173.9860050000716,173.9860050000716,173.9860050000716,173.9860050000716,173.9860050000716,173.9860050000716,174.35234900005162,174.35234900005162,174.35234900005162,174.35234900005162,174.35234900005162,174.35234900005162,174.35234900005162,174.35234900005162,174.35234900005162,11,2,"[0.16688390006311238, 0.2003017000388354]","[0.18343400000594556, 0.36696929996833205]",174.35234900005162,174.552653899882,0.0,174.552653899882,0,0.0,0,1,1000,num_1,0.7846608001273125,,31,10,2026-03-12_14h12.09.832,2026A_exp2,2022.2.4,59.917840645136835,
0,0,0.0,6.1,0,0,51,51,7,,,,,175.3531581000425,176.003994199913,176.003994199913,176.48834119993262,315,45,176.48834119993262,176.48834119993262,176.48834119993262,176.48834119993262,176.48834119993262,176.48834119993262,176.48834119993262,176.48834119993262,176.48834119993262,176.85480169998482,176.85480169998482,176.85480169998482,176.85480169998482,176.85480169998482,176.85480169998482,176.85480169998482,176.85480169998482,176.85480169998482,3,3,"[0.017207599943503737, 0.05023329984396696, 0.23354049981571734]","[0.033484699903056026, 0.21695889998227358, 0.36711079999804497]",176.85480169998482,177.05493290000595,6.1,177.05493290000595,1,6.1,1,1,1000,num_4,0.6265601001214236,,31,10,2026-03-12_14h12.09.832,2026A_exp2,2022.2.4,59.917840645136835,
1000,1,0.0,6.1,0,0,52,52,9,,,,,177.70560760004446,178.35622849990614,178.35622849990614,178.84081199998036,45,45,178.84081199998036,178.84081199998036,178.84081199998036,178.84081199998036,178.84081199998036,178.84081199998036,178.84081199998036,178.84081199998036,178.84081199998036,179.20720000006258,179.20720000006258,179.20720000006258,179.20720000006258,179.20720000006258,179.20720000006258,179.20720000006258,179.20720000006258,179.20720000006258,15,6,"[0.05014569987542927, 0.11628929991275072, 0.16665869997814298, 0.20017069997265935, 0.2504368999507278, 0.30033829994499683]","[0.06675540003925562, 0.13292489992454648, 0.18335970002226532, 0.23386619985103607, 0.28357780002988875, 0.317062099929899]",179.20720000006258,179.40951319993474,1000,179.40951319993474,1000,1000,1000,1000,1,num_2,0.7126480001024902,,31,10,2026-03-12_14h12.09.832,2026A_exp2,2022.2.4,59.917840645136835,
1,0,6.1,0.0,0,0,53,53,70,,,,,180.1416947999969,180.79221970005892,180.79221970005892,181.27644050004892,45,315,181.27644050004892,181.27644050004892,181.27644050004892,181.27644050004892,181.27644050004892,181.27644050004892,181.27644050004892,181.27644050004892,181.27644050004892,181.64296120009385,181.64296120009385,181.64296120009385,181.64296120009385,181.64296120009385,181.64296120009385,181.64296120009385,181.64296120009385,181.64296120009385,23,0,,,181.64296120009385,181.843025600072,6.1,181.843025600072,1,6.1,1,1,1000,num_4,0.7421217001974583,,31,10,2026-03-12_14h12.09.832,2026A_exp2,2022.2.4,59.917840645136835,
1,0,3.7,0.0,0,0,54,54,65,,,,,182.61078520002775,183.24460309999995,183.24460309999995,183.74576519988477,315,315,183.74576519988477,183.74576519988477,183.74576519988477,183.74576519988477,183.74576519988477,183.74576519988477,183.74576519988477,183.74576519988477,183.74576519988477,184.1139871000778,184.1139871000778,184.1139871000778,184.1139871000778,184.1139871000778,184.1139871000778,184.1139871000778,184.1139871000778,184.1139871000778,22,1,[0.3168667000718415],[0.33322890009731054],184.1139871000778,184.3289858000353,3.7,184.3289858000353,0,3.7,1,0,1000,num_1,0.9123474000953138,,31,10,2026-03-12_14h12.09.832,2026A_exp2,2022.2.4,59.917840645136835,
1000,1,0.0,0.0,0,0,55,55,80,,,,,185.2631548999343,185.91395039996132,185.91395039996132,186.3982392998878,315,315,186.3982392998878,186.3982392998878,186.3982392998878,186.3982392998878,186.3982392998878,186.3982392998878,186.3982392998878,186.3982392998878,186.3982392998878,186.76481269998476,186.76481269998476,186.76481269998476,186.76481269998476,186.76481269998476,186.76481269998476,186.76481269998476,186.76481269998476,186.76481269998476,23,0,,,186.76481269998476,186.96738859987818,1000,186.96738859987818,1000,1000,1000,1000,0,num_3,0.8107225003186613,,31,10,2026-03-12_14h12.09.832,2026A_exp2,2022.2.4,59.917840645136835,
1000,1,6.1,0.0,1,0,56,56,16,,,,,187.79898689989932,188.4496629999485,188.4496629999485,188.95099789998494,45,315,188.95099789998494,188.95099789998494,188.95099789998494,188.95099789998494,188.95099789998494,188.95099789998494,188.95099789998494,188.95099789998494,188.95099789998494,189.3172710998915,189.3172710998915,189.3172710998915,189.3172710998915,189.3172710998915,189.3172710998915,189.3172710998915,189.3172710998915,189.3172710998915,23,0,,,189.3172710998915,189.51758929993957,1000,189.51758929993957,1000,1000,1000,1000,0,num_3,0.41998220002278686,,31,10,2026-03-12_14h12.09.832,2026A_exp2,2022.2.4,59.917840645136835,
1,0,0.0,0.0,0,0,57,57,1,,,,,189.96800099988468,190.6186967000831,190.6186967000831,191.1196757000871,45,315,191.1196757000871,191.1196757000871,191.1196757000871,191.1196757000871,191.1196757000871,191.1196757000871,191.1196757000871,191.1196757000871,191.1196757000871,191.46934220008552,191.46934220008552,191.46934220008552,191.46934220008552,191.46934220008552,191.46934220008552,191.46934220008552,191.46934220008552,191.46934220008552,21,1,[0.35027469997294247],[0.350279200123623],191.46934220008552,191.66972610005178,0.0,191.66972610005178,0,0.0,0,1,1000,num_1,0.7159700002521276,,31,10,2026-03-12_14h12.09.832,2026A_exp2,2022.2.4,59.917840645136835,
1000,1,4.9,0.0,1,0,58,58,22,,,,,192.40362889994867,193.03769499994814,193.03769499994814,193.53885850007646,315,45,193.53885850007646,193.53885850007646,193.53885850007646,193.53885850007646,193.53885850007646,193.53885850007646,193.53885850007646,193.53885850007646,193.53885850007646,193.90509800007567,193.90509800007567,193.90509800007567,193.90509800007567,193.90509800007567,193.90509800007567,193.90509800007567,193.90509800007567,193.90509800007567,22,1,[0.11692800000309944],[0.1336260000243783],193.90509800007567,194.10624419990927,1000,194.10624419990927,1000,1000,1000,1000,0,num_3,0.5589956003241241,,31,10,2026-03-12_14h12.09.832,2026A_exp2,2022.2.4,59.917840645136835,
1000,1,0.0,3.7,1,0,59,59,47,,,,,194.68918320001103,195.34000329999253,195.34000329999253,195.8410749998875,315,45,195.8410749998875,195.8410749998875,195.8410749998875,195.8410749998875,195.8410749998875,195.8410749998875,195.8410749998875,195.8410749998875,195.8410749998875,196.2075783999171,196.2075783999171,196.2075783999171,196.2075783999171,196.2075783999171,196.2075783999171,196.2075783999171,196.2075783999171,196.2075783999171,23,0,,,196.2075783999171,196.40949540003203,1000,196.40949540003203,1000,1000,1000,1000,1,num_2,0.48026810004375875,,31,10,2026-03-12_14h12.09.832,2026A_exp2,2022.2.4,59.917840645136835,
1,0,3.7,6.1,0,0,60,60,55,,,,,196.90814889990725,197.55895010009408,197.55895010009408,198.0600306999404,315,45,198.0600306999404,198.0600306999404,198.0600306999404,198.0600306999404,198.0600306999404,198.0600306999404,198.0600306999404,198.0600306999404,198.0600306999404,198.42632319987752,198.42632319987752,198.42632319987752,198.42632319987752,198.42632319987752,198.42632319987752,198.42632319987752,198.42632319987752,198.42632319987752,23,0,,,198.42632319987752,198.62665960006416,3.7,198.62665960006416,0,3.7,1,0,1000,num_1,0.6865025002043694,,31,10,2026-03-12_14h12.09.832,2026A_exp2,2022.2.4,59.917840645136835,
1000,1,0.0,0.0,1,0,61,61,27,,,,,199.34399800002575,199.97800330002792,199.97800330002792,200.47897480009124,45,45,200.47897480009124,200.47897480009124,200.47897480009124,200.47897480009124,200.47897480009124,200.47897480009124,200.47897480009124,200.47897480009124,200.47897480009124,200.845489700092,200.845489700092,200.845489700092,200.845489700092,200.845489700092,200.845489700092,200.845489700092,200.845489700092,200.845489700092,23,0,,,200.845489700092,201.0482210998889,1000,201.0482210998889,1000,1000,1000,1000,0,num_3,0.6422176002524793,,31,10,2026-03-12_14h12.09.832,2026A_exp2,2022.2.4,59.917840645136835,
1000,1,4.9,0.0,1,0,62,62,5,,,,,201.71287610009313,202.36365780001506,202.36365780001506,202.8647960999515,45,315,202.8647960999515,202.8647960999515,202.8647960999515,202.8647960999515,202.8647960999515,202.8647960999515,202.8647960999515,202.8647960999515,202.8647960999515,203.21443219995126,203.21443219995126,203.21443219995126,203.21443219995126,203.21443219995126,203.21443219995126,203.21443219995126,203.21443219995126,203.21443219995126,22,0,,,203.21443219995126,203.4167291999329,1000,203.4167291999329,1000,1000,1000,1000,0,num_3,0.3936838002409786,,31,10,2026-03-12_14h12.09.832,2026A_exp2,2022.2.4,59.917840645136835,
1000,1,0.0,6.1,1,0,63,63,62,,,,,203.83171699987724,204.48243619990535,204.48243619990535,204.98349420004524,45,315,204.98349420004524,204.98349420004524,204.98349420004524,204.98349420004524,204.98349420004524,204.98349420004524,204.98349420004524,204.98349420004524,204.98349420004524,205.35002780007198,205.35002780007198,205.35002780007198,205.35002780007198,205.35002780007198,205.35002780007198,205.35002780007198,205.35002780007198,205.35002780007198,19,2,"[0.0011752999853342772, 0.06689050002023578]","[0.03354030009359121, 0.10017310013063252]",205.35002780007198,205.55183669994585,1000,205.55183669994585,1000,1000,1000,1000,1,num_2,0.4816769000608474,,31,10,2026-03-12_14h12.09.832,2026A_exp2,2022.2.4,59.917840645136835,
1,0,6.1,4.9,0,0,64,64,24,,,,,206.05053350003436,206.70140470005572,206.70140470005572,207.20243529998697,315,45,207.20243529998697,207.20243529998697,207.20243529998697,207.20243529998697,207.20243529998697,207.20243529998697,207.20243529998697,207.20243529998697,207.20243529998697,207.5688541000709,207.5688541000709,207.5688541000709,207.5688541000709,207.5688541000709,207.5688541000709,207.5688541000709,207.5688541000709,207.5688541000709,0,1,[0.0012510998640209436],[0.3674641000106931],207.5688541000709,207.76916139991954,6.1,207.76916139991954,1,6.1,1,1,1000,num_4,0.9774420000612736,,31,10,2026-03-12_14h12.09.832,2026A_exp2,2022.2.4,59.917840645136835,
1000,1,0.0,0.0,0,0,65,65,18,,,,,208.76994529995136,209.42069200007245,209.42069200007245,209.90502679999918,45,45,209.90502679999918,209.90502679999918,209.90502679999918,209.90502679999918,209.90502679999918,209.90502679999918,209.90502679999918,209.90502679999918,209.90502679999918,210.27163139986806,210.27163139986806,210.27163139986806,210.27163139986806,210.27163139986806,210.27163139986806,210.27163139986806,210.27163139986806,210.27163139986806,3,4,"[0.00125070009380579, 0.04996139998547733, 0.0836028999183327, 0.1669483999721706]","[0.03354800003580749, 0.06682180007919669, 0.1502261001151055, 0.3669467999134213]",210.27163139986806,210.47199349990115,1000,210.47199349990115,1000,1000,1000,1000,0,num_3,0.9464565999805927,,31,10,2026-03-12_14h12.09.832,2026A_exp2,2022.2.4,59.917840645136835,
1,0,3.7,0.0,0,0,66,66,3,,,,,211.4393984999042,212.0900131999515,212.0900131999515,212.5910952000413,45,45,212.5910952000413,212.5910952000413,212.5910952000413,212.5910952000413,212.5910952000413,212.5910952000413,212.5910952000413,212.5910952000413,212.5910952000413,212.95759080001153,212.95759080001153,212.95759080001153,212.95759080001153,212.95759080001153,212.95759080001153,212.95759080001153,212.95759080001153,212.95759080001153,21,1,[0.2002842000219971],[0.2169955000281334],212.95759080001153,213.1577272999566,3.7,213.1577272999566,1,3.7,1,1,1000,num_4,0.7160309001337737,,31,10,2026-03-12_14h12.09.832,2026A_exp2,2022.2.4,59.917840645136835,
1,0,4.9,0.0,1,0,67,67,8,,,,,213.89169749990106,214.54245479987003,214.54245479987003,215.02687539998442,315,315,215.02687539998442,215.02687539998442,215.02687539998442,215.02687539998442,215.02687539998442,215.02687539998442,215.02687539998442,215.02687539998442,215.02687539998442,215.3933111000806,215.3933111000806,215.3933111000806,215.3933111000806,215.3933111000806,215.3933111000806,215.3933111000806,215.3933111000806,215.3933111000806,20,2,"[0.2338003001641482, 0.3336386000737548]","[0.26709700003266335, 0.3505305000580847]",215.3933111000806,215.59351289994083,0.0,215.59351289994083,0,0.0,0,1,1000,num_1,0.5770789000671357,,31,10,2026-03-12_14h12.09.832,2026A_exp2,2022.2.4,59.917840645136835,
1000,1,0.0,4.9,1,0,68,68,31,,,,,216.1941094000358,216.84491469990462,216.84491469990462,217.32939910003915,45,45,217.32939910003915,217.32939910003915,217.32939910003915,217.32939910003915,217.32939910003915,217.32939910003915,217.32939910003915,217.32939910003915,217.32939910003915,217.69563760003075,217.69563760003075,217.69563760003075,217.69563760003075,217.69563760003075,217.69563760003075,217.69563760003075,217.69563760003075,217.69563760003075,23,0,,,217.69563760003075,217.89802339999005,1000,217.89802339999005,1000,1000,1000,1000,1,num_2,0.5834749003406614,,31,10,2026-03-12_14h12.09.832,2026A_exp2,2022.2.4,59.917840645136835,
1000,1,3.7,4.9,1,0,69,69,44,,,,,218.51337699987926,219.1637941999361,219.1637941999361,219.66492130002007,315,315,219.66492130002007,219.66492130002007,219.66492130002007,219.66492130002007,219.66492130002007,219.66492130002007,219.66492130002007,219.66492130002007,219.66492130002007,220.01469029998407,220.01469029998407,220.01469029998407,220.01469029998407,220.01469029998407,220.01469029998407,220.01469029998407,220.01469029998407,220.01469029998407,16,3,"[0.05048859980888665, 0.2168355998583138, 0.2840216998010874]","[0.08362960000522435, 0.2504248998593539, 0.300739899976179]",220.01469029998407,220.21707460004836,1000,220.21707460004836,1000,1000,1000,1000,1,num_2,0.46508130012080073,,31,10,2026-03-12_14h12.09.832,2026A_exp2,2022.2.4,59.917840645136835,
1000,1,0.0,0.0,1,0,70,70,67,,,,,220.69858539989218,221.34937589988112,221.34937589988112,221.85050840000622,45,45,221.85050840000622,221.85050840000622,221.85050840000622,221.85050840000622,221.85050840000622,221.85050840000622,221.85050840000622,221.85050840000622,221.85050840000622,222.21693339990452,222.21693339990452,222.21693339990452,222.21693339990452,222.21693339990452,222.21693339990452,222.21693339990452,222.21693339990452,222.21693339990452,23,0,,,222.21693339990452,222.41962009994313,1000,222.41962009994313,1000,1000,1000,1000,0,num_3,0.7027358000632375,,31,10,2026-03-12_14h12.09.832,2026A_exp2,2022.2.4,59.917840645136835,
1000,1,0.0,0.0,0,0,71,71,15,,,,,223.15099620004185,223.80168609996326,223.80168609996326,224.30301719997078,45,315,224.30301719997078,224.30301719997078,224.30301719997078,224.30301719997078,224.30301719997078,224.30301719997078,224.30301719997078,224.30301719997078,224.30301719997078,224.66932979994453,224.66932979994453,224.66932979994453,224.66932979994453,224.66932979994453,224.66932979994453,224.66932979994453,224.66932979994453,224.66932979994453,23,0,,,224.66932979994453,224.8715218999423,1000,224.8715218999423,1000,1000,1000,1000,0,num_3,0.5066152999643236,,31,10,2026-03-12_14h12.09.832,2026A_exp2,2022.2.4,59.917840645136835,
1000,1,0.0,0.0,0,0,72,72,81,,,,,225.40332469996065,226.05393829988316,226.05393829988316,226.5552187000867,315,315,226.5552187000867,226.5552187000867,226.5552187000867,226.5552187000867,226.5552187000867,226.5552187000867,226.5552187000867,226.5552187000867,226.5552187000867,226.92157189990394,226.92157189990394,226.92157189990394,226.92157189990394,226.92157189990394,226.92157189990394,226.92157189990394,226.92157189990394,226.92157189990394,13,7,"[0.06687610014341772, 0.10039260005578399, 0.13363720010966063, 0.1671053001191467, 0.2002972001209855, 0.26671740016900003, 0.35066930018365383]","[0.08358049998059869, 0.11696130014024675, 0.15029900008812547, 0.18370210006833076, 0.21704780007712543, 0.3172774000559002, 0.36729850014671683]",226.92157189990394,227.12355670006946,1000,227.12355670006946,1000,1000,1000,1000,0,num_3,0.33373770024627447,,31,10,2026-03-12_14h12.09.832,2026A_exp2,2022.2.4,59.917840645136835,
1000,1,4.9,6.1,0,0,73,73,20,,,,,227.48896509991027,228.13937360001728,228.13937360001728,228.64062640001066,315,45,228.64062640001066,228.64062640001066,228.64062640001066,228.64062640001066,228.64062640001066,228.64062640001066,228.64062640001066,228.64062640001066,228.64062640001066,229.0070702000521,229.0070702000521,229.0070702000521,229.0070702000521,229.0070702000521,229.0070702000521,229.0070702000521,229.0070702000521,229.0070702000521,23,0,,,229.0070702000521,229.20931979990564,1000,229.20931979990564,1000,1000,1000,1000,1,num_2,0.6879042000509799,,31,10,2026-03-12_14h12.09.832,2026A_exp2,2022.2.4,59.917840645136835,
1000,1,0.0,3.7,0,0,74,74,78,,,,,229.92450449988246,230.55980859999545,230.55980859999545,231.07625479996204,315,315,231.07625479996204,231.07625479996204,231.07625479996204,231.07625479996204,231.07625479996204,231.07625479996204,231.07625479996204,231.07625479996204,231.07625479996204,231.4261300000362,231.4261300000362,231.4261300000362,231.4261300000362,231.4261300000362,231.4261300000362,231.4261300000362,231.4261300000362,231.4261300000362,22,0,,,231.4261300000362,231.62744130007923,1000,231.64309899997897,1000,1000,1000,1000,1,num_2,0.4875759002752602,,31,10,2026-03-12_14h12.09.832,2026A_exp2,2022.2.4,59.917840645136835,
1,0,6.1,4.9,0,0,75,75,39,,,,,232.16002710000612,232.8107914000284,232.8107914000284,233.31180769996718,45,45,233.31180769996718,233.31180769996718,233.31180769996718,233.31180769996718,233.31180769996718,233.31180769996718,233.31180769996718,233.31180769996718,233.31180769996718,233.67825599992648,233.67825599992648,233.67825599992648,233.67825599992648,233.67825599992648,233.67825599992648,233.67825599992648,233.67825599992648,233.67825599992648,22,1,[0.116268299985677],[0.13346510007977486],233.67825599992648,233.87839589989744,6.1,233.87839589989744,1,6.1,1,1,1000,num_4,0.8991590000223368,,31,10,2026-03-12_14h12.09.832,2026A_exp2,2022.2.4,59.917840645136835,
1000,1,0.0,0.0,0,0,76,76,17,,,,,234.79612349998206,235.44669950008392,235.44669950008392,235.9311714998912,315,315,235.9311714998912,235.9311714998912,235.9311714998912,235.9311714998912,235.9311714998912,235.9311714998912,235.9311714998912,235.9311714998912,235.9311714998912,236.2975349999033,236.2975349999033,236.2975349999033,236.2975349999033,236.2975349999033,236.2975349999033,236.2975349999033,236.2975349999033,236.2975349999033,21,1,[0.3166171999182552],[0.35034239990636706],236.2975349999033,236.5000529999379,1000,236.5000529999379,1000,1000,1000,1000,0,num_3,0.42965100007131696,,31,10,2026-03-12_14h12.09.832,2026A_exp2,2022.2.4,59.917840645136835,
1000,1,0.0,0.0,0,0,77,77,85,,,,,236.94812779990025,237.59900390007533,237.59900390007533,238.10013519995846,315,315,238.10013519995846,238.10013519995846,238.10013519995846,238.10013519995846,238.10013519995846,238.10013519995846,238.10013519995846,238.10013519995846,238.10013519995846,238.46652329992503,238.46652329992503,238.46652329992503,238.46652329992503,238.46652329992503,238.46652329992503,238.46652329992503,238.46652329992503,238.46652329992503,21,2,"[0.1335632000118494, 0.36706830002367496]","[0.1502153999172151, 0.36707270005717874]",238.46652329992503,238.6690563999582,1000,238.6690563999582,1000,1000,1000,1000,1,num_2,0.46888180007226765,,31,10,2026-03-12_14h12.09.832,2026A_exp2,2022.2.4,59.917840645136835,
0,0,0.0,3.7,1,0,78,78,10,,,,,239.1669381998945,239.81778849987313,239.81778849987313,240.30223240004852,45,315,240.30223240004852,240.30223240004852,240.30223240004852,240.30223240004852,240.30223240004852,240.30223240004852,240.30223240004852,240.30223240004852,240.30223240004852,240.66832099994645,240.66832099994645,240.66832099994645,240.66832099994645,240.66832099994645,240.66832099994645,240.66832099994645,240.66832099994645,240.66832099994645,23,0,,,240.66832099994645,240.86882179998793,0.0,240.86882179998793,0,0.0,0,1,1000,num_1,0.7814025999978185,,31,10,2026-03-12_14h12.09.832,2026A_exp2,2022.2.4,59.917840645136835,
1,0,0.0,0.0,1,0,79,79,87,,,,,241.66955120000057,242.32039700006135,242.32039700006135,242.80473340000026,45,45,242.80473340000026,242.80473340000026,242.80473340000026,242.80473340000026,242.80473340000026,242.80473340000026,242.80473340000026,242.80473340000026,242.80473340000026,243.17115529999137,243.17115529999137,243.17115529999137,243.17115529999137,243.17115529999137,243.17115529999137,243.17115529999137,243.17115529999137,243.17115529999137,23,0,,,243.17115529999137,243.37143069994636,0.0,243.37143069994636,0,0.0,0,1,1000,num_1,0.7498614001087844,,31,10,2026-03-12_14h12.09.832,2026A_exp2,2022.2.4,59.917840645136835,
1000,1,6.1,0.0,1,0,80,80,30,,,,,244.13874670001678,244.7891659999732,244.7891659999732,245.27389180008322,45,45,245.27389180008322,245.27389180008322,245.27389180008322,245.27389180008322,245.27389180008322,245.27389180008322,245.27389180008322,245.27389180008322,245.27389180008322,245.64033739990555,245.64033739990555,245.64033739990555,245.64033739990555,245.64033739990555,245.64033739990555,245.64033739990555,245.64033739990555,245.64033739990555,23,0,,,245.64033739990555,245.84217879991047,1000,245.84217879991047,1000,1000,1000,1000,0,num_3,0.41613909997977316,,31,10,2026-03-12_14h12.09.832,2026A_exp2,2022.2.4,59.917840645136835,
1,0,4.9,0.0,1,0,81,81,38,,,,,246.27418199996464,246.92496149986982,246.92496149986982,247.42604349995963,45,45,247.42604349995963,247.42604349995963,247.42604349995963,247.42604349995963,247.42604349995963,247.42604349995963,247.42604349995963,247.42604349995963,247.42604349995963,247.79250889993273,247.79250889993273,247.79250889993273,247.79250889993273,247.79250889993273,247.79250889993273,247.79250889993273,247.79250889993273,247.79250889993273,22,1,[0.13305790000595152],[0.14991230005398393],247.79250889993273,247.99272300000302,0.0,247.99272300000302,0,0.0,0,1,1000,num_1,0.6412411001510918,,31,10,2026-03-12_14h12.09.832,2026A_exp2,2022.2.4,59.917840645136835,
1000,1,4.9,6.1,1,0,82,82,28,,,,,248.65998229989782,249.3107028999366,249.3107028999366,249.79499470000155,45,315,249.79499470000155,249.79499470000155,249.79499470000155,249.79499470000155,249.79499470000155,249.79499470000155,249.79499470000155,249.79499470000155,249.79499470000155,250.16142240003683,250.16142240003683,250.16142240003683,250.16142240003683,250.16142240003683,250.16142240003683,250.16142240003683,250.16142240003683,250.16142240003683,23,0,,,250.16142240003683,250.36368299997412,1000,250.36368299997412,1000,1000,1000,1000,0,num_3,1.0776106000412256,,31,10,2026-03-12_14h12.09.832,2026A_exp2,2022.2.4,59.917840645136835,
1000,1,0.0,4.9,1,0,83,83,79,,,,,251.46255899989046,252.11333080008626,252.11333080008626,252.61456210003234,315,45,252.61456210003234,252.61456210003234,252.61456210003234,252.61456210003234,252.61456210003234,252.61456210003234,252.61456210003234,252.61456210003234,252.61456210003234,252.98092889995314,252.98092889995314,252.98092889995314,252.98092889995314,252.98092889995314,252.98092889995314,252.98092889995314,252.98092889995314,252.98092889995314,23,0,,,252.98092889995314,253.18295629997738,1000,253.18295629997738,1000,1000,1000,1000,1,num_2,0.43484630016610026,,31,10,2026-03-12_14h12.09.832,2026A_exp2,2022.2.4,59.917840645136835,
1,0,0.0,0.0,0,0,84,84,29,,,,,253.64823319995776,254.29889760003425,254.29889760003425,254.80009449995123,45,315,254.80009449995123,254.80009449995123,254.80009449995123,254.80009449995123,254.80009449995123,254.80009449995123,254.80009449995123,254.80009449995123,254.80009449995123,255.14984670002013,255.14984670002013,255.14984670002013,255.14984670002013,255.14984670002013,255.14984670002013,255.14984670002013,255.14984670002013,255.14984670002013,16,3,"[0.06689229980111122, 0.18388549983501434, 0.28391879983246326]","[0.08370279986411333, 0.23381209978833795, 0.3171361999120563]",255.14984670002013,255.34999940008856,0.0,255.34999940008856,0,0.0,0,1,1000,num_1,0.9641077001579106,,31,10,2026-03-12_14h12.09.832,2026A_exp2,2022.2.4,59.917840645136835,
1000,1,3.7,4.9,1,0,85,85,43,,,,,256.3342041000724,256.9849086999893,256.9849086999893,257.4693597999867,315,315,257.4693597999867,257.4693597999867,257.4693597999867,257.4693597999867,257.4693597999867,257.4693597999867,257.4693597999867,257.4693597999867,257.4693597999867,257.83556280005723,257.83556280005723,257.83556280005723,257.83556280005723,257.83556280005723,257.83556280005723,257.83556280005723,257.83556280005723,257.83556280005723,23,0,,,257.83556280005723,258.03783660009503,1000,258.03783660009503,1000,1000,1000,1000,1,num_2,0.48342860001139343,,31,10,2026-03-12_14h12.09.832,2026A_exp2,2022.2.4,59.917840645136835,
1,0,0.0,6.1,0,0,86,86,11,,,,,258.5364482998848,259.18688619998284,259.18688619998284,259.6880628000945,315,45,259.6880628000945,259.6880628000945,259.6880628000945,259.6880628000945,259.6880628000945,259.6880628000945,259.6880628000945,259.6880628000945,259.6880628000945,260.05472930008546,260.05472930008546,260.05472930008546,260.05472930008546,260.05472930008546,260.05472930008546,260.05472930008546,260.05472930008546,260.05472930008546,23,0,,,260.05472930008546,260.25484629999846,0.0,260.25484629999846,0,0.0,0,1,1000,num_1,0.7557677002623677,,31,10,2026-03-12_14h12.09.832,2026A_exp2,2022.2.4,59.917840645136835,
1000,1,3.7,6.1,0,0,87,87,0,,,,,261.03901889990084,261.6897082000505,261.6897082000505,262.17430919990875,315,45,262.17430919990875,262.17430919990875,262.17430919990875,262.17430919990875,262.17430919990875,262.17430919990875,262.17430919990875,262.17430919990875,262.17430919990875,262.5405383000616,262.5405383000616,262.5405383000616,262.5405383000616,262.5405383000616,262.5405383000616,262.5405383000616,262.5405383000616,262.5405383000616,23,0,,,262.5405383000616,262.7420759999659,1000,262.7420759999659,1000,1000,1000,1000,0,num_3,0.8671882001217455,,31,10,2026-03-12_14h12.09.832,2026A_exp2,2022.2.4,59.917840645136835,
1000,1,0.0,0.0,1,0,88,88,23,,,,,263.6248373000417,264.27569189993665,264.27569189993665,264.7766934998799,315,315,264.7766934998799,264.7766934998799,264.7766934998799,264.7766934998799,264.7766934998799,264.7766934998799,264.7766934998799,264.7766934998799,264.7766934998799,265.14306779997423,265.14306779997423,265.14306779997423,265.14306779997423,265.14306779997423,265.14306779997423,265.14306779997423,265.14306779997423,265.14306779997423,23,0,,,265.14306779997423,265.3448538999073,1000,265.3448538999073,1000,1000,1000,1000,0,num_3,0.7768509001471102,,31,10,2026-03-12_14h12.09.832,2026A_exp2,2022.2.4,59.917840645136835,
1,0,0.0,6.1,0,0,89,89,60,,,,,266.1439612999093,266.7948539000936,266.7948539000936,267.2791184000671,315,315,267.2791184000671,267.2791184000671,267.2791184000671,267.2791184000671,267.2791184000671,267.2791184000671,267.2791184000671,267.2791184000671,267.2791184000671,267.6455735999625,267.6455735999625,267.6455735999625,267.6455735999625,267.6455735999625,267.6455735999625,267.6455735999625,267.6455735999625,267.6455735999625,23,0,,,267.6455735999625,267.8457947000861,0.0,267.8457947000861,1,0.0,0,0,1000,num_4,1.0675957002677023,,31,10,2026-03-12_14h12.09.832,2026A_exp2,2022.2.4,59.917840645136835,
,,,,,,,,,,,,,,,,,,,,,,,,,,,,,,,,,,,,,,,,,,,,,,,,,,,,268.93503140006214,,,,,,,
