validity,detectorcomp,contrastCW,contrastCCW,precueCWorCCW,block_80trials.thisRepN,block_80trials.thisTrialN,block_80trials.thisN,block_80trials.thisIndex,etRecord.started,etRecord.stopped,text.started,text.stopped,text_4.started,text_4.stopped,text_6.started,text_6.stopped,oriCW,oriCCW,roi_2.started,grating_UR.started,grating_UL.started,grating_LR.started,grating_LL.started,noise_UR.started,noise_UL.started,noise_LR.started,noise_LL.started,roi_2.stopped,grating_UR.stopped,grating_UL.stopped,grating_LR.stopped,grating_LL.stopped,noise_UR.stopped,noise_UL.stopped,noise_LR.stopped,noise_LL.stopped,outframe,roi_2.numLooks,roi_2.timesOn,roi_2.timesOff,text_2.started,text_2.stopped,probedcontrast,key_resp.started,respdetect,relevantContrast,correctDetect,TorFdetect,respCWorCCW,key_resp.keys,key_resp.rt,feedback_display_.started,participantNo,blockNo,date,expName,psychopyVersion,frameRate,
1,0,0.0,0.0,0,0,0,0,49,3.400002606213093e-05,3.400002606213093e-05,46.40033009997569,48.40576540003531,48.40576540003531,49.03678629989736,49.03678629989736,49.565508499974385,315,315,49.565508499974385,49.565508499974385,49.565508499974385,49.565508499974385,49.565508499974385,49.565508499974385,49.565508499974385,49.565508499974385,49.565508499974385,49.904319799970835,49.904319799970835,49.904319799970835,49.904319799970835,49.904319799970835,49.904319799970835,49.904319799970835,49.904319799970835,49.904319799970835,0,1,[0.0010059000924229622],[0.3676869999617338],49.904319799970835,50.10456579993479,0.0,50.10456579993479,0,0.0,0,1,1000,num_1,0.5921948000323027,,34,16,2026-03-13_11h28.33.939,2026A_exp2,2022.2.4,59.925309056251926,
1000,1,3.7,3.7,1,0,1,1,88,,,,,50.72190169990063,51.37247320008464,51.37247320008464,51.87366000004113,45,45,51.87366000004113,51.87366000004113,51.87366000004113,51.87366000004113,51.87366000004113,51.87366000004113,51.87366000004113,51.87366000004113,51.87366000004113,52.22329020011239,52.22329020011239,52.22329020011239,52.22329020011239,52.22329020011239,52.22329020011239,52.22329020011239,52.22329020011239,52.22329020011239,0,1,[0.0013816999271512032],[0.3504216999281198],52.22329020011239,52.427529300097376,1000,52.427529300097376,1000,1000,1000,1000,1,num_2,0.5742569998838007,,34,16,2026-03-13_11h28.33.939,2026A_exp2,2022.2.4,59.925309056251926,
1000,1,4.9,0.0,0,0,2,2,20,,,,,53.02423519990407,53.674533599987626,53.674533599987626,54.17599719995633,315,315,54.17599719995633,54.17599719995633,54.17599719995633,54.17599719995633,54.17599719995633,54.17599719995633,54.17599719995633,54.17599719995633,54.17599719995633,54.52567850006744,54.52567850006744,54.52567850006744,54.52567850006744,54.52567850006744,54.52567850006744,54.52567850006744,54.52567850006744,54.52567850006744,0,1,[0.0012727000284940004],[0.35067409998737276],54.52567850006744,54.72756000002846,1000,54.72756000002846,1000,1000,1000,1000,0,num_3,0.4249463998712599,,34,16,2026-03-13_11h28.33.939,2026A_exp2,2022.2.4,59.925309056251926,
1000,1,4.9,4.9,1,0,3,3,85,,,,,55.17637180001475,55.826901899883524,55.826901899883524,56.32808559993282,315,45,56.32808559993282,56.32808559993282,56.32808559993282,56.32808559993282,56.32808559993282,56.32808559993282,56.32808559993282,56.32808559993282,56.32808559993282,56.69431310007349,56.69431310007349,56.69431310007349,56.69431310007349,56.69431310007349,56.69431310007349,56.69431310007349,56.69431310007349,56.69431310007349,0,1,[0.0012199999764561653],[0.3672263000626117],56.69431310007349,56.89686880004592,1000,56.89686880004592,1000,1000,1000,1000,1,num_2,0.5998949999921024,,34,16,2026-03-13_11h28.33.939,2026A_exp2,2022.2.4,59.925309056251926,
1,0,0.0,4.9,0,0,4,4,35,,,,,57.51199520006776,58.16255769995041,58.16255769995041,58.66375710000284,45,45,58.66375710000284,58.66375710000284,58.66375710000284,58.66375710000284,58.66375710000284,58.66375710000284,58.66375710000284,58.66375710000284,58.66375710000284,59.03009829996154,59.03009829996154,59.03009829996154,59.03009829996154,59.03009829996154,59.03009829996154,59.03009829996154,59.03009829996154,59.03009829996154,0,1,[0.0012997000012546778],[0.36730149993672967],59.03009829996154,59.23016440006904,0.0,59.23016440006904,0,0.0,0,1,1000,num_1,0.49886279995553195,,34,16,2026-03-13_11h28.33.939,2026A_exp2,2022.2.4,59.925309056251926,
1000,1,0.0,0.0,0,0,5,5,47,,,,,59.74742590007372,60.4067337999586,60.4067337999586,60.8826979000587,45,315,60.8826979000587,60.8826979000587,60.8826979000587,60.8826979000587,60.8826979000587,60.8826979000587,60.8826979000587,60.8826979000587,60.8826979000587,61.2490413999185,61.2490413999185,61.2490413999185,61.2490413999185,61.2490413999185,61.2490413999185,61.2490413999185,61.2490413999185,61.2490413999185,0,1,[0.0012507999781519175],[0.3673090999945998],61.2490413999185,61.451347399968654,1000,61.451347399968654,1000,1000,1000,1000,1,num_2,0.5012946000788361,,34,16,2026-03-13_11h28.33.939,2026A_exp2,2022.2.4,59.925309056251926,
1,0,0.0,3.7,0,0,6,6,22,,,,,61.98287310008891,62.63375889998861,62.63375889998861,63.134796200087294,45,315,63.134796200087294,63.134796200087294,63.134796200087294,63.134796200087294,63.134796200087294,63.134796200087294,63.134796200087294,63.134796200087294,63.134796200087294,63.48457009997219,63.48457009997219,63.48457009997219,63.48457009997219,63.48457009997219,63.48457009997219,63.48457009997219,63.48457009997219,63.48457009997219,0,1,[0.0012171000707894564],[0.35073460009880364],63.48457009997219,63.68485699989833,0.0,63.68485699989833,0,0.0,0,1,1000,num_1,0.45223679998889565,,34,16,2026-03-13_11h28.33.939,2026A_exp2,2022.2.4,59.925309056251926,
1000,1,4.9,0.0,1,0,7,7,7,,,,,64.1684989000205,64.81932929996401,64.81932929996401,65.32045660004951,315,45,65.32045660004951,65.32045660004951,65.32045660004951,65.32045660004951,65.32045660004951,65.32045660004951,65.32045660004951,65.32045660004951,65.32045660004951,65.68683069990948,65.68683069990948,65.68683069990948,65.68683069990948,65.68683069990948,65.68683069990948,65.68683069990948,65.68683069990948,65.68683069990948,0,1,[0.0012268000282347202],[0.36722479993477464],65.68683069990948,65.88946809992194,1000,65.88946809992194,1000,1000,1000,1000,0,num_3,0.42420989996753633,,34,16,2026-03-13_11h28.33.939,2026A_exp2,2022.2.4,59.925309056251926,
1000,1,0.0,0.0,1,0,8,8,70,,,,,66.3374359998852,66.98809610004537,66.98809610004537,67.48909369995818,315,45,67.48909369995818,67.48909369995818,67.48909369995818,67.48909369995818,67.48909369995818,67.48909369995818,67.48909369995818,67.48909369995818,67.48909369995818,67.85563659993932,67.85563659993932,67.85563659993932,67.85563659993932,67.85563659993932,67.85563659993932,67.85563659993932,67.85563659993932,67.85563659993932,0,1,[0.0013264999724924564],[0.3673362999688834],67.85563659993932,68.05769499996677,1000,68.05769499996677,1000,1000,1000,1000,1,num_2,0.47206609998829663,,34,16,2026-03-13_11h28.33.939,2026A_exp2,2022.2.4,59.925309056251926,
1,0,0.0,4.9,1,0,9,9,65,,,,,68.55634170002304,69.20699739991687,69.20699739991687,69.7081563998945,45,45,69.7081563998945,69.7081563998945,69.7081563998945,69.7081563998945,69.7081563998945,69.7081563998945,69.7081563998945,69.7081563998945,69.7081563998945,70.05785369989462,70.05785369989462,70.05785369989462,70.05785369989462,70.05785369989462,70.05785369989462,70.05785369989462,70.05785369989462,70.05785369989462,0,1,[0.0012110001407563686],[0.3505353999789804],70.05785369989462,70.2578732999973,4.9,70.27461920003407,1,4.9,1,1,1000,num_4,0.6462866000365466,,34,16,2026-03-13_11h28.33.939,2026A_exp2,2022.2.4,59.925309056251926,
1,0,4.9,0.0,0,0,10,10,87,,,,,70.94371480005793,71.59273630008101,71.59273630008101,72.09383510006592,315,315,72.09383510006592,72.09383510006592,72.09383510006592,72.09383510006592,72.09383510006592,72.09383510006592,72.09383510006592,72.09383510006592,72.09383510006592,72.46034440002404,72.46034440002404,72.46034440002404,72.46034440002404,72.46034440002404,72.46034440002404,72.46034440002404,72.46034440002404,72.46034440002404,0,1,[0.0012678999919444323],[0.36719810008071363],72.46034440002404,72.66037410008721,4.9,72.66037410008721,1,4.9,1,1,1000,num_4,0.5802718000486493,,34,16,2026-03-13_11h28.33.939,2026A_exp2,2022.2.4,59.925309056251926,
1000,1,6.1,0.0,1,0,11,11,52,,,,,73.26102399989031,73.91167899989523,73.91167899989523,74.39634119998664,315,315,74.39634119998664,74.39634119998664,74.39634119998664,74.39634119998664,74.39634119998664,74.39634119998664,74.39634119998664,74.39634119998664,74.39634119998664,74.76247430010699,74.76247430010699,74.76247430010699,74.76247430010699,74.76247430010699,74.76247430010699,74.76247430010699,74.76247430010699,74.76247430010699,0,1,[0.0011142001021653414],[0.36701090005226433],74.76247430010699,74.96457630000077,1000,74.96457630000077,1000,1000,1000,1000,0,num_3,0.468226500088349,,34,16,2026-03-13_11h28.33.939,2026A_exp2,2022.2.4,59.925309056251926,
1,0,0.0,0.0,0,0,12,12,66,,,,,75.46328140003607,76.11390940006822,76.11390940006822,76.61484559997916,315,315,76.61484559997916,76.61484559997916,76.61484559997916,76.61484559997916,76.61484559997916,76.61484559997916,76.61484559997916,76.61484559997916,76.61484559997916,76.9647013999056,76.9647013999056,76.9647013999056,76.9647013999056,76.9647013999056,76.9647013999056,76.9647013999056,76.9647013999056,76.9647013999056,0,1,[0.0012164998333901167],[0.3506018999032676],76.9647013999056,77.16499889991246,0.0,77.18151529994793,0,0.0,0,1,1000,num_1,0.5949607000220567,,34,16,2026-03-13_11h28.33.939,2026A_exp2,2022.2.4,59.925309056251926,
1,0,0.0,0.0,1,0,13,13,82,,,,,77.79871400003321,78.44964320003055,78.44964320003055,78.93405480007641,45,315,78.93405480007641,78.93405480007641,78.93405480007641,78.93405480007641,78.93405480007641,78.93405480007641,78.93405480007641,78.93405480007641,78.93405480007641,79.30041250004433,79.30041250004433,79.30041250004433,79.30041250004433,79.30041250004433,79.30041250004433,79.30041250004433,79.30041250004433,79.30041250004433,0,1,[0.0014254001434892416],[0.36710280016995966],79.30041250004433,79.50045459996909,0.0,79.50045459996909,1,0.0,0,0,1000,num_4,1.1403133999556303,,34,16,2026-03-13_11h28.33.939,2026A_exp2,2022.2.4,59.925309056251926,
1000,1,0.0,3.7,1,0,14,14,75,,,,,80.66837630001828,81.30239990004338,81.30239990004338,81.80351089988835,45,45,81.80351089988835,81.80351089988835,81.80351089988835,81.80351089988835,81.80351089988835,81.80351089988835,81.80351089988835,81.80351089988835,81.80351089988835,82.16998600005172,82.16998600005172,82.16998600005172,82.16998600005172,82.16998600005172,82.16998600005172,82.16998600005172,82.16998600005172,82.16998600005172,0,1,[0.0012254000175744295],[0.367082699900493],82.16998600005172,82.3717662000563,1000,82.3717662000563,1000,1000,1000,1000,1,num_2,0.4217788998503238,,34,16,2026-03-13_11h28.33.939,2026A_exp2,2022.2.4,59.925309056251926,
1,0,0.0,0.0,0,0,15,15,0,,,,,82.82052659988403,83.47116649989039,83.47116649989039,83.97233080002479,45,315,83.97233080002479,83.97233080002479,83.97233080002479,83.97233080002479,83.97233080002479,83.97233080002479,83.97233080002479,83.97233080002479,83.97233080002479,84.33867720002308,84.33867720002308,84.33867720002308,84.33867720002308,84.33867720002308,84.33867720002308,84.33867720002308,84.33867720002308,84.33867720002308,0,1,[0.001375799998641014],[0.3673411998897791],84.33867720002308,84.53890029992908,0.0,84.53890029992908,0,0.0,0,1,1000,num_1,0.5344638999085873,,34,16,2026-03-13_11h28.33.939,2026A_exp2,2022.2.4,59.925309056251926,
1000,1,4.9,4.9,1,0,16,16,26,,,,,85.08940059994347,85.74022929999046,85.74022929999046,86.22466640011407,45,45,86.22466640011407,86.22466640011407,86.22466640011407,86.22466640011407,86.22466640011407,86.22466640011407,86.22466640011407,86.22466640011407,86.22466640011407,86.59104739991017,86.59104739991017,86.59104739991017,86.59104739991017,86.59104739991017,86.59104739991017,86.59104739991017,86.59104739991017,86.59104739991017,0,1,[0.0012521001044660807],[0.36721200007013977],86.59104739991017,86.79270479991101,1000,86.79270479991101,1000,1000,1000,1000,1,num_2,0.4000988998450339,,34,16,2026-03-13_11h28.33.939,2026A_exp2,2022.2.4,59.925309056251926,
1,0,0.0,3.7,1,0,17,17,25,,,,,87.2081685999874,87.85890270001255,87.85890270001255,88.35953280003741,45,315,88.35953280003741,88.35953280003741,88.35953280003741,88.35953280003741,88.35953280003741,88.35953280003741,88.35953280003741,88.35953280003741,88.35953280003741,88.72655169991776,88.72655169991776,88.72655169991776,88.72655169991776,88.72655169991776,88.72655169991776,88.72655169991776,88.72655169991776,88.72655169991776,0,1,[0.004225000040605664],[0.38052030000835657],88.72655169991776,88.92670170008205,3.7,88.92670170008205,1,3.7,1,1,1000,num_4,0.4104155998211354,,34,16,2026-03-13_11h28.33.939,2026A_exp2,2022.2.4,59.925309056251926,
1000,1,6.1,0.0,1,0,18,18,79,,,,,89.36027160007507,90.01113849994726,90.01113849994726,90.49613140011206,45,315,90.49613140011206,90.49613140011206,90.49613140011206,90.49613140011206,90.49613140011206,90.49613140011206,90.49613140011206,90.49613140011206,90.49613140011206,90.86184450006112,90.86184450006112,90.86184450006112,90.86184450006112,90.86184450006112,90.86184450006112,90.86184450006112,90.86184450006112,90.86184450006112,0,1,[0.0018082000315189362],[0.3665966000407934],90.86184450006112,91.06217069993727,1000,91.06217069993727,1000,1000,1000,1000,0,num_3,0.36222700006328523,,34,16,2026-03-13_11h28.33.939,2026A_exp2,2022.2.4,59.925309056251926,
1000,1,3.7,4.9,0,0,19,19,13,,,,,91.44566889991984,92.09640539996326,92.09640539996326,92.59762159991078,315,45,92.59762159991078,92.59762159991078,92.59762159991078,92.59762159991078,92.59762159991078,92.59762159991078,92.59762159991078,92.59762159991078,92.59762159991078,92.94730710005388,92.94730710005388,92.94730710005388,92.94730710005388,92.94730710005388,92.94730710005388,92.94730710005388,92.94730710005388,92.94730710005388,0,1,[0.0012517001014202833],[0.35063540004193783],92.94730710005388,93.15619140001945,1000,93.15619140001945,1000,1000,1000,1000,1,num_2,0.41294769989326596,,34,16,2026-03-13_11h28.33.939,2026A_exp2,2022.2.4,59.925309056251926,
1000,1,0.0,6.1,1,0,20,20,3,,,,,93.59793070005253,94.24887069989927,94.24887069989927,94.74939780007116,315,45,94.74939780007116,94.74939780007116,94.74939780007116,94.74939780007116,94.74939780007116,94.74939780007116,94.74939780007116,94.74939780007116,94.74939780007116,95.09936999995261,95.09936999995261,95.09936999995261,95.09936999995261,95.09936999995261,95.09936999995261,95.09936999995261,95.09936999995261,95.09936999995261,0,1,[0.0008080999832600355],[0.3512508999556303],95.09936999995261,95.30208200006746,1000,95.30208200006746,1000,1000,1000,1000,1,num_2,0.40329389995895326,,34,16,2026-03-13_11h28.33.939,2026A_exp2,2022.2.4,59.925309056251926,
1000,1,6.1,6.1,0,0,21,21,56,,,,,95.73336729989387,96.3841945999302,96.3841945999302,96.88530580000952,315,45,96.88530580000952,96.88530580000952,96.88530580000952,96.88530580000952,96.88530580000952,96.88530580000952,96.88530580000952,96.88530580000952,96.88530580000952,97.25169999990612,97.25169999990612,97.25169999990612,97.25169999990612,97.25169999990612,97.25169999990612,97.25169999990612,97.25169999990612,97.25169999990612,0,1,[0.0014253000263124704],[0.3667724998667836],97.25169999990612,97.45826309989206,1000,97.45826309989206,1000,1000,1000,1000,1,num_2,0.39944460010156035,,34,16,2026-03-13_11h28.33.939,2026A_exp2,2022.2.4,59.925309056251926,
1,0,4.9,0.0,0,0,22,22,23,,,,,97.88561169989407,98.53636160003953,98.53636160003953,99.03748359996825,315,45,99.03748359996825,99.03748359996825,99.03748359996825,99.03748359996825,99.03748359996825,99.03748359996825,99.03748359996825,99.03748359996825,99.03748359996825,99.38707770011388,99.38707770011388,99.38707770011388,99.38707770011388,99.38707770011388,99.38707770011388,99.38707770011388,99.38707770011388,99.38707770011388,0,1,[0.0012140001635998487],[0.3502398000564426],99.38707770011388,99.58728590002283,4.9,99.58728590002283,0,4.9,1,0,1000,num_1,0.5425154999829829,,34,16,2026-03-13_11h28.33.939,2026A_exp2,2022.2.4,59.925309056251926,
1,0,3.7,4.9,0,0,23,23,84,,,,,100.15458699990995,100.80512050003745,100.80512050003745,101.3063994999975,315,315,101.3063994999975,101.3063994999975,101.3063994999975,101.3063994999975,101.3063994999975,101.3063994999975,101.3063994999975,101.3063994999975,101.3063994999975,101.67286910000257,101.67286910000257,101.67286910000257,101.67286910000257,101.67286910000257,101.67286910000257,101.67286910000257,101.67286910000257,101.67286910000257,0,1,[0.0013427999801933765],[0.36682450002990663],101.67286910000257,101.87287109997123,3.7,101.87287109997123,0,3.7,1,0,1000,num_1,0.5124512000475079,,34,16,2026-03-13_11h28.33.939,2026A_exp2,2022.2.4,59.925309056251926,
1,0,0.0,4.9,1,0,24,24,36,,,,,102.40675550000742,103.0574252998922,103.0574252998922,103.5418273000978,315,315,103.5418273000978,103.5418273000978,103.5418273000978,103.5418273000978,103.5418273000978,103.5418273000978,103.5418273000978,103.5418273000978,103.5418273000978,103.9083070999477,103.9083070999477,103.9083070999477,103.9083070999477,103.9083070999477,103.9083070999477,103.9083070999477,103.9083070999477,103.9083070999477,0,1,[0.0012504998594522476],[0.36678539984859526],103.9083070999477,104.10842190007679,4.9,104.10842190007679,1,4.9,1,1,1000,num_4,0.660858100047335,,34,16,2026-03-13_11h28.33.939,2026A_exp2,2022.2.4,59.925309056251926,
1,0,4.9,0.0,1,0,25,25,48,,,,,104.79249750007875,105.44315989990719,105.44315989990719,105.92758539994247,315,315,105.92758539994247,105.92758539994247,105.92758539994247,105.92758539994247,105.92758539994247,105.92758539994247,105.92758539994247,105.92758539994247,105.92758539994247,106.2940223000478,106.2940223000478,106.2940223000478,106.2940223000478,106.2940223000478,106.2940223000478,106.2940223000478,106.2940223000478,106.2940223000478,0,1,[0.0012086001224815845],[0.36711180000565946],106.2940223000478,106.49432260007598,0.0,106.49432260007598,0,0.0,0,1,1000,num_1,0.6103232000023127,,34,16,2026-03-13_11h28.33.939,2026A_exp2,2022.2.4,59.925309056251926,
1,0,6.1,4.9,0,0,26,26,30,,,,,107.12803960009478,107.77888539992273,107.77888539992273,108.26323510007933,315,315,108.26323510007933,108.26323510007933,108.26323510007933,108.26323510007933,108.26323510007933,108.26323510007933,108.26323510007933,108.26323510007933,108.26323510007933,108.62978599988855,108.62978599988855,108.62978599988855,108.62978599988855,108.62978599988855,108.62978599988855,108.62978599988855,108.62978599988855,108.62978599988855,0,1,[0.0012105000205338001],[0.36726460000500083],108.62978599988855,108.82999780005775,6.1,108.82999780005775,0,6.1,1,0,1000,num_1,0.47448670002631843,,34,16,2026-03-13_11h28.33.939,2026A_exp2,2022.2.4,59.925309056251926,
1000,1,6.1,4.9,0,0,27,27,77,,,,,109.33031870005652,109.98108180006966,109.98108180006966,110.46556939999573,45,315,110.46556939999573,110.46556939999573,110.46556939999573,110.46556939999573,110.46556939999573,110.46556939999573,110.46556939999573,110.46556939999573,110.46556939999573,110.83196959993802,110.83196959993802,110.83196959993802,110.83196959993802,110.83196959993802,110.83196959993802,110.83196959993802,110.83196959993802,110.83196959993802,2,2,"[0.0012796998489648104, 0.03336580004543066]","[0.01734700007364154, 0.36720029986463487]",110.83196959993802,111.0339154000394,1000,111.0339154000394,1000,1000,1000,1000,1,num_2,0.6865633998531848,,34,16,2026-03-13_11h28.33.939,2026A_exp2,2022.2.4,59.925309056251926,
1000,1,6.1,3.7,1,0,28,28,45,,,,,111.74954280001111,112.4000081999693,112.4000081999693,112.88459710008465,45,45,112.88459710008465,112.88459710008465,112.88459710008465,112.88459710008465,112.88459710008465,112.88459710008465,112.88459710008465,112.88459710008465,112.88459710008465,113.25102810002863,113.25102810002863,113.25102810002863,113.25102810002863,113.25102810002863,113.25102810002863,113.25102810002863,113.25102810002863,113.25102810002863,0,1,[0.0012023001909255981],[0.36725850007496774],113.25102810002863,113.45287259994075,1000,113.45287259994075,1000,1000,1000,1000,0,num_3,0.4603644998278469,,34,16,2026-03-13_11h28.33.939,2026A_exp2,2022.2.4,59.925309056251926,
1000,1,0.0,4.9,0,0,29,29,9,,,,,113.93489939998835,114.59159919992089,114.59159919992089,115.0972291000653,315,45,115.0972291000653,115.0972291000653,115.0972291000653,115.0972291000653,115.0972291000653,115.0972291000653,115.0972291000653,115.0972291000653,115.0972291000653,115.43657550006174,115.43657550006174,115.43657550006174,115.43657550006174,115.43657550006174,115.43657550006174,115.43657550006174,115.43657550006174,115.43657550006174,0,1,[0.0034979998599737883],[0.3480634998995811],115.43657550006174,115.63878739997745,1000,115.65338929998688,1000,1000,1000,1000,1,num_2,0.5876159998588264,,34,16,2026-03-13_11h28.33.939,2026A_exp2,2022.2.4,59.925309056251926,
1,0,0.0,3.7,1,0,30,30,10,,,,,116.27076159999706,116.92122830008157,116.92122830008157,117.42250040010549,45,315,117.42250040010549,117.42250040010549,117.42250040010549,117.42250040010549,117.42250040010549,117.42250040010549,117.42250040010549,117.42250040010549,117.42250040010549,117.78892589989118,117.78892589989118,117.78892589989118,117.78892589989118,117.78892589989118,117.78892589989118,117.78892589989118,117.78892589989118,117.78892589989118,0,1,[0.001267199870198965],[0.3670183999929577],117.78892589989118,117.98901079990901,3.7,117.98901079990901,1,3.7,1,1,1000,num_4,0.603275400120765,,34,16,2026-03-13_11h28.33.939,2026A_exp2,2022.2.4,59.925309056251926,
1,0,3.7,4.9,0,0,31,31,31,,,,,118.62292609992437,119.27376440004446,119.27376440004446,119.75817600009032,45,45,119.75817600009032,119.75817600009032,119.75817600009032,119.75817600009032,119.75817600009032,119.75817600009032,119.75817600009032,119.75817600009032,119.75817600009032,120.12466909992509,120.12466909992509,120.12466909992509,120.12466909992509,120.12466909992509,120.12466909992509,120.12466909992509,120.12466909992509,120.12466909992509,0,1,[0.0012014000676572323],[0.36720259999856353],120.12466909992509,120.32472259993665,3.7,120.32472259993665,0,3.7,1,0,1000,num_1,0.5166184999980032,,34,16,2026-03-13_11h28.33.939,2026A_exp2,2022.2.4,59.925309056251926,
1000,1,6.1,6.1,0,0,32,32,50,,,,,120.85848179995082,121.5092809998896,121.5092809998896,121.9937448001001,315,45,121.9937448001001,121.9937448001001,121.9937448001001,121.9937448001001,121.9937448001001,121.9937448001001,121.9937448001001,121.9937448001001,121.9937448001001,122.36005989997648,122.36005989997648,122.36005989997648,122.36005989997648,122.36005989997648,122.36005989997648,122.36005989997648,122.36005989997648,122.36005989997648,0,1,[0.0012218998745083809],[0.3674806000199169],122.36005989997648,122.5621207000222,1000,122.5621207000222,1000,1000,1000,1000,1,num_2,0.4552331001032144,,34,16,2026-03-13_11h28.33.939,2026A_exp2,2022.2.4,59.925309056251926,
1000,1,0.0,3.7,1,0,33,33,43,,,,,123.04442679998465,123.69483770010993,123.69483770010993,124.17911430005915,45,45,124.17911430005915,124.17911430005915,124.17911430005915,124.17911430005915,124.17911430005915,124.17911430005915,124.17911430005915,124.17911430005915,124.17911430005915,124.5456679998897,124.5456679998897,124.5456679998897,124.5456679998897,124.5456679998897,124.5456679998897,124.5456679998897,124.5456679998897,124.5456679998897,0,1,[0.001581499818712473],[0.365504999877885],124.5456679998897,124.74574150005355,1000,124.76235520001501,1000,1000,1000,1000,1,num_2,0.5027151999529451,,34,16,2026-03-13_11h28.33.939,2026A_exp2,2022.2.4,59.925309056251926,
1000,1,4.9,0.0,1,0,34,34,28,,,,,125.29643339989707,125.94713150011376,125.94713150011376,126.44824429997243,315,45,126.44824429997243,126.44824429997243,126.44824429997243,126.44824429997243,126.44824429997243,126.44824429997243,126.44824429997243,126.44824429997243,126.44824429997243,126.79782849992625,126.79782849992625,126.79782849992625,126.79782849992625,126.79782849992625,126.79782849992625,126.79782849992625,126.79782849992625,126.79782849992625,0,1,[0.0012095000129193068],[0.3505818999838084],126.79782849992625,127.00006160000339,1000,127.00006160000339,1000,1000,1000,1000,1,num_2,0.6492993999272585,,34,16,2026-03-13_11h28.33.939,2026A_exp2,2022.2.4,59.925309056251926,
1000,1,6.1,4.9,1,0,35,35,76,,,,,127.66534640011378,128.31589980004355,128.31589980004355,128.81723270006478,45,45,128.81723270006478,128.81723270006478,128.81723270006478,128.81723270006478,128.81723270006478,128.81723270006478,128.81723270006478,128.81723270006478,128.81723270006478,129.18358660000376,129.18358660000376,129.18358660000376,129.18358660000376,129.18358660000376,129.18358660000376,129.18358660000376,129.18358660000376,129.18358660000376,0,1,[0.0012302999384701252],[0.3670711999293417],129.18358660000376,129.38571759988554,1000,129.38571759988554,1000,1000,1000,1000,1,num_2,0.4871119000017643,,34,16,2026-03-13_11h28.33.939,2026A_exp2,2022.2.4,59.925309056251926,
1,0,0.0,6.1,0,0,36,36,57,,,,,129.90086179994978,130.5516657999251,130.5516657999251,131.03604119992815,315,45,131.03604119992815,131.03604119992815,131.03604119992815,131.03604119992815,131.03604119992815,131.03604119992815,131.03604119992815,131.03604119992815,131.03604119992815,131.40254650008865,131.40254650008865,131.40254650008865,131.40254650008865,131.40254650008865,131.40254650008865,131.40254650008865,131.40254650008865,131.40254650008865,0,1,[0.0009373000357300043],[0.36756959999911487],131.40254650008865,131.60260559991002,0.0,131.60260559991002,0,0.0,0,1,1000,num_1,0.5656890999525785,,34,16,2026-03-13_11h28.33.939,2026A_exp2,2022.2.4,59.925309056251926,
1000,1,3.7,6.1,0,0,37,37,81,,,,,132.18644730001688,132.83730529993773,132.83730529993773,133.32173800002784,45,315,133.32173800002784,133.32173800002784,133.32173800002784,133.32173800002784,133.32173800002784,133.32173800002784,133.32173800002784,133.32173800002784,133.32173800002784,133.68815700011328,133.68815700011328,133.68815700011328,133.68815700011328,133.68815700011328,133.68815700011328,133.68815700011328,133.68815700011328,133.68815700011328,0,1,[0.0013019999023526907],[0.3672559999395162],133.68815700011328,133.8883925001137,1000,133.8883925001137,1000,1000,1000,1000,1,num_2,0.42538179992698133,,34,16,2026-03-13_11h28.33.939,2026A_exp2,2022.2.4,59.925309056251926,
1000,1,0.0,0.0,1,0,38,38,42,,,,,134.3386856999714,134.99885799991898,134.99885799991898,135.49488099990413,45,45,135.49488099990413,135.49488099990413,135.49488099990413,135.49488099990413,135.49488099990413,135.49488099990413,135.49488099990413,135.49488099990413,135.49488099990413,135.8569567000959,135.8569567000959,135.8569567000959,135.8569567000959,135.8569567000959,135.8569567000959,135.8569567000959,135.8569567000959,135.8569567000959,0,1,[0.002437500050291419],[0.3660426998976618],135.8569567000959,136.0593985999003,1000,136.0593985999003,1000,1000,1000,1000,1,num_2,0.5488857999444008,,34,16,2026-03-13_11h28.33.939,2026A_exp2,2022.2.4,59.925309056251926,
1000,1,6.1,0.0,0,0,39,39,68,,,,,136.62449950003065,137.27511809999123,137.27511809999123,137.77620110008866,315,315,137.77620110008866,137.77620110008866,137.77620110008866,137.77620110008866,137.77620110008866,137.77620110008866,137.77620110008866,137.77620110008866,137.77620110008866,138.12595889996737,138.12595889996737,138.12595889996737,138.12595889996737,138.12595889996737,138.12595889996737,138.12595889996737,138.12595889996737,138.12595889996737,0,1,[0.0012929001823067665],[0.35056390007957816],138.12595889996737,138.32774459989741,1000,138.32774459989741,1000,1000,1000,1000,0,num_3,0.43262370000593364,,34,16,2026-03-13_11h28.33.939,2026A_exp2,2022.2.4,59.925309056251926,
0,0,3.7,3.7,0,0,40,40,63,,,,,138.77656119992025,139.42719609988853,139.42719609988853,139.9282569999341,45,315,139.9282569999341,139.9282569999341,139.9282569999341,139.9282569999341,139.9282569999341,139.9282569999341,139.9282569999341,139.9282569999341,139.9282569999341,140.27799229999073,140.27799229999073,140.27799229999073,140.27799229999073,140.27799229999073,140.27799229999073,140.27799229999073,140.27799229999073,140.27799229999073,0,1,[0.0012103000190109015],[0.35038729989901185],140.27799229999073,140.47834939998575,3.7,140.49509189999662,1,3.7,1,1,1000,num_4,0.7852697998750955,,34,16,2026-03-13_11h28.33.939,2026A_exp2,2022.2.4,59.925309056251926,
1,0,6.1,0.0,1,0,41,41,38,,,,,141.31242269999348,141.9464191000443,141.9464191000443,142.44753280002624,315,315,142.44753280002624,142.44753280002624,142.44753280002624,142.44753280002624,142.44753280002624,142.44753280002624,142.44753280002624,142.44753280002624,142.44753280002624,142.81374039989896,142.81374039989896,142.81374039989896,142.81374039989896,142.81374039989896,142.81374039989896,142.81374039989896,142.81374039989896,142.81374039989896,0,1,[0.0012145999353379011],[0.36727159982547164],142.81374039989896,143.01408999995328,0.0,143.01408999995328,0,0.0,0,1,1000,num_1,0.6191663998179138,,34,16,2026-03-13_11h28.33.939,2026A_exp2,2022.2.4,59.925309056251926,
1,0,0.0,6.1,0,0,42,42,72,,,,,143.6647254000418,144.31530690006912,144.31530690006912,144.79987059999257,315,45,144.79987059999257,144.79987059999257,144.79987059999257,144.79987059999257,144.79987059999257,144.79987059999257,144.79987059999257,144.79987059999257,144.79987059999257,145.16616500006057,145.16616500006057,145.16616500006057,145.16616500006057,145.16616500006057,145.16616500006057,145.16616500006057,145.16616500006057,145.16616500006057,0,1,[0.0012057998683303595],[0.36723760003224015],145.16616500006057,145.36635589995421,0.0,145.36635589995421,0,0.0,0,1,1000,num_1,0.5231837998144329,,34,16,2026-03-13_11h28.33.939,2026A_exp2,2022.2.4,59.925309056251926,
1000,1,0.0,0.0,1,0,43,43,40,,,,,145.91690830001608,146.56761960010044,146.56761960010044,147.05215370003134,45,45,147.05215370003134,147.05215370003134,147.05215370003134,147.05215370003134,147.05215370003134,147.05215370003134,147.05215370003134,147.05215370003134,147.05215370003134,147.41849670000374,147.41849670000374,147.41849670000374,147.41849670000374,147.41849670000374,147.41849670000374,147.41849670000374,147.41849670000374,147.41849670000374,0,1,[0.0012032000813633204],[0.3671860001049936],147.41849670000374,147.62033189996146,1000,147.62033189996146,1000,1000,1000,1000,1,num_2,0.7968546999618411,,34,16,2026-03-13_11h28.33.939,2026A_exp2,2022.2.4,59.925309056251926,
0,0,3.7,6.1,1,0,44,44,17,,,,,148.436063000001,149.0867204000242,149.0867204000242,149.58788400003687,315,45,149.58788400003687,149.58788400003687,149.58788400003687,149.58788400003687,149.58788400003687,149.58788400003687,149.58788400003687,149.58788400003687,149.58788400003687,149.9544291999191,149.9544291999191,149.9544291999191,149.9544291999191,149.9544291999191,149.9544291999191,149.9544291999191,149.9544291999191,149.9544291999191,0,1,[0.001461799954995513],[0.36734639992937446],149.9544291999191,150.15457880008034,3.7,150.15457880008034,0,3.7,1,0,1000,num_1,0.5179262000601739,,34,16,2026-03-13_11h28.33.939,2026A_exp2,2022.2.4,59.925309056251926,
1,0,3.7,0.0,1,0,45,45,59,,,,,150.68836280005053,151.33927450003102,151.33927450003102,151.82356299995445,315,315,151.82356299995445,151.82356299995445,151.82356299995445,151.82356299995445,151.82356299995445,151.82356299995445,151.82356299995445,151.82356299995445,151.82356299995445,152.1900100999046,152.1900100999046,152.1900100999046,152.1900100999046,152.1900100999046,152.1900100999046,152.1900100999046,152.1900100999046,152.1900100999046,0,1,[0.0012101000174880028],[0.3670395000372082],152.1900100999046,152.39013640000485,0.0,152.39013640000485,1,0.0,0,0,1000,num_4,0.7543002001475543,,34,16,2026-03-13_11h28.33.939,2026A_exp2,2022.2.4,59.925309056251926,
1,0,6.1,6.1,0,0,46,46,51,,,,,153.17414149991237,153.8249741999898,153.8249741999898,154.30945469997823,315,315,154.30945469997823,154.30945469997823,154.30945469997823,154.30945469997823,154.30945469997823,154.30945469997823,154.30945469997823,154.30945469997823,154.30945469997823,154.67696140008047,154.67696140008047,154.67696140008047,154.67696140008047,154.67696140008047,154.67696140008047,154.67696140008047,154.67696140008047,154.67696140008047,0,1,[0.0007643999997526407],[0.3686785998288542],154.67696140008047,154.87589040002786,6.1,154.87589040002786,0,6.1,1,0,1000,num_1,0.5413580001331866,,34,16,2026-03-13_11h28.33.939,2026A_exp2,2022.2.4,59.925309056251926,
1,0,6.1,6.1,1,0,47,47,89,,,,,155.44309869990684,156.09381369990297,156.09381369990297,156.57805619994178,45,45,156.57805619994178,156.57805619994178,156.57805619994178,156.57805619994178,156.57805619994178,156.57805619994178,156.57805619994178,156.57805619994178,156.57805619994178,156.94464559992775,156.94464559992775,156.94464559992775,156.94464559992775,156.94464559992775,156.94464559992775,156.94464559992775,156.94464559992775,156.94464559992775,0,1,[0.0012643998488783836],[0.366688400041312],156.94464559992775,157.1448790000286,6.1,157.1448790000286,1,6.1,1,1,1000,num_4,0.7614784999750555,,34,16,2026-03-13_11h28.33.939,2026A_exp2,2022.2.4,59.925309056251926,
1,0,4.9,0.0,1,0,48,48,15,,,,,157.92970729991794,158.58170210011303,158.58170210011303,159.08171700011007,45,45,159.08171700011007,159.08171700011007,159.08171700011007,159.08171700011007,159.08171700011007,159.08171700011007,159.08171700011007,159.08171700011007,159.08171700011007,159.44725869991817,159.44725869991817,159.44725869991817,159.44725869991817,159.44725869991817,159.44725869991817,159.44725869991817,159.44725869991817,159.44725869991817,0,1,[0.0026251000817865133],[0.36586469993926585],159.44725869991817,159.65541370003484,0.0,159.65541370003484,1,0.0,0,0,1000,num_4,0.5857261000201106,,34,16,2026-03-13_11h28.33.939,2026A_exp2,2022.2.4,59.925309056251926,
1,0,6.1,3.7,0,0,49,49,86,,,,,160.26454519992694,160.91535750008188,160.91535750008188,161.39960739994422,315,315,161.39960739994422,161.39960739994422,161.39960739994422,161.39960739994422,161.39960739994422,161.39960739994422,161.39960739994422,161.39960739994422,161.39960739994422,161.76619170000777,161.76619170000777,161.76619170000777,161.76619170000777,161.76619170000777,161.76619170000777,161.76619170000777,161.76619170000777,161.76619170000777,0,1,[0.0012209999840706587],[0.36719999997876585],161.76619170000777,161.96645700000226,6.1,161.96645700000226,0,6.1,1,0,1000,num_1,0.49804720003157854,,34,16,2026-03-13_11h28.33.939,2026A_exp2,2022.2.4,59.925309056251926,
1000,1,0.0,6.1,0,0,50,50,83,,,,,162.48337509995326,163.13425510004163,163.13425510004163,163.61861840006895,45,315,163.61861840006895,163.61861840006895,163.61861840006895,163.61861840006895,163.61861840006895,163.61861840006895,163.61861840006895,163.61861840006895,163.61861840006895,163.9850145999808,163.9850145999808,163.9850145999808,163.9850145999808,163.9850145999808,163.9850145999808,163.9850145999808,163.9850145999808,163.9850145999808,0,1,[0.0012175999581813812],[0.36694410000927746],163.9850145999808,164.18764950009063,1000,164.18764950009063,1000,1000,1000,1000,1,num_2,0.605265700025484,,34,16,2026-03-13_11h28.33.939,2026A_exp2,2022.2.4,59.925309056251926,
1000,1,0.0,0.0,0,0,51,51,5,,,,,164.8190603000112,165.47038950002752,165.47038950002752,165.9712000999134,315,45,165.9712000999134,165.9712000999134,165.9712000999134,165.9712000999134,165.9712000999134,165.9712000999134,165.9712000999134,165.9712000999134,165.9712000999134,166.32059479993768,166.32059479993768,166.32059479993768,166.32059479993768,166.32059479993768,166.32059479993768,166.32059479993768,166.32059479993768,166.32059479993768,0,1,[0.0014078000094741583],[0.3504880000837147],166.32059479993768,166.5232132000383,1000,166.5232132000383,1000,1000,1000,1000,1,num_2,0.5013158000074327,,34,16,2026-03-13_11h28.33.939,2026A_exp2,2022.2.4,59.925309056251926,
1,0,0.0,0.0,0,0,52,52,19,,,,,167.05475179990754,167.70552040007897,167.70552040007897,168.20663370005786,45,45,168.20663370005786,168.20663370005786,168.20663370005786,168.20663370005786,168.20663370005786,168.20663370005786,168.20663370005786,168.20663370005786,168.20663370005786,168.57302880007774,168.57302880007774,168.57302880007774,168.57302880007774,168.57302880007774,168.57302880007774,168.57302880007774,168.57302880007774,168.57302880007774,0,1,[0.0012447000481188297],[0.36688180011697114],168.57302880007774,168.77305849990807,0.0,168.77305849990807,0,0.0,0,1,1000,num_1,0.47544780001044273,,34,16,2026-03-13_11h28.33.939,2026A_exp2,2022.2.4,59.925309056251926,
1,0,3.7,3.7,1,0,53,53,64,,,,,169.2735842000693,169.92429229989648,169.92429229989648,170.4088139999658,45,45,170.4088139999658,170.4088139999658,170.4088139999658,170.4088139999658,170.4088139999658,170.4088139999658,170.4088139999658,170.4088139999658,170.4088139999658,170.7752191000618,170.7752191000618,170.7752191000618,170.7752191000618,170.7752191000618,170.7752191000618,170.7752191000618,170.7752191000618,170.7752191000618,0,1,[0.0012382001150399446],[0.3671041000634432],170.7752191000618,170.9753268000204,3.7,170.9753268000204,1,3.7,1,1,1000,num_4,0.5849734998773783,,34,16,2026-03-13_11h28.33.939,2026A_exp2,2022.2.4,59.925309056251926,
1000,1,0.0,0.0,1,0,54,54,71,,,,,171.57592749991454,172.22658100002445,172.22658100002445,172.71094279992394,315,315,172.71094279992394,172.71094279992394,172.71094279992394,172.71094279992394,172.71094279992394,172.71094279992394,172.71094279992394,172.71094279992394,172.71094279992394,173.0774836000055,173.0774836000055,173.0774836000055,173.0774836000055,173.0774836000055,173.0774836000055,173.0774836000055,173.0774836000055,173.0774836000055,0,1,[0.0012373998761177063],[0.3671234999783337],173.0774836000055,173.27951249992475,1000,173.27951249992475,1000,1000,1000,1000,1,num_2,0.6575103001669049,,34,16,2026-03-13_11h28.33.939,2026A_exp2,2022.2.4,59.925309056251926,
1000,1,4.9,3.7,1,0,55,55,14,,,,,173.96160689997487,174.61238589999266,174.61238589999266,175.1134474000428,315,315,175.1134474000428,175.1134474000428,175.1134474000428,175.1134474000428,175.1134474000428,175.1134474000428,175.1134474000428,175.1134474000428,175.1134474000428,175.463270700071,175.463270700071,175.463270700071,175.463270700071,175.463270700071,175.463270700071,175.463270700071,175.463270700071,175.463270700071,0,1,[0.000730500090867281],[0.3510990999639034],175.463270700071,175.66523670009337,1000,175.680203899974,1000,1000,1000,1000,1,num_2,0.6567612998187542,,34,16,2026-03-13_11h28.33.939,2026A_exp2,2022.2.4,59.925309056251926,
1000,1,0.0,0.0,0,0,56,56,41,,,,,176.36413770006038,177.014785700012,177.014785700012,177.49910930008627,45,45,177.49910930008627,177.49910930008627,177.49910930008627,177.49910930008627,177.49910930008627,177.49910930008627,177.49910930008627,177.49910930008627,177.49910930008627,177.8655471999664,177.8655471999664,177.8655471999664,177.8655471999664,177.8655471999664,177.8655471999664,177.8655471999664,177.8655471999664,177.8655471999664,0,1,[0.001246199943125248],[0.36706810002215207],177.8655471999664,178.06808630004525,1000,178.06808630004525,1000,1000,1000,1000,1,num_2,0.5408677000086755,,34,16,2026-03-13_11h28.33.939,2026A_exp2,2022.2.4,59.925309056251926,
1000,1,3.7,0.0,1,0,57,57,21,,,,,178.63306219992228,179.28367929998785,179.28367929998785,179.78491059993394,315,315,179.78491059993394,179.78491059993394,179.78491059993394,179.78491059993394,179.78491059993394,179.78491059993394,179.78491059993394,179.78491059993394,179.78491059993394,180.15117660001852,180.15117660001852,180.15117660001852,180.15117660001852,180.15117660001852,180.15117660001852,180.15117660001852,180.15117660001852,180.15117660001852,0,1,[0.0012072999961674213],[0.367142700124532],180.15117660001852,180.35158329992555,1000,180.35158329992555,1000,1000,1000,1000,1,num_2,0.48886910011060536,,34,16,2026-03-13_11h28.33.939,2026A_exp2,2022.2.4,59.925309056251926,
0,0,0.0,0.0,0,0,58,58,67,,,,,180.86856690002605,181.5192384000402,181.5192384000402,182.02029919996858,315,315,182.02029919996858,182.02029919996858,182.02029919996858,182.02029919996858,182.02029919996858,182.02029919996858,182.02029919996858,182.02029919996858,182.02029919996858,182.37025350006297,182.37025350006297,182.37025350006297,182.37025350006297,182.37025350006297,182.37025350006297,182.37025350006297,182.37025350006297,182.37025350006297,0,1,[0.00122079998254776],[0.3520428000483662],182.37025350006297,182.5723294999916,0.0,182.5723294999916,1,0.0,0,0,1000,num_4,0.908187999855727,,34,16,2026-03-13_11h28.33.939,2026A_exp2,2022.2.4,59.925309056251926,
1,0,6.1,6.1,0,0,59,59,11,,,,,183.5044797998853,184.15511610009708,184.15511610009708,184.63949860003777,45,45,184.63949860003777,184.63949860003777,184.63949860003777,184.63949860003777,184.63949860003777,184.63949860003777,184.63949860003777,184.63949860003777,184.63949860003777,185.00611689989455,185.00611689989455,185.00611689989455,185.00611689989455,185.00611689989455,185.00611689989455,185.00611689989455,185.00611689989455,185.00611689989455,0,1,[0.0013788999058306217],[0.3663745999801904],185.00611689989455,185.20596570009366,6.1,185.20596570009366,1,6.1,1,1,1000,num_4,0.7153650999534875,,34,16,2026-03-13_11h28.33.939,2026A_exp2,2022.2.4,59.925309056251926,
1000,1,0.0,0.0,1,0,60,60,62,,,,,185.9401636000257,186.59101399988867,186.59101399988867,187.07539070001803,315,45,187.07539070001803,187.07539070001803,187.07539070001803,187.07539070001803,187.07539070001803,187.07539070001803,187.07539070001803,187.07539070001803,187.07539070001803,187.44183739996515,187.44183739996515,187.44183739996515,187.44183739996515,187.44183739996515,187.44183739996515,187.44183739996515,187.44183739996515,187.44183739996515,0,1,[0.0012974999845027924],[0.3671283000148833],187.44183739996515,187.6437208999414,1000,187.6437208999414,1000,1000,1000,1000,1,num_2,0.5328011000528932,,34,16,2026-03-13_11h28.33.939,2026A_exp2,2022.2.4,59.925309056251926,
1,0,3.7,6.1,1,0,61,61,6,,,,,188.19250490004197,188.84331530006602,188.84331530006602,189.344368299935,315,315,189.344368299935,189.344368299935,189.344368299935,189.344368299935,189.344368299935,189.344368299935,189.344368299935,189.344368299935,189.344368299935,189.71077260002494,189.71077260002494,189.71077260002494,189.71077260002494,189.71077260002494,189.71077260002494,189.71077260002494,189.71077260002494,189.71077260002494,0,1,[0.001098700100556016],[0.36740390001796186],189.71077260002494,189.91094040009193,6.1,189.91094040009193,1,6.1,1,1,1000,num_4,0.6908497998956591,,34,16,2026-03-13_11h28.33.939,2026A_exp2,2022.2.4,59.925309056251926,
1,0,0.0,3.7,0,0,62,62,1,,,,,190.62831700011156,191.27897999994457,191.27897999994457,191.7633905999828,45,315,191.7633905999828,191.7633905999828,191.7633905999828,191.7633905999828,191.7633905999828,191.7633905999828,191.7633905999828,191.7633905999828,191.7633905999828,192.12990790000185,192.12990790000185,192.12990790000185,192.12990790000185,192.12990790000185,192.12990790000185,192.12990790000185,192.12990790000185,192.12990790000185,0,1,[0.0012385998852550983],[0.3671096998732537],192.12990790000185,192.33003770001233,0.0,192.33003770001233,0,0.0,0,1,1000,num_1,0.7671695998869836,,34,16,2026-03-13_11h28.33.939,2026A_exp2,2022.2.4,59.925309056251926,
1000,1,0.0,4.9,0,0,63,63,27,,,,,193.11646559997462,193.76491779997014,193.76491779997014,194.26588240009733,315,45,194.26588240009733,194.26588240009733,194.26588240009733,194.26588240009733,194.26588240009733,194.26588240009733,194.26588240009733,194.26588240009733,194.26588240009733,194.63234409992583,194.63234409992583,194.63234409992583,194.63234409992583,194.63234409992583,194.63234409992583,194.63234409992583,194.63234409992583,194.63234409992583,0,1,[0.0013461001217365265],[0.36727700009942055],194.63234409992583,194.8347018000204,1000,194.8347018000204,1000,1000,1000,1000,1,num_2,0.5504628999624401,,34,16,2026-03-13_11h28.33.939,2026A_exp2,2022.2.4,59.925309056251926,
1,0,0.0,3.7,0,0,64,64,2,,,,,195.4172584998887,196.06724289990962,196.06724289990962,196.5558764000889,315,45,196.5558764000889,196.5558764000889,196.5558764000889,196.5558764000889,196.5558764000889,196.5558764000889,196.5558764000889,196.5558764000889,196.5558764000889,196.91798890009522,196.91798890009522,196.91798890009522,196.91798890009522,196.91798890009522,196.91798890009522,196.91798890009522,196.91798890009522,196.91798890009522,0,1,[0.003094600047916174],[0.3657126999460161],196.91798890009522,197.12033970002085,0.0,197.12033970002085,0,0.0,0,1,1000,num_1,0.5926993999164551,,34,16,2026-03-13_11h28.33.939,2026A_exp2,2022.2.4,59.925309056251926,
1000,1,6.1,0.0,0,0,65,65,80,,,,,197.73533289995976,198.38615130004473,198.38615130004473,198.87047580000944,45,45,198.87047580000944,198.87047580000944,198.87047580000944,198.87047580000944,198.87047580000944,198.87047580000944,198.87047580000944,198.87047580000944,198.87047580000944,199.23699079989456,199.23699079989456,199.23699079989456,199.23699079989456,199.23699079989456,199.23699079989456,199.23699079989456,199.23699079989456,199.23699079989456,0,1,[0.0012442001607269049],[0.36729820002801716],199.23699079989456,199.4385301999282,1000,199.4385301999282,1000,1000,1000,1000,0,num_3,0.713945500086993,,34,16,2026-03-13_11h28.33.939,2026A_exp2,2022.2.4,59.925309056251926,
1000,1,3.7,0.0,1,0,66,66,44,,,,,200.1710890000686,200.82190759992227,200.82190759992227,201.3230365999043,315,315,201.3230365999043,201.3230365999043,201.3230365999043,201.3230365999043,201.3230365999043,201.3230365999043,201.3230365999043,201.3230365999043,201.3230365999043,201.68926870008,201.68926870008,201.68926870008,201.68926870008,201.68926870008,201.68926870008,201.68926870008,201.68926870008,201.68926870008,23,0,,,201.68926870008,201.919383399887,1000,201.919383399887,1000,1000,1000,1000,0,num_3,0.5696111000142992,,34,16,2026-03-13_11h28.33.939,2026A_exp2,2022.2.4,59.925309056251926,
1000,1,0.0,0.0,1,0,67,67,39,,,,,202.51003460003994,203.15929979993962,203.15929979993962,203.6586148000788,315,315,203.6586148000788,203.6586148000788,203.6586148000788,203.6586148000788,203.6586148000788,203.6586148000788,203.6586148000788,203.6586148000788,203.6586148000788,204.024945900077,204.024945900077,204.024945900077,204.024945900077,204.024945900077,204.024945900077,204.024945900077,204.024945900077,204.024945900077,23,0,,,204.024945900077,204.22709610010497,1000,204.22709610010497,1000,1000,1000,1000,1,num_2,0.8931492001283914,,34,16,2026-03-13_11h28.33.939,2026A_exp2,2022.2.4,59.925309056251926,
0,0,0.0,0.0,0,0,68,68,4,,,,,205.14316709991544,205.79353730008006,205.79353730008006,206.27803210006095,315,45,206.27803210006095,206.27803210006095,206.27803210006095,206.27803210006095,206.27803210006095,206.27803210006095,206.27803210006095,206.27803210006095,206.27803210006095,206.6443384999875,206.6443384999875,206.6443384999875,206.6443384999875,206.6443384999875,206.6443384999875,206.6443384999875,206.6443384999875,206.6443384999875,23,0,,,206.6443384999875,206.84460940002464,0.0,206.84460940002464,0,0.0,0,1,1000,num_1,0.5158398000057787,,34,16,2026-03-13_11h28.33.939,2026A_exp2,2022.2.4,59.925309056251926,
1000,1,0.0,4.9,1,0,69,69,73,,,,,207.3783972999081,208.02877299999818,208.02877299999818,208.5136261000298,315,45,208.5136261000298,208.5136261000298,208.5136261000298,208.5136261000298,208.5136261000298,208.5136261000298,208.5136261000298,208.5136261000298,208.5136261000298,208.87994250003248,208.87994250003248,208.87994250003248,208.87994250003248,208.87994250003248,208.87994250003248,208.87994250003248,208.87994250003248,208.87994250003248,23,0,,,208.87994250003248,209.08039109990932,1000,209.08039109990932,1000,1000,1000,1000,1,num_2,0.40939030004665256,,34,16,2026-03-13_11h28.33.939,2026A_exp2,2022.2.4,59.925309056251926,
1000,1,3.7,0.0,0,0,70,70,37,,,,,209.5137803000398,210.1645188999828,210.1645188999828,210.6657436999958,45,315,210.6657436999958,210.6657436999958,210.6657436999958,210.6657436999958,210.6657436999958,210.6657436999958,210.6657436999958,210.6657436999958,210.6657436999958,211.01547640003264,211.01547640003264,211.01547640003264,211.01547640003264,211.01547640003264,211.01547640003264,211.01547640003264,211.01547640003264,211.01547640003264,8,7,"[0.0011996999382972717, 0.03363740001805127, 0.15040919999592006, 0.20049680001102388, 0.23385270009748638, 0.30043300008401275, 0.33392390003427863]","[0.01747730001807213, 0.1337550999596715, 0.16718539991416037, 0.21698449994437397, 0.267237399937585, 0.31726710009388626, 0.3505214999895543]",211.01547640003264,211.21558790002018,1000,211.21558790002018,1000,1000,1000,1000,1,num_2,0.5856208999175578,,34,16,2026-03-13_11h28.33.939,2026A_exp2,2022.2.4,59.925309056251926,
1000,1,0.0,3.7,0,0,71,71,32,,,,,211.81616779998876,212.4669576000888,212.4669576000888,212.96808749996126,45,315,212.96808749996126,212.96808749996126,212.96808749996126,212.96808749996126,212.96808749996126,212.96808749996126,212.96808749996126,212.96808749996126,212.96808749996126,213.3342470000498,213.3342470000498,213.3342470000498,213.3342470000498,213.3342470000498,213.3342470000498,213.3342470000498,213.3342470000498,213.3342470000498,23,0,,,213.3342470000498,213.5366388000548,1000,213.5366388000548,1000,1000,1000,1000,1,num_2,0.6077537999954075,,34,16,2026-03-13_11h28.33.939,2026A_exp2,2022.2.4,59.925309056251926,
1000,1,6.1,6.1,0,0,72,72,74,,,,,214.16917659994215,214.80259860004298,214.80259860004298,215.30364629998803,315,45,215.30364629998803,215.30364629998803,215.30364629998803,215.30364629998803,215.30364629998803,215.30364629998803,215.30364629998803,215.30364629998803,215.30364629998803,215.67006419994868,215.67006419994868,215.67006419994868,215.67006419994868,215.67006419994868,215.67006419994868,215.67006419994868,215.67006419994868,215.67006419994868,23,0,,,215.67006419994868,215.87206769990735,1000,215.87206769990735,1000,1000,1000,1000,1,num_2,0.4805777999572456,,34,16,2026-03-13_11h28.33.939,2026A_exp2,2022.2.4,59.925309056251926,
1,0,6.1,0.0,0,0,73,73,24,,,,,216.37072800006717,217.021464999998,217.021464999998,217.5224095999729,45,45,217.5224095999729,217.5224095999729,217.5224095999729,217.5224095999729,217.5224095999729,217.5224095999729,217.5224095999729,217.5224095999729,217.5224095999729,217.889115100028,217.889115100028,217.889115100028,217.889115100028,217.889115100028,217.889115100028,217.889115100028,217.889115100028,217.889115100028,23,0,,,217.889115100028,218.08924050000496,6.1,218.08924050000496,1,6.1,1,1,1000,num_4,1.6481169001199305,,34,16,2026-03-13_11h28.33.939,2026A_exp2,2022.2.4,59.925309056251926,
1,0,6.1,0.0,1,0,74,74,54,,,,,219.75749469990842,220.3915232999716,220.3915232999716,220.8926506000571,315,315,220.8926506000571,220.8926506000571,220.8926506000571,220.8926506000571,220.8926506000571,220.8926506000571,220.8926506000571,220.8926506000571,220.8926506000571,221.2589879001025,221.2589879001025,221.2589879001025,221.2589879001025,221.2589879001025,221.2589879001025,221.2589879001025,221.2589879001025,221.2589879001025,23,0,,,221.2589879001025,221.45890800002962,0.0,221.45890800002962,0,0.0,0,1,1000,num_1,0.6383009001147002,,34,16,2026-03-13_11h28.33.939,2026A_exp2,2022.2.4,59.925309056251926,
1000,1,3.7,3.7,0,0,75,75,16,,,,,222.12644929997623,222.77715560002252,222.77715560002252,223.261589899892,45,315,223.261589899892,223.261589899892,223.261589899892,223.261589899892,223.261589899892,223.261589899892,223.261589899892,223.261589899892,223.261589899892,223.6280787999276,223.6280787999276,223.6280787999276,223.6280787999276,223.6280787999276,223.6280787999276,223.6280787999276,223.6280787999276,223.6280787999276,0,1,[0.0012130001559853554],[0.36711110011674464],223.6280787999276,223.8299477000255,1000,223.8299477000255,1000,1000,1000,1000,1,num_2,0.6983643001876771,,34,16,2026-03-13_11h28.33.939,2026A_exp2,2022.2.4,59.925309056251926,
1000,1,4.9,6.1,1,0,76,76,18,,,,,224.54550360003486,225.1962711000815,225.1962711000815,225.6974051001016,315,315,225.6974051001016,225.6974051001016,225.6974051001016,225.6974051001016,225.6974051001016,225.6974051001016,225.6974051001016,225.6974051001016,225.6974051001016,226.06366940005682,226.06366940005682,226.06366940005682,226.06366940005682,226.06366940005682,226.06366940005682,226.06366940005682,226.06366940005682,226.06366940005682,0,1,[0.0007549000438302755],[0.3677970999851823],226.06366940005682,226.26640129997395,1000,226.26640129997395,1000,1000,1000,1000,1,num_2,1.6140898000448942,,34,16,2026-03-13_11h28.33.939,2026A_exp2,2022.2.4,59.925309056251926,
1,0,0.0,3.7,1,0,77,77,12,,,,,227.89898919989355,228.54967249999754,228.54967249999754,229.05064209992997,45,45,229.05064209992997,229.05064209992997,229.05064209992997,229.05064209992997,229.05064209992997,229.05064209992997,229.05064209992997,229.05064209992997,229.05064209992997,229.41714400006458,229.41714400006458,229.41714400006458,229.41714400006458,229.41714400006458,229.41714400006458,229.41714400006458,229.41714400006458,229.41714400006458,23,0,,,229.41714400006458,229.61733440007083,3.7,229.61733440007083,1,3.7,1,1,1000,num_4,0.5752830998972058,,34,16,2026-03-13_11h28.33.939,2026A_exp2,2022.2.4,59.925309056251926,
1000,1,4.9,4.9,1,0,78,78,60,,,,,230.21777309989557,230.86864909995347,230.86864909995347,231.35295130009763,315,45,231.35295130009763,231.35295130009763,231.35295130009763,231.35295130009763,231.35295130009763,231.35295130009763,231.35295130009763,231.35295130009763,231.35295130009763,231.7194650999736,231.7194650999736,231.7194650999736,231.7194650999736,231.7194650999736,231.7194650999736,231.7194650999736,231.7194650999736,231.7194650999736,23,0,,,231.7194650999736,231.92154080001637,1000,231.92154080001637,1000,1000,1000,1000,1,num_2,0.6070610000751913,,34,16,2026-03-13_11h28.33.939,2026A_exp2,2022.2.4,59.925309056251926,
1000,1,3.7,3.7,1,0,79,79,46,,,,,232.55355890002102,233.20430310000665,233.20430310000665,233.7055909000337,45,45,233.7055909000337,233.7055909000337,233.7055909000337,233.7055909000337,233.7055909000337,233.7055909000337,233.7055909000337,233.7055909000337,233.7055909000337,234.07178850006312,234.07178850006312,234.07178850006312,234.07178850006312,234.07178850006312,234.07178850006312,234.07178850006312,234.07178850006312,234.07178850006312,13,1,[0.21685940003953874],[0.36719200015068054],234.07178850006312,234.27402410004288,1000,234.27402410004288,1000,1000,1000,1000,1,num_2,0.5182550998870283,,34,16,2026-03-13_11h28.33.939,2026A_exp2,2022.2.4,59.925309056251926,
1000,1,3.7,0.0,1,0,80,80,33,,,,,234.82240880001336,235.47323330002837,235.47323330002837,235.97444920009002,315,315,235.97444920009002,235.97444920009002,235.97444920009002,235.97444920009002,235.97444920009002,235.97444920009002,235.97444920009002,235.97444920009002,235.97444920009002,236.34080510004424,236.34080510004424,236.34080510004424,236.34080510004424,236.34080510004424,236.34080510004424,236.34080510004424,236.34080510004424,236.34080510004424,0,1,[0.0012284000404179096],[0.36713070003315806],236.34080510004424,236.54314649989828,1000,236.54314649989828,1000,1000,1000,1000,0,num_3,0.5693582000676543,,34,16,2026-03-13_11h28.33.939,2026A_exp2,2022.2.4,59.925309056251926,
1,0,3.7,6.1,0,0,81,81,55,,,,,237.14144970010966,237.79226340004243,237.79226340004243,238.2933702999726,45,315,238.2933702999726,238.2933702999726,238.2933702999726,238.2933702999726,238.2933702999726,238.2933702999726,238.2933702999726,238.2933702999726,238.2933702999726,238.65979290008545,238.65979290008545,238.65979290008545,238.65979290008545,238.65979290008545,238.65979290008545,238.65979290008545,238.65979290008545,238.65979290008545,0,1,[0.0012181999627500772],[0.3672127998434007],238.65979290008545,238.85984080005437,3.7,238.85984080005437,0,3.7,1,0,1000,num_1,0.9086458999663591,,34,16,2026-03-13_11h28.33.939,2026A_exp2,2022.2.4,59.925309056251926,
1000,1,6.1,0.0,0,0,82,82,8,,,,,239.7941848000046,240.42823900002986,240.42823900002986,240.9293448999524,315,45,240.9293448999524,240.9293448999524,240.9293448999524,240.9293448999524,240.9293448999524,240.9293448999524,240.9293448999524,240.9293448999524,240.9293448999524,241.29558490007184,241.29558490007184,241.29558490007184,241.29558490007184,241.29558490007184,241.29558490007184,241.29558490007184,241.29558490007184,241.29558490007184,18,3,"[0.10026389989070594, 0.3004437000490725, 0.3505559000186622]","[0.11696669994853437, 0.33373690000735223, 0.36724229995161295]",241.29558490007184,241.49776430008933,1000,241.49776430008933,1000,1000,1000,1000,1,num_2,0.6069440999999642,,34,16,2026-03-13_11h28.33.939,2026A_exp2,2022.2.4,59.925309056251926,
1000,1,4.9,4.9,0,0,83,83,34,,,,,242.12980260001495,242.78057889989577,242.78057889989577,243.28164279996417,315,315,243.28164279996417,243.28164279996417,243.28164279996417,243.28164279996417,243.28164279996417,243.28164279996417,243.28164279996417,243.28164279996417,243.28164279996417,243.6480833000969,243.6480833000969,243.6480833000969,243.6480833000969,243.6480833000969,243.6480833000969,243.6480833000969,243.6480833000969,243.6480833000969,0,1,[0.0012143999338150024],[0.3672332998830825],243.6480833000969,243.85007270006463,1000,243.85007270006463,1000,1000,1000,1000,1,num_2,0.48710449994541705,,34,16,2026-03-13_11h28.33.939,2026A_exp2,2022.2.4,59.925309056251926,
1000,1,6.1,0.0,0,0,84,84,58,,,,,244.36608449998312,245.0079699999187,245.0079699999187,245.50050309998915,315,45,245.50050309998915,245.50050309998915,245.50050309998915,245.50050309998915,245.50050309998915,245.50050309998915,245.50050309998915,245.50050309998915,245.50050309998915,245.86695869988762,245.86695869988762,245.86695869988762,245.86695869988762,245.86695869988762,245.86695869988762,245.86695869988762,245.86695869988762,245.86695869988762,23,0,,,245.86695869988762,246.06911969999783,1000,246.06911969999783,1000,1000,1000,1000,0,num_3,0.5485147999133915,,34,16,2026-03-13_11h28.33.939,2026A_exp2,2022.2.4,59.925309056251926,
1,0,0.0,0.0,0,0,85,85,29,,,,,246.63455160008743,247.28862620005384,247.28862620005384,247.79360210010782,45,45,247.79360210010782,247.79360210010782,247.79360210010782,247.79360210010782,247.79360210010782,247.79360210010782,247.79360210010782,247.79360210010782,247.79360210010782,248.1525977998972,248.1525977998972,248.1525977998972,248.1525977998972,248.1525977998972,248.1525977998972,248.1525977998972,248.1525977998972,248.1525977998972,0,1,[0.0029613999649882317],[0.36565859988331795],248.1525977998972,248.35254519991577,0.0,248.35254519991577,0,0.0,0,1,1000,num_1,0.625,,34,16,2026-03-13_11h28.33.939,2026A_exp2,2022.2.4,59.925309056251926,
1000,1,6.1,3.7,0,0,86,86,61,,,,,249.00334830000065,249.65407929988578,249.65407929988578,250.13867620006204,315,45,250.13867620006204,250.13867620006204,250.13867620006204,250.13867620006204,250.13867620006204,250.13867620006204,250.13867620006204,250.13867620006204,250.13867620006204,250.50483840005472,250.50483840005472,250.50483840005472,250.50483840005472,250.50483840005472,250.50483840005472,250.50483840005472,250.50483840005472,250.50483840005472,0,1,[0.0012140001635998487],[0.3667236000765115],250.50483840005472,250.70690379990265,1000,250.70690379990265,1000,1000,1000,1000,1,num_2,0.5102907000109553,,34,16,2026-03-13_11h28.33.939,2026A_exp2,2022.2.4,59.925309056251926,
0,0,0.0,0.0,0,0,87,87,69,,,,,251.23912509996444,251.8895650000777,251.8895650000777,252.39061999996193,45,45,252.39061999996193,252.39061999996193,252.39061999996193,252.39061999996193,252.39061999996193,252.39061999996193,252.39061999996193,252.39061999996193,252.39061999996193,252.7571485999506,252.7571485999506,252.7571485999506,252.7571485999506,252.7571485999506,252.7571485999506,252.7571485999506,252.7571485999506,252.7571485999506,0,1,[0.0012077998835593462],[0.367082400014624],252.7571485999506,252.95728319999762,0.0,252.95728319999762,1,0.0,0,0,1000,num_4,0.9957322999835014,,34,16,2026-03-13_11h28.33.939,2026A_exp2,2022.2.4,59.925309056251926,
1,0,0.0,0.0,1,0,88,88,53,,,,,253.97512029996142,254.60902020009235,254.60902020009235,255.1100775001105,315,45,255.1100775001105,255.1100775001105,255.1100775001105,255.1100775001105,255.1100775001105,255.1100775001105,255.1100775001105,255.1100775001105,255.1100775001105,255.47639110009186,255.47639110009186,255.47639110009186,255.47639110009186,255.47639110009186,255.47639110009186,255.47639110009186,255.47639110009186,255.47639110009186,0,1,[0.001225499901920557],[0.3671907999087125],255.47639110009186,255.67676740000024,0.0,255.67676740000024,1,0.0,0,0,1000,num_4,0.603710199939087,,34,16,2026-03-13_11h28.33.939,2026A_exp2,2022.2.4,59.925309056251926,
1000,1,4.9,0.0,0,0,89,89,78,,,,,256.3106567999348,256.9612678999547,256.9612678999547,257.44574259989895,315,315,257.44574259989895,257.44574259989895,257.44574259989895,257.44574259989895,257.44574259989895,257.44574259989895,257.44574259989895,257.44574259989895,257.44574259989895,257.81227970006876,257.81227970006876,257.81227970006876,257.81227970006876,257.81227970006876,257.81227970006876,257.81227970006876,257.81227970006876,257.81227970006876,2,2,"[0.0012374999932944775, 0.20021499996073544]","[0.16686410014517605, 0.3672456999775022]",257.81227970006876,258.01456780009903,1000,258.01456780009903,1000,1000,1000,1000,0,num_3,0.47508010012097657,,34,16,2026-03-13_11h28.33.939,2026A_exp2,2022.2.4,59.925309056251926,
,,,,,,,,,,,,,,,,,,,,,,,,,,,,,,,,,,,,,,,,,,,,,,,,,,,,258.5240034000017,,,,,,,
