validity,detectorcomp,contrastCW,contrastCCW,precueCWorCCW,block_80trials.thisRepN,block_80trials.thisTrialN,block_80trials.thisN,block_80trials.thisIndex,etRecord.started,etRecord.stopped,text.started,text.stopped,text_4.started,text_4.stopped,text_6.started,text_6.stopped,oriCW,oriCCW,roi_2.started,grating_UR.started,grating_UL.started,grating_LR.started,grating_LL.started,noise_UR.started,noise_UL.started,noise_LR.started,noise_LL.started,roi_2.stopped,grating_UR.stopped,grating_UL.stopped,grating_LR.stopped,grating_LL.stopped,noise_UR.stopped,noise_UL.stopped,noise_LR.stopped,noise_LL.stopped,outframe,roi_2.numLooks,roi_2.timesOn,roi_2.timesOff,text_2.started,text_2.stopped,probedcontrast,key_resp.started,respdetect,relevantContrast,correctDetect,TorFdetect,respCWorCCW,key_resp.keys,key_resp.rt,feedback_display_.started,participantNo,blockNo,date,expName,psychopyVersion,frameRate,
1000,1,3.7,0.0,1,0,0,0,33,3.779982216656208e-05,3.779982216656208e-05,53.79845659993589,55.80277399998158,55.80277399998158,56.435840900056064,56.435840900056064,56.962290399940684,315,45,56.962290399940684,56.962290399940684,56.962290399940684,56.962290399940684,56.962290399940684,56.962290399940684,56.962290399940684,56.962290399940684,56.962290399940684,57.30272229993716,57.30272229993716,57.30272229993716,57.30272229993716,57.30272229993716,57.30272229993716,57.30272229993716,57.30272229993716,57.30272229993716,23,0,,,57.30272229993716,57.5037394000683,1000,57.5037394000683,1000,1000,1000,1000,0,num_3,0.6236034000758082,,30,8,2026-03-12_10h53.38.019,2026A_exp2,2022.2.4,60.037451297828774,
1000,1,3.7,3.7,1,0,1,1,88,,,,,58.153577300021425,58.78751409985125,58.78751409985125,59.28901079995558,315,315,59.28901079995558,59.28901079995558,59.28901079995558,59.28901079995558,59.28901079995558,59.28901079995558,59.28901079995558,59.28901079995558,59.28901079995558,59.65489330003038,59.65489330003038,59.65489330003038,59.65489330003038,59.65489330003038,59.65489330003038,59.65489330003038,59.65489330003038,59.65489330003038,0,1,[0.0009236999321728945],[0.3665660999249667],59.65489330003038,59.855265399906784,1000,59.855265399906784,1000,1000,1000,1000,1,num_2,0.5916798000689596,,30,8,2026-03-12_10h53.38.019,2026A_exp2,2022.2.4,60.037451297828774,
1,0,6.1,4.9,0,0,2,2,30,,,,,60.47269940003753,61.12303159991279,61.12303159991279,61.60758959990926,45,315,61.60758959990926,61.60758959990926,61.60758959990926,61.60758959990926,61.60758959990926,61.60758959990926,61.60758959990926,61.60758959990926,61.60758959990926,61.97380040003918,61.97380040003918,61.97380040003918,61.97380040003918,61.97380040003918,61.97380040003918,61.97380040003918,61.97380040003918,61.97380040003918,0,1,[0.000970599940046668],[0.3668927999678999],61.97380040003918,62.17421169998124,6.1,62.17421169998124,1,6.1,1,1,1000,num_4,0.6646024000365287,,30,8,2026-03-12_10h53.38.019,2026A_exp2,2022.2.4,60.037451297828774,
1,0,0.0,4.9,1,0,3,3,65,,,,,62.85827500000596,63.49267669999972,63.49267669999972,63.993299199966714,315,45,63.993299199966714,63.993299199966714,63.993299199966714,63.993299199966714,63.993299199966714,63.993299199966714,63.993299199966714,63.993299199966714,63.993299199966714,64.35996889998205,64.35996889998205,64.35996889998205,64.35996889998205,64.35996889998205,64.35996889998205,64.35996889998205,64.35996889998205,64.35996889998205,0,1,[0.0007619999814778566],[0.3676068999338895],64.35996889998205,64.56033749994822,4.9,64.56033749994822,1,4.9,1,1,1000,num_4,0.5748767000623047,,30,8,2026-03-12_10h53.38.019,2026A_exp2,2022.2.4,60.037451297828774,
1,0,0.0,4.9,0,0,4,4,35,,,,,65.16072100005113,65.8110404999461,65.8110404999461,66.2958485998679,45,45,66.2958485998679,66.2958485998679,66.2958485998679,66.2958485998679,66.2958485998679,66.2958485998679,66.2958485998679,66.2958485998679,66.2958485998679,66.6621747999452,66.6621747999452,66.6621747999452,66.6621747999452,66.6621747999452,66.6621747999452,66.6621747999452,66.6621747999452,66.6621747999452,0,1,[0.0008250998798757792],[0.3673236998729408],66.6621747999452,66.86217630002648,0.0,66.86217630002648,0,0.0,0,1,1000,num_1,0.5927308001555502,,30,8,2026-03-12_10h53.38.019,2026A_exp2,2022.2.4,60.037451297828774,
1000,1,0.0,3.7,1,0,5,5,75,,,,,67.4796769998502,68.11355070001446,68.11355070001446,68.61489790002815,315,315,68.61489790002815,68.61489790002815,68.61489790002815,68.61489790002815,68.61489790002815,68.61489790002815,68.61489790002815,68.61489790002815,68.61489790002815,68.98099309997633,68.98099309997633,68.98099309997633,68.98099309997633,68.98099309997633,68.98099309997633,68.98099309997633,68.98099309997633,68.98099309997633,23,0,,,68.98099309997633,69.18122570007108,1000,69.18122570007108,1000,1000,1000,1000,1,num_2,0.5135774000082165,,30,8,2026-03-12_10h53.38.019,2026A_exp2,2022.2.4,60.037451297828774,
1,0,6.1,3.7,0,0,6,6,86,,,,,69.71503559988923,70.36700859991834,70.36700859991834,70.86685570003465,315,45,70.86685570003465,70.86685570003465,70.86685570003465,70.86685570003465,70.86685570003465,70.86685570003465,70.86685570003465,70.86685570003465,70.86685570003465,71.23358180001378,71.23358180001378,71.23358180001378,71.23358180001378,71.23358180001378,71.23358180001378,71.23358180001378,71.23358180001378,71.23358180001378,23,0,,,71.23358180001378,71.43327279994264,6.1,71.43327279994264,1,6.1,1,1,1000,num_4,0.605976999970153,,30,8,2026-03-12_10h53.38.019,2026A_exp2,2022.2.4,60.037451297828774,
1000,1,4.9,0.0,0,0,7,7,78,,,,,72.06789790000767,72.71810829988681,72.71810829988681,73.2027513999492,315,315,73.2027513999492,73.2027513999492,73.2027513999492,73.2027513999492,73.2027513999492,73.2027513999492,73.2027513999492,73.2027513999492,73.2027513999492,73.5690524999518,73.5690524999518,73.5690524999518,73.5690524999518,73.5690524999518,73.5690524999518,73.5690524999518,73.5690524999518,73.5690524999518,0,1,[0.0009188998956233263],[0.3672956998925656],73.5690524999518,73.76934130000882,1000,73.76934130000882,1000,1000,1000,1000,0,num_3,0.5176015999168158,,30,8,2026-03-12_10h53.38.019,2026A_exp2,2022.2.4,60.037451297828774,
1000,1,6.1,3.7,0,0,8,8,61,,,,,74.30316839995794,74.95355189987458,74.95355189987458,75.45472189993598,45,315,75.45472189993598,75.45472189993598,75.45472189993598,75.45472189993598,75.45472189993598,75.45472189993598,75.45472189993598,75.45472189993598,75.45472189993598,75.80478039989248,75.80478039989248,75.80478039989248,75.80478039989248,75.80478039989248,75.80478039989248,75.80478039989248,75.80478039989248,75.80478039989248,0,1,[0.0012338000815361738],[0.3525829000864178],75.80478039989248,76.00536080007441,1000,76.00536080007441,1000,1000,1000,1000,0,num_3,0.6173902000300586,,30,8,2026-03-12_10h53.38.019,2026A_exp2,2022.2.4,60.037451297828774,
1000,1,4.9,0.0,1,0,9,9,28,,,,,76.63914009998553,77.28912839991972,77.28912839991972,77.79072349984199,315,315,77.79072349984199,77.79072349984199,77.79072349984199,77.79072349984199,77.79072349984199,77.79072349984199,77.79072349984199,77.79072349984199,77.79072349984199,78.15676559996791,78.15676559996791,78.15676559996791,78.15676559996791,78.15676559996791,78.15676559996791,78.15676559996791,78.15676559996791,78.15676559996791,0,1,[0.0008604000322520733],[0.3675999001134187],78.15676559996791,78.35731570003554,1000,78.35731570003554,1000,1000,1000,1000,0,num_3,0.3453202999662608,,30,8,2026-03-12_10h53.38.019,2026A_exp2,2022.2.4,60.037451297828774,
1000,1,4.9,4.9,1,0,10,10,85,,,,,78.72418819996528,79.3745210999623,79.3745210999623,79.86021049995907,45,45,79.86021049995907,79.86021049995907,79.86021049995907,79.86021049995907,79.86021049995907,79.86021049995907,79.86021049995907,79.86021049995907,79.86021049995907,80.22553409985267,80.22553409985267,80.22553409985267,80.22553409985267,80.22553409985267,80.22553409985267,80.22553409985267,80.22553409985267,80.22553409985267,0,1,[0.0007939999923110008],[0.3668599999509752],80.22553409985267,80.4257734999992,1000,80.4257734999992,1000,1000,1000,1000,0,num_3,0.3576406999491155,,30,8,2026-03-12_10h53.38.019,2026A_exp2,2022.2.4,60.037451297828774,
1,0,0.0,3.7,0,0,11,11,22,,,,,80.80945509998128,81.46028109989129,81.46028109989129,81.94473159988411,315,45,81.94473159988411,81.94473159988411,81.94473159988411,81.94473159988411,81.94473159988411,81.94473159988411,81.94473159988411,81.94473159988411,81.94473159988411,82.31090039992705,82.31090039992705,82.31090039992705,82.31090039992705,82.31090039992705,82.31090039992705,82.31090039992705,82.31090039992705,82.31090039992705,0,1,[0.0007404000498354435],[0.36725200014188886],82.31090039992705,82.51108430000022,0.0,82.51108430000022,0,0.0,0,1,1000,num_1,0.4078186000697315,,30,8,2026-03-12_10h53.38.019,2026A_exp2,2022.2.4,60.037451297828774,
1,0,6.1,6.1,0,0,12,12,51,,,,,82.94496589992195,83.58008540002629,83.58008540002629,84.08021180005744,315,315,84.08021180005744,84.08021180005744,84.08021180005744,84.08021180005744,84.08021180005744,84.08021180005744,84.08021180005744,84.08021180005744,84.08021180005744,84.446345299948,84.446345299948,84.446345299948,84.446345299948,84.446345299948,84.446345299948,84.446345299948,84.446345299948,84.446345299948,0,1,[0.0007232001516968012],[0.3673970999661833],84.446345299948,84.64694989984855,6.1,84.64694989984855,1,6.1,1,1,1000,num_4,0.7366508000995964,,30,8,2026-03-12_10h53.38.019,2026A_exp2,2022.2.4,60.037451297828774,
1000,1,3.7,0.0,1,0,13,13,44,,,,,85.41410649986938,86.06450830004178,86.06450830004178,86.54930679989047,45,45,86.54930679989047,86.54930679989047,86.54930679989047,86.54930679989047,86.54930679989047,86.54930679989047,86.54930679989047,86.54930679989047,86.54930679989047,86.91579760005698,86.91579760005698,86.91579760005698,86.91579760005698,86.91579760005698,86.91579760005698,86.91579760005698,86.91579760005698,86.91579760005698,0,1,[0.0008602999150753021],[0.3679986000061035],86.91579760005698,87.11583140003495,1000,87.11583140003495,1000,1000,1000,1000,1,num_2,0.675436899997294,,30,8,2026-03-12_10h53.38.019,2026A_exp2,2022.2.4,60.037451297828774,
1000,1,6.1,4.9,0,0,14,14,77,,,,,87.81653059995733,,88.46701149991713,88.95171739999205,45,45,88.95171739999205,88.95171739999205,88.95171739999205,88.95171739999205,88.95171739999205,88.95171739999205,88.95171739999205,88.95171739999205,88.95171739999205,89.31819580006413,89.31819580006413,89.31819580006413,89.31819580006413,89.31819580006413,89.31819580006413,89.31819580006413,89.31819580006413,89.31819580006413,0,1,[0.0008301001507788897],[0.36779610021039844],89.31819580006413,89.5183182999026,1000,89.5183182999026,1000,1000,1000,1000,0,num_3,0.6325149000622332,,30,8,2026-03-12_10h53.38.019,2026A_exp2,2022.2.4,60.037451297828774,
1,0,0.0,3.7,0,0,15,15,2,,,,,90.16870849998668,90.80277159996331,90.80277159996331,91.30623929994181,315,315,91.30623929994181,91.30623929994181,91.30623929994181,91.30623929994181,91.30623929994181,91.30623929994181,91.30623929994181,91.30623929994181,91.30623929994181,91.67026069993153,91.67026069993153,91.67026069993153,91.67026069993153,91.67026069993153,91.67026069993153,91.67026069993153,91.67026069993153,91.67026069993153,0,1,[0.0009505997877568007],[0.3671177998185158],91.67026069993153,91.87093489989638,0.0,91.87093489989638,0,0.0,0,1,1000,num_1,0.760095400037244,,30,8,2026-03-12_10h53.38.019,2026A_exp2,2022.2.4,60.037451297828774,
1,0,0.0,0.0,1,0,16,16,82,,,,,92.65502780000679,93.30533870006911,93.30533870006911,93.78973630000837,315,45,93.78973630000837,93.78973630000837,93.78973630000837,93.78973630000837,93.78973630000837,93.78973630000837,93.78973630000837,93.78973630000837,93.78973630000837,94.15652760001831,94.15652760001831,94.15652760001831,94.15652760001831,94.15652760001831,94.15652760001831,94.15652760001831,94.15652760001831,94.15652760001831,0,1,[0.0007472001016139984],[0.3674433999694884],94.15652760001831,94.3562717998866,0.0,94.3562717998866,0,0.0,0,1,1000,num_1,0.3226214998867363,,30,8,2026-03-12_10h53.38.019,2026A_exp2,2022.2.4,60.037451297828774,
1,0,0.0,0.0,1,0,17,17,53,,,,,94.7067825999111,95.35736779985018,95.35736779985018,95.84188029984944,315,315,95.84188029984944,95.84188029984944,95.84188029984944,95.84188029984944,95.84188029984944,95.84188029984944,95.84188029984944,95.84188029984944,95.84188029984944,96.20893249986693,96.20893249986693,96.20893249986693,96.20893249986693,96.20893249986693,96.20893249986693,96.20893249986693,96.20893249986693,96.20893249986693,0,1,[0.0010183998383581638],[0.3671731997746974],96.20893249986693,96.40908750006929,0.0,96.40908750006929,0,0.0,0,1,1000,num_1,0.33396949991583824,,30,8,2026-03-12_10h53.38.019,2026A_exp2,2022.2.4,60.037451297828774,
1000,1,6.1,6.1,0,0,18,18,74,,,,,96.75875060004182,97.39333069999702,97.39333069999702,97.89412379986607,315,315,97.89412379986607,97.89412379986607,97.89412379986607,97.89412379986607,97.89412379986607,97.89412379986607,97.89412379986607,97.89412379986607,97.89412379986607,98.26022469997406,98.26022469997406,98.26022469997406,98.26022469997406,98.26022469997406,98.26022469997406,98.26022469997406,98.26022469997406,98.26022469997406,0,1,[0.0007786001078784466],[0.3667921000160277],98.26022469997406,98.46114480006509,1000,98.46114480006509,1000,1000,1000,1000,0,num_3,1.4179691998288035,,30,8,2026-03-12_10h53.38.019,2026A_exp2,2022.2.4,60.037451297828774,
1,0,6.1,0.0,0,0,19,19,24,,,,,99.89499889989384,100.52929900004528,100.52929900004528,101.03022819990292,45,45,101.03022819990292,101.03022819990292,101.03022819990292,101.03022819990292,101.03022819990292,101.03022819990292,101.03022819990292,101.03022819990292,101.03022819990292,101.397420699941,101.397420699941,101.397420699941,101.397420699941,101.397420699941,101.397420699941,101.397420699941,101.397420699941,101.397420699941,0,1,[0.0010279999114573002],[0.3683798999991268],101.397420699941,101.59708549990319,6.1,101.59708549990319,1,6.1,1,1,1000,num_4,0.7702929000370204,,30,8,2026-03-12_10h53.38.019,2026A_exp2,2022.2.4,60.037451297828774,
1000,1,0.0,0.0,1,0,20,20,40,,,,,102.39775700005703,103.04820339987054,103.04820339987054,103.5327435999643,315,315,103.5327435999643,103.5327435999643,103.5327435999643,103.5327435999643,103.5327435999643,103.5327435999643,103.5327435999643,103.5327435999643,103.5327435999643,103.89961809990928,103.89961809990928,103.89961809990928,103.89961809990928,103.89961809990928,103.89961809990928,103.89961809990928,103.89961809990928,103.89961809990928,0,1,[0.0007587999571114779],[0.36851800000295043],103.89961809990928,104.09946699999273,1000,104.09946699999273,1000,1000,1000,1000,1,num_2,0.4836836999747902,,30,8,2026-03-12_10h53.38.019,2026A_exp2,2022.2.4,60.037451297828774,
1,0,0.0,0.0,0,0,21,21,19,,,,,104.60004599997774,105.2504348999355,105.2504348999355,105.7515040000435,315,315,105.7515040000435,105.7515040000435,105.7515040000435,105.7515040000435,105.7515040000435,105.7515040000435,105.7515040000435,105.7515040000435,105.7515040000435,106.10140429995954,106.10140429995954,106.10140429995954,106.10140429995954,106.10140429995954,106.10140429995954,106.10140429995954,106.10140429995954,106.10140429995954,0,1,[0.0007443001959472895],[0.3505838999990374],106.10140429995954,106.30144349997863,0.0,106.30144349997863,0,0.0,0,1,1000,num_1,0.3771278001368046,,30,8,2026-03-12_10h53.38.019,2026A_exp2,2022.2.4,60.037451297828774,
1000,1,3.7,6.1,0,0,22,22,81,,,,,106.70198519993573,107.33602360007353,107.33602360007353,107.83719410002232,315,315,107.83719410002232,107.83719410002232,107.83719410002232,107.83719410002232,107.83719410002232,107.83719410002232,107.83719410002232,107.83719410002232,107.83719410002232,108.20331649994478,108.20331649994478,108.20331649994478,108.20331649994478,108.20331649994478,108.20331649994478,108.20331649994478,108.20331649994478,108.20331649994478,0,1,[0.0011456001084297895],[0.3670950001105666],108.20331649994478,108.4047930999659,1000,108.4047930999659,1000,1000,1000,1000,1,num_2,0.48274220013991,,30,8,2026-03-12_10h53.38.019,2026A_exp2,2022.2.4,60.037451297828774,
1000,1,0.0,0.0,1,0,23,23,42,,,,,108.90418289997615,109.55469719995745,109.55469719995745,110.03930859989487,45,315,110.03930859989487,110.03930859989487,110.03930859989487,110.03930859989487,110.03930859989487,110.03930859989487,110.03930859989487,110.03930859989487,110.03930859989487,110.40570400003344,110.40570400003344,110.40570400003344,110.40570400003344,110.40570400003344,110.40570400003344,110.40570400003344,110.40570400003344,110.40570400003344,0,1,[0.0007373001426458359],[0.36721830000169575],110.40570400003344,110.60635869996622,1000,110.60635869996622,1000,1000,1000,1000,1,num_2,0.6644190999213606,,30,8,2026-03-12_10h53.38.019,2026A_exp2,2022.2.4,60.037451297828774,
1000,1,4.9,0.0,0,0,24,24,20,,,,,111.28996660001576,111.9407196000684,111.9407196000684,112.42512569995597,45,45,112.42512569995597,112.42512569995597,112.42512569995597,112.42512569995597,112.42512569995597,112.42512569995597,112.42512569995597,112.42512569995597,112.42512569995597,112.79133150004782,112.79133150004782,112.79133150004782,112.79133150004782,112.79133150004782,112.79133150004782,112.79133150004782,112.79133150004782,112.79133150004782,0,1,[0.0009556999430060387],[0.3673399998806417],112.79133150004782,112.99196040001698,1000,112.99196040001698,1000,1000,1000,1000,0,num_3,0.43961630016565323,,30,8,2026-03-12_10h53.38.019,2026A_exp2,2022.2.4,60.037451297828774,
1000,1,6.1,3.7,1,0,25,25,45,,,,,113.45888799987733,114.10977609991096,114.10977609991096,114.5937481999863,315,45,114.5937481999863,114.5937481999863,114.5937481999863,114.5937481999863,114.5937481999863,114.5937481999863,114.5937481999863,114.5937481999863,114.5937481999863,114.96012909989804,114.96012909989804,114.96012909989804,114.96012909989804,114.96012909989804,114.96012909989804,114.96012909989804,114.96012909989804,114.96012909989804,0,1,[0.0007847000379115343],[0.36684140004217625],114.96012909989804,115.16088650003076,1000,115.16088650003076,1000,1000,1000,1000,0,num_3,0.41470379987731576,,30,8,2026-03-12_10h53.38.019,2026A_exp2,2022.2.4,60.037451297828774,
1000,1,6.1,6.1,0,0,26,26,50,,,,,115.59430720005184,116.24540330003947,116.24540330003947,116.72997880005278,315,315,116.72997880005278,116.72997880005278,116.72997880005278,116.72997880005278,116.72997880005278,116.72997880005278,116.72997880005278,116.72997880005278,116.72997880005278,117.09579359996133,117.09579359996133,117.09579359996133,117.09579359996133,117.09579359996133,117.09579359996133,117.09579359996133,117.09579359996133,117.09579359996133,2,2,"[0.016084899893030524, 0.11439949995838106]","[0.09763259999454021, 0.3648526999168098]",117.09579359996133,117.29618149995804,1000,117.29618149995804,1000,1000,1000,1000,1,num_2,0.518741600215435,,30,8,2026-03-12_10h53.38.019,2026A_exp2,2022.2.4,60.037451297828774,
1,0,0.0,6.1,0,0,27,27,72,,,,,117.84665749990381,118.49698509997688,118.49698509997688,118.98166539985687,45,45,118.98166539985687,118.98166539985687,118.98166539985687,118.98166539985687,118.98166539985687,118.98166539985687,118.98166539985687,118.98166539985687,118.98166539985687,119.34780959994532,119.34780959994532,119.34780959994532,119.34780959994532,119.34780959994532,119.34780959994532,119.34780959994532,119.34780959994532,119.34780959994532,0,1,[0.0007426999509334564],[0.367373300017789],119.34780959994532,119.54808269999921,0.0,119.54808269999921,0,0.0,0,1,1000,num_1,0.5948051000013947,,30,8,2026-03-12_10h53.38.019,2026A_exp2,2022.2.4,60.037451297828774,
1,0,3.7,4.9,0,0,28,28,84,,,,,120.16537499986589,120.79937170003541,120.79937170003541,121.3004157000687,315,315,121.3004157000687,121.3004157000687,121.3004157000687,121.3004157000687,121.3004157000687,121.3004157000687,121.3004157000687,121.3004157000687,121.3004157000687,121.66688709985465,121.66688709985465,121.66688709985465,121.66688709985465,121.66688709985465,121.66688709985465,121.66688709985465,121.66688709985465,121.66688709985465,0,1,[0.0007750000804662704],[0.36736000003293157],121.66688709985465,121.86697579990141,3.7,121.86697579990141,0,3.7,1,0,1000,num_1,0.5957606001757085,,30,8,2026-03-12_10h53.38.019,2026A_exp2,2022.2.4,60.037451297828774,
1000,1,6.1,0.0,0,0,29,29,80,,,,,122.48433419992216,123.13496829988435,123.13496829988435,123.61934709991328,45,45,123.61934709991328,123.61934709991328,123.61934709991328,123.61934709991328,123.61934709991328,123.61934709991328,123.61934709991328,123.61934709991328,123.61934709991328,123.98573319986463,123.98573319986463,123.98573319986463,123.98573319986463,123.98573319986463,123.98573319986463,123.98573319986463,123.98573319986463,123.98573319986463,0,1,[0.0007734000682830811],[0.36721680010668933],123.98573319986463,124.18605559994467,1000,124.18605559994467,1000,1000,1000,1000,0,num_3,0.5010661999695003,,30,8,2026-03-12_10h53.38.019,2026A_exp2,2022.2.4,60.037451297828774,
1,0,3.7,0.0,1,0,30,30,59,,,,,124.70329059986398,125.35398790007457,125.35398790007457,125.85493959998712,315,45,125.85493959998712,125.85493959998712,125.85493959998712,125.85493959998712,125.85493959998712,125.85493959998712,125.85493959998712,125.85493959998712,125.85493959998712,126.20494479988702,126.20494479988702,126.20494479988702,126.20494479988702,126.20494479988702,126.20494479988702,126.20494479988702,126.20494479988702,126.20494479988702,0,1,[0.0007974999025464058],[0.3503641998395324],126.20494479988702,126.40508419997059,0.0,126.40508419997059,0,0.0,0,1,1000,num_1,1.0176746000070125,,30,8,2026-03-12_10h53.38.019,2026A_exp2,2022.2.4,60.037451297828774,
1,0,4.9,0.0,1,0,31,31,15,,,,,127.43948139995337,128.0900141999591,128.0900141999591,128.57553200004622,315,315,128.57553200004622,128.57553200004622,128.57553200004622,128.57553200004622,128.57553200004622,128.57553200004622,128.57553200004622,128.57553200004622,128.57553200004622,128.9408332000021,128.9408332000021,128.9408332000021,128.9408332000021,128.9408332000021,128.9408332000021,128.9408332000021,128.9408332000021,128.9408332000021,0,1,[0.0010931999422609806],[0.36652650008909404],128.9408332000021,129.14098630007356,0.0,129.14098630007356,0,0.0,0,1,1000,num_1,0.6504800000693649,,30,8,2026-03-12_10h53.38.019,2026A_exp2,2022.2.4,60.037451297828774,
0,0,3.7,6.1,1,0,32,32,17,,,,,129.8085044999607,130.4591546000447,130.4591546000447,130.94344799988903,45,45,130.94344799988903,130.94344799988903,130.94344799988903,130.94344799988903,130.94344799988903,130.94344799988903,130.94344799988903,130.94344799988903,130.94344799988903,131.3096342999488,131.3096342999488,131.3096342999488,131.3096342999488,131.3096342999488,131.3096342999488,131.3096342999488,131.3096342999488,131.3096342999488,0,1,[0.0007426000665873289],[0.36717520002275705],131.3096342999488,131.51006580004469,3.7,131.51006580004469,0,3.7,1,0,1000,num_1,0.560679400106892,,30,8,2026-03-12_10h53.38.019,2026A_exp2,2022.2.4,60.037451297828774,
1000,1,0.0,0.0,1,0,33,33,70,,,,,132.0938901999034,132.7280458000023,132.7280458000023,133.22972780000418,315,45,133.22972780000418,133.22972780000418,133.22972780000418,133.22972780000418,133.22972780000418,133.22972780000418,133.22972780000418,133.22972780000418,133.22972780000418,133.59540029987693,133.59540029987693,133.59540029987693,133.59540029987693,133.59540029987693,133.59540029987693,133.59540029987693,133.59540029987693,133.59540029987693,22,1,[0.23380229994654655],[0.2503710000310093],133.59540029987693,133.79576619993895,1000,133.79576619993895,1000,1000,1000,1000,1,num_2,0.6111057000234723,,30,8,2026-03-12_10h53.38.019,2026A_exp2,2022.2.4,60.037451297828774,
1,0,3.7,6.1,1,0,34,34,6,,,,,134.43001249991357,135.08045909996144,135.08045909996144,135.5647125998512,45,45,135.5647125998512,135.5647125998512,135.5647125998512,135.5647125998512,135.5647125998512,135.5647125998512,135.5647125998512,135.5647125998512,135.5647125998512,135.93101619998924,135.93101619998924,135.93101619998924,135.93101619998924,135.93101619998924,135.93101619998924,135.93101619998924,135.93101619998924,135.93101619998924,1,2,"[0.0007365001365542412, 0.23377600009553134]","[0.21704680006951094, 0.3672232001554221]",135.93101619998924,136.13132290006615,6.1,136.13132290006615,1,6.1,1,1,1000,num_4,0.8917817999608815,,30,8,2026-03-12_10h53.38.019,2026A_exp2,2022.2.4,60.037451297828774,
1000,1,3.7,0.0,1,0,35,35,21,,,,,137.0489380999934,137.68287150003016,137.68287150003016,138.18389820004813,315,315,138.18389820004813,138.18389820004813,138.18389820004813,138.18389820004813,138.18389820004813,138.18389820004813,138.18389820004813,138.18389820004813,138.18389820004813,138.55031510000117,138.55031510000117,138.55031510000117,138.55031510000117,138.55031510000117,138.55031510000117,138.55031510000117,138.55031510000117,138.55031510000117,1,2,"[0.0007459998596459627, 0.2672286999877542]","[0.25074100005440414, 0.36721180006861687]",138.55031510000117,138.75086819985881,1000,138.75086819985881,1000,1000,1000,1000,0,num_3,1.2239988998044282,,30,8,2026-03-12_10h53.38.019,2026A_exp2,2022.2.4,60.037451297828774,
1000,1,3.7,0.0,0,0,36,36,37,,,,,140.0018736999482,140.6525057000108,140.6525057000108,141.15360299986787,45,315,141.15360299986787,141.15360299986787,141.15360299986787,141.15360299986787,141.15360299986787,141.15360299986787,141.15360299986787,141.15360299986787,141.15360299986787,141.50327620003372,141.50327620003372,141.50327620003372,141.50327620003372,141.50327620003372,141.50327620003372,141.50327620003372,141.50327620003372,141.50327620003372,1,2,"[0.0007391001563519239, 0.28387259994633496]","[0.2673494000919163, 0.35069789993576705]",141.50327620003372,141.70393630000763,1000,141.70393630000763,1000,1000,1000,1000,0,num_3,0.40679999999701977,,30,8,2026-03-12_10h53.38.019,2026A_exp2,2022.2.4,60.037451297828774,
1,0,0.0,0.0,0,0,37,37,49,,,,,142.13777270005085,142.78803960001096,142.78803960001096,143.27254320005886,315,45,143.27254320005886,143.27254320005886,143.27254320005886,143.27254320005886,143.27254320005886,143.27254320005886,143.27254320005886,143.27254320005886,143.27254320005886,143.6387654999271,143.6387654999271,143.6387654999271,143.6387654999271,143.6387654999271,143.6387654999271,143.6387654999271,143.6387654999271,143.6387654999271,0,1,[0.000920899910852313],[0.36693759984336793],143.6387654999271,143.83874689997174,0.0,143.83874689997174,0,0.0,0,1,1000,num_1,0.3761018000077456,,30,8,2026-03-12_10h53.38.019,2026A_exp2,2022.2.4,60.037451297828774,
1,0,6.1,0.0,1,0,38,38,38,,,,,144.23942920006812,144.8900289000012,144.8900289000012,145.37447079992853,315,45,145.37447079992853,145.37447079992853,145.37447079992853,145.37447079992853,145.37447079992853,145.37447079992853,145.37447079992853,145.37447079992853,145.37447079992853,145.74089889996685,145.74089889996685,145.74089889996685,145.74089889996685,145.74089889996685,145.74089889996685,145.74089889996685,145.74089889996685,145.74089889996685,20,2,"[0.0009506999049335718, 0.25051929987967014]","[0.03364939987659454, 0.2672135999891907]",145.74089889996685,145.94136419985443,0.0,145.94136419985443,0,0.0,0,1,1000,num_1,0.7941596999298781,,30,8,2026-03-12_10h53.38.019,2026A_exp2,2022.2.4,60.037451297828774,
1,0,0.0,3.7,1,0,39,39,12,,,,,146.7594452998601,147.39254039991647,147.39254039991647,147.8937305000145,315,45,147.8937305000145,147.8937305000145,147.8937305000145,147.8937305000145,147.8937305000145,147.8937305000145,147.8937305000145,147.8937305000145,147.8937305000145,148.260107900016,148.260107900016,148.260107900016,148.260107900016,148.260107900016,148.260107900016,148.260107900016,148.260107900016,148.260107900016,0,1,[0.0008389998693019152],[0.3672078000381589],148.260107900016,148.46037509990856,3.7,148.46037509990856,0,3.7,1,0,1000,num_1,0.35450689983554184,,30,8,2026-03-12_10h53.38.019,2026A_exp2,2022.2.4,60.037451297828774,
1,0,0.0,3.7,0,0,40,40,1,,,,,148.84464280004613,149.47782699996606,149.47782699996606,149.97905580000952,315,315,149.97905580000952,149.97905580000952,149.97905580000952,149.97905580000952,149.97905580000952,149.97905580000952,149.97905580000952,149.97905580000952,149.97905580000952,150.34559040004387,150.34559040004387,150.34559040004387,150.34559040004387,150.34559040004387,150.34559040004387,150.34559040004387,150.34559040004387,150.34559040004387,0,1,[0.0009407000616192818],[0.36725790007039905],150.34559040004387,150.5457305999007,0.0,150.5457305999007,0,0.0,0,1,1000,num_1,0.3971253999043256,,30,8,2026-03-12_10h53.38.019,2026A_exp2,2022.2.4,60.037451297828774,
1,0,4.9,0.0,0,0,41,41,23,,,,,150.9629007000476,151.59693169989623,151.59693169989623,152.09791480004787,315,45,152.09791480004787,152.09791480004787,152.09791480004787,152.09791480004787,152.09791480004787,152.09791480004787,152.09791480004787,152.09791480004787,152.09791480004787,152.46422039996833,152.46422039996833,152.46422039996833,152.46422039996833,152.46422039996833,152.46422039996833,152.46422039996833,152.46422039996833,152.46422039996833,0,1,[0.0008370999712496996],[0.3670409000478685],152.46422039996833,152.66444299998693,4.9,152.66444299998693,1,4.9,1,1,1000,num_4,0.774394900072366,,30,8,2026-03-12_10h53.38.019,2026A_exp2,2022.2.4,60.037451297828774,
0,0,0.0,0.0,0,0,42,42,69,,,,,153.4653205999639,154.09924090001732,154.09924090001732,154.60034939995967,315,315,154.60034939995967,154.60034939995967,154.60034939995967,154.60034939995967,154.60034939995967,154.60034939995967,154.60034939995967,154.60034939995967,154.60034939995967,154.96691409987397,154.96691409987397,154.96691409987397,154.96691409987397,154.96691409987397,154.96691409987397,154.96691409987397,154.96691409987397,154.96691409987397,11,6,"[0.050445400178432465, 0.10088969999924302, 0.15048940014094114, 0.20043030008673668, 0.2505346001125872, 0.3504788000136614]","[0.06711470009759068, 0.13378340005874634, 0.1669382001273334, 0.23376930016092956, 0.3341964001301676, 0.367302100174129]",154.96691409987397,155.16700590006076,0.0,155.16700590006076,0,0.0,0,1,1000,num_1,0.6165205999277532,,30,8,2026-03-12_10h53.38.019,2026A_exp2,2022.2.4,60.037451297828774,
1000,1,0.0,0.0,1,0,43,43,71,,,,,155.800984099973,156.43499249988236,156.43499249988236,156.93605849985033,315,315,156.93605849985033,156.93605849985033,156.93605849985033,156.93605849985033,156.93605849985033,156.93605849985033,156.93605849985033,156.93605849985033,156.93605849985033,157.30276210000739,157.30276210000739,157.30276210000739,157.30276210000739,157.30276210000739,157.30276210000739,157.30276210000739,157.30276210000739,157.30276210000739,0,1,[0.0007992000319063663],[0.3684563999995589],157.30276210000739,157.50304019986652,1000,157.50304019986652,1000,1000,1000,1000,1,num_2,0.7118341999594122,,30,8,2026-03-12_10h53.38.019,2026A_exp2,2022.2.4,60.037451297828774,
1,0,4.9,0.0,1,0,44,44,48,,,,,158.2371209000703,158.88753349985927,158.88753349985927,159.38905679993331,315,315,159.38905679993331,159.38905679993331,159.38905679993331,159.38905679993331,159.38905679993331,159.38905679993331,159.38905679993331,159.38905679993331,159.38905679993331,159.7382097998634,159.7382097998634,159.7382097998634,159.7382097998634,159.7382097998634,159.7382097998634,159.7382097998634,159.7382097998634,159.7382097998634,2,1,[0.034163499949499965],[0.35017469990998507],159.7382097998634,159.93848460004665,0.0,159.93848460004665,0,0.0,0,1,1000,num_1,0.6845533000305295,,30,8,2026-03-12_10h53.38.019,2026A_exp2,2022.2.4,60.037451297828774,
1,0,0.0,3.7,1,0,45,45,25,,,,,160.63942949986085,161.27333349990658,161.27333349990658,161.7743587999139,45,45,161.7743587999139,161.7743587999139,161.7743587999139,161.7743587999139,161.7743587999139,161.7743587999139,161.7743587999139,161.7743587999139,161.7743587999139,162.14040749985725,162.14040749985725,162.14040749985725,162.14040749985725,162.14040749985725,162.14040749985725,162.14040749985725,162.14040749985725,162.14040749985725,2,2,"[0.0007372000254690647, 0.2838592000771314]","[0.2501083998940885, 0.36801759991794825]",162.14040749985725,162.34092759992927,3.7,162.34092759992927,0,3.7,1,0,1000,num_1,0.35385249997489154,,30,8,2026-03-12_10h53.38.019,2026A_exp2,2022.2.4,60.037451297828774,
1000,1,6.1,0.0,0,0,46,46,58,,,,,162.72483900003135,163.3585902999621,163.3585902999621,163.85963990003802,315,315,163.85963990003802,163.85963990003802,163.85963990003802,163.85963990003802,163.85963990003802,163.85963990003802,163.85963990003802,163.85963990003802,163.85963990003802,164.22617889987305,164.22617889987305,164.22617889987305,164.22617889987305,164.22617889987305,164.22617889987305,164.22617889987305,164.22617889987305,164.22617889987305,2,2,"[0.0007432999555021524, 0.11762190004810691]","[0.08397349994629622, 0.3670602000784129]",164.22617889987305,164.4270001000259,1000,164.4270001000259,1000,1000,1000,1000,0,num_3,0.6196479999925941,,30,8,2026-03-12_10h53.38.019,2026A_exp2,2022.2.4,60.037451297828774,
1,0,0.0,4.9,1,0,47,47,36,,,,,165.07697429996915,165.72789969993755,165.72789969993755,166.21212109993212,315,315,166.21212109993212,166.21212109993212,166.21212109993212,166.21212109993212,166.21212109993212,166.21212109993212,166.21212109993212,166.21212109993212,166.21212109993212,166.57857989985496,166.57857989985496,166.57857989985496,166.57857989985496,166.57857989985496,166.57857989985496,166.57857989985496,166.57857989985496,166.57857989985496,0,1,[0.0009291998576372862],[0.3674667999148369],166.57857989985496,166.77867419994436,4.9,166.77867419994436,1,4.9,1,1,1000,num_4,0.7887593999039382,,30,8,2026-03-12_10h53.38.019,2026A_exp2,2022.2.4,60.037451297828774,
1,0,3.7,6.1,0,0,48,48,55,,,,,167.5963001998607,168.23031100002117,168.23031100002117,168.7313721999526,315,45,168.7313721999526,168.7313721999526,168.7313721999526,168.7313721999526,168.7313721999526,168.7313721999526,168.7313721999526,168.7313721999526,168.7313721999526,169.09753370005637,169.09753370005637,169.09753370005637,169.09753370005637,169.09753370005637,169.09753370005637,169.09753370005637,169.09753370005637,169.09753370005637,0,1,[0.0009139999747276306],[0.36725510004907846],169.09753370005637,169.29782340000384,3.7,169.29782340000384,0,3.7,1,0,1000,num_1,0.5491267999168485,,30,8,2026-03-12_10h53.38.019,2026A_exp2,2022.2.4,60.037451297828774,
1000,1,0.0,0.0,0,0,49,49,47,,,,,169.86508619994856,170.49901999998838,170.49901999998838,171.00006449990906,45,45,171.00006449990906,171.00006449990906,171.00006449990906,171.00006449990906,171.00006449990906,171.00006449990906,171.00006449990906,171.00006449990906,171.00006449990906,171.36650229990482,171.36650229990482,171.36650229990482,171.36650229990482,171.36650229990482,171.36650229990482,171.36650229990482,171.36650229990482,171.36650229990482,0,1,[0.0007594001945108175],[0.36733430018648505],171.36650229990482,171.5664814999327,1000,171.5664814999327,1000,1000,1000,1000,1,num_2,0.5764725999906659,,30,8,2026-03-12_10h53.38.019,2026A_exp2,2022.2.4,60.037451297828774,
1000,1,4.9,6.1,1,0,50,50,18,,,,,172.16731719998643,172.80123330000788,172.80123330000788,173.30242149997503,315,45,173.30242149997503,173.30242149997503,173.30242149997503,173.30242149997503,173.30242149997503,173.30242149997503,173.30242149997503,173.30242149997503,173.30242149997503,173.66885449993424,173.66885449993424,173.66885449993424,173.66885449993424,173.66885449993424,173.66885449993424,173.66885449993424,173.66885449993424,173.66885449993424,0,1,[0.0007507998961955309],[0.3672676000278443],173.66885449993424,173.87161360005848,1000,173.87161360005848,1000,1000,1000,1000,1,num_2,0.927638900000602,,30,8,2026-03-12_10h53.38.019,2026A_exp2,2022.2.4,60.037451297828774,
0,0,0.0,0.0,0,0,51,51,67,,,,,174.81993040000089,175.4707946998533,175.4707946998533,175.97183619998395,45,45,175.97183619998395,175.97183619998395,175.97183619998395,175.97183619998395,175.97183619998395,175.97183619998395,175.97183619998395,175.97183619998395,175.97183619998395,176.3215721999295,176.3215721999295,176.3215721999295,176.3215721999295,176.3215721999295,176.3215721999295,176.3215721999295,176.3215721999295,176.3215721999295,3,2,"[0.0007656998932361603, 0.2672770000062883]","[0.2503887000493705, 0.3339360000099987]",176.3215721999295,176.52193829999305,0.0,176.52193829999305,0,0.0,0,1,1000,num_1,0.7734064001124352,,30,8,2026-03-12_10h53.38.019,2026A_exp2,2022.2.4,60.037451297828774,
1000,1,0.0,4.9,1,0,52,52,73,,,,,177.32258379994892,177.95649449992925,177.95649449992925,178.45786880003288,315,315,178.45786880003288,178.45786880003288,178.45786880003288,178.45786880003288,178.45786880003288,178.45786880003288,178.45786880003288,178.45786880003288,178.45786880003288,178.82408519997261,178.82408519997261,178.82408519997261,178.82408519997261,178.82408519997261,178.82408519997261,178.82408519997261,178.82408519997261,178.82408519997261,7,1,[0.0009061999153345823],[0.2667415998876095],178.82408519997261,179.02452980005182,1000,179.02452980005182,1000,1000,1000,1000,1,num_2,0.5032800999470055,,30,8,2026-03-12_10h53.38.019,2026A_exp2,2022.2.4,60.037451297828774,
1,0,4.9,0.0,0,0,53,53,87,,,,,179.55847769998945,180.20885200006887,180.20885200006887,180.693143799901,45,315,180.693143799901,180.693143799901,180.693143799901,180.693143799901,180.693143799901,180.693143799901,180.693143799901,180.693143799901,180.693143799901,181.0595843999181,181.0595843999181,181.0595843999181,181.0595843999181,181.0595843999181,181.0595843999181,181.0595843999181,181.0595843999181,181.0595843999181,9,1,[0.0008451999165117741],[0.2340625999495387],181.0595843999181,181.25975420000032,4.9,181.25975420000032,1,4.9,1,1,1000,num_4,0.963727300055325,,30,8,2026-03-12_10h53.38.019,2026A_exp2,2022.2.4,60.037451297828774,
1,0,3.7,3.7,1,0,54,54,64,,,,,182.24419300002046,182.8780125998892,182.8780125998892,183.37920389999636,45,315,183.37920389999636,183.37920389999636,183.37920389999636,183.37920389999636,183.37920389999636,183.37920389999636,183.37920389999636,183.37920389999636,183.37920389999636,183.74555049999617,183.74555049999617,183.74555049999617,183.74555049999617,183.74555049999617,183.74555049999617,183.74555049999617,183.74555049999617,183.74555049999617,0,1,[0.0007805000059306622],[0.36742809996940196],183.74555049999617,183.94577579991892,3.7,183.94577579991892,0,3.7,1,0,1000,num_1,1.0135790999047458,,30,8,2026-03-12_10h53.38.019,2026A_exp2,2022.2.4,60.037451297828774,
1000,1,0.0,4.9,0,0,55,55,9,,,,,184.98044970002957,185.6140554000158,185.6140554000158,186.1154815000482,315,45,186.1154815000482,186.1154815000482,186.1154815000482,186.1154815000482,186.1154815000482,186.1154815000482,186.1154815000482,186.1154815000482,186.1154815000482,186.48145349998958,186.48145349998958,186.48145349998958,186.48145349998958,186.48145349998958,186.48145349998958,186.48145349998958,186.48145349998958,186.48145349998958,1,2,"[0.0009389000479131937, 0.28335499996319413]","[0.26650730008259416, 0.3668607999570668]",186.48145349998958,186.68302079988644,1000,186.68302079988644,1000,1000,1000,1000,1,num_2,0.49980399990454316,,30,8,2026-03-12_10h53.38.019,2026A_exp2,2022.2.4,60.037451297828774,
1000,1,6.1,0.0,0,0,56,56,68,,,,,187.19911019993015,187.84970759996213,187.84970759996213,188.3342418000102,315,315,188.3342418000102,188.3342418000102,188.3342418000102,188.3342418000102,188.3342418000102,188.3342418000102,188.3342418000102,188.3342418000102,188.3342418000102,188.7005091998726,188.7005091998726,188.7005091998726,188.7005091998726,188.7005091998726,188.7005091998726,188.7005091998726,188.7005091998726,188.7005091998726,10,2,"[0.01708389981649816, 0.09993799985386431]","[0.08283919980749488, 0.2501268999185413]",188.7005091998726,188.90092190005817,1000,188.90092190005817,1000,1000,1000,1000,0,num_3,0.6583112999796867,,30,8,2026-03-12_10h53.38.019,2026A_exp2,2022.2.4,60.037451297828774,
1,0,6.1,6.1,1,0,57,57,89,,,,,189.58524839999154,190.23618780006655,190.23618780006655,190.73643839987926,315,45,190.73643839987926,190.73643839987926,190.73643839987926,190.73643839987926,190.73643839987926,190.73643839987926,190.73643839987926,190.73643839987926,190.73643839987926,191.08631219994277,191.08631219994277,191.08631219994277,191.08631219994277,191.08631219994277,191.08631219994277,191.08631219994277,191.08631219994277,191.08631219994277,2,3,"[0.0009395000524818897, 0.03358360007405281, 0.15143659990280867]","[0.01726179989054799, 0.13354009995236993, 0.3509782999753952]",191.08631219994277,191.28658319986425,6.1,191.28658319986425,1,6.1,1,1,1000,num_4,0.8490621000528336,,30,8,2026-03-12_10h53.38.019,2026A_exp2,2022.2.4,60.037451297828774,
1,0,6.1,6.1,0,0,58,58,11,,,,,192.15443750005215,192.80469619994983,192.80469619994983,193.30586989992298,315,315,193.30586989992298,193.30586989992298,193.30586989992298,193.30586989992298,193.30586989992298,193.30586989992298,193.30586989992298,193.30586989992298,193.30586989992298,193.65594039997086,193.65594039997086,193.65594039997086,193.65594039997086,193.65594039997086,193.65594039997086,193.65594039997086,193.65594039997086,193.65594039997086,0,1,[0.0009330001194030046],[0.35085440007969737],193.65594039997086,193.85568559984677,6.1,193.87254570005462,1,6.1,1,1,1000,num_4,0.7426831999327987,,30,8,2026-03-12_10h53.38.019,2026A_exp2,2022.2.4,60.037451297828774,
1000,1,3.7,3.7,0,0,59,59,16,,,,,194.6400518999435,195.27384139993228,195.27384139993228,195.77495949994773,45,45,195.77495949994773,195.77495949994773,195.77495949994773,195.77495949994773,195.77495949994773,195.77495949994773,195.77495949994773,195.77495949994773,195.77495949994773,196.1413413998671,196.1413413998671,196.1413413998671,196.1413413998671,196.1413413998671,196.1413413998671,196.1413413998671,196.1413413998671,196.1413413998671,0,1,[0.000846899813041091],[0.3672569999471307],196.1413413998671,196.34159519989043,1000,196.34159519989043,1000,1000,1000,1000,1,num_2,0.9936579000204802,,30,8,2026-03-12_10h53.38.019,2026A_exp2,2022.2.4,60.037451297828774,
1000,1,0.0,6.1,1,0,60,60,3,,,,,197.359507399844,198.0099337999709,198.0099337999709,198.49441240006126,315,315,198.49441240006126,198.49441240006126,198.49441240006126,198.49441240006126,198.49441240006126,198.49441240006126,198.49441240006126,198.49441240006126,198.49441240006126,198.86062469985336,198.86062469985336,198.86062469985336,198.86062469985336,198.86062469985336,198.86062469985336,198.86062469985336,198.86062469985336,198.86062469985336,4,1,[0.000824199989438057],[0.3165752000641078],198.86062469985336,199.06111810007133,1000,199.06111810007133,1000,1000,1000,1000,1,num_2,0.5455332999117672,,30,8,2026-03-12_10h53.38.019,2026A_exp2,2022.2.4,60.037451297828774,
1000,1,4.9,4.9,1,0,61,61,60,,,,,199.6281830999069,200.27875369996764,200.27875369996764,200.7633157998789,315,45,200.7633157998789,200.7633157998789,200.7633157998789,200.7633157998789,200.7633157998789,200.7633157998789,200.7633157998789,200.7633157998789,200.7633157998789,201.1296168998815,201.1296168998815,201.1296168998815,201.1296168998815,201.1296168998815,201.1296168998815,201.1296168998815,201.1296168998815,201.1296168998815,21,1,[0.0007522001396864653],[0.0334803001023829],201.1296168998815,201.33031390001997,1000,201.33031390001997,1000,1000,1000,1000,0,num_3,0.7324000999797136,,30,8,2026-03-12_10h53.38.019,2026A_exp2,2022.2.4,60.037451297828774,
1000,1,0.0,4.9,0,0,62,62,27,,,,,202.08065809984691,202.7312709998805,202.7312709998805,203.21583150001243,315,45,203.21583150001243,203.21583150001243,203.21583150001243,203.21583150001243,203.21583150001243,203.21583150001243,203.21583150001243,203.21583150001243,203.21583150001243,203.58202950004488,203.58202950004488,203.58202950004488,203.58202950004488,203.58202950004488,203.58202950004488,203.58202950004488,203.58202950004488,203.58202950004488,0,1,[0.0010228999890387058],[0.36712069995701313],203.58202950004488,203.78263709996827,1000,203.78263709996827,1000,1000,1000,1000,1,num_2,0.44078680011443794,,30,8,2026-03-12_10h53.38.019,2026A_exp2,2022.2.4,60.037451297828774,
1000,1,0.0,0.0,0,0,63,63,41,,,,,204.24960529990494,204.9000893998891,204.9000893998891,205.4010782998521,315,315,205.4010782998521,205.4010782998521,205.4010782998521,205.4010782998521,205.4010782998521,205.4010782998521,205.4010782998521,205.4010782998521,205.4010782998521,205.75126009993255,205.75126009993255,205.75126009993255,205.75126009993255,205.75126009993255,205.75126009993255,205.75126009993255,205.75126009993255,205.75126009993255,0,1,[0.0007599000819027424],[0.3509270001668483],205.75126009993255,205.95296809985302,1000,205.95296809985302,1000,1000,1000,1000,1,num_2,0.7018762000370771,,30,8,2026-03-12_10h53.38.019,2026A_exp2,2022.2.4,60.037451297828774,
0,0,0.0,0.0,0,0,64,64,4,,,,,206.6856408000458,207.33603159990162,207.33603159990162,207.82030389993452,315,315,207.82030389993452,207.82030389993452,207.82030389993452,207.82030389993452,207.82030389993452,207.82030389993452,207.82030389993452,207.82030389993452,207.82030389993452,208.18669130001217,208.18669130001217,208.18669130001217,208.18669130001217,208.18669130001217,208.18669130001217,208.18669130001217,208.18669130001217,208.18669130001217,14,4,"[0.1517203999683261, 0.18373380019329488, 0.2503232001326978, 0.3175303000025451]","[0.16696269996464252, 0.20052960002794862, 0.30127499997615814, 0.3675097001250833]",208.18669130001217,208.3871220999863,0.0,208.3871220999863,0,0.0,0,1,1000,num_1,0.37154130009002984,,30,8,2026-03-12_10h53.38.019,2026A_exp2,2022.2.4,60.037451297828774,
1000,1,6.1,0.0,1,0,65,65,52,,,,,208.7873424999416,209.43794139986858,209.43794139986858,209.93915829993784,45,315,209.93915829993784,209.93915829993784,209.93915829993784,209.93915829993784,209.93915829993784,209.93915829993784,209.93915829993784,209.93915829993784,209.93915829993784,210.3053474999033,210.3053474999033,210.3053474999033,210.3053474999033,210.3053474999033,210.3053474999033,210.3053474999033,210.3053474999033,210.3053474999033,1,2,"[0.000772800063714385, 0.21695390017703176]","[0.19999660016037524, 0.3670546000357717]",210.3053474999033,210.50572749995627,1000,210.50572749995627,1000,1000,1000,1000,0,num_3,0.46947279991582036,,30,8,2026-03-12_10h53.38.019,2026A_exp2,2022.2.4,60.037451297828774,
1,0,0.0,6.1,0,0,66,66,57,,,,,211.00644179992378,211.65672779991291,211.65672779991291,212.15824700007215,315,45,212.15824700007215,212.15824700007215,212.15824700007215,212.15824700007215,212.15824700007215,212.15824700007215,212.15824700007215,212.15824700007215,212.15824700007215,212.50785679998808,212.50785679998808,212.50785679998808,212.50785679998808,212.50785679998808,212.50785679998808,212.50785679998808,212.50785679998808,212.50785679998808,2,2,"[0.0009581998456269503, 0.06692459993064404]","[0.033450699876993895, 0.3504782000090927]",212.50785679998808,212.70808060001582,0.0,212.70808060001582,0,0.0,0,1,1000,num_1,0.6191602000035346,,30,8,2026-03-12_10h53.38.019,2026A_exp2,2022.2.4,60.037451297828774,
1,0,0.0,0.0,0,0,67,67,29,,,,,213.3587996000424,213.99249530001543,213.99249530001543,214.49375250004232,45,45,214.49375250004232,214.49375250004232,214.49375250004232,214.49375250004232,214.49375250004232,214.49375250004232,214.49375250004232,214.49375250004232,214.49375250004232,214.85995960002765,214.85995960002765,214.85995960002765,214.85995960002765,214.85995960002765,214.85995960002765,214.85995960002765,214.85995960002765,214.85995960002765,1,2,"[0.0007879999466240406, 0.15023289993405342]","[0.133729699999094, 0.3669122999999672]",214.85995960002765,215.06036709994078,0.0,215.06036709994078,0,0.0,0,1,1000,num_1,0.2670261000748724,,30,8,2026-03-12_10h53.38.019,2026A_exp2,2022.2.4,60.037451297828774,
1,0,0.0,0.0,0,0,68,68,66,,,,,215.3438734000083,215.977825100068,215.977825100068,216.47933979984373,45,45,216.47933979984373,216.47933979984373,216.47933979984373,216.47933979984373,216.47933979984373,216.47933979984373,216.47933979984373,216.47933979984373,216.47933979984373,216.8452906999737,216.8452906999737,216.8452906999737,216.8452906999737,216.8452906999737,216.8452906999737,216.8452906999737,216.8452906999737,216.8452906999737,6,5,"[0.0008060999680310488, 0.06703209993429482, 0.2169973999261856, 0.267065699910745, 0.350655100075528]","[0.05037060007452965, 0.18386039999313653, 0.2504028999246657, 0.3336877999827266, 0.36734539992175996]",216.8452906999737,217.04564119991846,0.0,217.04564119991846,0,0.0,0,1,1000,num_1,0.3053961999248713,,30,8,2026-03-12_10h53.38.019,2026A_exp2,2022.2.4,60.037451297828774,
1000,1,4.9,4.9,1,0,69,69,26,,,,,217.37943940004334,218.03001699992456,218.03001699992456,218.5143889999017,315,45,218.5143889999017,218.5143889999017,218.5143889999017,218.5143889999017,218.5143889999017,218.5143889999017,218.5143889999017,218.5143889999017,218.5143889999017,218.88069989997894,218.88069989997894,218.88069989997894,218.88069989997894,218.88069989997894,218.88069989997894,218.88069989997894,218.88069989997894,218.88069989997894,2,1,[0.03341179993003607],[0.36713310005143285],218.88069989997894,219.0821940000169,1000,219.0821940000169,1000,1000,1000,1000,0,num_3,1.165569999953732,,30,8,2026-03-12_10h53.38.019,2026A_exp2,2022.2.4,60.037451297828774,
1000,1,6.1,4.9,1,0,70,70,76,,,,,220.2658660998568,220.91630250005983,220.91630250005983,221.4005098999478,45,45,221.4005098999478,221.4005098999478,221.4005098999478,221.4005098999478,221.4005098999478,221.4005098999478,221.4005098999478,221.4005098999478,221.4005098999478,221.7669796999544,221.7669796999544,221.7669796999544,221.7669796999544,221.7669796999544,221.7669796999544,221.7669796999544,221.7669796999544,221.7669796999544,0,1,[0.0009368997998535633],[0.3672573999501765],221.7669796999544,221.9672164998483,1000,221.9672164998483,1000,1000,1000,1000,0,num_3,0.40752640017308295,,30,8,2026-03-12_10h53.38.019,2026A_exp2,2022.2.4,60.037451297828774,
1,0,6.1,0.0,1,0,71,71,54,,,,,222.40168019989505,223.05168429994956,223.05168429994956,223.5526568000205,45,45,223.5526568000205,223.5526568000205,223.5526568000205,223.5526568000205,223.5526568000205,223.5526568000205,223.5526568000205,223.5526568000205,223.5526568000205,223.91921459999867,223.91921459999867,223.91921459999867,223.91921459999867,223.91921459999867,223.91921459999867,223.91921459999867,223.91921459999867,223.91921459999867,8,6,"[0.0009043000172823668, 0.050471500027924776, 0.16697610006667674, 0.21714140009135008, 0.2837624999228865, 0.3345440998673439]","[0.03336460003629327, 0.11705469992011786, 0.20041480008512735, 0.2503384000156075, 0.3172019999474287, 0.3670743000693619]",223.91921459999867,224.11929629999213,0.0,224.11929629999213,0,0.0,0,1,1000,num_1,0.9361676999833435,,30,8,2026-03-12_10h53.38.019,2026A_exp2,2022.2.4,60.037451297828774,
1000,1,3.7,3.7,1,0,72,72,46,,,,,225.08690780005418,225.72077720006928,225.72077720006928,226.2222934998572,315,315,226.2222934998572,226.2222934998572,226.2222934998572,226.2222934998572,226.2222934998572,226.2222934998572,226.2222934998572,226.2222934998572,226.2222934998572,226.58848759997636,226.58848759997636,226.58848759997636,226.58848759997636,226.58848759997636,226.58848759997636,226.58848759997636,226.58848759997636,226.58848759997636,6,4,"[0.03271090006455779, 0.1662536000367254, 0.19985170010477304, 0.3498393001500517]","[0.1497784999664873, 0.18296560016460717, 0.3163636999670416, 0.36639480013400316]",226.58848759997636,226.7888567999471,1000,226.7888567999471,1000,1000,1000,1000,1,num_2,0.4420286000240594,,30,8,2026-03-12_10h53.38.019,2026A_exp2,2022.2.4,60.037451297828774,
1,0,3.7,4.9,0,0,73,73,31,,,,,227.25666019995697,227.90662629995495,227.90662629995495,228.40750179998577,45,315,228.40750179998577,228.40750179998577,228.40750179998577,228.40750179998577,228.40750179998577,228.40750179998577,228.40750179998577,228.40750179998577,228.40750179998577,228.7574882998597,228.7574882998597,228.7574882998597,228.7574882998597,228.7574882998597,228.7574882998597,228.7574882998597,228.7574882998597,228.7574882998597,5,2,"[0.050424099899828434, 0.2850667000748217]","[0.250668799970299, 0.3509209998883307]",228.7574882998597,228.95789409987628,3.7,228.95789409987628,0,3.7,1,0,1000,num_1,0.6496492000296712,,30,8,2026-03-12_10h53.38.019,2026A_exp2,2022.2.4,60.037451297828774,
1000,1,3.7,4.9,0,0,74,74,13,,,,,229.62486599991098,230.2585698000621,230.2585698000621,230.7601866000332,45,315,230.7601866000332,230.7601866000332,230.7601866000332,230.7601866000332,230.7601866000332,230.7601866000332,230.7601866000332,230.7601866000332,230.7601866000332,231.12632869998924,231.12632869998924,231.12632869998924,231.12632869998924,231.12632869998924,231.12632869998924,231.12632869998924,231.12632869998924,231.12632869998924,5,4,"[0.0009538999292999506, 0.033911800011992455, 0.26701369998045266, 0.3506713998503983]","[0.01766359992325306, 0.23360739997588098, 0.3170163999311626, 0.3669508998282254]",231.12632869998924,231.3265334998723,1000,231.3265334998723,1000,1000,1000,1000,1,num_2,0.38424269994720817,,30,8,2026-03-12_10h53.38.019,2026A_exp2,2022.2.4,60.037451297828774,
1,0,0.0,0.0,0,0,75,75,0,,,,,231.72711370000616,232.37749210000038,232.37749210000038,232.87868619989604,45,45,232.87868619989604,232.87868619989604,232.87868619989604,232.87868619989604,232.87868619989604,232.87868619989604,232.87868619989604,232.87868619989604,232.87868619989604,233.2282407998573,233.2282407998573,233.2282407998573,233.2282407998573,233.2282407998573,233.2282407998573,233.2282407998573,233.2282407998573,233.2282407998573,0,1,[0.0007658000104129314],[0.350732599850744],233.2282407998573,233.42935810005292,0.0,233.42935810005292,0,0.0,0,1,1000,num_1,0.14552609995007515,,30,8,2026-03-12_10h53.38.019,2026A_exp2,2022.2.4,60.037451297828774,
1,0,0.0,3.7,1,0,76,76,10,,,,,233.5956198000349,234.24603200005367,234.24603200005367,234.7306351000443,315,315,234.7306351000443,234.7306351000443,234.7306351000443,234.7306351000443,234.7306351000443,234.7306351000443,234.7306351000443,234.7306351000443,234.7306351000443,235.09695859998465,235.09695859998465,235.09695859998465,235.09695859998465,235.09695859998465,235.09695859998465,235.09695859998465,235.09695859998465,235.09695859998465,22,1,[0.0007476001046597958],[0.017460100119933486],235.09695859998465,235.29725830000825,3.7,235.29725830000825,1,3.7,1,1,1000,num_4,0.9101082000415772,,30,8,2026-03-12_10h53.38.019,2026A_exp2,2022.2.4,60.037451297828774,
1000,1,0.0,3.7,1,0,77,77,43,,,,,236.2320306999609,236.8654554998502,236.8654554998502,237.36642539990135,45,45,237.36642539990135,237.36642539990135,237.36642539990135,237.36642539990135,237.36642539990135,237.36642539990135,237.36642539990135,237.36642539990135,237.36642539990135,237.73291789996438,237.73291789996438,237.73291789996438,237.73291789996438,237.73291789996438,237.73291789996438,237.73291789996438,237.73291789996438,237.73291789996438,0,1,[0.0009838000405579805],[0.3667458000127226],237.73291789996438,237.93461590004154,1000,237.93461590004154,1000,1000,1000,1000,1,num_2,0.5603554998524487,,30,8,2026-03-12_10h53.38.019,2026A_exp2,2022.2.4,60.037451297828774,
1000,1,6.1,0.0,0,0,78,78,8,,,,,238.51736639998853,239.167627699906,239.167627699906,239.6521172998473,45,45,239.6521172998473,239.6521172998473,239.6521172998473,239.6521172998473,239.6521172998473,239.6521172998473,239.6521172998473,239.6521172998473,239.6521172998473,240.01886860001832,240.01886860001832,240.01886860001832,240.01886860001832,240.01886860001832,240.01886860001832,240.01886860001832,240.01886860001832,240.01886860001832,2,3,"[0.0010281000286340714, 0.18260950013063848, 0.21595500013791025]","[0.1659637000411749, 0.19931240007281303, 0.3661177000030875]",240.01886860001832,240.2191041999031,1000,240.2191041999031,1000,1000,1000,1000,0,num_3,0.5162617000751197,,30,8,2026-03-12_10h53.38.019,2026A_exp2,2022.2.4,60.037451297828774,
1000,1,4.9,3.7,1,0,79,79,14,,,,,240.7527759000659,241.40325279999524,241.40325279999524,241.9044532000553,315,315,241.9044532000553,241.9044532000553,241.9044532000553,241.9044532000553,241.9044532000553,241.9044532000553,241.9044532000553,241.9044532000553,241.9044532000553,242.27111599990167,242.27111599990167,242.27111599990167,242.27111599990167,242.27111599990167,242.27111599990167,242.27111599990167,242.27111599990167,242.27111599990167,5,4,"[0.03329080017283559, 0.2001577999908477, 0.23333650012500584, 0.3169839000329375]","[0.1836518000345677, 0.2167859000619501, 0.3001044001430273, 0.36750799999572337]",242.27111599990167,242.47115799994208,1000,242.47115799994208,1000,1000,1000,1000,0,num_3,0.5201503001153469,,30,8,2026-03-12_10h53.38.019,2026A_exp2,2022.2.4,60.037451297828774,
1000,1,4.9,0.0,1,0,80,80,7,,,,,243.02167159994133,243.67215280001983,243.67215280001983,244.15673909988254,315,315,244.15673909988254,244.15673909988254,244.15673909988254,244.15673909988254,244.15673909988254,244.15673909988254,244.15673909988254,244.15673909988254,244.15673909988254,244.52311229985207,244.52311229985207,244.52311229985207,244.52311229985207,244.52311229985207,244.52311229985207,244.52311229985207,244.52311229985207,244.52311229985207,23,0,,,244.52311229985207,244.7237614998594,1000,244.7237614998594,1000,1000,1000,1000,0,num_3,0.32333739986643195,,30,8,2026-03-12_10h53.38.019,2026A_exp2,2022.2.4,60.037451297828774,
1000,1,6.1,0.0,1,0,81,81,79,,,,,245.0740286000073,245.72429100004956,245.72429100004956,246.20867639989592,315,315,246.20867639989592,246.20867639989592,246.20867639989592,246.20867639989592,246.20867639989592,246.20867639989592,246.20867639989592,246.20867639989592,246.20867639989592,246.57527679996565,246.57527679996565,246.57527679996565,246.57527679996565,246.57527679996565,246.57527679996565,246.57527679996565,246.57527679996565,246.57527679996565,1,2,"[0.000911699840798974, 0.2005387998651713]","[0.18354390002787113, 0.3670634999871254]",246.57527679996565,246.77543170005083,1000,246.77543170005083,1000,1000,1000,1000,0,num_3,0.3676740999799222,,30,8,2026-03-12_10h53.38.019,2026A_exp2,2022.2.4,60.037451297828774,
1000,1,0.0,0.0,1,0,82,82,62,,,,,247.159207199933,247.81018689996563,247.81018689996563,248.3107940000482,315,315,248.3107940000482,248.3107940000482,248.3107940000482,248.3107940000482,248.3107940000482,248.3107940000482,248.3107940000482,248.3107940000482,248.3107940000482,248.6607897998765,248.6607897998765,248.6607897998765,248.6607897998765,248.6607897998765,248.6607897998765,248.6607897998765,248.6607897998765,248.6607897998765,0,1,[0.0007863999344408512],[0.35073160007596016],248.6607897998765,248.86051460006274,1000,248.87746730004437,1000,1000,1000,1000,1,num_2,0.6175892001483589,,30,8,2026-03-12_10h53.38.019,2026A_exp2,2022.2.4,60.037451297828774,
1000,1,0.0,6.1,0,0,83,83,83,,,,,249.51160439988598,250.16202199994586,250.16202199994586,250.66320040007122,45,45,250.66320040007122,250.66320040007122,250.66320040007122,250.66320040007122,250.66320040007122,250.66320040007122,250.66320040007122,250.66320040007122,250.66320040007122,251.02947989990935,251.02947989990935,251.02947989990935,251.02947989990935,251.02947989990935,251.02947989990935,251.02947989990935,251.02947989990935,251.02947989990935,5,2,"[0.05006020003929734, 0.21684850007295609]","[0.18340909993276, 0.36703339987434447]",251.02947989990935,251.23011030000634,1000,251.23011030000634,1000,1000,1000,1000,1,num_2,0.5129454999696463,,30,8,2026-03-12_10h53.38.019,2026A_exp2,2022.2.4,60.037451297828774,
1000,1,0.0,0.0,1,0,84,84,39,,,,,251.76365859992802,252.41425150004216,252.41425150004216,252.8986072000116,315,45,252.8986072000116,252.8986072000116,252.8986072000116,252.8986072000116,252.8986072000116,252.8986072000116,252.8986072000116,252.8986072000116,252.8986072000116,253.2651557000354,253.2651557000354,253.2651557000354,253.2651557000354,253.2651557000354,253.2651557000354,253.2651557000354,253.2651557000354,253.2651557000354,12,4,"[0.0007732999511063099, 0.11708080000244081, 0.15045810001902282, 0.3002857998944819]","[0.10004829987883568, 0.13354619988240302, 0.18364529986865819, 0.3340578000061214]",253.2651557000354,253.46561930002645,1000,253.46561930002645,1000,1000,1000,1000,1,num_2,0.6054193999152631,,30,8,2026-03-12_10h53.38.019,2026A_exp2,2022.2.4,60.037451297828774,
0,0,3.7,3.7,0,0,85,85,63,,,,,254.09938809997402,254.7501367998775,254.7501367998775,255.23452379996888,315,315,255.23452379996888,255.23452379996888,255.23452379996888,255.23452379996888,255.23452379996888,255.23452379996888,255.23452379996888,255.23452379996888,255.23452379996888,255.6006902998779,255.6006902998779,255.6006902998779,255.6006902998779,255.6006902998779,255.6006902998779,255.6006902998779,255.6006902998779,255.6006902998779,2,3,"[0.0009419000707566738, 0.10050450009293854, 0.15071019995957613]","[0.08364979992620647, 0.1335269999690354, 0.3676645001396537]",255.6006902998779,255.8008987000212,3.7,255.8008987000212,0,3.7,1,0,1000,num_1,1.3418384999968112,,30,8,2026-03-12_10h53.38.019,2026A_exp2,2022.2.4,60.037451297828774,
1000,1,0.0,0.0,0,0,86,86,5,,,,,257.16896699997596,257.8196334000677,257.8196334000677,258.30408510006964,45,45,258.30408510006964,258.30408510006964,258.30408510006964,258.30408510006964,258.30408510006964,258.30408510006964,258.30408510006964,258.30408510006964,258.30408510006964,258.67059880006127,258.67059880006127,258.67059880006127,258.67059880006127,258.67059880006127,258.67059880006127,258.67059880006127,258.67059880006127,258.67059880006127,5,1,[0.0007452999707311392],[0.3008858000393957],258.67059880006127,258.8708635000512,1000,258.8708635000512,1000,1000,1000,1000,1,num_2,0.5524454000405967,,30,8,2026-03-12_10h53.38.019,2026A_exp2,2022.2.4,60.037451297828774,
1000,1,6.1,6.1,0,0,87,87,56,,,,,259.45500690001063,260.10565539984964,260.10565539984964,260.58999140001833,45,45,260.58999140001833,260.58999140001833,260.58999140001833,260.58999140001833,260.58999140001833,260.58999140001833,260.58999140001833,260.58999140001833,260.58999140001833,260.9560940999072,260.9560940999072,260.9560940999072,260.9560940999072,260.9560940999072,260.9560940999072,260.9560940999072,260.9560940999072,260.9560940999072,2,2,"[0.0009301998652517796, 0.21711590001359582]","[0.18341609998606145, 0.36727299983613193]",260.9560940999072,261.15640689991415,1000,261.15640689991415,1000,1000,1000,1000,1,num_2,0.7231105000246316,,30,8,2026-03-12_10h53.38.019,2026A_exp2,2022.2.4,60.037451297828774,
1000,1,4.9,4.9,0,0,88,88,34,,,,,261.9071982000023,262.55793030001223,262.55793030001223,263.042211699998,45,45,263.042211699998,263.042211699998,263.042211699998,263.042211699998,263.042211699998,263.042211699998,263.042211699998,263.042211699998,263.042211699998,263.4086602998432,263.4086602998432,263.4086602998432,263.4086602998432,263.4086602998432,263.4086602998432,263.4086602998432,263.4086602998432,263.4086602998432,6,4,"[0.0007410000544041395, 0.05028259987011552, 0.1507188999094069, 0.2343150998931378]","[0.0337183999363333, 0.11718180007301271, 0.20051830005832016, 0.36720609990879893]",263.4086602998432,263.60902039986104,1000,263.60902039986104,1000,1000,1000,1000,1,num_2,0.34152649994939566,,30,8,2026-03-12_10h53.38.019,2026A_exp2,2022.2.4,60.037451297828774,
1000,1,0.0,3.7,0,0,89,89,32,,,,,263.97586659993976,264.6266862999182,264.6266862999182,265.1109761998523,45,315,265.1109761998523,265.1109761998523,265.1109761998523,265.1109761998523,265.1109761998523,265.1109761998523,265.1109761998523,265.1109761998523,265.1109761998523,265.477243399946,265.477243399946,265.477243399946,265.477243399946,265.477243399946,265.477243399946,265.477243399946,265.477243399946,265.477243399946,7,2,"[0.0007478001061826944, 0.21695860009640455]","[0.18341000005602837, 0.3002715001348406]",265.477243399946,265.6779860998504,1000,265.6779860998504,1000,1000,1000,1000,1,num_2,0.5773219000548124,,30,8,2026-03-12_10h53.38.019,2026A_exp2,2022.2.4,60.037451297828774,
,,,,,,,,,,,,,,,,,,,,,,,,,,,,,,,,,,,,,,,,,,,,,,,,,,,,266.2863393998705,,,,,,,
