validity,detectorcomp,contrastCW,contrastCCW,precueCWorCCW,block_80trials.thisRepN,block_80trials.thisTrialN,block_80trials.thisN,block_80trials.thisIndex,etRecord.started,etRecord.stopped,text.started,text.stopped,text_4.started,text_4.stopped,text_6.started,text_6.stopped,oriCW,oriCCW,roi_2.started,grating_UR.started,grating_UL.started,grating_LR.started,grating_LL.started,noise_UR.started,noise_UL.started,noise_LR.started,noise_LL.started,roi_2.stopped,grating_UR.stopped,grating_UL.stopped,grating_LR.stopped,grating_LL.stopped,noise_UR.stopped,noise_UL.stopped,noise_LR.stopped,noise_LL.stopped,outframe,roi_2.numLooks,roi_2.timesOn,roi_2.timesOff,text_2.started,text_2.stopped,probedcontrast,key_resp.started,respdetect,relevantContrast,correctDetect,TorFdetect,respCWorCCW,key_resp.keys,key_resp.rt,feedback_display_.started,participantNo,blockNo,date,expName,psychopyVersion,frameRate,
0,0,0.0,3.7,0,0,0,0,47,3.480000304989517e-05,3.480000304989517e-05,53.0270281000121,55.03470690001268,55.03470690001268,55.66383569999016,55.66383569999016,56.18486249999842,45,45,56.18486249999842,56.18486249999842,56.18486249999842,56.18486249999842,56.18486249999842,56.18486249999842,56.18486249999842,56.18486249999842,56.18486249999842,56.53139590000501,56.53139590000501,56.53139590000501,56.53139590000501,56.53139590000501,56.53139590000501,56.53139590000501,56.53139590000501,56.53139590000501,0,1,[0.0009341999830212444],[0.3671996000048239],56.53139590000501,56.731578700011596,3.7,56.731578700011596,1,3.7,1,1,1000,num_4,6.021323499997379,,18,1,2026-03-02_10h17.19.372,2026A_exp2,2022.2.4,59.953619878966265,
1000,1,0.0,0.0,0,0,1,1,36,,,,,62.774763299996266,63.425147100002505,63.425147100002505,63.909813700011,315,45,63.909813700011,63.909813700011,63.909813700011,63.909813700011,63.909813700011,63.909813700011,63.909813700011,63.909813700011,63.909813700011,64.27613929999643,64.27613929999643,64.27613929999643,64.27613929999643,64.27613929999643,64.27613929999643,64.27613929999643,64.27613929999643,64.27613929999643,23,0,,,64.27613929999643,64.47890180000104,1000,64.47890180000104,1000,1000,1000,1000,1,num_2,0.7135358999948949,,18,1,2026-03-02_10h17.19.372,2026A_exp2,2022.2.4,59.953619878966265,
1000,1,3.7,0.0,0,0,2,2,66,,,,,65.21057960001053,65.86120519999531,65.86120519999531,66.36225750000449,315,45,66.36225750000449,66.36225750000449,66.36225750000449,66.36225750000449,66.36225750000449,66.36225750000449,66.36225750000449,66.36225750000449,66.36225750000449,66.71188350001466,66.71188350001466,66.71188350001466,66.71188350001466,66.71188350001466,66.71188350001466,66.71188350001466,66.71188350001466,66.71188350001466,22,0,,,66.71188350001466,66.91376490000403,1000,66.9289442000154,1000,1000,1000,1000,0,num_3,0.48780429997714236,,18,1,2026-03-02_10h17.19.372,2026A_exp2,2022.2.4,59.953619878966265,
1,0,0.0,0.0,0,0,3,3,17,,,,,67.44612110001617,68.08098150001024,68.08098150001024,68.58092169999145,315,45,68.58092169999145,68.58092169999145,68.58092169999145,68.58092169999145,68.58092169999145,68.58092169999145,68.58092169999145,68.58092169999145,68.58092169999145,68.94735689999652,68.94735689999652,68.94735689999652,68.94735689999652,68.94735689999652,68.94735689999652,68.94735689999652,68.94735689999652,68.94735689999652,23,0,,,68.94735689999652,69.14844019999146,0.0,69.14844019999146,0,0.0,0,1,1000,num_1,1.716059900005348,,18,1,2026-03-02_10h17.19.372,2026A_exp2,2022.2.4,59.953619878966265,
1,0,3.7,0.0,1,0,4,4,12,,,,,70.88259230001131,71.53340270000626,71.53340270000626,72.01791309998953,315,315,72.01791309998953,72.01791309998953,72.01791309998953,72.01791309998953,72.01791309998953,72.01791309998953,72.01791309998953,72.01791309998953,72.01791309998953,72.38411919999635,72.38411919999635,72.38411919999635,72.38411919999635,72.38411919999635,72.38411919999635,72.38411919999635,72.38411919999635,72.38411919999635,23,0,,,72.38411919999635,72.58451069999137,0.0,72.58451069999137,0,0.0,0,1,1000,num_1,1.1530372999841347,,18,1,2026-03-02_10h17.19.372,2026A_exp2,2022.2.4,59.953619878966265,
1000,1,3.7,4.9,1,0,5,5,20,,,,,73.76879360000021,74.41964780000853,74.41964780000853,74.9040141000005,45,45,74.9040141000005,74.9040141000005,74.9040141000005,74.9040141000005,74.9040141000005,74.9040141000005,74.9040141000005,74.9040141000005,74.9040141000005,75.27034220000496,75.27034220000496,75.27034220000496,75.27034220000496,75.27034220000496,75.27034220000496,75.27034220000496,75.27034220000496,75.27034220000496,23,0,,,75.27034220000496,75.47250760000315,1000,75.47250760000315,1000,1000,1000,1000,1,num_2,0.7764912999991793,,18,1,2026-03-02_10h17.19.372,2026A_exp2,2022.2.4,59.953619878966265,
1000,1,0.0,0.0,0,0,6,6,72,,,,,76.27133809999214,76.92238850001013,76.92238850001013,77.42321999999695,315,315,77.42321999999695,77.42321999999695,77.42321999999695,77.42321999999695,77.42321999999695,77.42321999999695,77.42321999999695,77.42321999999695,77.42321999999695,77.78970069999923,77.78970069999923,77.78970069999923,77.78970069999923,77.78970069999923,77.78970069999923,77.78970069999923,77.78970069999923,77.78970069999923,23,0,,,77.78970069999923,77.99194110001554,1000,77.99194110001554,1000,1000,1000,1000,1,num_2,0.8331765999901108,,18,1,2026-03-02_10h17.19.372,2026A_exp2,2022.2.4,59.953619878966265,
1,0,6.1,4.9,0,0,7,7,81,,,,,78.84057140001096,79.49141310001141,79.49141310001141,79.99243899999419,315,315,79.99243899999419,79.99243899999419,79.99243899999419,79.99243899999419,79.99243899999419,79.99243899999419,79.99243899999419,79.99243899999419,79.99243899999419,80.35902060000808,80.35902060000808,80.35902060000808,80.35902060000808,80.35902060000808,80.35902060000808,80.35902060000808,80.35902060000808,80.35902060000808,23,0,,,80.35902060000808,80.55898010000237,6.1,80.55898010000237,0,6.1,1,0,1000,num_1,1.729894799995236,,18,1,2026-03-02_10h17.19.372,2026A_exp2,2022.2.4,59.953619878966265,
1000,1,0.0,6.1,1,0,8,8,69,,,,,82.31064770001103,82.9616451000038,82.9616451000038,83.44601980000152,315,315,83.44601980000152,83.44601980000152,83.44601980000152,83.44601980000152,83.44601980000152,83.44601980000152,83.44601980000152,83.44601980000152,83.44601980000152,83.81240150000667,83.81240150000667,83.81240150000667,83.81240150000667,83.81240150000667,83.81240150000667,83.81240150000667,83.81240150000667,83.81240150000667,23,0,,,83.81240150000667,84.01455970000825,1000,84.01455970000825,1000,1000,1000,1000,1,num_2,0.5467428999836557,,18,1,2026-03-02_10h17.19.372,2026A_exp2,2022.2.4,59.953619878966265,
1000,1,0.0,0.0,1,0,9,9,40,,,,,84.57991629999015,85.2305561999965,85.2305561999965,85.73151250000228,315,315,85.73151250000228,85.73151250000228,85.73151250000228,85.73151250000228,85.73151250000228,85.73151250000228,85.73151250000228,85.73151250000228,85.73151250000228,86.09800480000558,86.09800480000558,86.09800480000558,86.09800480000558,86.09800480000558,86.09800480000558,86.09800480000558,86.09800480000558,86.09800480000558,0,1,[0.0012211000139359385],[0.36714000001666136],86.09800480000558,86.3000475000008,1000,86.3000475000008,1000,1000,1000,1000,1,num_2,0.6520913999993354,,18,1,2026-03-02_10h17.19.372,2026A_exp2,2022.2.4,59.953619878966265,
1,0,4.9,3.7,1,0,10,10,10,,,,,86.98204370000167,87.63289810001152,87.63289810001152,88.13403119999566,45,45,88.13403119999566,88.13403119999566,88.13403119999566,88.13403119999566,88.13403119999566,88.13403119999566,88.13403119999566,88.13403119999566,88.13403119999566,88.50034259998938,88.50034259998938,88.50034259998938,88.50034259998938,88.50034259998938,88.50034259998938,88.50034259998938,88.50034259998938,88.50034259998938,23,0,,,88.50034259998938,88.70030029999907,3.7,88.70030029999907,1,3.7,1,1,1000,num_4,0.9327749999938533,,18,1,2026-03-02_10h17.19.372,2026A_exp2,2022.2.4,59.953619878966265,
1000,1,6.1,0.0,0,0,11,11,59,,,,,89.65131139999721,90.30226080000284,90.30226080000284,90.80306229999405,315,315,90.80306229999405,90.80306229999405,90.80306229999405,90.80306229999405,90.80306229999405,90.80306229999405,90.80306229999405,90.80306229999405,90.80306229999405,91.1697938000143,91.1697938000143,91.1697938000143,91.1697938000143,91.1697938000143,91.1697938000143,91.1697938000143,91.1697938000143,91.1697938000143,23,0,,,91.1697938000143,91.3700899000105,1000,91.3700899000105,1000,1000,1000,1000,0,num_3,0.5181449999799952,,18,1,2026-03-02_10h17.19.372,2026A_exp2,2022.2.4,59.953619878966265,
1000,1,4.9,0.0,0,0,12,12,50,,,,,91.90357280001626,92.55427190000773,92.55427190000773,93.06361099999049,45,315,93.06361099999049,93.06361099999049,93.06361099999049,93.06361099999049,93.06361099999049,93.06361099999049,93.06361099999049,93.06361099999049,93.06361099999049,93.40546229999745,93.40546229999745,93.40546229999745,93.40546229999745,93.40546229999745,93.40546229999745,93.40546229999745,93.40546229999745,93.40546229999745,22,0,,,93.40546229999745,93.60571750000236,1000,93.62234000000171,1000,1000,1000,1000,0,num_3,0.394621699990239,,18,1,2026-03-02_10h17.19.372,2026A_exp2,2022.2.4,59.953619878966265,
1000,1,0.0,6.1,1,0,13,13,19,,,,,94.03904649999458,94.68984040000942,94.68984040000942,95.19089550001081,315,45,95.19089550001081,95.19089550001081,95.19089550001081,95.19089550001081,95.19089550001081,95.19089550001081,95.19089550001081,95.19089550001081,95.19089550001081,95.55745320001733,95.55745320001733,95.55745320001733,95.55745320001733,95.55745320001733,95.55745320001733,95.55745320001733,95.55745320001733,95.55745320001733,19,1,[0.0012227999977767467],[0.0669921999797225],95.55745320001733,95.75952150000376,1000,95.75952150000376,1000,1000,1000,1000,1,num_2,0.5933130999910645,,18,1,2026-03-02_10h17.19.372,2026A_exp2,2022.2.4,59.953619878966265,
1000,1,0.0,0.0,0,0,14,14,87,,,,,96.37512020001304,,97.02538989999448,97.52640450000763,45,315,97.52640450000763,97.52640450000763,97.52640450000763,97.52640450000763,97.52640450000763,97.52640450000763,97.52640450000763,97.52640450000763,97.52640450000763,97.89288940001279,97.89288940001279,97.89288940001279,97.89288940001279,97.89288940001279,97.89288940001279,97.89288940001279,97.89288940001279,97.89288940001279,23,0,,,97.89288940001279,98.09324899999774,1000,98.09324899999774,1000,1000,1000,1000,1,num_2,0.5716367999848444,,18,1,2026-03-02_10h17.19.372,2026A_exp2,2022.2.4,59.953619878966265,
1,0,6.1,3.7,0,0,15,15,31,,,,,98.69423039999674,99.3275152000133,99.3275152000133,99.82935879999422,315,315,99.82935879999422,99.82935879999422,99.82935879999422,99.82935879999422,99.82935879999422,99.82935879999422,99.82935879999422,99.82935879999422,99.82935879999422,100.19545329999528,100.19545329999528,100.19545329999528,100.19545329999528,100.19545329999528,100.19545329999528,100.19545329999528,100.19545329999528,100.19545329999528,23,0,,,100.19545329999528,100.39564729999984,6.1,100.39564729999984,1,6.1,1,1,1000,num_4,1.1804955000116024,,18,1,2026-03-02_10h17.19.372,2026A_exp2,2022.2.4,59.953619878966265,
1,0,4.9,4.9,0,0,16,16,84,,,,,101.5966454000154,102.24736820001272,102.24736820001272,102.73193790001096,315,45,102.73193790001096,102.73193790001096,102.73193790001096,102.73193790001096,102.73193790001096,102.73193790001096,102.73193790001096,102.73193790001096,102.73193790001096,103.09837510000216,103.09837510000216,103.09837510000216,103.09837510000216,103.09837510000216,103.09837510000216,103.09837510000216,103.09837510000216,103.09837510000216,23,0,,,103.09837510000216,103.29838480000035,4.9,103.29838480000035,0,4.9,1,0,1000,num_1,1.469921499985503,,18,1,2026-03-02_10h17.19.372,2026A_exp2,2022.2.4,59.953619878966265,
0,0,6.1,0.0,1,0,17,17,30,,,,,104.79993760000798,105.45071850001113,105.45071850001113,105.93509620000259,315,45,105.93509620000259,105.93509620000259,105.93509620000259,105.93509620000259,105.93509620000259,105.93509620000259,105.93509620000259,105.93509620000259,105.93509620000259,106.30158830000437,106.30158830000437,106.30158830000437,106.30158830000437,106.30158830000437,106.30158830000437,106.30158830000437,106.30158830000437,106.30158830000437,23,0,,,106.30158830000437,106.50181330001215,6.1,106.50181330001215,0,6.1,1,0,1000,num_1,0.8349844999902416,,18,1,2026-03-02_10h17.19.372,2026A_exp2,2022.2.4,59.953619878966265,
1000,1,0.0,4.9,1,0,18,18,79,,,,,107.3693820000044,108.00312500001746,108.00312500001746,108.50431459999527,45,315,108.50431459999527,108.50431459999527,108.50431459999527,108.50431459999527,108.50431459999527,108.50431459999527,108.50431459999527,108.50431459999527,108.50431459999527,108.87082850001752,108.87082850001752,108.87082850001752,108.87082850001752,108.87082850001752,108.87082850001752,108.87082850001752,108.87082850001752,108.87082850001752,15,1,[0.0012244000099599361],[0.1337411999993492],108.87082850001752,109.07278240000596,1000,109.07278240000596,1000,1000,1000,1000,1,num_2,0.8402874000021257,,18,1,2026-03-02_10h17.19.372,2026A_exp2,2022.2.4,59.953619878966265,
1000,1,0.0,6.1,0,0,19,19,2,,,,,109.93827700000838,110.58917479999945,110.58917479999945,111.09031480000704,315,45,111.09031480000704,111.09031480000704,111.09031480000704,111.09031480000704,111.09031480000704,111.09031480000704,111.09031480000704,111.09031480000704,111.09031480000704,111.44078020000597,111.44078020000597,111.44078020000597,111.44078020000597,111.44078020000597,111.44078020000597,111.44078020000597,111.44078020000597,111.44078020000597,0,1,[0.0012929999793414026],[0.35078239999711514],111.44078020000597,111.64545010001166,1000,111.65700249999645,1000,1000,1000,1000,1,num_2,0.5439346000202931,,18,1,2026-03-02_10h17.19.372,2026A_exp2,2022.2.4,59.953619878966265,
1000,1,0.0,3.7,0,0,20,20,57,,,,,112.22388150001643,112.87464850000106,112.87464850000106,113.37596740000299,45,315,113.37596740000299,113.37596740000299,113.37596740000299,113.37596740000299,113.37596740000299,113.37596740000299,113.37596740000299,113.37596740000299,113.37596740000299,113.74230220000027,113.74230220000027,113.74230220000027,113.74230220000027,113.74230220000027,113.74230220000027,113.74230220000027,113.74230220000027,113.74230220000027,23,0,,,113.74230220000027,113.94245780000347,1000,113.94245780000347,1000,1000,1000,1000,1,num_2,1.0023121999984141,,18,1,2026-03-02_10h17.19.372,2026A_exp2,2022.2.4,59.953619878966265,
1000,1,6.1,0.0,0,0,21,21,89,,,,,114.96000359999016,115.6105486000015,115.6105486000015,116.11198519999743,315,45,116.11198519999743,116.11198519999743,116.11198519999743,116.11198519999743,116.11198519999743,116.11198519999743,116.11198519999743,116.11198519999743,116.11198519999743,116.4782807000156,116.4782807000156,116.4782807000156,116.4782807000156,116.4782807000156,116.4782807000156,116.4782807000156,116.4782807000156,116.4782807000156,22,1,[0.23394949999055825],[0.2506759999960195],116.4782807000156,116.68028550001327,1000,116.68028550001327,1000,1000,1000,1000,0,num_3,0.5759915999951772,,18,1,2026-03-02_10h17.19.372,2026A_exp2,2022.2.4,59.953619878966265,
0,0,0.0,4.9,0,0,22,22,14,,,,,117.27921890001744,117.92986979999114,117.92986979999114,118.43080200001714,315,45,118.43080200001714,118.43080200001714,118.43080200001714,118.43080200001714,118.43080200001714,118.43080200001714,118.43080200001714,118.43080200001714,118.43080200001714,118.7972979999904,118.7972979999904,118.7972979999904,118.7972979999904,118.7972979999904,118.7972979999904,118.7972979999904,118.7972979999904,118.7972979999904,5,1,[0.08364729999448173],[0.367234000004828],118.7972979999904,118.9974610999925,4.9,118.9974610999925,1,4.9,1,1,1000,num_4,0.6670033999835141,,18,1,2026-03-02_10h17.19.372,2026A_exp2,2022.2.4,59.953619878966265,
1000,1,0.0,0.0,0,0,23,23,37,,,,,119.68138220001129,120.33226450000075,120.33226450000075,120.816685400001,45,45,120.816685400001,120.816685400001,120.816685400001,120.816685400001,120.816685400001,120.816685400001,120.816685400001,120.816685400001,120.816685400001,121.18310520000523,121.18310520000523,121.18310520000523,121.18310520000523,121.18310520000523,121.18310520000523,121.18310520000523,121.18310520000523,121.18310520000523,23,0,,,121.18310520000523,121.38553639999009,1000,121.38553639999009,1000,1000,1000,1000,1,num_2,0.622753699979512,,18,1,2026-03-02_10h17.19.372,2026A_exp2,2022.2.4,59.953619878966265,
1000,1,6.1,3.7,0,0,24,24,18,,,,,122.03376630001003,122.68466250001802,122.68466250001802,123.18558730001678,45,45,123.18558730001678,123.18558730001678,123.18558730001678,123.18558730001678,123.18558730001678,123.18558730001678,123.18558730001678,123.18558730001678,123.18558730001678,123.55216900000232,123.55216900000232,123.55216900000232,123.55216900000232,123.55216900000232,123.55216900000232,123.55216900000232,123.55216900000232,123.55216900000232,23,0,,,123.55216900000232,123.7541704000032,1000,123.7541704000032,1000,1000,1000,1000,0,num_3,0.5101724999840371,,18,1,2026-03-02_10h17.19.372,2026A_exp2,2022.2.4,59.953619878966265,
1,0,4.9,3.7,1,0,25,25,26,,,,,124.28603920000023,124.9368800999946,124.9368800999946,125.43802719999803,45,45,125.43802719999803,125.43802719999803,125.43802719999803,125.43802719999803,125.43802719999803,125.43802719999803,125.43802719999803,125.43802719999803,125.43802719999803,125.78752310000709,125.78752310000709,125.78752310000709,125.78752310000709,125.78752310000709,125.78752310000709,125.78752310000709,125.78752310000709,125.78752310000709,13,4,"[0.0012472000089474022, 0.05018920000293292, 0.15039400002569892, 0.21706590001122095]","[0.017470000020693988, 0.06681960000423715, 0.20023040001979098, 0.283809900021879]",125.78752310000709,125.98783810000168,3.7,126.00452010001754,1,3.7,1,1,1000,num_4,0.6758450000197627,,18,1,2026-03-02_10h17.19.372,2026A_exp2,2022.2.4,59.953619878966265,
1,0,0.0,0.0,1,0,26,26,24,,,,,126.7050700999971,127.35558810000657,127.35558810000657,127.8401981999923,45,45,127.8401981999923,127.8401981999923,127.8401981999923,127.8401981999923,127.8401981999923,127.8401981999923,127.8401981999923,127.8401981999923,127.8401981999923,128.2064067000174,128.2064067000174,128.2064067000174,128.2064067000174,128.2064067000174,128.2064067000174,128.2064067000174,128.2064067000174,128.2064067000174,23,0,,,128.2064067000174,128.40671640000073,0.0,128.40671640000073,1,0.0,0,0,1000,num_4,0.4258953999960795,,18,1,2026-03-02_10h17.19.372,2026A_exp2,2022.2.4,59.953619878966265,
1000,1,0.0,0.0,0,0,27,27,67,,,,,128.8577468000003,129.49196869999287,129.49196869999287,129.9921694000077,45,45,129.9921694000077,129.9921694000077,129.9921694000077,129.9921694000077,129.9921694000077,129.9921694000077,129.9921694000077,129.9921694000077,129.9921694000077,130.3589498999936,130.3589498999936,130.3589498999936,130.3589498999936,130.3589498999936,130.3589498999936,130.3589498999936,130.3589498999936,130.3589498999936,1,2,"[0.0007446999952662736, 0.13392619998194277]","[0.11744380000163801, 0.3676981999888085]",130.3589498999936,130.56082119999337,1000,130.56082119999337,1000,1000,1000,1000,1,num_2,0.48857549999956973,,18,1,2026-03-02_10h17.19.372,2026A_exp2,2022.2.4,59.953619878966265,
1000,1,3.7,4.9,0,0,28,28,64,,,,,131.07607129999087,131.7269959000114,131.7269959000114,132.22767990001012,315,45,132.22767990001012,132.22767990001012,132.22767990001012,132.22767990001012,132.22767990001012,132.22767990001012,132.22767990001012,132.22767990001012,132.22767990001012,132.5945070000016,132.5945070000016,132.5945070000016,132.5945070000016,132.5945070000016,132.5945070000016,132.5945070000016,132.5945070000016,132.5945070000016,23,0,,,132.5945070000016,132.7965656000015,1000,132.7965656000015,1000,1000,1000,1000,1,num_2,0.6999868999992032,,18,1,2026-03-02_10h17.19.372,2026A_exp2,2022.2.4,59.953619878966265,
1,0,4.9,0.0,1,0,29,29,25,,,,,133.51194070000201,134.16267970000627,134.16267970000627,134.66367430001264,45,315,134.66367430001264,134.66367430001264,134.66367430001264,134.66367430001264,134.66367430001264,134.66367430001264,134.66367430001264,134.66367430001264,134.66367430001264,135.03020410001045,135.03020410001045,135.03020410001045,135.03020410001045,135.03020410001045,135.03020410001045,135.03020410001045,135.03020410001045,135.03020410001045,23,0,,,135.03020410001045,135.2303332000156,0.0,135.2303332000156,1,0.0,0,0,1000,num_4,0.8984406999952625,,18,1,2026-03-02_10h17.19.372,2026A_exp2,2022.2.4,59.953619878966265,
1000,1,0.0,3.7,1,0,30,30,65,,,,,136.14785800001118,136.79867190000368,136.79867190000368,137.28318050000235,45,315,137.28318050000235,137.28318050000235,137.28318050000235,137.28318050000235,137.28318050000235,137.28318050000235,137.28318050000235,137.28318050000235,137.28318050000235,137.64942020000308,137.64942020000308,137.64942020000308,137.64942020000308,137.64942020000308,137.64942020000308,137.64942020000308,137.64942020000308,137.64942020000308,23,0,,,137.64942020000308,137.85143660000176,1000,137.85143660000176,1000,1000,1000,1000,1,num_2,0.6048265999997966,,18,1,2026-03-02_10h17.19.372,2026A_exp2,2022.2.4,59.953619878966265,
1000,1,3.7,6.1,1,0,31,31,29,,,,,138.4835827999923,139.1344439999957,139.1344439999957,139.61879969999427,315,315,139.61879969999427,139.61879969999427,139.61879969999427,139.61879969999427,139.61879969999427,139.61879969999427,139.61879969999427,139.61879969999427,139.61879969999427,139.98525640001753,139.98525640001753,139.98525640001753,139.98525640001753,139.98525640001753,139.98525640001753,139.98525640001753,139.98525640001753,139.98525640001753,23,0,,,139.98525640001753,140.18720149999717,1000,140.18720149999717,1000,1000,1000,1000,1,num_2,1.3579819000151474,,18,1,2026-03-02_10h17.19.372,2026A_exp2,2022.2.4,59.953619878966265,
1000,1,0.0,0.0,1,0,32,32,60,,,,,141.5699556999898,142.22075599999516,142.22075599999516,142.72196900000563,315,45,142.72196900000563,142.72196900000563,142.72196900000563,142.72196900000563,142.72196900000563,142.72196900000563,142.72196900000563,142.72196900000563,142.72196900000563,143.08841440000106,143.08841440000106,143.08841440000106,143.08841440000106,143.08841440000106,143.08841440000106,143.08841440000106,143.08841440000106,143.08841440000106,23,0,,,143.08841440000106,143.2901201999921,1000,143.2901201999921,1000,1000,1000,1000,1,num_2,0.5262522000120953,,18,1,2026-03-02_10h17.19.372,2026A_exp2,2022.2.4,59.953619878966265,
1,0,6.1,6.1,0,0,33,33,27,,,,,143.8389177999925,144.48957110001356,144.48957110001356,144.9908292000182,315,315,144.9908292000182,144.9908292000182,144.9908292000182,144.9908292000182,144.9908292000182,144.9908292000182,144.9908292000182,144.9908292000182,144.9908292000182,145.3572659000056,145.3572659000056,145.3572659000056,145.3572659000056,145.3572659000056,145.3572659000056,145.3572659000056,145.3572659000056,145.3572659000056,23,0,,,145.3572659000056,145.55745670001488,6.1,145.55745670001488,1,6.1,1,1,1000,num_4,0.9468987000000197,,18,1,2026-03-02_10h17.19.372,2026A_exp2,2022.2.4,59.953619878966265,
1000,1,0.0,6.1,1,0,34,34,62,,,,,146.52495039999485,147.17567510000663,147.17567510000663,147.66016100000707,315,315,147.66016100000707,147.66016100000707,147.66016100000707,147.66016100000707,147.66016100000707,147.66016100000707,147.66016100000707,147.66016100000707,147.66016100000707,148.02648689999478,148.02648689999478,148.02648689999478,148.02648689999478,148.02648689999478,148.02648689999478,148.02648689999478,148.02648689999478,148.02648689999478,21,1,[0.0012376999948173761],[0.017264800000702962],148.02648689999478,148.22844720000285,1000,148.22844720000285,1000,1000,1000,1000,1,num_2,0.6446710000163876,,18,1,2026-03-02_10h17.19.372,2026A_exp2,2022.2.4,59.953619878966265,
1000,1,0.0,0.0,1,0,35,35,16,,,,,148.8939459999965,149.54480510001304,149.54480510001304,150.04582850000588,315,315,150.04582850000588,150.04582850000588,150.04582850000588,150.04582850000588,150.04582850000588,150.04582850000588,150.04582850000588,150.04582850000588,150.04582850000588,150.41230789999827,150.41230789999827,150.41230789999827,150.41230789999827,150.41230789999827,150.41230789999827,150.41230789999827,150.41230789999827,150.41230789999827,23,0,,,150.41230789999827,150.6126981000125,1000,150.6126981000125,1000,1000,1000,1000,1,num_2,0.7244195999810472,,18,1,2026-03-02_10h17.19.372,2026A_exp2,2022.2.4,59.953619878966265,
1000,1,0.0,4.9,0,0,36,36,5,,,,,151.36310439999215,152.01392870000564,152.01392870000564,152.515206400014,315,45,152.515206400014,152.515206400014,152.515206400014,152.515206400014,152.515206400014,152.515206400014,152.515206400014,152.515206400014,152.515206400014,152.8813286999939,152.8813286999939,152.8813286999939,152.8813286999939,152.8813286999939,152.8813286999939,152.8813286999939,152.8813286999939,152.8813286999939,23,0,,,152.8813286999939,153.0835739999893,1000,153.0835739999893,1000,1000,1000,1000,0,num_3,1.0211506000196096,,18,1,2026-03-02_10h17.19.372,2026A_exp2,2022.2.4,59.953619878966265,
0,0,4.9,4.9,1,0,37,37,48,,,,,154.13265149999643,154.7832488999993,154.7832488999993,155.28446709999116,315,315,155.28446709999116,155.28446709999116,155.28446709999116,155.28446709999116,155.28446709999116,155.28446709999116,155.28446709999116,155.28446709999116,155.28446709999116,155.65081590000773,155.65081590000773,155.65081590000773,155.65081590000773,155.65081590000773,155.65081590000773,155.65081590000773,155.65081590000773,155.65081590000773,0,1,[0.0012098999868612736],[0.3672109999752138],155.65081590000773,155.85109740000917,4.9,155.85109740000917,0,4.9,1,0,1000,num_1,1.1571794000046793,,18,1,2026-03-02_10h17.19.372,2026A_exp2,2022.2.4,59.953619878966265,
1000,1,0.0,0.0,0,0,38,38,6,,,,,157.0354797000182,157.68587300000945,157.68587300000945,158.17055710000568,45,45,158.17055710000568,158.17055710000568,158.17055710000568,158.17055710000568,158.17055710000568,158.17055710000568,158.17055710000568,158.17055710000568,158.17055710000568,158.53684529999737,158.53684529999737,158.53684529999737,158.53684529999737,158.53684529999737,158.53684529999737,158.53684529999737,158.53684529999737,158.53684529999737,20,2,"[0.23366919998079538, 0.3007190999924205]","[0.26774149999255314, 0.31759219997911714]",158.53684529999737,158.73765170000843,1000,158.73765170000843,1000,1000,1000,1000,1,num_2,0.7585250000120141,,18,1,2026-03-02_10h17.19.372,2026A_exp2,2022.2.4,59.953619878966265,
1000,1,0.0,6.1,0,0,39,39,85,,,,,159.52122270001564,160.17209949999233,160.17209949999233,160.65640390000772,315,315,160.65640390000772,160.65640390000772,160.65640390000772,160.65640390000772,160.65640390000772,160.65640390000772,160.65640390000772,160.65640390000772,160.65640390000772,161.02290949999588,161.02290949999588,161.02290949999588,161.02290949999588,161.02290949999588,161.02290949999588,161.02290949999588,161.02290949999588,161.02290949999588,23,0,,,161.02290949999588,161.2249873999972,1000,161.2249873999972,1000,1000,1000,1000,1,num_2,0.4725894999864977,,18,1,2026-03-02_10h17.19.372,2026A_exp2,2022.2.4,59.953619878966265,
1000,1,0.0,6.1,1,0,40,40,52,,,,,161.7235503999982,162.3741876000131,162.3741876000131,162.87531730000046,315,315,162.87531730000046,162.87531730000046,162.87531730000046,162.87531730000046,162.87531730000046,162.87531730000046,162.87531730000046,162.87531730000046,162.87531730000046,163.2416219000006,163.2416219000006,163.2416219000006,163.2416219000006,163.2416219000006,163.2416219000006,163.2416219000006,163.2416219000006,163.2416219000006,23,0,,,163.2416219000006,163.44353129999945,1000,163.44353129999945,1000,1000,1000,1000,1,num_2,0.5485864000220317,,18,1,2026-03-02_10h17.19.372,2026A_exp2,2022.2.4,59.953619878966265,
1000,1,3.7,0.0,0,0,41,41,32,,,,,164.0090926999983,164.65995580001618,164.65995580001618,165.16104310000082,315,45,165.16104310000082,165.16104310000082,165.16104310000082,165.16104310000082,165.16104310000082,165.16104310000082,165.16104310000082,165.16104310000082,165.16104310000082,165.52743320001173,165.52743320001173,165.52743320001173,165.52743320001173,165.52743320001173,165.52743320001173,165.52743320001173,165.52743320001173,165.52743320001173,23,0,,,165.52743320001173,165.72997089999262,1000,165.72997089999262,1000,1000,1000,1000,1,num_2,1.023342699976638,,18,1,2026-03-02_10h17.19.372,2026A_exp2,2022.2.4,59.953619878966265,
1,0,4.9,3.7,0,0,42,42,9,,,,,166.77850429998944,167.42914540000493,167.42914540000493,167.93035330000566,45,45,167.93035330000566,167.93035330000566,167.93035330000566,167.93035330000566,167.93035330000566,167.93035330000566,167.93035330000566,167.93035330000566,167.93035330000566,168.29679059999762,168.29679059999762,168.29679059999762,168.29679059999762,168.29679059999762,168.29679059999762,168.29679059999762,168.29679059999762,168.29679059999762,23,0,,,168.29679059999762,168.49688789999345,4.9,168.49688789999345,1,4.9,1,1,1000,num_4,1.279378799983533,,18,1,2026-03-02_10h17.19.372,2026A_exp2,2022.2.4,59.953619878966265,
1,0,3.7,4.9,1,0,43,43,71,,,,,169.79815760001657,170.4490158999979,170.4490158999979,170.9336150000163,45,315,170.9336150000163,170.9336150000163,170.9336150000163,170.9336150000163,170.9336150000163,170.9336150000163,170.9336150000163,170.9336150000163,170.9336150000163,171.29990250000264,171.29990250000264,171.29990250000264,171.29990250000264,171.29990250000264,171.29990250000264,171.29990250000264,171.29990250000264,171.29990250000264,21,1,[0.05032879998907447],[0.08386159999645315],171.29990250000264,171.5001203000138,4.9,171.5001203000138,1,4.9,1,1,1000,num_4,0.8605616000131704,,18,1,2026-03-02_10h17.19.372,2026A_exp2,2022.2.4,59.953619878966265,
1,0,0.0,0.0,1,0,44,44,41,,,,,172.38408240000717,173.04565340001136,173.04565340001136,173.51937080000062,315,315,173.51937080000062,173.51937080000062,173.51937080000062,173.51937080000062,173.51937080000062,173.51937080000062,173.51937080000062,173.51937080000062,173.51937080000062,173.88590719999047,173.88590719999047,173.88590719999047,173.88590719999047,173.88590719999047,173.88590719999047,173.88590719999047,173.88590719999047,173.88590719999047,23,0,,,173.88590719999047,174.0858614000026,0.0,174.0858614000026,0,0.0,0,1,1000,num_1,1.067374700010987,,18,1,2026-03-02_10h17.19.372,2026A_exp2,2022.2.4,59.953619878966265,
1,0,4.9,3.7,0,0,45,45,63,,,,,175.170140000002,175.8210720999923,175.8210720999923,176.30553499999223,315,45,176.30553499999223,176.30553499999223,176.30553499999223,176.30553499999223,176.30553499999223,176.30553499999223,176.30553499999223,176.30553499999223,176.30553499999223,176.67189140000846,176.67189140000846,176.67189140000846,176.67189140000846,176.67189140000846,176.67189140000846,176.67189140000846,176.67189140000846,176.67189140000846,23,0,,,176.67189140000846,176.8720641999971,4.9,176.8720641999971,0,4.9,1,0,1000,num_1,1.641352000006009,,18,1,2026-03-02_10h17.19.372,2026A_exp2,2022.2.4,59.953619878966265,
1000,1,0.0,4.9,0,0,46,46,74,,,,,178.54028960000142,179.1911372000177,179.1911372000177,179.67525200001546,315,45,179.67525200001546,179.67525200001546,179.67525200001546,179.67525200001546,179.67525200001546,179.67525200001546,179.67525200001546,179.67525200001546,179.67525200001546,180.04199729999527,180.04199729999527,180.04199729999527,180.04199729999527,180.04199729999527,180.04199729999527,180.04199729999527,180.04199729999527,180.04199729999527,23,0,,,180.04199729999527,180.2523632000084,1000,180.2523632000084,1000,1000,1000,1000,1,num_2,0.8205384999746457,,18,1,2026-03-02_10h17.19.372,2026A_exp2,2022.2.4,59.953619878966265,
1000,1,0.0,0.0,1,0,47,47,56,,,,,181.09579660001327,181.74347280000802,181.74347280000802,182.2446484999964,45,45,182.2446484999964,182.2446484999964,182.2446484999964,182.2446484999964,182.2446484999964,182.2446484999964,182.2446484999964,182.2446484999964,182.2446484999964,182.61120770001435,182.61120770001435,182.61120770001435,182.61120770001435,182.61120770001435,182.61120770001435,182.61120770001435,182.61120770001435,182.61120770001435,8,1,[0.001035199995385483],[0.250484599993797],182.61120770001435,182.81345740001416,1000,182.81345740001416,1000,1000,1000,1000,1,num_2,0.7073668999946676,,18,1,2026-03-02_10h17.19.372,2026A_exp2,2022.2.4,59.953619878966265,
1000,1,6.1,4.9,0,0,48,48,68,,,,,183.54537330000312,184.19587739999406,184.19587739999406,184.69705740001518,315,45,184.69705740001518,184.69705740001518,184.69705740001518,184.69705740001518,184.69705740001518,184.69705740001518,184.69705740001518,184.69705740001518,184.69705740001518,185.06359279999742,185.06359279999742,185.06359279999742,185.06359279999742,185.06359279999742,185.06359279999742,185.06359279999742,185.06359279999742,185.06359279999742,23,0,,,185.06359279999742,185.2660439000174,1000,185.2660439000174,1000,1000,1000,1000,0,num_3,1.1585529999865685,,18,1,2026-03-02_10h17.19.372,2026A_exp2,2022.2.4,59.953619878966265,
1000,1,0.0,0.0,0,0,49,49,15,,,,,186.44811739999568,187.09885539999232,187.09885539999232,187.5997195999953,45,315,187.5997195999953,187.5997195999953,187.5997195999953,187.5997195999953,187.5997195999953,187.5997195999953,187.5997195999953,187.5997195999953,187.5997195999953,187.94992290000664,187.94992290000664,187.94992290000664,187.94992290000664,187.94992290000664,187.94992290000664,187.94992290000664,187.94992290000664,187.94992290000664,22,0,,,187.94992290000664,188.1501370999904,1000,188.1666366000136,1000,1000,1000,1000,0,num_3,1.7695279000035953,,18,1,2026-03-02_10h17.19.372,2026A_exp2,2022.2.4,59.953619878966265,
1000,1,3.7,0.0,1,0,50,50,54,,,,,189.96860059999744,190.60250830001314,190.60250830001314,191.10366449999856,45,315,191.10366449999856,191.10366449999856,191.10366449999856,191.10366449999856,191.10366449999856,191.10366449999856,191.10366449999856,191.10366449999856,191.10366449999856,191.47003260001657,191.47003260001657,191.47003260001657,191.47003260001657,191.47003260001657,191.47003260001657,191.47003260001657,191.47003260001657,191.47003260001657,21,2,"[0.0012419999984558672, 0.033627299999352545]","[0.01739530000486411, 0.050145599991083145]",191.47003260001657,191.67284020001534,1000,191.67284020001534,1000,1000,1000,1000,0,num_3,0.6159712999942712,,18,1,2026-03-02_10h17.19.372,2026A_exp2,2022.2.4,59.953619878966265,
1000,1,3.7,0.0,1,0,51,51,88,,,,,192.30407450001803,192.95486840000376,192.95486840000376,193.45601819999865,315,315,193.45601819999865,193.45601819999865,193.45601819999865,193.45601819999865,193.45601819999865,193.45601819999865,193.45601819999865,193.45601819999865,193.45601819999865,193.82224509998923,193.82224509998923,193.82224509998923,193.82224509998923,193.82224509998923,193.82224509998923,193.82224509998923,193.82224509998923,193.82224509998923,23,0,,,193.82224509998923,194.02444400000968,1000,194.02444400000968,1000,1000,1000,1000,0,num_3,0.6483168999839108,,18,1,2026-03-02_10h17.19.372,2026A_exp2,2022.2.4,59.953619878966265,
1,0,0.0,4.9,1,0,52,52,1,,,,,194.6897408000077,195.34034170000814,195.34034170000814,195.84165109999594,315,45,195.84165109999594,195.84165109999594,195.84165109999594,195.84165109999594,195.84165109999594,195.84165109999594,195.84165109999594,195.84165109999594,195.84165109999594,196.20790529999067,196.20790529999067,196.20790529999067,196.20790529999067,196.20790529999067,196.20790529999067,196.20790529999067,196.20790529999067,196.20790529999067,23,0,,,196.20790529999067,196.40831510000862,4.9,196.40831510000862,1,4.9,1,1,1000,num_4,0.8887418000085745,,18,1,2026-03-02_10h17.19.372,2026A_exp2,2022.2.4,59.953619878966265,
1000,1,6.1,4.9,0,0,53,53,49,,,,,197.32565020001493,197.97665170000982,197.97665170000982,198.46089340001345,315,45,198.46089340001345,198.46089340001345,198.46089340001345,198.46089340001345,198.46089340001345,198.46089340001345,198.46089340001345,198.46089340001345,198.46089340001345,198.8273051000142,198.8273051000142,198.8273051000142,198.8273051000142,198.8273051000142,198.8273051000142,198.8273051000142,198.8273051000142,198.8273051000142,23,0,,,198.8273051000142,199.03005040000426,1000,199.03005040000426,1000,1000,1000,1000,0,num_3,0.7229714999848511,,18,1,2026-03-02_10h17.19.372,2026A_exp2,2022.2.4,59.953619878966265,
1000,1,0.0,0.0,1,0,54,54,46,,,,,199.77814169999328,200.4290078000049,200.4290078000049,200.9299563000095,45,45,200.9299563000095,200.9299563000095,200.9299563000095,200.9299563000095,200.9299563000095,200.9299563000095,200.9299563000095,200.9299563000095,200.9299563000095,201.29647339999792,201.29647339999792,201.29647339999792,201.29647339999792,201.29647339999792,201.29647339999792,201.29647339999792,201.29647339999792,201.29647339999792,23,0,,,201.29647339999792,201.49847099999897,1000,201.49847099999897,1000,1000,1000,1000,1,num_2,0.7751080000016373,,18,1,2026-03-02_10h17.19.372,2026A_exp2,2022.2.4,59.953619878966265,
1,0,3.7,0.0,1,0,55,55,28,,,,,202.29767349999747,202.94814459999907,202.94814459999907,203.43264050001744,45,315,203.43264050001744,203.43264050001744,203.43264050001744,203.43264050001744,203.43264050001744,203.43264050001744,203.43264050001744,203.43264050001744,203.43264050001744,203.79885829999694,203.79885829999694,203.79885829999694,203.79885829999694,203.79885829999694,203.79885829999694,203.79885829999694,203.79885829999694,203.79885829999694,23,0,,,203.79885829999694,203.99917600001208,0.0,203.99917600001208,0,0.0,0,1,1000,num_1,1.7551090999913868,,18,1,2026-03-02_10h17.19.372,2026A_exp2,2022.2.4,59.953619878966265,
0,0,0.0,3.7,0,0,56,56,83,,,,,205.78415280001354,206.43503580000834,206.43503580000834,206.91942270001164,315,45,206.91942270001164,206.91942270001164,206.91942270001164,206.91942270001164,206.91942270001164,206.91942270001164,206.91942270001164,206.91942270001164,206.91942270001164,207.2856742000149,207.2856742000149,207.2856742000149,207.2856742000149,207.2856742000149,207.2856742000149,207.2856742000149,207.2856742000149,207.2856742000149,23,0,,,207.2856742000149,207.48609280001256,3.7,207.48609280001256,0,3.7,1,0,1000,num_1,1.5631838999979664,,18,1,2026-03-02_10h17.19.372,2026A_exp2,2022.2.4,59.953619878966265,
1,0,3.7,6.1,1,0,57,57,77,,,,,209.07075010001427,209.72165399999358,209.72165399999358,210.20607539999764,45,315,210.20607539999764,210.20607539999764,210.20607539999764,210.20607539999764,210.20607539999764,210.20607539999764,210.20607539999764,210.20607539999764,210.20607539999764,210.57250169999315,210.57250169999315,210.57250169999315,210.57250169999315,210.57250169999315,210.57250169999315,210.57250169999315,210.57250169999315,210.57250169999315,23,0,,,210.57250169999315,210.7727651000023,6.1,210.7727651000023,1,6.1,1,1,1000,num_4,1.3563286999997217,,18,1,2026-03-02_10h17.19.372,2026A_exp2,2022.2.4,59.953619878966265,
1,0,3.7,4.9,0,0,58,58,76,,,,,212.15730449999683,212.80772460001754,212.80772460001754,213.29248380000354,45,45,213.29248380000354,213.29248380000354,213.29248380000354,213.29248380000354,213.29248380000354,213.29248380000354,213.29248380000354,213.29248380000354,213.29248380000354,213.65897140000015,213.65897140000015,213.65897140000015,213.65897140000015,213.65897140000015,213.65897140000015,213.65897140000015,213.65897140000015,213.65897140000015,23,0,,,213.65897140000015,213.85902530001476,3.7,213.85902530001476,0,3.7,1,0,1000,num_1,0.8540713000111282,,18,1,2026-03-02_10h17.19.372,2026A_exp2,2022.2.4,59.953619878966265,
1,0,0.0,6.1,0,0,59,59,82,,,,,214.74318809999386,215.39399240000057,215.39399240000057,215.87845180000295,45,45,215.87845180000295,215.87845180000295,215.87845180000295,215.87845180000295,215.87845180000295,215.87845180000295,215.87845180000295,215.87845180000295,215.87845180000295,216.24481619999278,216.24481619999278,216.24481619999278,216.24481619999278,216.24481619999278,216.24481619999278,216.24481619999278,216.24481619999278,216.24481619999278,23,0,,,216.24481619999278,216.44506339999498,0.0,216.44506339999498,0,0.0,0,1,1000,num_1,1.379242199996952,,18,1,2026-03-02_10h17.19.372,2026A_exp2,2022.2.4,59.953619878966265,
1000,1,0.0,6.1,0,0,60,60,58,,,,,217.84624959999928,218.4799789999961,218.4799789999961,218.98138350000954,315,45,218.98138350000954,218.98138350000954,218.98138350000954,218.98138350000954,218.98138350000954,218.98138350000954,218.98138350000954,218.98138350000954,218.98138350000954,219.34765050001442,219.34765050001442,219.34765050001442,219.34765050001442,219.34765050001442,219.34765050001442,219.34765050001442,219.34765050001442,219.34765050001442,23,0,,,219.34765050001442,219.54795380000724,1000,219.54795380000724,1000,1000,1000,1000,1,num_2,1.0688502000120934,,18,1,2026-03-02_10h17.19.372,2026A_exp2,2022.2.4,59.953619878966265,
1000,1,0.0,4.9,1,0,61,61,55,,,,,220.6324040000036,221.2831198000058,221.2831198000058,221.78382750001037,45,45,221.78382750001037,221.78382750001037,221.78382750001037,221.78382750001037,221.78382750001037,221.78382750001037,221.78382750001037,221.78382750001037,221.78382750001037,222.13405510000302,222.13405510000302,222.13405510000302,222.13405510000302,222.13405510000302,222.13405510000302,222.13405510000302,222.13405510000302,222.13405510000302,22,0,,,222.13405510000302,222.33592780001345,1000,222.33592780001345,1000,1000,1000,1000,1,num_2,2.536195199994836,,18,1,2026-03-02_10h17.19.372,2026A_exp2,2022.2.4,59.953619878966265,
1,0,0.0,6.1,0,0,62,62,43,,,,,224.90353609999875,225.55411019999883,225.55411019999883,226.05519710000954,315,315,226.05519710000954,226.05519710000954,226.05519710000954,226.05519710000954,226.05519710000954,226.05519710000954,226.05519710000954,226.05519710000954,226.05519710000954,226.4048574999906,226.4048574999906,226.4048574999906,226.4048574999906,226.4048574999906,226.4048574999906,226.4048574999906,226.4048574999906,226.4048574999906,22,0,,,226.4048574999906,226.60516750000534,0.0,226.60516750000534,0,0.0,0,1,1000,num_1,1.5477162000024691,,18,1,2026-03-02_10h17.19.372,2026A_exp2,2022.2.4,59.953619878966265,
1,0,3.7,3.7,1,0,63,63,86,,,,,228.17318050001631,228.82396280000103,228.82396280000103,229.3085482000024,45,45,229.3085482000024,229.3085482000024,229.3085482000024,229.3085482000024,229.3085482000024,229.3085482000024,229.3085482000024,229.3085482000024,229.3085482000024,229.67486420000205,229.67486420000205,229.67486420000205,229.67486420000205,229.67486420000205,229.67486420000205,229.67486420000205,229.67486420000205,229.67486420000205,19,2,"[0.0007764000038150698, 0.06714030000148341]","[0.05081600000266917, 0.08384380000643432]",229.67486420000205,229.87502539998968,3.7,229.87502539998968,0,3.7,1,0,1000,num_1,0.7901496000122279,,18,1,2026-03-02_10h17.19.372,2026A_exp2,2022.2.4,59.953619878966265,
1,0,0.0,0.0,0,0,64,64,34,,,,,230.69237370000337,231.34309989999747,231.34309989999747,231.8276082999946,45,45,231.8276082999946,231.8276082999946,231.8276082999946,231.8276082999946,231.8276082999946,231.8276082999946,231.8276082999946,231.8276082999946,231.8276082999946,232.194118000014,232.194118000014,232.194118000014,232.194118000014,232.194118000014,232.194118000014,232.194118000014,232.194118000014,232.194118000014,15,1,[0.001289699983317405],[0.1333677000075113],232.194118000014,232.39415539999027,0.0,232.39415539999027,0,0.0,0,1,1000,num_1,2.0702471999975387,,18,1,2026-03-02_10h17.19.372,2026A_exp2,2022.2.4,59.953619878966265,
1,0,3.7,0.0,1,0,65,65,11,,,,,234.4963098000153,235.1468778999988,235.1468778999988,235.63136769999983,45,45,235.63136769999983,235.63136769999983,235.63136769999983,235.63136769999983,235.63136769999983,235.63136769999983,235.63136769999983,235.63136769999983,235.63136769999983,235.9978514999966,235.9978514999966,235.9978514999966,235.9978514999966,235.9978514999966,235.9978514999966,235.9978514999966,235.9978514999966,235.9978514999966,15,4,"[0.0012439999845810235, 0.06686379999155179, 0.10021679999772459, 0.20030849997419864]","[0.03341439997893758, 0.08343430000240915, 0.15019990000291727, 0.23368559998925775]",235.9978514999966,236.197923300002,0.0,236.197923300002,0,0.0,0,1,1000,num_1,0.6506779000046663,,18,1,2026-03-02_10h17.19.372,2026A_exp2,2022.2.4,59.953619878966265,
1000,1,0.0,0.0,1,0,66,66,23,,,,,236.86519410001347,237.5157351999951,237.5157351999951,238.00049350000336,45,45,238.00049350000336,238.00049350000336,238.00049350000336,238.00049350000336,238.00049350000336,238.00049350000336,238.00049350000336,238.00049350000336,238.00049350000336,238.36694360000547,238.36694360000547,238.36694360000547,238.36694360000547,238.36694360000547,238.36694360000547,238.36694360000547,238.36694360000547,238.36694360000547,4,2,"[0.0012356000079307705, 0.0832005999982357]","[0.01725770000484772, 0.3670488999923691]",238.36694360000547,238.56872949999524,1000,238.56872949999524,1000,1000,1000,1000,0,num_3,1.2961646000039764,,18,1,2026-03-02_10h17.19.372,2026A_exp2,2022.2.4,59.953619878966265,
0,0,6.1,6.1,0,0,67,67,42,,,,,239.88494320001337,240.53585439999006,240.53585439999006,241.036857900006,45,315,241.036857900006,241.036857900006,241.036857900006,241.036857900006,241.036857900006,241.036857900006,241.036857900006,241.036857900006,241.036857900006,241.40327860001707,241.40327860001707,241.40327860001707,241.40327860001707,241.40327860001707,241.40327860001707,241.40327860001707,241.40327860001707,241.40327860001707,23,0,,,241.40327860001707,241.6033555000031,6.1,241.6033555000031,0,6.1,1,0,1000,num_1,3.2459796000039205,,18,1,2026-03-02_10h17.19.372,2026A_exp2,2022.2.4,59.953619878966265,
1,0,0.0,3.7,1,0,68,68,0,,,,,244.87318650001544,245.52407919999678,245.52407919999678,246.0093371999974,315,45,246.0093371999974,246.0093371999974,246.0093371999974,246.0093371999974,246.0093371999974,246.0093371999974,246.0093371999974,246.0093371999974,246.0093371999974,246.37497900001472,246.37497900001472,246.37497900001472,246.37497900001472,246.37497900001472,246.37497900001472,246.37497900001472,246.37497900001472,246.37497900001472,6,1,[0.05017050000606105],[0.33320049999747425],246.37497900001472,246.57500869999058,3.7,246.57500869999058,0,3.7,1,0,1000,num_1,2.0581249999813735,,18,1,2026-03-02_10h17.19.372,2026A_exp2,2022.2.4,59.953619878966265,
1000,1,0.0,4.9,1,0,69,69,78,,,,,248.66043340001488,249.31117329999688,249.31117329999688,249.81303240000852,315,45,249.81303240000852,249.81303240000852,249.81303240000852,249.81303240000852,249.81303240000852,249.81303240000852,249.81303240000852,249.81303240000852,249.81303240000852,250.17850290000206,250.17850290000206,250.17850290000206,250.17850290000206,250.17850290000206,250.17850290000206,250.17850290000206,250.17850290000206,250.17850290000206,21,1,[0.01868579999427311],[0.05080439997254871],250.17850290000206,250.38058500000625,1000,250.38058500000625,1000,1000,1000,1000,1,num_2,0.8917119999823626,,18,1,2026-03-02_10h17.19.372,2026A_exp2,2022.2.4,59.953619878966265,
1,0,0.0,0.0,0,0,70,70,44,,,,,251.29633179999655,251.94718029999058,251.94718029999058,252.44833199999994,45,45,252.44833199999994,252.44833199999994,252.44833199999994,252.44833199999994,252.44833199999994,252.44833199999994,252.44833199999994,252.44833199999994,252.44833199999994,252.8147289000044,252.8147289000044,252.8147289000044,252.8147289000044,252.8147289000044,252.8147289000044,252.8147289000044,252.8147289000044,252.8147289000044,23,0,,,252.8147289000044,253.01490280000144,0.0,253.01490280000144,0,0.0,0,1,1000,num_1,1.2179580999945756,,18,1,2026-03-02_10h17.19.372,2026A_exp2,2022.2.4,59.953619878966265,
1000,1,0.0,6.1,0,0,71,71,35,,,,,254.24942880001618,254.88326020000386,254.88326020000386,255.38456800000858,45,315,255.38456800000858,255.38456800000858,255.38456800000858,255.38456800000858,255.38456800000858,255.38456800000858,255.38456800000858,255.38456800000858,255.38456800000858,255.75099369999953,255.75099369999953,255.75099369999953,255.75099369999953,255.75099369999953,255.75099369999953,255.75099369999953,255.75099369999953,255.75099369999953,23,0,,,255.75099369999953,255.95297060001758,1000,255.95297060001758,1000,1000,1000,1000,1,num_2,1.6316786000097636,,18,1,2026-03-02_10h17.19.372,2026A_exp2,2022.2.4,59.953619878966265,
1,0,3.7,0.0,1,0,72,72,13,,,,,257.6026831000054,258.25316799999564,258.25316799999564,258.75461350000114,45,315,258.75461350000114,258.75461350000114,258.75461350000114,258.75461350000114,258.75461350000114,258.75461350000114,258.75461350000114,258.75461350000114,258.75461350000114,259.12100020001526,259.12100020001526,259.12100020001526,259.12100020001526,259.12100020001526,259.12100020001526,259.12100020001526,259.12100020001526,259.12100020001526,21,1,[0.3505771000054665],[0.3672927000152413],259.12100020001526,259.3212840000051,0.0,259.3212840000051,0,0.0,0,1,1000,num_1,1.5988582000136375,,18,1,2026-03-02_10h17.19.372,2026A_exp2,2022.2.4,59.953619878966265,
1000,1,0.0,6.1,0,0,73,73,75,,,,,260.9392814000021,261.5901734000072,261.5901734000072,262.0745689999894,45,45,262.0745689999894,262.0745689999894,262.0745689999894,262.0745689999894,262.0745689999894,262.0745689999894,262.0745689999894,262.0745689999894,262.0745689999894,262.44083619999583,262.44083619999583,262.44083619999583,262.44083619999583,262.44083619999583,262.44083619999583,262.44083619999583,262.44083619999583,262.44083619999583,23,0,,,262.44083619999583,262.6431598000054,1000,262.6431598000054,1000,1000,1000,1000,1,num_2,0.9498143999953754,,18,1,2026-03-02_10h17.19.372,2026A_exp2,2022.2.4,59.953619878966265,
0,0,3.7,6.1,0,0,74,74,73,,,,,263.60893119999673,264.2595291000034,264.2595291000034,264.7438519000134,315,315,264.7438519000134,264.7438519000134,264.7438519000134,264.7438519000134,264.7438519000134,264.7438519000134,264.7438519000134,264.7438519000134,264.7438519000134,265.11030210001627,265.11030210001627,265.11030210001627,265.11030210001627,265.11030210001627,265.11030210001627,265.11030210001627,265.11030210001627,265.11030210001627,17,3,"[0.20021049998467788, 0.2502803999814205, 0.3169818999886047]","[0.2336907999997493, 0.2670540999970399, 0.36707409998052754]",265.11030210001627,265.3104142000084,6.1,265.3104142000084,1,6.1,1,1,1000,num_4,1.0821830999921076,,18,1,2026-03-02_10h17.19.372,2026A_exp2,2022.2.4,59.953619878966265,
0,0,0.0,0.0,0,0,75,75,70,,,,,266.41153149999445,267.06217520000064,267.06217520000064,267.54674419999355,45,45,267.54674419999355,267.54674419999355,267.54674419999355,267.54674419999355,267.54674419999355,267.54674419999355,267.54674419999355,267.54674419999355,267.54674419999355,267.9131858999899,267.9131858999899,267.9131858999899,267.9131858999899,267.9131858999899,267.9131858999899,267.9131858999899,267.9131858999899,267.9131858999899,23,0,,,267.9131858999899,268.1132683000178,0.0,268.1132683000178,0,0.0,0,1,1000,num_1,1.2320456000161357,,18,1,2026-03-02_10h17.19.372,2026A_exp2,2022.2.4,59.953619878966265,
1,0,4.9,6.1,0,0,76,76,33,,,,,269.3645950999926,269.998582500004,269.998582500004,270.4995568000013,315,45,270.4995568000013,270.4995568000013,270.4995568000013,270.4995568000013,270.4995568000013,270.4995568000013,270.4995568000013,270.4995568000013,270.4995568000013,270.8660441999964,270.8660441999964,270.8660441999964,270.8660441999964,270.8660441999964,270.8660441999964,270.8660441999964,270.8660441999964,270.8660441999964,23,0,,,270.8660441999964,271.0663096999924,4.9,271.0663096999924,0,4.9,1,0,1000,num_1,2.5585921999881975,,18,1,2026-03-02_10h17.19.372,2026A_exp2,2022.2.4,59.953619878966265,
1000,1,0.0,0.0,0,0,77,77,7,,,,,273.65214340001694,274.3028115000052,274.3028115000052,274.78703599999426,45,315,274.78703599999426,274.78703599999426,274.78703599999426,274.78703599999426,274.78703599999426,274.78703599999426,274.78703599999426,274.78703599999426,274.78703599999426,275.1537437000079,275.1537437000079,275.1537437000079,275.1537437000079,275.1537437000079,275.1537437000079,275.1537437000079,275.1537437000079,275.1537437000079,23,0,,,275.1537437000079,275.35551670001587,1000,275.35551670001587,1000,1000,1000,1000,1,num_2,0.8453010999946855,,18,1,2026-03-02_10h17.19.372,2026A_exp2,2022.2.4,59.953619878966265,
1,0,0.0,3.7,0,0,78,78,61,,,,,276.22125850000884,276.8719301999954,276.8719301999954,277.3728737999918,315,45,277.3728737999918,277.3728737999918,277.3728737999918,277.3728737999918,277.3728737999918,277.3728737999918,277.3728737999918,277.3728737999918,277.3728737999918,277.7394173000066,277.7394173000066,277.7394173000066,277.7394173000066,277.7394173000066,277.7394173000066,277.7394173000066,277.7394173000066,277.7394173000066,23,0,,,277.7394173000066,277.93967230001,0.0,277.93967230001,0,0.0,0,1,1000,num_1,1.9963409000192769,,18,1,2026-03-02_10h17.19.372,2026A_exp2,2022.2.4,59.953619878966265,
1000,1,3.7,4.9,0,0,79,79,80,,,,,279.9584931000136,280.59243399999104,280.59243399999104,281.09363970000413,45,315,281.09363970000413,281.09363970000413,281.09363970000413,281.09363970000413,281.09363970000413,281.09363970000413,281.09363970000413,281.09363970000413,281.09363970000413,281.45994520001113,281.45994520001113,281.45994520001113,281.45994520001113,281.45994520001113,281.45994520001113,281.45994520001113,281.45994520001113,281.45994520001113,23,0,,,281.45994520001113,281.66175480000675,1000,281.66175480000675,1000,1000,1000,1000,1,num_2,0.9878744999878109,,18,1,2026-03-02_10h17.19.372,2026A_exp2,2022.2.4,59.953619878966265,
1,0,0.0,0.0,1,0,80,80,21,,,,,282.67787859999225,283.328514599998,283.328514599998,283.8128846999898,45,315,283.8128846999898,283.8128846999898,283.8128846999898,283.8128846999898,283.8128846999898,283.8128846999898,283.8128846999898,283.8128846999898,283.8128846999898,284.17938519999734,284.17938519999734,284.17938519999734,284.17938519999734,284.17938519999734,284.17938519999734,284.17938519999734,284.17938519999734,284.17938519999734,19,2,"[0.06672569998772815, 0.18350429998827167]","[0.10013370000524446, 0.21696379999048077]",284.17938519999734,284.37960909999674,0.0,284.37960909999674,0,0.0,0,1,1000,num_1,0.813922300003469,,18,1,2026-03-02_10h17.19.372,2026A_exp2,2022.2.4,59.953619878966265,
1,0,4.9,0.0,0,0,81,81,4,,,,,285.21392010001,285.8643677000073,285.8643677000073,286.34878160001244,45,315,286.34878160001244,286.34878160001244,286.34878160001244,286.34878160001244,286.34878160001244,286.34878160001244,286.34878160001244,286.34878160001244,286.34878160001244,286.71518689999357,286.71518689999357,286.71518689999357,286.71518689999357,286.71518689999357,286.71518689999357,286.71518689999357,286.71518689999357,286.71518689999357,23,0,,,286.71518689999357,286.91537800000515,4.9,286.91537800000515,0,4.9,1,0,1000,num_1,2.7250610000046436,,18,1,2026-03-02_10h17.19.372,2026A_exp2,2022.2.4,59.953619878966265,
0,0,0.0,0.0,0,0,82,82,22,,,,,289.66800740000326,290.3187229000032,290.3187229000032,290.80322950001573,45,315,290.80322950001573,290.80322950001573,290.80322950001573,290.80322950001573,290.80322950001573,290.80322950001573,290.80322950001573,290.80322950001573,290.80322950001573,291.1697190999985,291.1697190999985,291.1697190999985,291.1697190999985,291.1697190999985,291.1697190999985,291.1697190999985,291.1697190999985,291.1697190999985,23,0,,,291.1697190999985,291.3698050999956,0.0,291.3698050999956,1,0.0,0,0,1000,num_4,0.935055799986003,,18,1,2026-03-02_10h17.19.372,2026A_exp2,2022.2.4,59.953619878966265,
0,0,0.0,0.0,1,0,83,83,38,,,,,292.3376411999925,292.97141600001487,292.97141600001487,293.4723204000038,45,45,293.4723204000038,293.4723204000038,293.4723204000038,293.4723204000038,293.4723204000038,293.4723204000038,293.4723204000038,293.4723204000038,293.4723204000038,293.83905290000257,293.83905290000257,293.83905290000257,293.83905290000257,293.83905290000257,293.83905290000257,293.83905290000257,293.83905290000257,293.83905290000257,23,0,,,293.83905290000257,294.03921370001626,0.0,294.03921370001626,0,0.0,0,1,1000,num_1,3.025070000003325,,18,1,2026-03-02_10h17.19.372,2026A_exp2,2022.2.4,59.953619878966265,
1,0,4.9,4.9,0,0,84,84,39,,,,,297.0922484000039,297.74287640000694,297.74287640000694,298.22724959999323,45,315,298.22724959999323,298.22724959999323,298.22724959999323,298.22724959999323,298.22724959999323,298.22724959999323,298.22724959999323,298.22724959999323,298.22724959999323,298.5939088000159,298.5939088000159,298.5939088000159,298.5939088000159,298.5939088000159,298.5939088000159,298.5939088000159,298.5939088000159,298.5939088000159,23,0,,,298.5939088000159,298.7939072000154,4.9,298.7939072000154,1,4.9,1,1,1000,num_4,0.894742500007851,,18,1,2026-03-02_10h17.19.372,2026A_exp2,2022.2.4,59.953619878966265,
1,0,3.7,0.0,0,0,85,85,8,,,,,299.71123590000207,300.3694848000014,300.3694848000014,300.8545734999934,45,45,300.8545734999934,300.8545734999934,300.8545734999934,300.8545734999934,300.8545734999934,300.8545734999934,300.8545734999934,300.8545734999934,300.8545734999934,301.21292150000227,301.21292150000227,301.21292150000227,301.21292150000227,301.21292150000227,301.21292150000227,301.21292150000227,301.21292150000227,301.21292150000227,23,0,,,301.21292150000227,301.413192100008,3.7,301.413192100008,0,3.7,1,0,1000,num_1,1.260127100016689,,18,1,2026-03-02_10h17.19.372,2026A_exp2,2022.2.4,59.953619878966265,
1000,1,0.0,4.9,0,0,86,86,53,,,,,302.69793970001047,303.34859969999525,303.34859969999525,303.8495454000076,315,315,303.8495454000076,303.8495454000076,303.8495454000076,303.8495454000076,303.8495454000076,303.8495454000076,303.8495454000076,303.8495454000076,303.8495454000076,304.19937650000793,304.19937650000793,304.19937650000793,304.19937650000793,304.19937650000793,304.19937650000793,304.19937650000793,304.19937650000793,304.19937650000793,22,0,,,304.19937650000793,304.4014822000172,1000,304.4014822000172,1000,1000,1000,1000,1,num_2,1.5759576999989804,,18,1,2026-03-02_10h17.19.372,2026A_exp2,2022.2.4,59.953619878966265,
1,0,0.0,0.0,0,0,87,87,51,,,,,306.00127179999254,306.65176480001537,306.65176480001537,307.1362652000098,315,315,307.1362652000098,307.1362652000098,307.1362652000098,307.1362652000098,307.1362652000098,307.1362652000098,307.1362652000098,307.1362652000098,307.1362652000098,307.50294989999384,307.50294989999384,307.50294989999384,307.50294989999384,307.50294989999384,307.50294989999384,307.50294989999384,307.50294989999384,307.50294989999384,23,0,,,307.50294989999384,307.7026934000023,0.0,307.7026934000023,0,0.0,0,1,1000,num_1,0.9060860000026878,,18,1,2026-03-02_10h17.19.372,2026A_exp2,2022.2.4,59.953619878966265,
1000,1,0.0,0.0,0,0,88,88,45,,,,,308.6369615000149,309.2707755000156,309.2707755000156,309.77215249999426,315,315,309.77215249999426,309.77215249999426,309.77215249999426,309.77215249999426,309.77215249999426,309.77215249999426,309.77215249999426,309.77215249999426,309.77215249999426,310.1384944000165,310.1384944000165,310.1384944000165,310.1384944000165,310.1384944000165,310.1384944000165,310.1384944000165,310.1384944000165,310.1384944000165,23,0,,,310.1384944000165,310.34072820001165,1000,310.34072820001165,1000,1000,1000,1000,1,num_2,0.8514819999982137,,18,1,2026-03-02_10h17.19.372,2026A_exp2,2022.2.4,59.953619878966265,
1000,1,0.0,6.1,1,0,89,89,3,,,,,311.22317099999054,311.87371740001254,311.87371740001254,312.374913800013,45,45,312.374913800013,312.374913800013,312.374913800013,312.374913800013,312.374913800013,312.374913800013,312.374913800013,312.374913800013,312.374913800013,312.7412726999901,312.7412726999901,312.7412726999901,312.7412726999901,312.7412726999901,312.7412726999901,312.7412726999901,312.7412726999901,312.7412726999901,7,1,[0.0012744000123348087],[0.2671262000221759],312.7412726999901,312.9431343000033,1000,312.9431343000033,1000,1000,1000,1000,1,num_2,1.0891382999834605,,18,1,2026-03-02_10h17.19.372,2026A_exp2,2022.2.4,59.953619878966265,
,,,,,,,,,,,,,,,,,,,,,,,,,,,,,,,,,,,,,,,,,,,,,,,,,,,,314.06945549999364,,,,,,,
