validity,detectorcomp,contrastCW,contrastCCW,precueCWorCCW,block_80trials.thisRepN,block_80trials.thisTrialN,block_80trials.thisN,block_80trials.thisIndex,etRecord.started,etRecord.stopped,text.started,text.stopped,text_4.started,text_4.stopped,text_6.started,text_6.stopped,oriCW,oriCCW,roi_2.started,grating_UR.started,grating_UL.started,grating_LR.started,grating_LL.started,noise_UR.started,noise_UL.started,noise_LR.started,noise_LL.started,roi_2.stopped,grating_UR.stopped,grating_UL.stopped,grating_LR.stopped,grating_LL.stopped,noise_UR.stopped,noise_UL.stopped,noise_LR.stopped,noise_LL.stopped,outframe,roi_2.numLooks,roi_2.timesOn,roi_2.timesOff,text_2.started,text_2.stopped,probedcontrast,key_resp.started,respdetect,relevantContrast,correctDetect,TorFdetect,respCWorCCW,key_resp.keys,key_resp.rt,feedback_display_.started,participantNo,blockNo,date,expName,psychopyVersion,frameRate,
1,0,4.9,0.0,1,0,0,0,52,6.669998401775956e-05,6.669998401775956e-05,64.64600760000758,66.65838830001303,66.65838830001303,67.28242080000928,67.28242080000928,67.80271660001017,45,315,67.80271660001017,67.80271660001017,67.80271660001017,67.80271660001017,67.80271660001017,67.80271660001017,67.80271660001017,67.80271660001017,67.80271660001017,68.14991609999561,68.14991609999561,68.14991609999561,68.14991609999561,68.14991609999561,68.14991609999561,68.14991609999561,68.14991609999561,68.14991609999561,0,1,[0.0015381000121124089],[0.36703180000768043],68.14991609999561,68.35018060001312,0.0,68.35018060001312,0,0.0,0,1,1000,num_1,0.8094210999843199,,20,14,2026-03-02_16h39.20.227,2026A_exp2,2022.2.4,59.99322076332222,
1000,1,0.0,3.7,0,0,1,1,18,,,,,69.18442060000962,69.83719729998847,69.83719729998847,70.33610139999655,315,45,70.33610139999655,70.33610139999655,70.33610139999655,70.33610139999655,70.33610139999655,70.33610139999655,70.33610139999655,70.33610139999655,70.33610139999655,70.70241940001142,70.70241940001142,70.70241940001142,70.70241940001142,70.70241940001142,70.70241940001142,70.70241940001142,70.70241940001142,70.70241940001142,0,1,[0.0012156000011600554],[0.36715580002055503],70.70241940001142,70.90373210000689,1000,70.90373210000689,1000,1000,1000,1000,1,num_2,0.383593300008215,,20,14,2026-03-02_16h39.20.227,2026A_exp2,2022.2.4,59.99322076332222,
1000,1,0.0,0.0,1,0,2,2,63,,,,,71.30312009999761,71.9558071999927,71.9558071999927,72.45487779998803,315,315,72.45487779998803,72.45487779998803,72.45487779998803,72.45487779998803,72.45487779998803,72.45487779998803,72.45487779998803,72.45487779998803,72.45487779998803,72.80481100000907,72.80481100000907,72.80481100000907,72.80481100000907,72.80481100000907,72.80481100000907,72.80481100000907,72.80481100000907,72.80481100000907,0,1,[0.0015447000041604042],[0.3514951000106521],72.80481100000907,73.02016580000054,1000,73.02016580000054,1000,1000,1000,1000,0,num_3,0.7235258999862708,,20,14,2026-03-02_16h39.20.227,2026A_exp2,2022.2.4,59.99322076332222,
1000,1,4.9,6.1,0,0,3,3,59,,,,,73.77238340000622,74.42298470000969,74.42298470000969,74.92398870000034,45,45,74.92398870000034,74.92398870000034,74.92398870000034,74.92398870000034,74.92398870000034,74.92398870000034,74.92398870000034,74.92398870000034,74.92398870000034,75.29044909999357,75.29044909999357,75.29044909999357,75.29044909999357,75.29044909999357,75.29044909999357,75.29044909999357,75.29044909999357,75.29044909999357,0,1,[0.0012455999967642128],[0.36734299999079667],75.29044909999357,75.4912803999905,1000,75.4912803999905,1000,1000,1000,1000,1,num_2,0.4371228000090923,,20,14,2026-03-02_16h39.20.227,2026A_exp2,2022.2.4,59.99322076332222,
1000,1,0.0,0.0,1,0,4,4,37,,,,,75.9579883000115,76.60835240001325,76.60835240001325,77.10952570001245,45,315,77.10952570001245,77.10952570001245,77.10952570001245,77.10952570001245,77.10952570001245,77.10952570001245,77.10952570001245,77.10952570001245,77.10952570001245,77.47570569999516,77.47570569999516,77.47570569999516,77.47570569999516,77.47570569999516,77.47570569999516,77.47570569999516,77.47570569999516,77.47570569999516,0,1,[0.001202500017825514],[0.3667229000129737],77.47570569999516,77.6976444000029,1000,77.6976444000029,1000,1000,1000,1000,1,num_2,0.38166320000891574,,20,14,2026-03-02_16h39.20.227,2026A_exp2,2022.2.4,59.99322076332222,
1000,1,0.0,0.0,1,0,5,5,72,,,,,78.09364619999542,78.74642770001083,78.74642770001083,79.25021220001508,315,45,79.25021220001508,79.25021220001508,79.25021220001508,79.25021220001508,79.25021220001508,79.25021220001508,79.25021220001508,79.25021220001508,79.25021220001508,79.61131179999211,79.61131179999211,79.61131179999211,79.61131179999211,79.61131179999211,79.61131179999211,79.61131179999211,79.61131179999211,79.61131179999211,0,1,[0.002570000011473894],[0.36589509999612346],79.61131179999211,79.81389459999627,1000,79.81389459999627,1000,1000,1000,1000,1,num_2,0.2811076000216417,,20,14,2026-03-02_16h39.20.227,2026A_exp2,2022.2.4,59.99322076332222,
1000,1,3.7,0.0,1,0,6,6,54,,,,,80.11204889998771,80.76264130001073,80.76264130001073,81.2468688999943,315,45,81.2468688999943,81.2468688999943,81.2468688999943,81.2468688999943,81.2468688999943,81.2468688999943,81.2468688999943,81.2468688999943,81.2468688999943,81.61334380001063,81.61334380001063,81.61334380001063,81.61334380001063,81.61334380001063,81.61334380001063,81.61334380001063,81.61334380001063,81.61334380001063,0,1,[0.0012069999938830733],[0.367143000010401],81.61334380001063,81.8479926,1000,81.8479926,1000,1000,1000,1000,0,num_3,0.10418389999540523,,20,14,2026-03-02_16h39.20.227,2026A_exp2,2022.2.4,59.99322076332222,
1,0,0.0,4.9,1,0,7,7,2,,,,,81.98060270000133,82.63118850000319,82.63118850000319,83.1323437000101,45,45,83.1323437000101,83.1323437000101,83.1323437000101,83.1323437000101,83.1323437000101,83.1323437000101,83.1323437000101,83.1323437000101,83.1323437000101,83.4987293999875,83.4987293999875,83.4987293999875,83.4987293999875,83.4987293999875,83.4987293999875,83.4987293999875,83.4987293999875,83.4987293999875,0,1,[0.0012473999813664705],[0.3669997999968473],83.4987293999875,83.69883179999306,4.9,83.69883179999306,1,4.9,1,1,1000,num_4,0.6450831000111066,,20,14,2026-03-02_16h39.20.227,2026A_exp2,2022.2.4,59.99322076332222,
1,0,6.1,0.0,1,0,8,8,29,,,,,84.36632400000235,85.01687280001352,85.01687280001352,85.51791359999334,45,315,85.51791359999334,85.51791359999334,85.51791359999334,85.51791359999334,85.51791359999334,85.51791359999334,85.51791359999334,85.51791359999334,85.51791359999334,85.88435619999655,85.88435619999655,85.88435619999655,85.88435619999655,85.88435619999655,85.88435619999655,85.88435619999655,85.88435619999655,85.88435619999655,0,1,[0.0012707000132650137],[0.3666619000141509],85.88435619999655,86.08478510001441,0.0,86.08478510001441,0,0.0,0,1,1000,num_1,0.611719800013816,,20,14,2026-03-02_16h39.20.227,2026A_exp2,2022.2.4,59.99322076332222,
1000,1,0.0,0.0,1,0,9,9,27,,,,,86.71849530001055,87.36926710000262,87.36926710000262,87.85348829999566,45,45,87.85348829999566,87.85348829999566,87.85348829999566,87.85348829999566,87.85348829999566,87.85348829999566,87.85348829999566,87.85348829999566,87.85348829999566,88.21990120000555,88.21990120000555,88.21990120000555,88.21990120000555,88.21990120000555,88.21990120000555,88.21990120000555,88.21990120000555,88.21990120000555,23,0,,,88.21990120000555,88.4517208999896,1000,88.4517208999896,1000,1000,1000,1000,1,num_2,0.4763540000130888,,20,14,2026-03-02_16h39.20.227,2026A_exp2,2022.2.4,59.99322076332222,
1,0,0.0,3.7,1,0,10,10,83,,,,,88.95887979998952,89.60483269998804,89.60483269998804,90.1059266999946,315,45,90.1059266999946,90.1059266999946,90.1059266999946,90.1059266999946,90.1059266999946,90.1059266999946,90.1059266999946,90.1059266999946,90.1059266999946,90.47228899999755,90.47228899999755,90.47228899999755,90.47228899999755,90.47228899999755,90.47228899999755,90.47228899999755,90.47228899999755,90.47228899999755,0,1,[0.0008417000062763691],[0.36781140000675805],90.47228899999755,90.67265910000424,3.7,90.67265910000424,1,3.7,1,1,1000,num_4,0.614880200009793,,20,14,2026-03-02_16h39.20.227,2026A_exp2,2022.2.4,59.99322076332222,
1000,1,0.0,3.7,1,0,11,11,81,,,,,91.30765239999164,91.9572204000142,91.9572204000142,92.46965370001271,45,45,92.46965370001271,92.46965370001271,92.46965370001271,92.46965370001271,92.46965370001271,92.46965370001271,92.46965370001271,92.46965370001271,92.46965370001271,92.82471129999612,92.82471129999612,92.82471129999612,92.82471129999612,92.82471129999612,92.82471129999612,92.82471129999612,92.82471129999612,92.82471129999612,5,6,"[0.003419199987547472, 0.0821152999997139, 0.1153453000006266, 0.14822939998703077, 0.1815055999904871, 0.2145584000099916]","[0.06517919999896549, 0.09861339998315088, 0.13194799999473616, 0.1649162000103388, 0.1979767000011634, 0.36512289999518543]",92.82471129999612,93.02710460001254,1000,93.02710460001254,1000,1000,1000,1000,1,num_2,0.4607640000176616,,20,14,2026-03-02_16h39.20.227,2026A_exp2,2022.2.4,59.99322076332222,
1000,1,4.9,4.9,0,0,12,12,6,,,,,93.50877919999766,94.15939849999268,94.15939849999268,94.6604018000071,315,45,94.6604018000071,94.6604018000071,94.6604018000071,94.6604018000071,94.6604018000071,94.6604018000071,94.6604018000071,94.6604018000071,94.6604018000071,95.01020600000629,95.01020600000629,95.01020600000629,95.01020600000629,95.01020600000629,95.01020600000629,95.01020600000629,95.01020600000629,95.01020600000629,0,1,[0.0010818999726325274],[0.35086859998409636],95.01020600000629,95.2121318000136,1000,95.2121318000136,1000,1000,1000,1000,0,num_3,0.3957996999961324,,20,14,2026-03-02_16h39.20.227,2026A_exp2,2022.2.4,59.99322076332222,
1,0,3.7,3.7,1,0,13,13,11,,,,,95.62751109999954,96.28776770000695,96.28776770000695,96.77928330001305,45,315,96.77928330001305,96.77928330001305,96.77928330001305,96.77928330001305,96.77928330001305,96.77928330001305,96.77928330001305,96.77928330001305,96.77928330001305,97.12917629998992,97.12917629998992,97.12917629998992,97.12917629998992,97.12917629998992,97.12917629998992,97.12917629998992,97.12917629998992,97.12917629998992,0,1,[0.0017447000136598945],[0.3519218000001274],97.12917629998992,97.3325160999957,3.7,97.3325160999957,1,3.7,1,1,1000,num_4,0.731359400000656,,20,14,2026-03-02_16h39.20.227,2026A_exp2,2022.2.4,59.99322076332222,
1000,1,0.0,6.1,0,0,14,14,5,,,,,98.07974630000535,98.73830679999082,98.73830679999082,99.2437651999935,315,315,99.2437651999935,99.2437651999935,99.2437651999935,99.2437651999935,99.2437651999935,99.2437651999935,99.2437651999935,99.2437651999935,99.2437651999935,99.5980872999935,99.5980872999935,99.5980872999935,99.5980872999935,99.5980872999935,99.5980872999935,99.5980872999935,99.5980872999935,99.5980872999935,19,1,[0.02794770000036806],[0.08227259997511283],99.5980872999935,99.80071949999547,1000,99.80071949999547,1000,1000,1000,1000,1,num_2,0.4389521999983117,,20,14,2026-03-02_16h39.20.227,2026A_exp2,2022.2.4,59.99322076332222,
1,0,4.9,0.0,0,0,15,15,57,,,,,100.26541960000759,100.91615500001353,100.91615500001353,101.4005349999934,45,45,101.4005349999934,101.4005349999934,101.4005349999934,101.4005349999934,101.4005349999934,101.4005349999934,101.4005349999934,101.4005349999934,101.4005349999934,101.76697230001446,101.76697230001446,101.76697230001446,101.76697230001446,101.76697230001446,101.76697230001446,101.76697230001446,101.76697230001446,101.76697230001446,0,1,[0.0012058999855071306],[0.3674070999841206],101.76697230001446,101.96721709999838,4.9,101.96721709999838,1,4.9,1,1,1000,num_4,0.721161099994788,,20,14,2026-03-02_16h39.20.227,2026A_exp2,2022.2.4,59.99322076332222,
1000,1,4.9,6.1,0,0,16,16,35,,,,,102.71766789999674,103.36849319998873,103.36849319998873,103.86950920001254,315,315,103.86950920001254,103.86950920001254,103.86950920001254,103.86950920001254,103.86950920001254,103.86950920001254,103.86950920001254,103.86950920001254,103.86950920001254,104.23608659999445,104.23608659999445,104.23608659999445,104.23608659999445,104.23608659999445,104.23608659999445,104.23608659999445,104.23608659999445,104.23608659999445,7,4,"[0.0012587000092025846, 0.10027250001439825, 0.20030190001125447, 0.26698020001640543]","[0.033302800002275035, 0.18365819999598898, 0.23357250000117347, 0.3671518000192009]",104.23608659999445,104.43826510000508,1000,104.43826510000508,1000,1000,1000,1000,1,num_2,0.3774944000178948,,20,14,2026-03-02_16h39.20.227,2026A_exp2,2022.2.4,59.99322076332222,
1,0,4.9,0.0,0,0,17,17,47,,,,,104.84011499999906,105.48886089998996,105.48886089998996,105.99321640000562,315,45,105.99321640000562,105.99321640000562,105.99321640000562,105.99321640000562,105.99321640000562,105.99321640000562,105.99321640000562,105.99321640000562,105.99321640000562,106.35506930001429,106.35506930001429,106.35506930001429,106.35506930001429,106.35506930001429,106.35506930001429,106.35506930001429,106.35506930001429,106.35506930001429,0,1,[0.0025403999898117036],[0.3671322999871336],106.35506930001429,106.55527819998679,4.9,106.55527819998679,1,4.9,1,1,1000,num_4,0.7399633000022732,,20,14,2026-03-02_16h39.20.227,2026A_exp2,2022.2.4,59.99322076332222,
1000,1,0.0,0.0,0,0,18,18,33,,,,,107.32242569999653,107.97314180000103,107.97314180000103,108.45761760001187,45,45,108.45761760001187,108.45761760001187,108.45761760001187,108.45761760001187,108.45761760001187,108.45761760001187,108.45761760001187,108.45761760001187,108.45761760001187,108.82405269998708,108.82405269998708,108.82405269998708,108.82405269998708,108.82405269998708,108.82405269998708,108.82405269998708,108.82405269998708,108.82405269998708,0,1,[0.001218299992615357],[0.36717939999653026],108.82405269998708,109.04715560001205,1000,109.04715560001205,1000,1000,1000,1000,1,num_2,0.36810029999469407,,20,14,2026-03-02_16h39.20.227,2026A_exp2,2022.2.4,59.99322076332222,
1,0,0.0,3.7,0,0,19,19,34,,,,,109.44141729999683,110.09193080000114,110.09193080000114,110.59309949999442,315,45,110.59309949999442,110.59309949999442,110.59309949999442,110.59309949999442,110.59309949999442,110.59309949999442,110.59309949999442,110.59309949999442,110.59309949999442,110.95951859999332,110.95951859999332,110.95951859999332,110.95951859999332,110.95951859999332,110.95951859999332,110.95951859999332,110.95951859999332,110.95951859999332,3,1,[0.0012234000023454428],[0.33382590001565404],110.95951859999332,111.1595873000042,0.0,111.1595873000042,0,0.0,0,1,1000,num_1,0.7127411999972537,,20,14,2026-03-02_16h39.20.227,2026A_exp2,2022.2.4,59.99322076332222,
1,0,0.0,0.0,0,0,20,20,87,,,,,111.89353199998732,112.54435999999987,112.54435999999987,113.04538699999102,315,45,113.04538699999102,113.04538699999102,113.04538699999102,113.04538699999102,113.04538699999102,113.04538699999102,113.04538699999102,113.04538699999102,113.04538699999102,113.3955188000109,113.3955188000109,113.3955188000109,113.3955188000109,113.3955188000109,113.3955188000109,113.3955188000109,113.3955188000109,113.3955188000109,0,1,[0.0014808000123593956],[0.3505427000054624],113.3955188000109,113.59554559999378,0.0,113.59554559999378,0,0.0,0,1,1000,num_1,0.6844774000055622,,20,14,2026-03-02_16h39.20.227,2026A_exp2,2022.2.4,59.99322076332222,
1,0,6.1,0.0,1,0,21,21,53,,,,,114.2959942999878,114.94677219999721,114.94677219999721,115.4313022000133,45,45,115.4313022000133,115.4313022000133,115.4313022000133,115.4313022000133,115.4313022000133,115.4313022000133,115.4313022000133,115.4313022000133,115.4313022000133,115.79755099999602,115.79755099999602,115.79755099999602,115.79755099999602,115.79755099999602,115.79755099999602,115.79755099999602,115.79755099999602,115.79755099999602,0,1,[0.001208400004543364],[0.36705530001199804],115.79755099999602,115.99784230001387,0.0,115.99784230001387,0,0.0,0,1,1000,num_1,0.64156930000172,,20,14,2026-03-02_16h39.20.227,2026A_exp2,2022.2.4,59.99322076332222,
0,0,4.9,6.1,0,0,22,22,1,,,,,116.66501470000367,117.31595940000261,117.31595940000261,117.82105239998782,45,45,117.82105239998782,117.82105239998782,117.82105239998782,117.82105239998782,117.82105239998782,117.82105239998782,117.82105239998782,117.82105239998782,117.82105239998782,118.18336739999359,118.18336739999359,118.18336739999359,118.18336739999359,118.18336739999359,118.18336739999359,118.18336739999359,118.18336739999359,118.18336739999359,21,1,[0.10030479999841191],[0.13287489998037927],118.18336739999359,118.38353729998926,6.1,118.38353729998926,1,6.1,1,1,1000,num_4,0.6478424000088125,,20,14,2026-03-02_16h39.20.227,2026A_exp2,2022.2.4,59.99322076332222,
1000,1,4.9,6.1,0,0,23,23,49,,,,,119.05077259999234,119.70156889999635,119.70156889999635,120.18602960000862,45,45,120.18602960000862,120.18602960000862,120.18602960000862,120.18602960000862,120.18602960000862,120.18602960000862,120.18602960000862,120.18602960000862,120.18602960000862,120.55242309998721,120.55242309998721,120.55242309998721,120.55242309998721,120.55242309998721,120.55242309998721,120.55242309998721,120.55242309998721,120.55242309998721,1,1,[0.01738059998024255],[0.36718800000380725],120.55242309998721,120.75432109998656,1000,120.75432109998656,1000,1000,1000,1000,1,num_2,0.5569760999933351,,20,14,2026-03-02_16h39.20.227,2026A_exp2,2022.2.4,59.99322076332222,
0,0,0.0,0.0,0,0,24,24,20,,,,,121.33669980001287,121.98709469998721,121.98709469998721,122.48820490000071,315,315,122.48820490000071,122.48820490000071,122.48820490000071,122.48820490000071,122.48820490000071,122.48820490000071,122.48820490000071,122.48820490000071,122.48820490000071,122.85467520001112,122.85467520001112,122.85467520001112,122.85467520001112,122.85467520001112,122.85467520001112,122.85467520001112,122.85467520001112,122.85467520001112,0,1,[0.0012273000029381365],[0.36722879999433644],122.85467520001112,123.05493579999893,0.0,123.05493579999893,1,0.0,0,0,1000,num_4,1.5294724000268616,,20,14,2026-03-02_16h39.20.227,2026A_exp2,2022.2.4,59.99322076332222,
1,0,4.9,0.0,0,0,25,25,19,,,,,124.60627859999659,125.25715130000026,125.25715130000026,125.74157099999138,45,315,125.74157099999138,125.74157099999138,125.74157099999138,125.74157099999138,125.74157099999138,125.74157099999138,125.74157099999138,125.74157099999138,125.74157099999138,126.10798070000601,126.10798070000601,126.10798070000601,126.10798070000601,126.10798070000601,126.10798070000601,126.10798070000601,126.10798070000601,126.10798070000601,0,1,[0.0012356000079307705],[0.36722159999771975],126.10798070000601,126.30817400000524,4.9,126.30817400000524,1,4.9,1,1,1000,num_4,0.6836111999873538,,20,14,2026-03-02_16h39.20.227,2026A_exp2,2022.2.4,59.99322076332222,
0,0,6.1,0.0,0,0,26,26,65,,,,,127.00873060000595,127.65950460001477,127.65950460001477,128.14411180000752,315,45,128.14411180000752,128.14411180000752,128.14411180000752,128.14411180000752,128.14411180000752,128.14411180000752,128.14411180000752,128.14411180000752,128.14411180000752,128.51033220000681,128.51033220000681,128.51033220000681,128.51033220000681,128.51033220000681,128.51033220000681,128.51033220000681,128.51033220000681,128.51033220000681,1,1,[0.0007110000005923212],[0.3672614000097383],128.51033220000681,128.71047200000612,0.0,128.71047200000612,0,0.0,0,1,1000,num_1,0.7460986000078265,,20,14,2026-03-02_16h39.20.227,2026A_exp2,2022.2.4,59.99322076332222,
1000,1,0.0,3.7,1,0,27,27,7,,,,,129.47997570000007,130.13073370000347,130.13073370000347,130.6297033999872,315,45,130.6297033999872,130.6297033999872,130.6297033999872,130.6297033999872,130.6297033999872,130.6297033999872,130.6297033999872,130.6297033999872,130.6297033999872,130.99618230000488,130.99618230000488,130.99618230000488,130.99618230000488,130.99618230000488,130.99618230000488,130.99618230000488,130.99618230000488,130.99618230000488,0,1,[0.0012442999868653715],[0.3671450999972876],130.99618230000488,131.1980523999955,1000,131.1980523999955,1000,1000,1000,1000,1,num_2,0.5702023000048939,,20,14,2026-03-02_16h39.20.227,2026A_exp2,2022.2.4,59.99322076332222,
1,0,0.0,0.0,1,0,28,28,42,,,,,131.79694209998706,132.44764870000654,132.44764870000654,132.94896509998944,315,315,132.94896509998944,132.94896509998944,132.94896509998944,132.94896509998944,132.94896509998944,132.94896509998944,132.94896509998944,132.94896509998944,132.94896509998944,133.3152478999982,133.3152478999982,133.3152478999982,133.3152478999982,133.3152478999982,133.3152478999982,133.3152478999982,133.3152478999982,133.3152478999982,0,1,[0.0018373999919276685],[0.3665063999942504],133.3152478999982,133.51549349998822,0.0,133.51549349998822,1,0.0,0,0,1000,num_4,1.5967940999835264,,20,14,2026-03-02_16h39.20.227,2026A_exp2,2022.2.4,59.99322076332222,
1,0,4.9,0.0,0,0,29,29,14,,,,,135.13340479999897,135.78419669999857,135.78419669999857,136.2685644000012,315,315,136.2685644000012,136.2685644000012,136.2685644000012,136.2685644000012,136.2685644000012,136.2685644000012,136.2685644000012,136.2685644000012,136.2685644000012,136.63495740000508,136.63495740000508,136.63495740000508,136.63495740000508,136.63495740000508,136.63495740000508,136.63495740000508,136.63495740000508,136.63495740000508,2,2,"[0.0012317999789956957, 0.10019579998333938]","[0.06695019998005591, 0.3670438999834005]",136.63495740000508,136.8351864000142,4.9,136.8351864000142,1,4.9,1,1,1000,num_4,0.563993500021752,,20,14,2026-03-02_16h39.20.227,2026A_exp2,2022.2.4,59.99322076332222,
1000,1,4.9,6.1,1,0,30,30,4,,,,,137.41910669999197,138.05325810000068,138.05325810000068,138.55448300001444,45,45,138.55448300001444,138.55448300001444,138.55448300001444,138.55448300001444,138.55448300001444,138.55448300001444,138.55448300001444,138.55448300001444,138.55448300001444,138.92074940001476,138.92074940001476,138.92074940001476,138.92074940001476,138.92074940001476,138.92074940001476,138.92074940001476,138.92074940001476,138.92074940001476,12,5,"[0.0836913000093773, 0.13384200001019053, 0.1671177000098396, 0.2338447000074666, 0.36712350000743754]","[0.1170793000201229, 0.15034030002425425, 0.2004206000128761, 0.3338623000017833, 0.3671281000133604]",138.92074940001476,139.12309979999554,1000,139.12309979999554,1000,1000,1000,1000,1,num_2,0.412203000014415,,20,14,2026-03-02_16h39.20.227,2026A_exp2,2022.2.4,59.99322076332222,
0,0,4.9,3.7,1,0,31,31,13,,,,,139.55467670000507,140.20535179998842,140.20535179998842,140.70658970001386,45,45,140.70658970001386,140.70658970001386,140.70658970001386,140.70658970001386,140.70658970001386,140.70658970001386,140.70658970001386,140.70658970001386,140.70658970001386,141.0729139999894,141.0729139999894,141.0729139999894,141.0729139999894,141.0729139999894,141.0729139999894,141.0729139999894,141.0729139999894,141.0729139999894,1,2,"[0.0012402000138536096, 0.3504790000151843]","[0.3338116000231821, 0.3672366999962833]",141.0729139999894,141.2792407000088,4.9,141.2792407000088,1,4.9,1,1,1000,num_4,0.9442716000194196,,20,14,2026-03-02_16h39.20.227,2026A_exp2,2022.2.4,59.99322076332222,
1,0,6.1,4.9,1,0,32,32,38,,,,,142.24062629998662,142.89142659999197,142.89142659999197,143.37579759999062,315,315,143.37579759999062,143.37579759999062,143.37579759999062,143.37579759999062,143.37579759999062,143.37579759999062,143.37579759999062,143.37579759999062,143.37579759999062,143.74230849999003,143.74230849999003,143.74230849999003,143.74230849999003,143.74230849999003,143.74230849999003,143.74230849999003,143.74230849999003,143.74230849999003,0,1,[0.0011974000080954283],[0.36694260002695955],143.74230849999003,143.942421499989,4.9,143.942421499989,1,4.9,1,1,1000,num_4,0.6974638999963645,,20,14,2026-03-02_16h39.20.227,2026A_exp2,2022.2.4,59.99322076332222,
1000,1,0.0,0.0,1,0,33,33,8,,,,,144.6597446000087,145.31051440001465,145.31051440001465,145.81163449998712,315,315,145.81163449998712,145.81163449998712,145.81163449998712,145.81163449998712,145.81163449998712,145.81163449998712,145.81163449998712,145.81163449998712,145.81163449998712,146.16122939999332,146.16122939999332,146.16122939999332,146.16122939999332,146.16122939999332,146.16122939999332,146.16122939999332,146.16122939999332,146.16122939999332,1,1,[0.0012365000147838145],[0.35034890001406893],146.16122939999332,146.36345710000023,1000,146.36345710000023,1000,1000,1000,1000,1,num_2,0.5241901999979746,,20,14,2026-03-02_16h39.20.227,2026A_exp2,2022.2.4,59.99322076332222,
1,0,4.9,3.7,0,0,34,34,89,,,,,146.9120077000116,147.56274669998675,147.56274669998675,148.06393370000296,315,315,148.06393370000296,148.06393370000296,148.06393370000296,148.06393370000296,148.06393370000296,148.06393370000296,148.06393370000296,148.06393370000296,148.06393370000296,148.41322310001124,148.41322310001124,148.41322310001124,148.41322310001124,148.41322310001124,148.41322310001124,148.41322310001124,148.41322310001124,148.41322310001124,7,5,"[0.03361739998217672, 0.06694089999655262, 0.16738259998965077, 0.2007840999867767, 0.28424700000323355]","[0.050392899982398376, 0.15072309999959543, 0.18408519998774864, 0.2673986000008881, 0.35087940000812523]",148.41322310001124,148.61385009999503,4.9,148.63044119998813,1,4.9,1,1,1000,num_4,0.6491501000127755,,20,14,2026-03-02_16h39.20.227,2026A_exp2,2022.2.4,59.99322076332222,
0,0,0.0,6.1,0,0,35,35,12,,,,,149.2976372000121,149.9484100000118,149.9484100000118,150.43290340001113,315,315,150.43290340001113,150.43290340001113,150.43290340001113,150.43290340001113,150.43290340001113,150.43290340001113,150.43290340001113,150.43290340001113,150.43290340001113,150.79930969999987,150.79930969999987,150.79930969999987,150.79930969999987,150.79930969999987,150.79930969999987,150.79930969999987,150.79930969999987,150.79930969999987,5,4,"[0.0012005000025965273, 0.25006580000626855, 0.31692159999511205, 0.35016709999763407]","[0.23337590001756325, 0.26687640001182444, 0.33350539999082685, 0.3676100000157021]",150.79930969999987,150.99939219999942,6.1,150.99939219999942,1,6.1,1,1,1000,num_4,0.6236474000033922,,20,14,2026-03-02_16h39.20.227,2026A_exp2,2022.2.4,59.99322076332222,
1000,1,0.0,4.9,1,0,36,36,51,,,,,151.65014099999098,152.30083409999497,152.30083409999497,152.78525549999904,45,315,152.78525549999904,152.78525549999904,152.78525549999904,152.78525549999904,152.78525549999904,152.78525549999904,152.78525549999904,152.78525549999904,152.78525549999904,153.15188550000312,153.15188550000312,153.15188550000312,153.15188550000312,153.15188550000312,153.15188550000312,153.15188550000312,153.15188550000312,153.15188550000312,23,0,,,153.15188550000312,153.35355510000954,1000,153.35355510000954,1000,1000,1000,1000,1,num_2,0.6861312999972142,,20,14,2026-03-02_16h39.20.227,2026A_exp2,2022.2.4,59.99322076332222,
1,0,6.1,3.7,1,0,37,37,45,,,,,154.069522100006,154.71981219999725,154.71981219999725,155.20436460000928,45,315,155.20436460000928,155.20436460000928,155.20436460000928,155.20436460000928,155.20436460000928,155.20436460000928,155.20436460000928,155.20436460000928,155.20436460000928,155.57069399999455,155.57069399999455,155.57069399999455,155.57069399999455,155.57069399999455,155.57069399999455,155.57069399999455,155.57069399999455,155.57069399999455,23,0,,,155.57069399999455,155.77102390001528,3.7,155.77102390001528,0,3.7,1,0,1000,num_1,0.6207842000003438,,20,14,2026-03-02_16h39.20.227,2026A_exp2,2022.2.4,59.99322076332222,
1,0,3.7,0.0,1,0,38,38,73,,,,,156.42147729999851,157.07225950001157,157.07225950001157,157.55670990000363,45,45,157.55670990000363,157.55670990000363,157.55670990000363,157.55670990000363,157.55670990000363,157.55670990000363,157.55670990000363,157.55670990000363,157.55670990000363,157.9229626999877,157.9229626999877,157.9229626999877,157.9229626999877,157.9229626999877,157.9229626999877,157.9229626999877,157.9229626999877,157.9229626999877,7,3,"[0.0012189999979455024, 0.1334793999849353, 0.3507728999829851]","[0.11694720000377856, 0.26701429998502135, 0.367169000004651]",157.9229626999877,158.1233130999899,0.0,158.1233130999899,0,0.0,0,1,1000,num_1,0.6598675000132062,,20,14,2026-03-02_16h39.20.227,2026A_exp2,2022.2.4,59.99322076332222,
1,0,0.0,0.0,1,0,39,39,77,,,,,158.8071586000151,159.45799299998907,159.45799299998907,159.9424491999962,45,315,159.9424491999962,159.9424491999962,159.9424491999962,159.9424491999962,159.9424491999962,159.9424491999962,159.9424491999962,159.9424491999962,159.9424491999962,160.30867399999988,160.30867399999988,160.30867399999988,160.30867399999988,160.30867399999988,160.30867399999988,160.30867399999988,160.30867399999988,160.30867399999988,9,7,"[0.033361899986630306, 0.13351879999390803, 0.18338679999578744, 0.23333719998481683, 0.28364399998099543, 0.31680850000702776, 0.36702979999245144]","[0.10010260000126436, 0.16651529999217018, 0.21665349998511374, 0.26660679999622516, 0.30016290000639856, 0.35019239998655394, 0.36703369999304414]",160.30867399999988,160.508905900002,0.0,160.508905900002,0,0.0,0,1,1000,num_1,0.6266968999989331,,20,14,2026-03-02_16h39.20.227,2026A_exp2,2022.2.4,59.99322076332222,
1,0,4.9,6.1,1,0,40,40,62,,,,,161.15949089999776,161.81030660000397,161.81030660000397,162.29476570000406,315,45,162.29476570000406,162.29476570000406,162.29476570000406,162.29476570000406,162.29476570000406,162.29476570000406,162.29476570000406,162.29476570000406,162.29476570000406,162.6610195999965,162.6610195999965,162.6610195999965,162.6610195999965,162.6610195999965,162.6610195999965,162.6610195999965,162.6610195999965,162.6610195999965,1,2,"[0.0012060000153724104, 0.283752600022126]","[0.26741700002457947, 0.36678650000249036]",162.6610195999965,162.86129560001427,6.1,162.86129560001427,1,6.1,1,1,1000,num_4,0.690314200008288,,20,14,2026-03-02_16h39.20.227,2026A_exp2,2022.2.4,59.99322076332222,
1,0,0.0,6.1,0,0,41,41,3,,,,,163.5785479999904,164.22938619999331,164.22938619999331,164.71373710001353,45,315,164.71373710001353,164.71373710001353,164.71373710001353,164.71373710001353,164.71373710001353,164.71373710001353,164.71373710001353,164.71373710001353,164.71373710001353,165.08024979999755,165.08024979999755,165.08024979999755,165.08024979999755,165.08024979999755,165.08024979999755,165.08024979999755,165.08024979999755,165.08024979999755,0,1,[0.0008641000022180378],[0.36773379999795],165.08024979999755,165.28049340000143,0.0,165.28049340000143,0,0.0,0,1,1000,num_1,1.3508631000004243,,20,14,2026-03-02_16h39.20.227,2026A_exp2,2022.2.4,59.99322076332222,
0,0,4.9,4.9,0,0,42,42,88,,,,,166.64833689999068,167.29913269999088,167.29913269999088,167.78347240001312,315,45,167.78347240001312,167.78347240001312,167.78347240001312,167.78347240001312,167.78347240001312,167.78347240001312,167.78347240001312,167.78347240001312,167.78347240001312,168.1499873000139,168.1499873000139,168.1499873000139,168.1499873000139,168.1499873000139,168.1499873000139,168.1499873000139,168.1499873000139,168.1499873000139,9,2,"[0.03341589999035932, 0.2669617999927141]","[0.2003201000043191, 0.35050329999648966]",168.1499873000139,168.3502470999956,4.9,168.3502470999956,1,4.9,1,1,1000,num_4,0.9851706000044942,,20,14,2026-03-02_16h39.20.227,2026A_exp2,2022.2.4,59.99322076332222,
1000,1,0.0,3.7,0,0,43,43,21,,,,,169.35120239999378,170.00168940000003,170.00168940000003,170.50281609999365,45,45,170.50281609999365,170.50281609999365,170.50281609999365,170.50281609999365,170.50281609999365,170.50281609999365,170.50281609999365,170.50281609999365,170.50281609999365,170.85255139999208,170.85255139999208,170.85255139999208,170.85255139999208,170.85255139999208,170.85255139999208,170.85255139999208,170.85255139999208,170.85255139999208,0,1,[0.0012038999993819743],[0.3503703000023961],170.85255139999208,171.0545400000119,1000,171.0545400000119,1000,1000,1000,1000,1,num_2,0.6495315000065602,,20,14,2026-03-02_16h39.20.227,2026A_exp2,2022.2.4,59.99322076332222,
1000,1,6.1,3.7,0,0,44,44,43,,,,,171.7201548999874,172.37093989999266,172.37093989999266,172.87202949999482,315,45,172.87202949999482,172.87202949999482,172.87202949999482,172.87202949999482,172.87202949999482,172.87202949999482,172.87202949999482,172.87202949999482,172.87202949999482,173.23845120001351,173.23845120001351,173.23845120001351,173.23845120001351,173.23845120001351,173.23845120001351,173.23845120001351,173.23845120001351,173.23845120001351,9,7,"[0.017586100002517924, 0.13383250002516434, 0.167222700023558, 0.2339753000123892, 0.26723920000949875, 0.3007305000210181, 0.35067960000014864]","[0.11715890001505613, 0.15033460000995547, 0.1838261000229977, 0.2506580000044778, 0.2839704000216443, 0.3339689999993425, 0.36727640000754036]",173.23845120001351,173.44078850001097,1000,173.44078850001097,1000,1000,1000,1000,0,num_3,0.49494740000227466,,20,14,2026-03-02_16h39.20.227,2026A_exp2,2022.2.4,59.99322076332222,
1000,1,0.0,6.1,1,0,45,45,40,,,,,173.9557247000048,174.60645960000693,174.60645960000693,175.10746930001187,315,45,175.10746930001187,175.10746930001187,175.10746930001187,175.10746930001187,175.10746930001187,175.10746930001187,175.10746930001187,175.10746930001187,175.10746930001187,175.4738204999885,175.4738204999885,175.4738204999885,175.4738204999885,175.4738204999885,175.4738204999885,175.4738204999885,175.4738204999885,175.4738204999885,23,0,,,175.4738204999885,175.6763215000101,1000,175.6763215000101,1000,1000,1000,1000,1,num_2,0.45975340000586584,,20,14,2026-03-02_16h39.20.227,2026A_exp2,2022.2.4,59.99322076332222,
1000,1,4.9,4.9,1,0,46,46,67,,,,,176.1579262999876,176.8085420000134,176.8085420000134,177.30972429999383,45,45,177.30972429999383,177.30972429999383,177.30972429999383,177.30972429999383,177.30972429999383,177.30972429999383,177.30972429999383,177.30972429999383,177.30972429999383,177.67623020001338,177.67623020001338,177.67623020001338,177.67623020001338,177.67623020001338,177.67623020001338,177.67623020001338,177.67623020001338,177.67623020001338,18,3,"[0.0012220999924466014, 0.11687979998532683, 0.36720430001150817]","[0.04993929999182001, 0.13358439999865368, 0.3672090999898501]",177.67623020001338,177.87796119999257,1000,177.87796119999257,1000,1000,1000,1000,1,num_2,0.4264780000085011,,20,14,2026-03-02_16h39.20.227,2026A_exp2,2022.2.4,59.99322076332222,
1000,1,0.0,0.0,1,0,47,47,80,,,,,178.32679550000466,178.9775151000067,178.9775151000067,179.47847070000716,45,45,179.47847070000716,179.47847070000716,179.47847070000716,179.47847070000716,179.47847070000716,179.47847070000716,179.47847070000716,179.47847070000716,179.47847070000716,179.84503160000895,179.84503160000895,179.84503160000895,179.84503160000895,179.84503160000895,179.84503160000895,179.84503160000895,179.84503160000895,179.84503160000895,0,1,[0.0014223000034689903],[0.36731329999747686],179.84503160000895,180.04733560001478,1000,180.04733560001478,1000,1000,1000,1000,0,num_3,0.6004897000093479,,20,14,2026-03-02_16h39.20.227,2026A_exp2,2022.2.4,59.99322076332222,
1,0,6.1,0.0,1,0,48,48,23,,,,,180.6793236999947,181.3298819999909,181.3298819999909,181.83089740001014,315,315,181.83089740001014,181.83089740001014,181.83089740001014,181.83089740001014,181.83089740001014,181.83089740001014,181.83089740001014,181.83089740001014,181.83089740001014,182.19722850000835,182.19722850000835,182.19722850000835,182.19722850000835,182.19722850000835,182.19722850000835,182.19722850000835,182.19722850000835,182.19722850000835,23,0,,,182.19722850000835,182.3976069999917,0.0,182.3976069999917,0,0.0,0,1,1000,num_1,0.5787396999949124,,20,14,2026-03-02_16h39.20.227,2026A_exp2,2022.2.4,59.99322076332222,
1,0,0.0,0.0,0,0,49,49,31,,,,,182.99800789999426,183.63650679998682,183.63650679998682,184.14171180000994,315,45,184.14171180000994,184.14171180000994,184.14171180000994,184.14171180000994,184.14171180000994,184.14171180000994,184.14171180000994,184.14171180000994,184.14171180000994,184.49976080001215,184.49976080001215,184.49976080001215,184.49976080001215,184.49976080001215,184.49976080001215,184.49976080001215,184.49976080001215,184.49976080001215,0,1,[0.0032216999970842153],[0.3655301000108011],184.49976080001215,184.69976170000155,0.0,184.69976170000155,0,0.0,0,1,1000,num_1,0.7158280000148807,,20,14,2026-03-02_16h39.20.227,2026A_exp2,2022.2.4,59.99322076332222,
1,0,0.0,6.1,1,0,50,50,17,,,,,185.4341209999984,186.06790980001097,186.06790980001097,186.56922760000452,45,45,186.56922760000452,186.56922760000452,186.56922760000452,186.56922760000452,186.56922760000452,186.56922760000452,186.56922760000452,186.56922760000452,186.56922760000452,186.93541589999222,186.93541589999222,186.93541589999222,186.93541589999222,186.93541589999222,186.93541589999222,186.93541589999222,186.93541589999222,186.93541589999222,23,0,,,186.93541589999222,187.13561779999873,6.1,187.13561779999873,1,6.1,1,1,1000,num_4,1.0635826000070665,,20,14,2026-03-02_16h39.20.227,2026A_exp2,2022.2.4,59.99322076332222,
1,0,4.9,4.9,1,0,51,51,32,,,,,188.2198907000129,188.8707538000017,188.8707538000017,189.3551732999913,315,45,189.3551732999913,189.3551732999913,189.3551732999913,189.3551732999913,189.3551732999913,189.3551732999913,189.3551732999913,189.3551732999913,189.3551732999913,189.72151050000684,189.72151050000684,189.72151050000684,189.72151050000684,189.72151050000684,189.72151050000684,189.72151050000684,189.72151050000684,189.72151050000684,0,1,[0.001264999998966232],[0.3671825999917928],189.72151050000684,189.92881420001504,4.9,189.92881420001504,0,4.9,1,0,1000,num_1,0.8227964000252541,,20,14,2026-03-02_16h39.20.227,2026A_exp2,2022.2.4,59.99322076332222,
0,0,3.7,0.0,1,0,52,52,0,,,,,190.77280500001507,191.42327759999898,191.42327759999898,191.90764210000634,315,315,191.90764210000634,191.90764210000634,191.90764210000634,191.90764210000634,191.90764210000634,191.90764210000634,191.90764210000634,191.90764210000634,191.90764210000634,192.27427019999595,192.27427019999595,192.27427019999595,192.27427019999595,192.27427019999595,192.27427019999595,192.27427019999595,192.27427019999595,192.27427019999595,0,1,[0.0012220999924466014],[0.3693165000004228],192.27427019999595,192.4825925999903,3.7,192.4825925999903,1,3.7,1,1,1000,num_4,1.085399800009327,,20,14,2026-03-02_16h39.20.227,2026A_exp2,2022.2.4,59.99322076332222,
1,0,0.0,0.0,1,0,53,53,68,,,,,193.59219910000684,194.22789509998984,194.22789509998984,194.72703280000133,45,45,194.72703280000133,194.72703280000133,194.72703280000133,194.72703280000133,194.72703280000133,194.72703280000133,194.72703280000133,194.72703280000133,194.72703280000133,195.09370399999898,195.09370399999898,195.09370399999898,195.09370399999898,195.09370399999898,195.09370399999898,195.09370399999898,195.09370399999898,195.09370399999898,20,1,[0.0012329000164754689],[0.05018230000860058],195.09370399999898,195.29386380000506,0.0,195.29386380000506,1,0.0,0,0,1000,num_4,0.785423900000751,,20,14,2026-03-02_16h39.20.227,2026A_exp2,2022.2.4,59.99322076332222,
1,0,0.0,4.9,1,0,54,54,44,,,,,196.11128199999803,196.7618150000053,196.7618150000053,197.24603469998692,45,315,197.24603469998692,197.24603469998692,197.24603469998692,197.24603469998692,197.24603469998692,197.24603469998692,197.24603469998692,197.24603469998692,197.24603469998692,197.61275570001453,197.61275570001453,197.61275570001453,197.61275570001453,197.61275570001453,197.61275570001453,197.61275570001453,197.61275570001453,197.61275570001453,19,3,"[0.04944799997610971, 0.08267119998345152, 0.3665110000001732]","[0.06592349999118596, 0.0995546999911312, 0.3665138999931514]",197.61275570001453,197.81293559999904,4.9,197.81293559999904,1,4.9,1,1,1000,num_4,0.6107150000170805,,20,14,2026-03-02_16h39.20.227,2026A_exp2,2022.2.4,59.99322076332222,
1,0,0.0,0.0,1,0,55,55,60,,,,,198.44686840000213,199.09766249998938,199.09766249998938,199.5820806999982,45,315,199.5820806999982,199.5820806999982,199.5820806999982,199.5820806999982,199.5820806999982,199.5820806999982,199.5820806999982,199.5820806999982,199.5820806999982,199.9485069999937,199.9485069999937,199.9485069999937,199.9485069999937,199.9485069999937,199.9485069999937,199.9485069999937,199.9485069999937,199.9485069999937,3,2,"[0.0012399000115692616, 0.06709880000562407]","[0.017524700000649318, 0.3673138000012841]",199.9485069999937,200.16158690000884,0.0,200.16158690000884,1,0.0,0,0,1000,num_4,0.7094401000067592,,20,14,2026-03-02_16h39.20.227,2026A_exp2,2022.2.4,59.99322076332222,
1,0,0.0,4.9,0,0,56,56,9,,,,,200.89941280000494,201.5334729999886,201.5334729999886,202.0378938000067,45,45,202.0378938000067,202.0378938000067,202.0378938000067,202.0378938000067,202.0378938000067,202.0378938000067,202.0378938000067,202.0378938000067,202.0378938000067,202.40082539999275,202.40082539999275,202.40082539999275,202.40082539999275,202.40082539999275,202.40082539999275,202.40082539999275,202.40082539999275,202.40082539999275,0,1,[0.0034047999943140894],[0.3641692000092007],202.40082539999275,202.60096929999418,0.0,202.60096929999418,0,0.0,0,1,1000,num_1,0.7262237999821082,,20,14,2026-03-02_16h39.20.227,2026A_exp2,2022.2.4,59.99322076332222,
1,0,6.1,0.0,1,0,57,57,41,,,,,203.35176449999562,204.00227490000543,204.00227490000543,204.4869089999993,315,315,204.4869089999993,204.4869089999993,204.4869089999993,204.4869089999993,204.4869089999993,204.4869089999993,204.4869089999993,204.4869089999993,204.4869089999993,204.85340829999768,204.85340829999768,204.85340829999768,204.85340829999768,204.85340829999768,204.85340829999768,204.85340829999768,204.85340829999768,204.85340829999768,0,1,[0.0012240999785717577],[0.36750429999665357],204.85340829999768,205.05355810001493,0.0,205.05355810001493,0,0.0,0,1,1000,num_1,0.7464614000055008,,20,14,2026-03-02_16h39.20.227,2026A_exp2,2022.2.4,59.99322076332222,
1,0,0.0,6.1,1,0,58,58,39,,,,,205.82099179999204,206.48220800000126,206.48220800000126,206.97280150000006,45,315,206.97280150000006,206.97280150000006,206.97280150000006,206.97280150000006,206.97280150000006,206.97280150000006,206.97280150000006,206.97280150000006,206.97280150000006,207.3225228000083,207.3225228000083,207.3225228000083,207.3225228000083,207.3225228000083,207.3225228000083,207.3225228000083,207.3225228000083,207.3225228000083,18,4,"[0.0012234000023454428, 0.033703000022796914, 0.11700680002104491, 0.3506219999981113]","[0.01758220000192523, 0.050240700016729534, 0.13363700002082624, 0.3506270000070799]",207.3225228000083,207.52254999999423,6.1,207.52254999999423,1,6.1,1,1,1000,num_4,0.7651443000067957,,20,14,2026-03-02_16h39.20.227,2026A_exp2,2022.2.4,59.99322076332222,
1,0,0.0,4.9,0,0,59,59,48,,,,,208.30915119999554,208.96423010001308,208.96423010001308,209.45849469999666,315,315,209.45849469999666,209.45849469999666,209.45849469999666,209.45849469999666,209.45849469999666,209.45849469999666,209.45849469999666,209.45849469999666,209.45849469999666,209.82501180001418,209.82501180001418,209.82501180001418,209.82501180001418,209.82501180001418,209.82501180001418,209.82501180001418,209.82501180001418,209.82501180001418,2,1,[0.0014004000113345683],[0.3501229000103194],209.82501180001418,210.02521660001366,0.0,210.02521660001366,0,0.0,0,1,1000,num_1,0.6460855999903288,,20,14,2026-03-02_16h39.20.227,2026A_exp2,2022.2.4,59.99322076332222,
0,0,0.0,0.0,0,0,60,60,10,,,,,210.69239089998882,211.34319260000484,211.34319260000484,211.8276509999996,45,315,211.8276509999996,211.8276509999996,211.8276509999996,211.8276509999996,211.8276509999996,211.8276509999996,211.8276509999996,211.8276509999996,211.8276509999996,212.19384900000296,212.19384900000296,212.19384900000296,212.19384900000296,212.19384900000296,212.19384900000296,212.19384900000296,212.19384900000296,212.19384900000296,0,1,[0.0012104999914299697],[0.36671939998632297],212.19384900000296,212.40842859999975,0.0,212.40842859999975,1,0.0,0,0,1000,num_4,1.9112465000071097,,20,14,2026-03-02_16h39.20.227,2026A_exp2,2022.2.4,59.99322076332222,
1,0,3.7,0.0,1,0,61,61,55,,,,,214.34714560001157,214.9984104000032,214.9984104000032,215.50344040000346,45,315,215.50344040000346,215.50344040000346,215.50344040000346,215.50344040000346,215.50344040000346,215.50344040000346,215.50344040000346,215.50344040000346,215.50344040000346,215.86454350000713,215.86454350000713,215.86454350000713,215.86454350000713,215.86454350000713,215.86454350000713,215.86454350000713,215.86454350000713,215.86454350000713,0,1,[0.0026295999996364117],[0.3668448999815155],215.86454350000713,216.06846010001027,0.0,216.06846010001027,0,0.0,0,1,1000,num_1,0.5154360000160523,,20,14,2026-03-02_16h39.20.227,2026A_exp2,2022.2.4,59.99322076332222,
1000,1,0.0,3.7,1,0,62,62,86,,,,,216.61519770001178,217.24909619998652,217.24909619998652,217.7514749999973,315,45,217.7514749999973,217.7514749999973,217.7514749999973,217.7514749999973,217.7514749999973,217.7514749999973,217.7514749999973,217.7514749999973,217.7514749999973,218.11654469999485,218.11654469999485,218.11654469999485,218.11654469999485,218.11654469999485,218.11654469999485,218.11654469999485,218.11654469999485,218.11654469999485,0,1,[0.0024932000087574124],[0.36581970000406727],218.11654469999485,218.3187862999912,1000,218.3187862999912,1000,1000,1000,1000,1,num_2,0.6170288999855984,,20,14,2026-03-02_16h39.20.227,2026A_exp2,2022.2.4,59.99322076332222,
1000,1,6.1,0.0,1,0,63,63,61,,,,,218.95492349998676,219.60150439999416,219.60150439999416,220.10246580000967,45,315,220.10246580000967,220.10246580000967,220.10246580000967,220.10246580000967,220.10246580000967,220.10246580000967,220.10246580000967,220.10246580000967,220.10246580000967,220.46887640000205,220.46887640000205,220.46887640000205,220.46887640000205,220.46887640000205,220.46887640000205,220.46887640000205,220.46887640000205,220.46887640000205,0,1,[0.0012236999755259603],[0.3672288999950979],220.46887640000205,220.67068609999842,1000,220.67068609999842,1000,1000,1000,1000,0,num_3,0.3523756000213325,,20,14,2026-03-02_16h39.20.227,2026A_exp2,2022.2.4,59.99322076332222,
1,0,6.1,3.7,0,0,64,64,79,,,,,221.05270729999756,221.703486399987,221.703486399987,222.20458510000026,45,315,222.20458510000026,222.20458510000026,222.20458510000026,222.20458510000026,222.20458510000026,222.20458510000026,222.20458510000026,222.20458510000026,222.20458510000026,222.5709802999918,222.5709802999918,222.5709802999918,222.5709802999918,222.5709802999918,222.5709802999918,222.5709802999918,222.5709802999918,222.5709802999918,1,2,"[0.0012003000010736287, 0.3506055999896489]","[0.33380970000871457, 0.3672082999837585]",222.5709802999918,222.77106480000657,6.1,222.77106480000657,1,6.1,1,1,1000,num_4,0.8520303000113927,,20,14,2026-03-02_16h39.20.227,2026A_exp2,2022.2.4,59.99322076332222,
1,0,3.7,6.1,0,0,65,65,74,,,,,223.63866629998665,224.28948330000276,224.28948330000276,224.77381539999624,45,45,224.77381539999624,224.77381539999624,224.77381539999624,224.77381539999624,224.77381539999624,224.77381539999624,224.77381539999624,224.77381539999624,224.77381539999624,225.14024010000867,225.14024010000867,225.14024010000867,225.14024010000867,225.14024010000867,225.14024010000867,225.14024010000867,225.14024010000867,225.14024010000867,0,1,[0.0011993999942205846],[0.3671778000134509],225.14024010000867,225.34038929999224,3.7,225.34038929999224,0,3.7,1,0,1000,num_1,0.715217599994503,,20,14,2026-03-02_16h39.20.227,2026A_exp2,2022.2.4,59.99322076332222,
1,0,3.7,4.9,0,0,66,66,70,,,,,226.07452729999204,226.72543329998734,226.72543329998734,227.20962979999604,45,45,227.20962979999604,227.20962979999604,227.20962979999604,227.20962979999604,227.20962979999604,227.20962979999604,227.20962979999604,227.20962979999604,227.20962979999604,227.57610860001296,227.57610860001296,227.57610860001296,227.57610860001296,227.57610860001296,227.57610860001296,227.57610860001296,227.57610860001296,227.57610860001296,0,1,[0.0012399999832268804],[0.36703510000370443],227.57610860001296,227.77619569998933,3.7,227.77619569998933,1,3.7,1,1,1000,num_4,1.087904600019101,,20,14,2026-03-02_16h39.20.227,2026A_exp2,2022.2.4,59.99322076332222,
1000,1,0.0,4.9,0,0,67,67,50,,,,,228.8939892000053,229.54480249999324,229.54480249999324,230.0292111999879,315,315,230.0292111999879,230.0292111999879,230.0292111999879,230.0292111999879,230.0292111999879,230.0292111999879,230.0292111999879,230.0292111999879,230.0292111999879,230.39562250001472,230.39562250001472,230.39562250001472,230.39562250001472,230.39562250001472,230.39562250001472,230.39562250001472,230.39562250001472,230.39562250001472,8,7,"[0.03347249998478219, 0.10024349999730475, 0.13363589998334646, 0.1671636999817565, 0.20031069999095052, 0.25041189999319613, 0.2839510999910999]","[0.08354659998440184, 0.11697669999557547, 0.15045980000286363, 0.18366059998515993, 0.23376770000322722, 0.2670788999821525, 0.3673735999909695]",230.39562250001472,230.59801310001058,1000,230.59801310001058,1000,1000,1000,1000,1,num_2,0.43331570000736974,,20,14,2026-03-02_16h39.20.227,2026A_exp2,2022.2.4,59.99322076332222,
1,0,0.0,0.0,1,0,68,68,24,,,,,231.06348609999986,231.7134967999882,231.7134967999882,232.2147196000151,45,315,232.2147196000151,232.2147196000151,232.2147196000151,232.2147196000151,232.2147196000151,232.2147196000151,232.2147196000151,232.2147196000151,232.2147196000151,232.58116949998657,232.58116949998657,232.58116949998657,232.58116949998657,232.58116949998657,232.58116949998657,232.58116949998657,232.58116949998657,232.58116949998657,0,1,[0.0012138000165577978],[0.3672299000027124],232.58116949998657,232.78125450000516,0.0,232.78125450000516,1,0.0,0,0,1000,num_4,0.722360200015828,,20,14,2026-03-02_16h39.20.227,2026A_exp2,2022.2.4,59.99322076332222,
1,0,6.1,0.0,0,0,69,69,58,,,,,233.53199779998977,234.1826815000095,234.1826815000095,234.66713879999588,315,45,234.66713879999588,234.66713879999588,234.66713879999588,234.66713879999588,234.66713879999588,234.66713879999588,234.66713879999588,234.66713879999588,234.66713879999588,235.03348139999434,235.03348139999434,235.03348139999434,235.03348139999434,235.03348139999434,235.03348139999434,235.03348139999434,235.03348139999434,235.03348139999434,0,1,[0.0012484999897424132],[0.3673076000122819],235.03348139999434,235.23357000001124,6.1,235.23357000001124,1,6.1,1,1,1000,num_4,0.6623462999996264,,20,14,2026-03-02_16h39.20.227,2026A_exp2,2022.2.4,59.99322076332222,
1000,1,4.9,3.7,1,0,70,70,46,,,,,235.9176135000016,236.56834040000103,236.56834040000103,237.05274250000366,315,45,237.05274250000366,237.05274250000366,237.05274250000366,237.05274250000366,237.05274250000366,237.05274250000366,237.05274250000366,237.05274250000366,237.05274250000366,237.41924550000113,237.41924550000113,237.41924550000113,237.41924550000113,237.41924550000113,237.41924550000113,237.41924550000113,237.41924550000113,237.41924550000113,0,1,[0.001226599997607991],[0.3673396999947727],237.41924550000113,237.62117880000733,1000,237.62117880000733,1000,1000,1000,1000,0,num_3,0.5628993999853265,,20,14,2026-03-02_16h39.20.227,2026A_exp2,2022.2.4,59.99322076332222,
0,0,0.0,6.1,0,0,71,71,30,,,,,238.20339260000037,238.85397840000223,238.85397840000223,239.33841649998794,315,45,239.33841649998794,239.33841649998794,239.33841649998794,239.33841649998794,239.33841649998794,239.33841649998794,239.33841649998794,239.33841649998794,239.33841649998794,239.70484349998878,239.70484349998878,239.70484349998878,239.70484349998878,239.70484349998878,239.70484349998878,239.70484349998878,239.70484349998878,239.70484349998878,0,1,[0.001199799997266382],[0.36679329999606125],239.70484349998878,239.90510730000096,6.1,239.90510730000096,1,6.1,1,1,1000,num_4,0.9659555999969598,,20,14,2026-03-02_16h39.20.227,2026A_exp2,2022.2.4,59.99322076332222,
1,0,0.0,0.0,0,0,72,72,75,,,,,240.8892477999907,241.5400767000101,241.5400767000101,242.02449370000977,45,315,242.02449370000977,242.02449370000977,242.02449370000977,242.02449370000977,242.02449370000977,242.02449370000977,242.02449370000977,242.02449370000977,242.02449370000977,242.3908126000024,242.3908126000024,242.3908126000024,242.3908126000024,242.3908126000024,242.3908126000024,242.3908126000024,242.3908126000024,242.3908126000024,0,1,[0.0011975000088568777],[0.36718000000109896],242.3908126000024,242.59114299999783,0.0,242.59114299999783,1,0.0,0,0,1000,num_4,0.7847604000126012,,20,14,2026-03-02_16h39.20.227,2026A_exp2,2022.2.4,59.99322076332222,
1000,1,0.0,6.1,0,0,73,73,85,,,,,243.39180539999506,244.04256010000245,244.04256010000245,244.5270223999978,315,45,244.5270223999978,244.5270223999978,244.5270223999978,244.5270223999978,244.5270223999978,244.5270223999978,244.5270223999978,244.5270223999978,244.5270223999978,244.89344029998756,244.89344029998756,244.89344029998756,244.89344029998756,244.89344029998756,244.89344029998756,244.89344029998756,244.89344029998756,244.89344029998756,1,2,"[0.0011946999875362962, 0.3504696000018157]","[0.3337790999794379, 0.3672274999844376]",244.89344029998756,245.09541270000045,1000,245.09541270000045,1000,1000,1000,1000,1,num_2,0.4569631000049412,,20,14,2026-03-02_16h39.20.227,2026A_exp2,2022.2.4,59.99322076332222,
1,0,3.7,0.0,0,0,74,74,15,,,,,245.5773535000044,246.22810700000264,246.22810700000264,246.7291988999932,45,315,246.7291988999932,246.7291988999932,246.7291988999932,246.7291988999932,246.7291988999932,246.7291988999932,246.7291988999932,246.7291988999932,246.7291988999932,247.09550950000994,247.09550950000994,247.09550950000994,247.09550950000994,247.09550950000994,247.09550950000994,247.09550950000994,247.09550950000994,247.09550950000994,0,1,[0.0011961999989580363],[0.3670603999926243],247.09550950000994,247.2958318000019,3.7,247.2958318000019,1,3.7,1,1,1000,num_4,0.8086343000177294,,20,14,2026-03-02_16h39.20.227,2026A_exp2,2022.2.4,59.99322076332222,
1,0,0.0,0.0,1,0,75,75,56,,,,,248.12983570000506,248.76397400000133,248.76397400000133,249.2651104000106,315,45,249.2651104000106,249.2651104000106,249.2651104000106,249.2651104000106,249.2651104000106,249.2651104000106,249.2651104000106,249.2651104000106,249.2651104000106,249.63156060001347,249.63156060001347,249.63156060001347,249.63156060001347,249.63156060001347,249.63156060001347,249.63156060001347,249.63156060001347,249.63156060001347,23,0,,,249.63156060001347,249.832018599991,0.0,249.832018599991,1,0.0,0,0,1000,num_4,0.6883373000018764,,20,14,2026-03-02_16h39.20.227,2026A_exp2,2022.2.4,59.99322076332222,
1000,1,3.7,0.0,0,0,76,76,28,,,,,250.5489690999966,251.1997149999952,251.1997149999952,251.68408899998758,315,315,251.68408899998758,251.68408899998758,251.68408899998758,251.68408899998758,251.68408899998758,251.68408899998758,251.68408899998758,251.68408899998758,251.68408899998758,252.0506175000046,252.0506175000046,252.0506175000046,252.0506175000046,252.0506175000046,252.0506175000046,252.0506175000046,252.0506175000046,252.0506175000046,0,1,[0.0012414999946486205],[0.368338300002506],252.0506175000046,252.26707840000745,1000,252.26707840000745,1000,1000,1000,1000,0,num_3,0.44512859999667853,,20,14,2026-03-02_16h39.20.227,2026A_exp2,2022.2.4,59.99322076332222,
1000,1,4.9,3.7,0,0,77,77,26,,,,,252.7344779999985,253.38509560000966,253.38509560000966,253.88635950000025,315,45,253.88635950000025,253.88635950000025,253.88635950000025,253.88635950000025,253.88635950000025,253.88635950000025,253.88635950000025,253.88635950000025,253.88635950000025,254.23608679999597,254.23608679999597,254.23608679999597,254.23608679999597,254.23608679999597,254.23608679999597,254.23608679999597,254.23608679999597,254.23608679999597,0,1,[0.0007033000001683831],[0.354581399995368],254.23608679999597,254.45139199998812,1000,254.45139199998812,1000,1000,1000,1000,0,num_3,0.5476231000211556,,20,14,2026-03-02_16h39.20.227,2026A_exp2,2022.2.4,59.99322076332222,
0,0,0.0,6.1,1,0,78,78,84,,,,,255.0200399000023,255.67077580001205,255.67077580001205,256.1718544999894,45,315,256.1718544999894,256.1718544999894,256.1718544999894,256.1718544999894,256.1718544999894,256.1718544999894,256.1718544999894,256.1718544999894,256.1718544999894,256.53839329999755,256.53839329999755,256.53839329999755,256.53839329999755,256.53839329999755,256.53839329999755,256.53839329999755,256.53839329999755,256.53839329999755,23,0,,,256.53839329999755,256.73862419999205,0.0,256.73862419999205,0,0.0,0,1,1000,num_1,0.781100799998967,,20,14,2026-03-02_16h39.20.227,2026A_exp2,2022.2.4,59.99322076332222,
1,0,0.0,0.0,1,0,79,79,66,,,,,257.5391060000111,258.1732539999939,258.1732539999939,258.6877499000111,315,315,258.6877499000111,258.6877499000111,258.6877499000111,258.6877499000111,258.6877499000111,258.6877499000111,258.6877499000111,258.6877499000111,258.6877499000111,259.04104159999406,259.04104159999406,259.04104159999406,259.04104159999406,259.04104159999406,259.04104159999406,259.04104159999406,259.04104159999406,259.04104159999406,17,1,[0.2823711000091862],[0.36587999999755993],259.04104159999406,259.24115170000005,0.0,259.24115170000005,1,0.0,0,0,1000,num_4,0.8221395000000484,,20,14,2026-03-02_16h39.20.227,2026A_exp2,2022.2.4,59.99322076332222,
1000,1,3.7,3.7,1,0,80,80,25,,,,,260.09157650001,260.744213900005,260.744213900005,261.2324823999952,315,315,261.2324823999952,261.2324823999952,261.2324823999952,261.2324823999952,261.2324823999952,261.2324823999952,261.2324823999952,261.2324823999952,261.2324823999952,261.59347479999997,261.59347479999997,261.59347479999997,261.59347479999997,261.59347479999997,261.59347479999997,261.59347479999997,261.59347479999997,261.59347479999997,0,1,[0.002747899998212233],[0.3659019000187982],261.59347479999997,261.7952246000059,1000,261.7952246000059,1000,1000,1000,1000,1,num_2,0.5090063000097871,,20,14,2026-03-02_16h39.20.227,2026A_exp2,2022.2.4,59.99322076332222,
1000,1,0.0,0.0,1,0,81,81,78,,,,,262.32747680001194,262.9780696000089,262.9780696000089,263.47915609998745,315,45,263.47915609998745,263.47915609998745,263.47915609998745,263.47915609998745,263.47915609998745,263.47915609998745,263.47915609998745,263.47915609998745,263.47915609998745,263.8456811000069,263.8456811000069,263.8456811000069,263.8456811000069,263.8456811000069,263.8456811000069,263.8456811000069,263.8456811000069,263.8456811000069,23,0,,,263.8456811000069,264.04797129999497,1000,264.04797129999497,1000,1000,1000,1000,1,num_2,0.6006220000272151,,20,14,2026-03-02_16h39.20.227,2026A_exp2,2022.2.4,59.99322076332222,
1000,1,6.1,0.0,1,0,82,82,71,,,,,264.6634505999973,265.31574560000445,265.31574560000445,265.81486069998937,315,45,265.81486069998937,265.81486069998937,265.81486069998937,265.81486069998937,265.81486069998937,265.81486069998937,265.81486069998937,265.81486069998937,265.81486069998937,266.18145549998735,266.18145549998735,266.18145549998735,266.18145549998735,266.18145549998735,266.18145549998735,266.18145549998735,266.18145549998735,266.18145549998735,23,0,,,266.18145549998735,266.38163620000705,1000,266.38163620000705,1000,1000,1000,1000,0,num_3,0.521479500021087,,20,14,2026-03-02_16h39.20.227,2026A_exp2,2022.2.4,59.99322076332222,
1000,1,4.9,0.0,0,0,83,83,82,,,,,266.9321415000013,267.58713190001436,267.58713190001436,268.07296540000243,315,315,268.07296540000243,268.07296540000243,268.07296540000243,268.07296540000243,268.07296540000243,268.07296540000243,268.07296540000243,268.07296540000243,268.07296540000243,268.4336794000119,268.4336794000119,268.4336794000119,268.4336794000119,268.4336794000119,268.4336794000119,268.4336794000119,268.4336794000119,268.4336794000119,0,1,[0.002869200019631535],[0.3652719000237994],268.4336794000119,268.63568919998943,1000,268.63568919998943,1000,1000,1000,1000,0,num_3,0.39604369999142364,,20,14,2026-03-02_16h39.20.227,2026A_exp2,2022.2.4,59.99322076332222,
1,0,6.1,0.0,0,0,84,84,22,,,,,269.0509579000063,269.70172589999856,269.70172589999856,270.2027517000097,315,315,270.2027517000097,270.2027517000097,270.2027517000097,270.2027517000097,270.2027517000097,270.2027517000097,270.2027517000097,270.2027517000097,270.2027517000097,270.55263719998766,270.55263719998766,270.55263719998766,270.55263719998766,270.55263719998766,270.55263719998766,270.55263719998766,270.55263719998766,270.55263719998766,22,0,,,270.55263719998766,270.7524577000004,6.1,270.7692504999868,1,6.1,1,1,1000,num_4,0.7348150000034366,,20,14,2026-03-02_16h39.20.227,2026A_exp2,2022.2.4,59.99322076332222,
1000,1,4.9,4.9,0,0,85,85,36,,,,,271.5200574999908,272.1706794000056,272.1706794000056,272.65521520000766,45,315,272.65521520000766,272.65521520000766,272.65521520000766,272.65521520000766,272.65521520000766,272.65521520000766,272.65521520000766,272.65521520000766,272.65521520000766,273.02151250001043,273.02151250001043,273.02151250001043,273.02151250001043,273.02151250001043,273.02151250001043,273.02151250001043,273.02151250001043,273.02151250001043,0,1,[0.0007249999907799065],[0.3675816000031773],273.02151250001043,273.2235809999984,1000,273.2235809999984,1000,1000,1000,1000,1,num_2,0.5208171999838669,,20,14,2026-03-02_16h39.20.227,2026A_exp2,2022.2.4,59.99322076332222,
1,0,0.0,0.0,0,0,86,86,64,,,,,273.7723735999898,274.42296749999514,274.42296749999514,274.9406725000008,315,315,274.9406725000008,274.9406725000008,274.9406725000008,274.9406725000008,274.9406725000008,274.9406725000008,274.9406725000008,274.9406725000008,274.9406725000008,275.27380190000986,275.27380190000986,275.27380190000986,275.27380190000986,275.27380190000986,275.27380190000986,275.27380190000986,275.27380190000986,275.27380190000986,22,0,,,275.27380190000986,275.4740163999959,0.0,275.4740163999959,0,0.0,0,1,1000,num_1,0.7104962000157684,,20,14,2026-03-02_16h39.20.227,2026A_exp2,2022.2.4,59.99322076332222,
0,0,3.7,0.0,0,0,87,87,16,,,,,276.2080912000092,276.85869520000415,276.85869520000415,277.34318610001355,45,45,277.34318610001355,277.34318610001355,277.34318610001355,277.34318610001355,277.34318610001355,277.34318610001355,277.34318610001355,277.34318610001355,277.34318610001355,277.7094503999979,277.7094503999979,277.7094503999979,277.7094503999979,277.7094503999979,277.7094503999979,277.7094503999979,277.7094503999979,277.7094503999979,23,0,,,277.7094503999979,277.90981000001193,0.0,277.90981000001193,1,0.0,0,0,1000,num_4,1.1693123999866657,,20,14,2026-03-02_16h39.20.227,2026A_exp2,2022.2.4,59.99322076332222,
1,0,3.7,3.7,0,0,88,88,69,,,,,279.1110355000128,279.7616072999954,279.7616072999954,280.2461540999939,45,315,280.2461540999939,280.2461540999939,280.2461540999939,280.2461540999939,280.2461540999939,280.2461540999939,280.2461540999939,280.2461540999939,280.2461540999939,280.612500999996,280.612500999996,280.612500999996,280.612500999996,280.612500999996,280.612500999996,280.612500999996,280.612500999996,280.612500999996,23,0,,,280.612500999996,280.81265979999444,3.7,280.81265979999444,0,3.7,1,0,1000,num_1,1.475399799994193,,20,14,2026-03-02_16h39.20.227,2026A_exp2,2022.2.4,59.99322076332222,
1000,1,3.7,3.7,0,0,89,89,76,,,,,282.3141748000053,282.9647152000107,282.9647152000107,283.45404489999055,45,315,283.45404489999055,283.45404489999055,283.45404489999055,283.45404489999055,283.45404489999055,283.45404489999055,283.45404489999055,283.45404489999055,283.45404489999055,283.8158153000113,283.8158153000113,283.8158153000113,283.8158153000113,283.8158153000113,283.8158153000113,283.8158153000113,283.8158153000113,283.8158153000113,0,1,[0.002466999983880669],[0.3671592999889981],283.8158153000113,284.03118339998764,1000,284.03118339998764,1000,1000,1000,1000,1,num_2,0.40047120000235736,,20,14,2026-03-02_16h39.20.227,2026A_exp2,2022.2.4,59.99322076332222,
,,,,,,,,,,,,,,,,,,,,,,,,,,,,,,,,,,,,,,,,,,,,,,,,,,,,284.456319799996,,,,,,,
