validity,detectorcomp,contrastCW,contrastCCW,precueCWorCCW,block_80trials.thisRepN,block_80trials.thisTrialN,block_80trials.thisN,block_80trials.thisIndex,etRecord.started,etRecord.stopped,text.started,text.stopped,text_4.started,text_4.stopped,text_6.started,text_6.stopped,oriCW,oriCCW,roi_2.started,grating_UR.started,grating_UL.started,grating_LR.started,grating_LL.started,noise_UR.started,noise_UL.started,noise_LR.started,noise_LL.started,roi_2.stopped,grating_UR.stopped,grating_UL.stopped,grating_LR.stopped,grating_LL.stopped,noise_UR.stopped,noise_UL.stopped,noise_LR.stopped,noise_LL.stopped,outframe,roi_2.numLooks,roi_2.timesOn,roi_2.timesOff,text_2.started,text_2.stopped,probedcontrast,key_resp.started,respdetect,relevantContrast,correctDetect,TorFdetect,respCWorCCW,key_resp.keys,key_resp.rt,feedback_display_.started,participantNo,blockNo,date,expName,psychopyVersion,frameRate,
1000,1,6.1,4.9,0,0,0,0,68,0.00016579998191446066,0.00016579998191446066,44.3776332999696,46.38172150001628,46.38172150001628,47.014799700002186,47.014799700002186,47.535195800010115,315,45,47.535195800010115,47.535195800010115,47.535195800010115,47.535195800010115,47.535195800010115,47.535195800010115,47.535195800010115,47.535195800010115,47.535195800010115,47.88234489999013,47.88234489999013,47.88234489999013,47.88234489999013,47.88234489999013,47.88234489999013,47.88234489999013,47.88234489999013,47.88234489999013,23,0,,,47.88234489999013,48.08921259996714,1000,48.08921259996714,1000,1000,1000,1000,1,num_2,1.2632850999943912,,28,1,2026-03-05_15h20.04.121,2026A_exp2,2022.2.4,59.93220468315844,
1000,1,3.7,0.0,1,0,1,1,54,,,,,49.38393889996223,50.03436930000316,50.03436930000316,50.535426099959295,315,45,50.535426099959295,50.535426099959295,50.535426099959295,50.535426099959295,50.535426099959295,50.535426099959295,50.535426099959295,50.535426099959295,50.535426099959295,50.9020382000017,50.9020382000017,50.9020382000017,50.9020382000017,50.9020382000017,50.9020382000017,50.9020382000017,50.9020382000017,50.9020382000017,23,0,,,50.9020382000017,51.10384900000645,1000,51.10384900000645,1000,1000,1000,1000,0,num_3,0.5603609000099823,,28,1,2026-03-05_15h20.04.121,2026A_exp2,2022.2.4,59.93220468315844,
0,0,0.0,3.7,0,0,2,2,47,,,,,51.68617569998605,52.3368657999672,52.3368657999672,52.837960899982136,315,315,52.837960899982136,52.837960899982136,52.837960899982136,52.837960899982136,52.837960899982136,52.837960899982136,52.837960899982136,52.837960899982136,52.837960899982136,53.20432309998432,53.20432309998432,53.20432309998432,53.20432309998432,53.20432309998432,53.20432309998432,53.20432309998432,53.20432309998432,53.20432309998432,23,0,,,53.20432309998432,53.40474039997207,3.7,53.40474039997207,1,3.7,1,1,1000,num_4,1.63651319994824,,28,1,2026-03-05_15h20.04.121,2026A_exp2,2022.2.4,59.93220468315844,
1,0,0.0,0.0,1,0,3,3,24,,,,,55.07277420000173,55.723505300004035,55.723505300004035,56.2079015999916,315,45,56.2079015999916,56.2079015999916,56.2079015999916,56.2079015999916,56.2079015999916,56.2079015999916,56.2079015999916,56.2079015999916,56.2079015999916,56.57439899997553,56.57439899997553,56.57439899997553,56.57439899997553,56.57439899997553,56.57439899997553,56.57439899997553,56.57439899997553,56.57439899997553,23,0,,,56.57439899997553,56.774541099963244,0.0,56.774541099963244,1,0.0,0,0,1000,num_4,2.2827377000357956,,28,1,2026-03-05_15h20.04.121,2026A_exp2,2022.2.4,59.93220468315844,
1000,1,0.0,6.1,1,0,4,4,19,,,,,59.076762499986216,59.72754429996712,59.72754429996712,60.22866600000998,45,315,60.22866600000998,60.22866600000998,60.22866600000998,60.22866600000998,60.22866600000998,60.22866600000998,60.22866600000998,60.22866600000998,60.22866600000998,60.5784171000123,60.5784171000123,60.5784171000123,60.5784171000123,60.5784171000123,60.5784171000123,60.5784171000123,60.5784171000123,60.5784171000123,17,2,"[0.2337969000218436, 0.26723240001592785]","[0.2503411000361666, 0.3337734999950044]",60.5784171000123,60.78000610001618,1000,60.78000610001618,1000,1000,1000,1000,0,num_3,0.9091377999866381,,28,1,2026-03-05_15h20.04.121,2026A_exp2,2022.2.4,59.93220468315844,
1000,1,0.0,3.7,0,0,5,5,57,,,,,61.71275740000419,62.36348679999355,62.36348679999355,62.86446379998233,315,315,62.86446379998233,62.86446379998233,62.86446379998233,62.86446379998233,62.86446379998233,62.86446379998233,62.86446379998233,62.86446379998233,62.86446379998233,63.23114970000461,63.23114970000461,63.23114970000461,63.23114970000461,63.23114970000461,63.23114970000461,63.23114970000461,63.23114970000461,63.23114970000461,23,0,,,63.23114970000461,63.43310709996149,1000,63.43310709996149,1000,1000,1000,1000,1,num_2,0.7118473000009544,,28,1,2026-03-05_15h20.04.121,2026A_exp2,2022.2.4,59.93220468315844,
1000,1,3.7,6.1,1,0,6,6,29,,,,,64.16517110000132,64.8159389999928,64.8159389999928,65.3170347000123,45,315,65.3170347000123,65.3170347000123,65.3170347000123,65.3170347000123,65.3170347000123,65.3170347000123,65.3170347000123,65.3170347000123,65.3170347000123,65.683446799987,65.683446799987,65.683446799987,65.683446799987,65.683446799987,65.683446799987,65.683446799987,65.683446799987,65.683446799987,16,5,"[0.0012482000165618956, 0.03348120005102828, 0.06686429999535903, 0.10017109999898821, 0.16691520001040772]","[0.01726819999748841, 0.049900000041816384, 0.08337609999580309, 0.11674870003480464, 0.2169506000354886]",65.683446799987,65.88596779998625,1000,65.88596779998625,1000,1000,1000,1000,1,num_2,0.8661508000222966,,28,1,2026-03-05_15h20.04.121,2026A_exp2,2022.2.4,59.93220468315844,
1000,1,0.0,4.9,1,0,7,7,79,,,,,66.76775469997665,67.41855999996187,67.41855999996187,67.91948390001198,45,315,67.91948390001198,67.91948390001198,67.91948390001198,67.91948390001198,67.91948390001198,67.91948390001198,67.91948390001198,67.91948390001198,67.91948390001198,68.28612949996023,68.28612949996023,68.28612949996023,68.28612949996023,68.28612949996023,68.28612949996023,68.28612949996023,68.28612949996023,68.28612949996023,19,1,[0.0012163000064902008],[0.06667550001293421],68.28612949996023,68.48731789999874,1000,68.48731789999874,1000,1000,1000,1000,1,num_2,1.16890260000946,,28,1,2026-03-05_15h20.04.121,2026A_exp2,2022.2.4,59.93220468315844,
1000,1,3.7,0.0,0,0,8,8,66,,,,,69.68753469997318,70.33811760001117,70.33811760001117,70.83908890001476,315,315,70.83908890001476,70.83908890001476,70.83908890001476,70.83908890001476,70.83908890001476,70.83908890001476,70.83908890001476,70.83908890001476,70.83908890001476,71.20531399996253,71.20531399996253,71.20531399996253,71.20531399996253,71.20531399996253,71.20531399996253,71.20531399996253,71.20531399996253,71.20531399996253,23,0,,,71.20531399996253,71.40572079998674,1000,71.40572079998674,1000,1000,1000,1000,1,num_2,0.42684129998087883,,28,1,2026-03-05_15h20.04.121,2026A_exp2,2022.2.4,59.93220468315844,
1,0,0.0,0.0,1,0,9,9,21,,,,,71.85614059999352,72.49012629996287,72.49012629996287,72.99143449997064,45,315,72.99143449997064,72.99143449997064,72.99143449997064,72.99143449997064,72.99143449997064,72.99143449997064,72.99143449997064,72.99143449997064,72.99143449997064,73.35739499999909,73.35739499999909,73.35739499999909,73.35739499999909,73.35739499999909,73.35739499999909,73.35739499999909,73.35739499999909,73.35739499999909,23,0,,,73.35739499999909,73.5575502999709,0.0,73.5575502999709,0,0.0,0,1,1000,num_1,1.1950847000116482,,28,1,2026-03-05_15h20.04.121,2026A_exp2,2022.2.4,59.93220468315844,
1000,1,0.0,0.0,1,0,10,10,23,,,,,74.77553290000651,75.40955759998178,75.40955759998178,75.91105649998644,315,315,75.91105649998644,75.91105649998644,75.91105649998644,75.91105649998644,75.91105649998644,75.91105649998644,75.91105649998644,75.91105649998644,75.91105649998644,76.27704720001202,76.27704720001202,76.27704720001202,76.27704720001202,76.27704720001202,76.27704720001202,76.27704720001202,76.27704720001202,76.27704720001202,23,0,,,76.27704720001202,76.47774349997053,1000,76.47774349997053,1000,1000,1000,1000,0,num_3,0.5795107999583706,,28,1,2026-03-05_15h20.04.121,2026A_exp2,2022.2.4,59.93220468315844,
1000,1,0.0,0.0,0,0,11,11,67,,,,,77.077822799969,77.72872919996735,77.72872919996735,78.22989879996749,315,315,78.22989879996749,78.22989879996749,78.22989879996749,78.22989879996749,78.22989879996749,78.22989879996749,78.22989879996749,78.22989879996749,78.22989879996749,78.59634960000403,78.59634960000403,78.59634960000403,78.59634960000403,78.59634960000403,78.59634960000403,78.59634960000403,78.59634960000403,78.59634960000403,23,0,,,78.59634960000403,78.79849059996195,1000,78.79849059996195,1000,1000,1000,1000,0,num_3,0.9549948000349104,,28,1,2026-03-05_15h20.04.121,2026A_exp2,2022.2.4,59.93220468315844,
1000,1,0.0,6.1,1,0,12,12,3,,,,,79.78089509997517,80.43153699999675,80.43153699999675,80.91628900001524,45,315,80.91628900001524,80.91628900001524,80.91628900001524,80.91628900001524,80.91628900001524,80.91628900001524,80.91628900001524,80.91628900001524,80.91628900001524,81.28246449999278,81.28246449999278,81.28246449999278,81.28246449999278,81.28246449999278,81.28246449999278,81.28246449999278,81.28246449999278,81.28246449999278,23,0,,,81.28246449999278,81.48460480000358,1000,81.48460480000358,1000,1000,1000,1000,1,num_2,0.6278000000165775,,28,1,2026-03-05_15h20.04.121,2026A_exp2,2022.2.4,59.93220468315844,
1,0,3.7,0.0,1,0,13,13,13,,,,,82.1331363999634,82.78395969996927,82.78395969996927,83.28510779998032,315,45,83.28510779998032,83.28510779998032,83.28510779998032,83.28510779998032,83.28510779998032,83.28510779998032,83.28510779998032,83.28510779998032,83.28510779998032,83.65148589998716,83.65148589998716,83.65148589998716,83.65148589998716,83.65148589998716,83.65148589998716,83.65148589998716,83.65148589998716,83.65148589998716,23,0,,,83.65148589998716,83.8517154000001,0.0,83.8517154000001,0,0.0,0,1,1000,num_1,1.6934027000097558,,28,1,2026-03-05_15h20.04.121,2026A_exp2,2022.2.4,59.93220468315844,
1,0,3.7,0.0,1,0,14,14,11,,,,,85.56990709999809,86.22044509998523,86.22044509998523,86.7052084999741,315,315,86.7052084999741,86.7052084999741,86.7052084999741,86.7052084999741,86.7052084999741,86.7052084999741,86.7052084999741,86.7052084999741,86.7052084999741,87.07158340001479,87.07158340001479,87.07158340001479,87.07158340001479,87.07158340001479,87.07158340001479,87.07158340001479,87.07158340001479,87.07158340001479,23,0,,,87.07158340001479,87.27168120001443,0.0,87.27168120001443,0,0.0,0,1,1000,num_1,1.2487382999970578,,28,1,2026-03-05_15h20.04.121,2026A_exp2,2022.2.4,59.93220468315844,
1000,1,0.0,0.0,0,0,15,15,87,,,,,88.53964019997511,89.17365569999674,89.17365569999674,89.67478719999781,45,45,89.67478719999781,89.67478719999781,89.67478719999781,89.67478719999781,89.67478719999781,89.67478719999781,89.67478719999781,89.67478719999781,89.67478719999781,90.04103089997079,90.04103089997079,90.04103089997079,90.04103089997079,90.04103089997079,90.04103089997079,90.04103089997079,90.04103089997079,90.04103089997079,23,0,,,90.04103089997079,90.24306730000535,1000,90.24306730000535,1000,1000,1000,1000,0,num_3,0.8050339000183158,,28,1,2026-03-05_15h20.04.121,2026A_exp2,2022.2.4,59.93220468315844,
1000,1,0.0,4.9,1,0,16,16,78,,,,,91.07563609996578,91.70938289997866,91.70938289997866,92.21063980000326,315,315,92.21063980000326,92.21063980000326,92.21063980000326,92.21063980000326,92.21063980000326,92.21063980000326,92.21063980000326,92.21063980000326,92.21063980000326,92.57707010000013,92.57707010000013,92.57707010000013,92.57707010000013,92.57707010000013,92.57707010000013,92.57707010000013,92.57707010000013,92.57707010000013,23,0,,,92.57707010000013,92.77930090000154,1000,92.77930090000154,1000,1000,1000,1000,1,num_2,0.588902399991639,,28,1,2026-03-05_15h20.04.121,2026A_exp2,2022.2.4,59.93220468315844,
0,0,0.0,3.7,0,0,17,17,83,,,,,93.39436129998649,94.04522369999904,94.04522369999904,94.54631800000789,315,315,94.54631800000789,94.54631800000789,94.54631800000789,94.54631800000789,94.54631800000789,94.54631800000789,94.54631800000789,94.54631800000789,94.54631800000789,94.91264870000305,94.91264870000305,94.91264870000305,94.91264870000305,94.91264870000305,94.91264870000305,94.91264870000305,94.91264870000305,94.91264870000305,23,0,,,94.91264870000305,95.1129682000028,3.7,95.1129682000028,0,3.7,1,0,1000,num_1,1.112153300025966,,28,1,2026-03-05_15h20.04.121,2026A_exp2,2022.2.4,59.93220468315844,
0,0,0.0,0.0,1,0,18,18,38,,,,,96.24715929996455,96.89799269998912,96.89799269998912,97.38234640000155,45,315,97.38234640000155,97.38234640000155,97.38234640000155,97.38234640000155,97.38234640000155,97.38234640000155,97.38234640000155,97.38234640000155,97.38234640000155,97.7489171999623,97.7489171999623,97.7489171999623,97.7489171999623,97.7489171999623,97.7489171999623,97.7489171999623,97.7489171999623,97.7489171999623,23,0,,,97.7489171999623,97.94894329999806,0.0,97.94894329999806,0,0.0,0,1,1000,num_1,1.3801637000287883,,28,1,2026-03-05_15h20.04.121,2026A_exp2,2022.2.4,59.93220468315844,
0,0,4.9,4.9,1,0,19,19,48,,,,,99.35048009996535,100.00127209996572,100.00127209996572,100.48549809999531,315,45,100.48549809999531,100.48549809999531,100.48549809999531,100.48549809999531,100.48549809999531,100.48549809999531,100.48549809999531,100.48549809999531,100.48549809999531,100.85194219998084,100.85194219998084,100.85194219998084,100.85194219998084,100.85194219998084,100.85194219998084,100.85194219998084,100.85194219998084,100.85194219998084,23,0,,,100.85194219998084,101.05225909996079,4.9,101.05225909996079,1,4.9,1,1,1000,num_4,0.9408074999810196,,28,1,2026-03-05_15h20.04.121,2026A_exp2,2022.2.4,59.93220468315844,
1,0,4.9,4.9,0,0,20,20,84,,,,,102.0197768000071,102.67057909996947,102.67057909996947,103.15490460000001,45,315,103.15490460000001,103.15490460000001,103.15490460000001,103.15490460000001,103.15490460000001,103.15490460000001,103.15490460000001,103.15490460000001,103.15490460000001,103.52139409998199,103.52139409998199,103.52139409998199,103.52139409998199,103.52139409998199,103.52139409998199,103.52139409998199,103.52139409998199,103.52139409998199,23,0,,,103.52139409998199,103.72136399999727,4.9,103.72136399999727,1,4.9,1,1,1000,num_4,0.6467820000252686,,28,1,2026-03-05_15h20.04.121,2026A_exp2,2022.2.4,59.93220468315844,
1000,1,0.0,0.0,1,0,21,21,60,,,,,104.38867780001601,105.03946699999506,105.03946699999506,105.52939779998269,45,45,105.52939779998269,105.52939779998269,105.52939779998269,105.52939779998269,105.52939779998269,105.52939779998269,105.52939779998269,105.52939779998269,105.52939779998269,105.8903623999795,105.8903623999795,105.8903623999795,105.8903623999795,105.8903623999795,105.8903623999795,105.8903623999795,105.8903623999795,105.8903623999795,23,0,,,105.8903623999795,106.09487309999531,1000,106.09487309999531,1000,1000,1000,1000,0,num_3,0.6573254999821074,,28,1,2026-03-05_15h20.04.121,2026A_exp2,2022.2.4,59.93220468315844,
1000,1,0.0,4.9,0,0,22,22,5,,,,,106.77450020000106,107.42506679997314,107.42506679997314,107.9263418999617,315,315,107.9263418999617,107.9263418999617,107.9263418999617,107.9263418999617,107.9263418999617,107.9263418999617,107.9263418999617,107.9263418999617,107.9263418999617,108.2760302000097,108.2760302000097,108.2760302000097,108.2760302000097,108.2760302000097,108.2760302000097,108.2760302000097,108.2760302000097,108.2760302000097,22,0,,,108.2760302000097,108.4782005000161,1000,108.4782005000161,1000,1000,1000,1000,0,num_3,0.6982521000318229,,28,1,2026-03-05_15h20.04.121,2026A_exp2,2022.2.4,59.93220468315844,
1000,1,0.0,6.1,0,0,23,23,2,,,,,109.19380559999263,109.84420170000521,109.84420170000521,110.34543729998404,45,315,110.34543729998404,110.34543729998404,110.34543729998404,110.34543729998404,110.34543729998404,110.34543729998404,110.34543729998404,110.34543729998404,110.34543729998404,110.71183539996855,110.71183539996855,110.71183539996855,110.71183539996855,110.71183539996855,110.71183539996855,110.71183539996855,110.71183539996855,110.71183539996855,23,0,,,110.71183539996855,110.91389299998991,1000,110.91389299998991,1000,1000,1000,1000,0,num_3,0.6630611000000499,,28,1,2026-03-05_15h20.04.121,2026A_exp2,2022.2.4,59.93220468315844,
1,0,0.0,0.0,0,0,24,24,17,,,,,111.59596279996913,112.24668009998277,112.24668009998277,112.74788320000516,45,45,112.74788320000516,112.74788320000516,112.74788320000516,112.74788320000516,112.74788320000516,112.74788320000516,112.74788320000516,112.74788320000516,112.74788320000516,113.1142431999906,113.1142431999906,113.1142431999906,113.1142431999906,113.1142431999906,113.1142431999906,113.1142431999906,113.1142431999906,113.1142431999906,23,0,,,113.1142431999906,113.31442070001503,0.0,113.31442070001503,0,0.0,0,1,1000,num_1,0.8380020000040531,,28,1,2026-03-05_15h20.04.121,2026A_exp2,2022.2.4,59.93220468315844,
1,0,0.0,6.1,0,0,25,25,82,,,,,114.18186060001608,114.83260729996255,114.83260729996255,115.31722109997645,45,315,115.31722109997645,115.31722109997645,115.31722109997645,115.31722109997645,115.31722109997645,115.31722109997645,115.31722109997645,115.31722109997645,115.31722109997645,115.68369299999904,115.68369299999904,115.68369299999904,115.68369299999904,115.68369299999904,115.68369299999904,115.68369299999904,115.68369299999904,115.68369299999904,23,0,,,115.68369299999904,115.88353819999611,0.0,115.88353819999611,1,0.0,0,0,1000,num_4,0.9648997000185773,,28,1,2026-03-05_15h20.04.121,2026A_exp2,2022.2.4,59.93220468315844,
0,0,3.7,6.1,0,0,26,26,73,,,,,116.86801450001076,117.51836970000295,117.51836970000295,118.00312939996365,315,315,118.00312939996365,118.00312939996365,118.00312939996365,118.00312939996365,118.00312939996365,118.00312939996365,118.00312939996365,118.00312939996365,118.00312939996365,118.36952369997744,118.36952369997744,118.36952369997744,118.36952369997744,118.36952369997744,118.36952369997744,118.36952369997744,118.36952369997744,118.36952369997744,23,0,,,118.36952369997744,118.56957599997986,6.1,118.56957599997986,0,6.1,1,0,1000,num_1,0.8705939999781549,,28,1,2026-03-05_15h20.04.121,2026A_exp2,2022.2.4,59.93220468315844,
1000,1,0.0,3.7,1,0,27,27,65,,,,,119.4704483000096,120.1211253000074,120.1211253000074,120.60552659997484,315,45,120.60552659997484,120.60552659997484,120.60552659997484,120.60552659997484,120.60552659997484,120.60552659997484,120.60552659997484,120.60552659997484,120.60552659997484,120.97202370001469,120.97202370001469,120.97202370001469,120.97202370001469,120.97202370001469,120.97202370001469,120.97202370001469,120.97202370001469,120.97202370001469,23,0,,,120.97202370001469,121.17393829999492,1000,121.17393829999492,1000,1000,1000,1000,0,num_3,0.634281300008297,,28,1,2026-03-05_15h20.04.121,2026A_exp2,2022.2.4,59.93220468315844,
1,0,3.7,0.0,1,0,28,28,28,,,,,121.8394254000159,122.49032949999673,122.49032949999673,122.99142549996031,315,315,122.99142549996031,122.99142549996031,122.99142549996031,122.99142549996031,122.99142549996031,122.99142549996031,122.99142549996031,122.99142549996031,122.99142549996031,123.34102859999985,123.34102859999985,123.34102859999985,123.34102859999985,123.34102859999985,123.34102859999985,123.34102859999985,123.34102859999985,123.34102859999985,22,0,,,123.34102859999985,123.5413649000111,0.0,123.5413649000111,1,0.0,0,0,1000,num_4,1.5239281000103801,,28,1,2026-03-05_15h20.04.121,2026A_exp2,2022.2.4,59.93220468315844,
1,0,0.0,0.0,0,0,29,29,44,,,,,125.09282680001343,125.74341950000962,125.74341950000962,126.228009799961,45,45,126.228009799961,126.228009799961,126.228009799961,126.228009799961,126.228009799961,126.228009799961,126.228009799961,126.228009799961,126.228009799961,126.59435209998628,126.59435209998628,126.59435209998628,126.59435209998628,126.59435209998628,126.59435209998628,126.59435209998628,126.59435209998628,126.59435209998628,23,0,,,126.59435209998628,126.79440489999251,0.0,126.79440489999251,1,0.0,0,0,1000,num_4,1.4229314999538474,,28,1,2026-03-05_15h20.04.121,2026A_exp2,2022.2.4,59.93220468315844,
1000,1,3.7,4.9,1,0,30,30,20,,,,,128.24584290001076,128.89672429999337,128.89672429999337,129.38118399999803,315,45,129.38118399999803,129.38118399999803,129.38118399999803,129.38118399999803,129.38118399999803,129.38118399999803,129.38118399999803,129.38118399999803,129.38118399999803,129.74757329997374,129.74757329997374,129.74757329997374,129.74757329997374,129.74757329997374,129.74757329997374,129.74757329997374,129.74757329997374,129.74757329997374,23,0,,,129.74757329997374,129.94922379998025,1000,129.94922379998025,1000,1000,1000,1000,0,num_3,0.7150238999747671,,28,1,2026-03-05_15h20.04.121,2026A_exp2,2022.2.4,59.93220468315844,
1,0,4.9,0.0,0,0,31,31,4,,,,,130.68168959999457,131.33239180000965,131.33239180000965,131.8335678000003,45,45,131.8335678000003,131.8335678000003,131.8335678000003,131.8335678000003,131.8335678000003,131.8335678000003,131.8335678000003,131.8335678000003,131.8335678000003,132.2001283999998,132.2001283999998,132.2001283999998,132.2001283999998,132.2001283999998,132.2001283999998,132.2001283999998,132.2001283999998,132.2001283999998,23,0,,,132.2001283999998,132.40037909999955,4.9,132.40037909999955,1,4.9,1,1,1000,num_4,1.1610566999879666,,28,1,2026-03-05_15h20.04.121,2026A_exp2,2022.2.4,59.93220468315844,
1,0,0.0,4.9,1,0,32,32,1,,,,,133.58465229999274,134.2353688000003,134.2353688000003,134.7198236999684,45,45,134.7198236999684,134.7198236999684,134.7198236999684,134.7198236999684,134.7198236999684,134.7198236999684,134.7198236999684,134.7198236999684,134.7198236999684,135.0859943999676,135.0859943999676,135.0859943999676,135.0859943999676,135.0859943999676,135.0859943999676,135.0859943999676,135.0859943999676,135.0859943999676,23,0,,,135.0859943999676,135.2863621999859,4.9,135.2863621999859,1,4.9,1,1,1000,num_4,0.49779819999821484,,28,1,2026-03-05_15h20.04.121,2026A_exp2,2022.2.4,59.93220468315844,
1,0,3.7,4.9,0,0,33,33,76,,,,,135.803462699987,136.45417320000706,136.45417320000706,136.9387604999938,45,45,136.9387604999938,136.9387604999938,136.9387604999938,136.9387604999938,136.9387604999938,136.9387604999938,136.9387604999938,136.9387604999938,136.9387604999938,137.305031099997,137.305031099997,137.305031099997,137.305031099997,137.305031099997,137.305031099997,137.305031099997,137.305031099997,137.305031099997,23,0,,,137.305031099997,137.5053220000118,3.7,137.5053220000118,1,3.7,1,1,1000,num_4,0.6317943999893032,,28,1,2026-03-05_15h20.04.121,2026A_exp2,2022.2.4,59.93220468315844,
1,0,4.9,3.7,1,0,34,34,10,,,,,138.15574039996136,138.80666539998492,138.80666539998492,139.29092359996866,315,45,139.29092359996866,139.29092359996866,139.29092359996866,139.29092359996866,139.29092359996866,139.29092359996866,139.29092359996866,139.29092359996866,139.29092359996866,139.65745519998018,139.65745519998018,139.65745519998018,139.65745519998018,139.65745519998018,139.65745519998018,139.65745519998018,139.65745519998018,139.65745519998018,23,0,,,139.65745519998018,139.85767609998584,3.7,139.87444899999537,1,3.7,1,1,1000,num_4,0.5743350999546237,,28,1,2026-03-05_15h20.04.121,2026A_exp2,2022.2.4,59.93220468315844,
1,0,4.9,3.7,0,0,35,35,9,,,,,140.4748470999766,141.10892229998717,141.10892229998717,141.6100640000077,45,45,141.6100640000077,141.6100640000077,141.6100640000077,141.6100640000077,141.6100640000077,141.6100640000077,141.6100640000077,141.6100640000077,141.6100640000077,141.97647130000405,141.97647130000405,141.97647130000405,141.97647130000405,141.97647130000405,141.97647130000405,141.97647130000405,141.97647130000405,141.97647130000405,23,0,,,141.97647130000405,142.17656629998237,4.9,142.17656629998237,1,4.9,1,1,1000,num_4,0.6885044999653473,,28,1,2026-03-05_15h20.04.121,2026A_exp2,2022.2.4,59.93220468315844,
1,0,4.9,3.7,1,0,36,36,26,,,,,142.89377409999724,143.54470109997783,143.54470109997783,144.02893460000632,315,315,144.02893460000632,144.02893460000632,144.02893460000632,144.02893460000632,144.02893460000632,144.02893460000632,144.02893460000632,144.02893460000632,144.02893460000632,144.39552459999686,144.39552459999686,144.39552459999686,144.39552459999686,144.39552459999686,144.39552459999686,144.39552459999686,144.39552459999686,144.39552459999686,23,0,,,144.39552459999686,144.5956052999827,3.7,144.5956052999827,1,3.7,1,1,1000,num_4,0.6131066000089049,,28,1,2026-03-05_15h20.04.121,2026A_exp2,2022.2.4,59.93220468315844,
1,0,0.0,0.0,0,0,37,37,34,,,,,145.2295463999617,145.8801991000073,145.8801991000073,146.36480300000403,45,45,146.36480300000403,146.36480300000403,146.36480300000403,146.36480300000403,146.36480300000403,146.36480300000403,146.36480300000403,146.36480300000403,146.36480300000403,146.7311923999805,146.7311923999805,146.7311923999805,146.7311923999805,146.7311923999805,146.7311923999805,146.7311923999805,146.7311923999805,146.7311923999805,23,0,,,146.7311923999805,146.93144199997187,0.0,146.93144199997187,0,0.0,0,1,1000,num_1,1.0136884999810718,,28,1,2026-03-05_15h20.04.121,2026A_exp2,2022.2.4,59.93220468315844,
0,0,0.0,0.0,0,0,38,38,22,,,,,147.96563599997899,148.61618849996012,148.61618849996012,149.10066489997553,45,45,149.10066489997553,149.10066489997553,149.10066489997553,149.10066489997553,149.10066489997553,149.10066489997553,149.10066489997553,149.10066489997553,149.10066489997553,149.4673226000159,149.4673226000159,149.4673226000159,149.4673226000159,149.4673226000159,149.4673226000159,149.4673226000159,149.4673226000159,149.4673226000159,23,0,,,149.4673226000159,149.66749719996005,0.0,149.66749719996005,1,0.0,0,0,1000,num_4,0.6771698000375181,,28,1,2026-03-05_15h20.04.121,2026A_exp2,2022.2.4,59.93220468315844,
1,0,4.9,6.1,0,0,39,39,33,,,,,150.36788989999332,151.0186714999727,151.0186714999727,151.5032169999904,45,315,151.5032169999904,151.5032169999904,151.5032169999904,151.5032169999904,151.5032169999904,151.5032169999904,151.5032169999904,151.5032169999904,151.5032169999904,151.86962670000503,151.86962670000503,151.86962670000503,151.86962670000503,151.86962670000503,151.86962670000503,151.86962670000503,151.86962670000503,151.86962670000503,23,0,,,151.86962670000503,152.06987020000815,4.9,152.06987020000815,1,4.9,1,1,1000,num_4,0.37017139996169135,,28,1,2026-03-05_15h20.04.121,2026A_exp2,2022.2.4,59.93220468315844,
1000,1,0.0,4.9,0,0,40,40,53,,,,,152.47014930000296,153.12089119997108,153.12089119997108,153.60517499997513,45,45,153.60517499997513,153.60517499997513,153.60517499997513,153.60517499997513,153.60517499997513,153.60517499997513,153.60517499997513,153.60517499997513,153.60517499997513,153.9717216999852,153.9717216999852,153.9717216999852,153.9717216999852,153.9717216999852,153.9717216999852,153.9717216999852,153.9717216999852,153.9717216999852,23,0,,,153.9717216999852,154.17389809997985,1000,154.17389809997985,1000,1000,1000,1000,0,num_3,0.6903088000253774,,28,1,2026-03-05_15h20.04.121,2026A_exp2,2022.2.4,59.93220468315844,
1000,1,0.0,0.0,0,0,41,41,15,,,,,154.88905689999228,155.5399607999716,155.5399607999716,156.04102969996165,315,45,156.04102969996165,156.04102969996165,156.04102969996165,156.04102969996165,156.04102969996165,156.04102969996165,156.04102969996165,156.04102969996165,156.04102969996165,156.39085999998497,156.39085999998497,156.39085999998497,156.39085999998497,156.39085999998497,156.39085999998497,156.39085999998497,156.39085999998497,156.39085999998497,22,0,,,156.39085999998497,156.59288620000007,1000,156.59288620000007,1000,1000,1000,1000,0,num_3,0.5112146000028588,,28,1,2026-03-05_15h20.04.121,2026A_exp2,2022.2.4,59.93220468315844,
1,0,6.1,6.1,0,0,42,42,27,,,,,157.12485309998738,157.77561609999975,157.77561609999975,158.27675939997425,45,315,158.27675939997425,158.27675939997425,158.27675939997425,158.27675939997425,158.27675939997425,158.27675939997425,158.27675939997425,158.27675939997425,158.27675939997425,158.6430758999777,158.6430758999777,158.6430758999777,158.6430758999777,158.6430758999777,158.6430758999777,158.6430758999777,158.6430758999777,158.6430758999777,23,0,,,158.6430758999777,158.84335709997686,6.1,158.84335709997686,0,6.1,1,0,1000,num_1,1.22982960002264,,28,1,2026-03-05_15h20.04.121,2026A_exp2,2022.2.4,59.93220468315844,
1000,1,6.1,0.0,0,0,43,43,59,,,,,160.09439649997512,160.7452365999925,160.7452365999925,161.2295194999897,315,45,161.2295194999897,161.2295194999897,161.2295194999897,161.2295194999897,161.2295194999897,161.2295194999897,161.2295194999897,161.2295194999897,161.2295194999897,161.59577750001336,161.59577750001336,161.59577750001336,161.59577750001336,161.59577750001336,161.59577750001336,161.59577750001336,161.59577750001336,161.59577750001336,23,0,,,161.59577750001336,161.79802619997645,1000,161.79802619997645,1000,1000,1000,1000,0,num_3,0.8909640000201762,,28,1,2026-03-05_15h20.04.121,2026A_exp2,2022.2.4,59.93220468315844,
1000,1,0.0,0.0,0,0,44,44,7,,,,,162.71377319999738,163.3645678999601,163.3645678999601,163.86546020000242,45,315,163.86546020000242,163.86546020000242,163.86546020000242,163.86546020000242,163.86546020000242,163.86546020000242,163.86546020000242,163.86546020000242,163.86546020000242,164.2320364000043,164.2320364000043,164.2320364000043,164.2320364000043,164.2320364000043,164.2320364000043,164.2320364000043,164.2320364000043,164.2320364000043,23,0,,,164.2320364000043,164.4343108999892,1000,164.4343108999892,1000,1000,1000,1000,1,num_2,1.038956300006248,,28,1,2026-03-05_15h20.04.121,2026A_exp2,2022.2.4,59.93220468315844,
1000,1,0.0,6.1,1,0,45,45,69,,,,,165.49985439999728,166.1506320000044,166.1506320000044,166.65176280000014,315,45,166.65176280000014,166.65176280000014,166.65176280000014,166.65176280000014,166.65176280000014,166.65176280000014,166.65176280000014,166.65176280000014,166.65176280000014,167.00157759996364,167.00157759996364,167.00157759996364,167.00157759996364,167.00157759996364,167.00157759996364,167.00157759996364,167.00157759996364,167.00157759996364,22,0,,,167.00157759996364,167.20328029996017,1000,167.20328029996017,1000,1000,1000,1000,1,num_2,0.7736189000424929,,28,1,2026-03-05_15h20.04.121,2026A_exp2,2022.2.4,59.93220468315844,
1,0,4.9,0.0,1,0,46,46,25,,,,,168.00232789997244,168.65304110001307,168.65304110001307,169.15427689999342,45,45,169.15427689999342,169.15427689999342,169.15427689999342,169.15427689999342,169.15427689999342,169.15427689999342,169.15427689999342,169.15427689999342,169.15427689999342,169.52061110001523,169.52061110001523,169.52061110001523,169.52061110001523,169.52061110001523,169.52061110001523,169.52061110001523,169.52061110001523,169.52061110001523,23,0,,,169.52061110001523,169.72077029995853,0.0,169.72077029995853,0,0.0,0,1,1000,num_1,0.8483930000220425,,28,1,2026-03-05_15h20.04.121,2026A_exp2,2022.2.4,59.93220468315844,
1000,1,0.0,6.1,0,0,47,47,35,,,,,170.58811099996092,171.23891039995942,171.23891039995942,171.72340299998177,45,45,171.72340299998177,171.72340299998177,171.72340299998177,171.72340299998177,171.72340299998177,171.72340299998177,171.72340299998177,171.72340299998177,171.72340299998177,172.0898765999591,172.0898765999591,172.0898765999591,172.0898765999591,172.0898765999591,172.0898765999591,172.0898765999591,172.0898765999591,172.0898765999591,23,0,,,172.0898765999591,172.2918367999955,1000,172.2918367999955,1000,1000,1000,1000,0,num_3,0.7087956999894232,,28,1,2026-03-05_15h20.04.121,2026A_exp2,2022.2.4,59.93220468315844,
1000,1,0.0,4.9,0,0,48,48,74,,,,,173.0240741999587,173.67477729998063,173.67477729998063,174.1759740000125,315,45,174.1759740000125,174.1759740000125,174.1759740000125,174.1759740000125,174.1759740000125,174.1759740000125,174.1759740000125,174.1759740000125,174.1759740000125,174.54230909998296,174.54230909998296,174.54230909998296,174.54230909998296,174.54230909998296,174.54230909998296,174.54230909998296,174.54230909998296,174.54230909998296,23,0,,,174.54230909998296,174.744392899971,1000,174.744392899971,1000,1000,1000,1000,1,num_2,0.5043107999954373,,28,1,2026-03-05_15h20.04.121,2026A_exp2,2022.2.4,59.93220468315844,
1000,1,3.7,4.9,0,0,49,49,80,,,,,175.27625210001133,175.92702559998725,175.92702559998725,176.42819269996835,45,45,176.42819269996835,176.42819269996835,176.42819269996835,176.42819269996835,176.42819269996835,176.42819269996835,176.42819269996835,176.42819269996835,176.42819269996835,176.79457349999575,176.79457349999575,176.79457349999575,176.79457349999575,176.79457349999575,176.79457349999575,176.79457349999575,176.79457349999575,176.79457349999575,23,0,,,176.79457349999575,176.9969429000048,1000,176.9969429000048,1000,1000,1000,1000,1,num_2,0.9392440000083297,,28,1,2026-03-05_15h20.04.121,2026A_exp2,2022.2.4,59.93220468315844,
1000,1,0.0,0.0,0,0,50,50,72,,,,,177.96230610000202,178.61309900000924,178.61309900000924,179.11423239996657,45,315,179.11423239996657,179.11423239996657,179.11423239996657,179.11423239996657,179.11423239996657,179.11423239996657,179.11423239996657,179.11423239996657,179.11423239996657,179.48064500000328,179.48064500000328,179.48064500000328,179.48064500000328,179.48064500000328,179.48064500000328,179.48064500000328,179.48064500000328,179.48064500000328,23,0,,,179.48064500000328,179.68262909998884,1000,179.68262909998884,1000,1000,1000,1000,1,num_2,0.6061781999887899,,28,1,2026-03-05_15h20.04.121,2026A_exp2,2022.2.4,59.93220468315844,
1000,1,3.7,0.0,1,0,51,51,88,,,,,180.31463129998883,180.96519700001227,180.96519700001227,181.46717109996825,315,45,181.46717109996825,181.46717109996825,181.46717109996825,181.46717109996825,181.46717109996825,181.46717109996825,181.46717109996825,181.46717109996825,181.46717109996825,181.81624259997625,181.81624259997625,181.81624259997625,181.81624259997625,181.81624259997625,181.81624259997625,181.81624259997625,181.81624259997625,181.81624259997625,22,0,,,181.81624259997625,182.01828630000819,1000,182.03315639996435,1000,1000,1000,1000,0,num_3,0.41533370001707226,,28,1,2026-03-05_15h20.04.121,2026A_exp2,2022.2.4,59.93220468315844,
1000,1,0.0,0.0,0,0,52,52,37,,,,,182.46703249996062,183.11763009999413,183.11763009999413,183.6020157999592,45,45,183.6020157999592,183.6020157999592,183.6020157999592,183.6020157999592,183.6020157999592,183.6020157999592,183.6020157999592,183.6020157999592,183.6020157999592,183.96845059999032,183.96845059999032,183.96845059999032,183.96845059999032,183.96845059999032,183.96845059999032,183.96845059999032,183.96845059999032,183.96845059999032,23,0,,,183.96845059999032,184.1701603999827,1000,184.1701603999827,1000,1000,1000,1000,1,num_2,0.8864996000193059,,28,1,2026-03-05_15h20.04.121,2026A_exp2,2022.2.4,59.93220468315844,
0,0,6.1,6.1,0,0,53,53,42,,,,,185.08625069999835,185.73683949996484,185.73683949996484,186.22133249999024,45,315,186.22133249999024,186.22133249999024,186.22133249999024,186.22133249999024,186.22133249999024,186.22133249999024,186.22133249999024,186.22133249999024,186.22133249999024,186.5875883999979,186.5875883999979,186.5875883999979,186.5875883999979,186.5875883999979,186.5875883999979,186.5875883999979,186.5875883999979,186.5875883999979,23,0,,,186.5875883999979,186.7878759999876,6.1,186.7878759999876,1,6.1,1,1,1000,num_4,3.3173414999619126,,28,1,2026-03-05_15h20.04.121,2026A_exp2,2022.2.4,59.93220468315844,
1,0,0.0,3.7,0,0,54,54,61,,,,,190.12440480000805,190.7752011999837,190.7752011999837,191.25972440000623,315,45,191.25972440000623,191.25972440000623,191.25972440000623,191.25972440000623,191.25972440000623,191.25972440000623,191.25972440000623,191.25972440000623,191.25972440000623,191.62614569999278,191.62614569999278,191.62614569999278,191.62614569999278,191.62614569999278,191.62614569999278,191.62614569999278,191.62614569999278,191.62614569999278,23,0,,,191.62614569999278,191.82635099999607,0.0,191.82635099999607,1,0.0,0,0,1000,num_4,1.4857265000464395,,28,1,2026-03-05_15h20.04.121,2026A_exp2,2022.2.4,59.93220468315844,
1,0,3.7,3.7,1,0,55,55,86,,,,,193.34442079998553,193.97842010000022,193.97842010000022,194.49252580001485,45,315,194.49252580001485,194.49252580001485,194.49252580001485,194.49252580001485,194.49252580001485,194.49252580001485,194.49252580001485,194.49252580001485,194.49252580001485,194.84600700001465,194.84600700001465,194.84600700001465,194.84600700001465,194.84600700001465,194.84600700001465,194.84600700001465,194.84600700001465,194.84600700001465,23,0,,,194.84600700001465,195.04990320000798,3.7,195.04990320000798,1,3.7,1,1,1000,num_4,0.5593193999957293,,28,1,2026-03-05_15h20.04.121,2026A_exp2,2022.2.4,59.93220468315844,
1,0,3.7,4.9,1,0,56,56,71,,,,,195.62987060000887,196.2804649999598,196.2804649999598,196.78189459996065,315,45,196.78189459996065,196.78189459996065,196.78189459996065,196.78189459996065,196.78189459996065,196.78189459996065,196.78189459996065,196.78189459996065,196.78189459996065,197.14831959997537,197.14831959997537,197.14831959997537,197.14831959997537,197.14831959997537,197.14831959997537,197.14831959997537,197.14831959997537,197.14831959997537,23,0,,,197.14831959997537,197.34841989999404,4.9,197.34841989999404,1,4.9,1,1,1000,num_4,0.41252189996885136,,28,1,2026-03-05_15h20.04.121,2026A_exp2,2022.2.4,59.93220468315844,
1,0,4.9,3.7,0,0,57,57,63,,,,,197.78221849998226,198.43285350000951,198.43285350000951,198.9172339999932,315,315,198.9172339999932,198.9172339999932,198.9172339999932,198.9172339999932,198.9172339999932,198.9172339999932,198.9172339999932,198.9172339999932,198.9172339999932,199.28377899999032,199.28377899999032,199.28377899999032,199.28377899999032,199.28377899999032,199.28377899999032,199.28377899999032,199.28377899999032,199.28377899999032,23,0,,,199.28377899999032,199.48397160001332,4.9,199.48397160001332,1,4.9,1,1,1000,num_4,0.5803932000417262,,28,1,2026-03-05_15h20.04.121,2026A_exp2,2022.2.4,59.93220468315844,
1,0,6.1,3.7,0,0,58,58,31,,,,,200.08433659997536,200.73525189998327,200.73525189998327,201.2196570999804,315,315,201.2196570999804,201.2196570999804,201.2196570999804,201.2196570999804,201.2196570999804,201.2196570999804,201.2196570999804,201.2196570999804,201.2196570999804,201.58604580000974,201.58604580000974,201.58604580000974,201.58604580000974,201.58604580000974,201.58604580000974,201.58604580000974,201.58604580000974,201.58604580000974,23,0,,,201.58604580000974,201.78626500000246,6.1,201.78626500000246,1,6.1,1,1,1000,num_4,0.6782255000434816,,28,1,2026-03-05_15h20.04.121,2026A_exp2,2022.2.4,59.93220468315844,
1000,1,0.0,6.1,0,0,59,59,85,,,,,202.4867612000089,203.13759249995928,203.13759249995928,203.62205209996318,45,45,203.62205209996318,203.62205209996318,203.62205209996318,203.62205209996318,203.62205209996318,203.62205209996318,203.62205209996318,203.62205209996318,203.62205209996318,203.98836499999743,203.98836499999743,203.98836499999743,203.98836499999743,203.98836499999743,203.98836499999743,203.98836499999743,203.98836499999743,203.98836499999743,23,0,,,203.98836499999743,204.19052770000417,1000,204.19052770000417,1000,1000,1000,1000,1,num_2,0.7862693999777548,,28,1,2026-03-05_15h20.04.121,2026A_exp2,2022.2.4,59.93220468315844,
1000,1,0.0,0.0,0,0,60,60,45,,,,,205.00597299996298,205.65676270000404,205.65676270000404,206.1578059999738,315,315,206.1578059999738,206.1578059999738,206.1578059999738,206.1578059999738,206.1578059999738,206.1578059999738,206.1578059999738,206.1578059999738,206.1578059999738,206.52431289997185,206.52431289997185,206.52431289997185,206.52431289997185,206.52431289997185,206.52431289997185,206.52431289997185,206.52431289997185,206.52431289997185,23,0,,,206.52431289997185,206.72935679997317,1000,206.72935679997317,1000,1000,1000,1000,0,num_3,2.3279623999842443,,28,1,2026-03-05_15h20.04.121,2026A_exp2,2022.2.4,59.93220468315844,
1,0,6.1,4.9,0,0,61,61,81,,,,,209.0812940999749,209.72747899999376,209.72747899999376,210.22867909999331,45,45,210.22867909999331,210.22867909999331,210.22867909999331,210.22867909999331,210.22867909999331,210.22867909999331,210.22867909999331,210.22867909999331,210.22867909999331,210.59508509997977,210.59508509997977,210.59508509997977,210.59508509997977,210.59508509997977,210.59508509997977,210.59508509997977,210.59508509997977,210.59508509997977,23,0,,,210.59508509997977,210.79543970001396,6.1,210.79543970001396,1,6.1,1,1,1000,num_4,1.437283999985084,,28,1,2026-03-05_15h20.04.121,2026A_exp2,2022.2.4,59.93220468315844,
1000,1,0.0,0.0,1,0,62,62,46,,,,,212.2633737999713,212.9138606999768,212.9138606999768,213.39840579999145,315,45,213.39840579999145,213.39840579999145,213.39840579999145,213.39840579999145,213.39840579999145,213.39840579999145,213.39840579999145,213.39840579999145,213.39840579999145,213.76492190000135,213.76492190000135,213.76492190000135,213.76492190000135,213.76492190000135,213.76492190000135,213.76492190000135,213.76492190000135,213.76492190000135,23,0,,,213.76492190000135,213.9672257999773,1000,213.9672257999773,1000,1000,1000,1000,0,num_3,0.8250102000311017,,28,1,2026-03-05_15h20.04.121,2026A_exp2,2022.2.4,59.93220468315844,
1000,1,3.7,4.9,0,0,63,63,64,,,,,214.81604800000787,215.4665953000076,215.4665953000076,215.9678023000015,45,45,215.9678023000015,215.9678023000015,215.9678023000015,215.9678023000015,215.9678023000015,215.9678023000015,215.9678023000015,215.9678023000015,215.9678023000015,216.3340515999589,216.3340515999589,216.3340515999589,216.3340515999589,216.3340515999589,216.3340515999589,216.3340515999589,216.3340515999589,216.3340515999589,23,0,,,216.3340515999589,216.53666220000014,1000,216.53666220000014,1000,1000,1000,1000,1,num_2,0.6396924000000581,,28,1,2026-03-05_15h20.04.121,2026A_exp2,2022.2.4,59.93220468315844,
1000,1,0.0,0.0,0,0,64,64,6,,,,,217.20173530001193,217.8523572999984,217.8523572999984,218.35325719998218,45,45,218.35325719998218,218.35325719998218,218.35325719998218,218.35325719998218,218.35325719998218,218.35325719998218,218.35325719998218,218.35325719998218,218.35325719998218,218.7197148000123,218.7197148000123,218.7197148000123,218.7197148000123,218.7197148000123,218.7197148000123,218.7197148000123,218.7197148000123,218.7197148000123,23,0,,,218.7197148000123,218.9217944999691,1000,218.9217944999691,1000,1000,1000,1000,1,num_2,0.8633958999998868,,28,1,2026-03-05_15h20.04.121,2026A_exp2,2022.2.4,59.93220468315844,
1,0,3.7,0.0,0,0,65,65,8,,,,,219.80425869999453,220.4548635999672,220.4548635999672,220.95596559997648,315,45,220.95596559997648,220.95596559997648,220.95596559997648,220.95596559997648,220.95596559997648,220.95596559997648,220.95596559997648,220.95596559997648,220.95596559997648,221.3222743999795,221.3222743999795,221.3222743999795,221.3222743999795,221.3222743999795,221.3222743999795,221.3222743999795,221.3222743999795,221.3222743999795,23,0,,,221.3222743999795,221.52264069998637,3.7,221.52264069998637,0,3.7,1,0,1000,num_1,0.8774664999800734,,28,1,2026-03-05_15h20.04.121,2026A_exp2,2022.2.4,59.93220468315844,
1000,1,6.1,3.7,0,0,66,66,18,,,,,222.42341059999308,223.07420829997864,223.07420829997864,223.5639591999934,315,315,223.5639591999934,223.5639591999934,223.5639591999934,223.5639591999934,223.5639591999934,223.5639591999934,223.5639591999934,223.5639591999934,223.5639591999934,223.92503209999995,223.92503209999995,223.92503209999995,223.92503209999995,223.92503209999995,223.92503209999995,223.92503209999995,223.92503209999995,223.92503209999995,23,0,,,223.92503209999995,224.1271953000105,1000,224.1271953000105,1000,1000,1000,1000,0,num_3,0.6101459999918006,,28,1,2026-03-05_15h20.04.121,2026A_exp2,2022.2.4,59.93220468315844,
1000,1,4.9,0.0,0,0,67,67,50,,,,,224.7591425999999,225.40984739997657,225.40984739997657,225.91102110000793,45,45,225.91102110000793,225.91102110000793,225.91102110000793,225.91102110000793,225.91102110000793,225.91102110000793,225.91102110000793,225.91102110000793,225.91102110000793,226.2773994000163,226.2773994000163,226.2773994000163,226.2773994000163,226.2773994000163,226.2773994000163,226.2773994000163,226.2773994000163,226.2773994000163,23,0,,,226.2773994000163,226.47926300001564,1000,226.47926300001564,1000,1000,1000,1000,1,num_2,0.7691960000083782,,28,1,2026-03-05_15h20.04.121,2026A_exp2,2022.2.4,59.93220468315844,
1,0,3.7,0.0,1,0,68,68,12,,,,,227.27852829999756,227.9397719000117,227.9397719000117,228.4288849000004,315,315,228.4288849000004,228.4288849000004,228.4288849000004,228.4288849000004,228.4288849000004,228.4288849000004,228.4288849000004,228.4288849000004,228.4288849000004,228.77982970001176,228.77982970001176,228.77982970001176,228.77982970001176,228.77982970001176,228.77982970001176,228.77982970001176,228.77982970001176,228.77982970001176,23,0,,,228.77982970001176,228.9801442999742,0.0,228.9801442999742,0,0.0,0,1,1000,num_1,1.0366073999903165,,28,1,2026-03-05_15h20.04.121,2026A_exp2,2022.2.4,59.93220468315844,
1,0,4.9,4.9,0,0,69,69,39,,,,,230.04785410000477,230.6985313000041,230.6985313000041,231.18286629999056,315,45,231.18286629999056,231.18286629999056,231.18286629999056,231.18286629999056,231.18286629999056,231.18286629999056,231.18286629999056,231.18286629999056,231.18286629999056,231.5491900999914,231.5491900999914,231.5491900999914,231.5491900999914,231.5491900999914,231.5491900999914,231.5491900999914,231.5491900999914,231.5491900999914,23,0,,,231.5491900999914,231.7495549999876,4.9,231.7495549999876,0,4.9,1,0,1000,num_1,1.0917630000039935,,28,1,2026-03-05_15h20.04.121,2026A_exp2,2022.2.4,59.93220468315844,
1,0,0.0,3.7,1,0,70,70,0,,,,,232.86728249996668,233.5178420000011,233.5178420000011,234.0106352000148,45,315,234.0106352000148,234.0106352000148,234.0106352000148,234.0106352000148,234.0106352000148,234.0106352000148,234.0106352000148,234.0106352000148,234.0106352000148,234.3688523999881,234.3688523999881,234.3688523999881,234.3688523999881,234.3688523999881,234.3688523999881,234.3688523999881,234.3688523999881,234.3688523999881,23,0,,,234.3688523999881,234.5690635999781,3.7,234.5690635999781,0,3.7,1,0,1000,num_1,0.8957844999968074,,28,1,2026-03-05_15h20.04.121,2026A_exp2,2022.2.4,59.93220468315844,
1000,1,6.1,4.9,0,0,71,71,49,,,,,235.4865931000095,236.13723190000746,236.13723190000746,236.6216931999661,45,315,236.6216931999661,236.6216931999661,236.6216931999661,236.6216931999661,236.6216931999661,236.6216931999661,236.6216931999661,236.6216931999661,236.6216931999661,236.98797789996024,236.98797789996024,236.98797789996024,236.98797789996024,236.98797789996024,236.98797789996024,236.98797789996024,236.98797789996024,236.98797789996024,23,0,,,236.98797789996024,237.18994299997576,1000,237.18994299997576,1000,1000,1000,1000,1,num_2,0.9465409000404179,,28,1,2026-03-05_15h20.04.121,2026A_exp2,2022.2.4,59.93220468315844,
1000,1,0.0,0.0,0,0,72,72,36,,,,,238.15599920001114,238.80652509996435,238.80652509996435,239.3077523999964,315,45,239.3077523999964,239.3077523999964,239.3077523999964,239.3077523999964,239.3077523999964,239.3077523999964,239.3077523999964,239.3077523999964,239.3077523999964,239.6574518000125,239.6574518000125,239.6574518000125,239.6574518000125,239.6574518000125,239.6574518000125,239.6574518000125,239.6574518000125,239.6574518000125,22,0,,,239.6574518000125,239.85940439999104,1000,239.87432399997488,1000,1000,1000,1000,0,num_3,0.5336864999844693,,28,1,2026-03-05_15h20.04.121,2026A_exp2,2022.2.4,59.93220468315844,
0,0,0.0,4.9,0,0,73,73,14,,,,,240.42492600000696,241.07549899996957,241.07549899996957,241.57669769995846,45,315,241.57669769995846,241.57669769995846,241.57669769995846,241.57669769995846,241.57669769995846,241.57669769995846,241.57669769995846,241.57669769995846,241.57669769995846,241.94304949999787,241.94304949999787,241.94304949999787,241.94304949999787,241.94304949999787,241.94304949999787,241.94304949999787,241.94304949999787,241.94304949999787,23,0,,,241.94304949999787,242.14310529996874,4.9,242.14310529996874,1,4.9,1,1,1000,num_4,1.4262309999903664,,28,1,2026-03-05_15h20.04.121,2026A_exp2,2022.2.4,59.93220468315844,
0,0,6.1,0.0,1,0,74,74,30,,,,,243.59481889999006,244.24539860000368,244.24539860000368,244.72974219999742,45,45,244.72974219999742,244.72974219999742,244.72974219999742,244.72974219999742,244.72974219999742,244.72974219999742,244.72974219999742,244.72974219999742,244.72974219999742,245.09602399996947,245.09602399996947,245.09602399996947,245.09602399996947,245.09602399996947,245.09602399996947,245.09602399996947,245.09602399996947,245.09602399996947,23,0,,,245.09602399996947,245.29654429998482,6.1,245.29654429998482,1,6.1,1,1,1000,num_4,1.3841158000286669,,28,1,2026-03-05_15h20.04.121,2026A_exp2,2022.2.4,59.93220468315844,
1,0,3.7,6.1,1,0,75,75,77,,,,,246.6978126000031,247.3317798000062,247.3317798000062,247.83288180001546,315,315,247.83288180001546,247.83288180001546,247.83288180001546,247.83288180001546,247.83288180001546,247.83288180001546,247.83288180001546,247.83288180001546,247.83288180001546,248.19932139996672,248.19932139996672,248.19932139996672,248.19932139996672,248.19932139996672,248.19932139996672,248.19932139996672,248.19932139996672,248.19932139996672,23,0,,,248.19932139996672,248.39953900000546,6.1,248.39953900000546,1,6.1,1,1,1000,num_4,0.7613171000266448,,28,1,2026-03-05_15h20.04.121,2026A_exp2,2022.2.4,59.93220468315844,
1000,1,0.0,0.0,1,0,76,76,16,,,,,249.18368049996207,249.83420569996815,249.83420569996815,250.3186974999844,45,315,250.3186974999844,250.3186974999844,250.3186974999844,250.3186974999844,250.3186974999844,250.3186974999844,250.3186974999844,250.3186974999844,250.3186974999844,250.68513669999084,250.68513669999084,250.68513669999084,250.68513669999084,250.68513669999084,250.68513669999084,250.68513669999084,250.68513669999084,250.68513669999084,23,0,,,250.68513669999084,250.88709279999603,1000,250.88709279999603,1000,1000,1000,1000,0,num_3,0.8900979000027291,,28,1,2026-03-05_15h20.04.121,2026A_exp2,2022.2.4,59.93220468315844,
1,0,0.0,6.1,0,0,77,77,43,,,,,251.80299090000335,252.4535475000157,252.4535475000157,252.95458749996033,45,45,252.95458749996033,252.95458749996033,252.95458749996033,252.95458749996033,252.95458749996033,252.95458749996033,252.95458749996033,252.95458749996033,252.95458749996033,253.30435649998253,253.30435649998253,253.30435649998253,253.30435649998253,253.30435649998253,253.30435649998253,253.30435649998253,253.30435649998253,253.30435649998253,22,0,,,253.30435649998253,253.5159333999618,0.0,253.5159333999618,1,0.0,0,0,1000,num_4,0.9407993000349961,,28,1,2026-03-05_15h20.04.121,2026A_exp2,2022.2.4,59.93220468315844,
1000,1,0.0,6.1,0,0,78,78,75,,,,,254.48890669998946,255.1394636000041,255.1394636000041,255.62407600000734,45,45,255.62407600000734,255.62407600000734,255.62407600000734,255.62407600000734,255.62407600000734,255.62407600000734,255.62407600000734,255.62407600000734,255.62407600000734,255.9904045999865,255.9904045999865,255.9904045999865,255.9904045999865,255.9904045999865,255.9904045999865,255.9904045999865,255.9904045999865,255.9904045999865,23,0,,,255.9904045999865,256.19237379997503,1000,256.19237379997503,1000,1000,1000,1000,1,num_2,0.9277653000317514,,28,1,2026-03-05_15h20.04.121,2026A_exp2,2022.2.4,59.93220468315844,
1000,1,6.1,0.0,0,0,79,79,89,,,,,257.1416559999925,257.7922393999761,257.7922393999761,258.293269399961,45,315,258.293269399961,258.293269399961,258.293269399961,258.293269399961,258.293269399961,258.293269399961,258.293269399961,258.293269399961,258.293269399961,258.6597187999869,258.6597187999869,258.6597187999869,258.6597187999869,258.6597187999869,258.6597187999869,258.6597187999869,258.6597187999869,258.6597187999869,23,0,,,258.6597187999869,258.861589099979,1000,258.861589099979,1000,1000,1000,1000,1,num_2,0.8277522000134923,,28,1,2026-03-05_15h20.04.121,2026A_exp2,2022.2.4,59.93220468315844,
1000,1,0.0,6.1,0,0,80,80,58,,,,,259.71074409998255,260.36149250000017,260.36149250000017,260.86241329996847,315,45,260.86241329996847,260.86241329996847,260.86241329996847,260.86241329996847,260.86241329996847,260.86241329996847,260.86241329996847,260.86241329996847,260.86241329996847,261.2289732999634,261.2289732999634,261.2289732999634,261.2289732999634,261.2289732999634,261.2289732999634,261.2289732999634,261.2289732999634,261.2289732999634,23,0,,,261.2289732999634,261.43088040000293,1000,261.43088040000293,1000,1000,1000,1000,1,num_2,0.9053112000110559,,28,1,2026-03-05_15h20.04.121,2026A_exp2,2022.2.4,59.93220468315844,
1,0,0.0,0.0,1,0,81,81,41,,,,,262.3635231999797,263.01414619997377,263.01414619997377,263.4986361999763,45,315,263.4986361999763,263.4986361999763,263.4986361999763,263.4986361999763,263.4986361999763,263.4986361999763,263.4986361999763,263.4986361999763,263.4986361999763,263.8649165999959,263.8649165999959,263.8649165999959,263.8649165999959,263.8649165999959,263.8649165999959,263.8649165999959,263.8649165999959,263.8649165999959,23,0,,,263.8649165999959,264.0652344999835,0.0,264.0652344999835,0,0.0,0,1,1000,num_1,0.7119404000113718,,28,1,2026-03-05_15h20.04.121,2026A_exp2,2022.2.4,59.93220468315844,
1000,1,0.0,6.1,1,0,82,82,52,,,,,264.79938839998795,265.44976330001373,265.44976330001373,265.93436770001426,45,45,265.93436770001426,265.93436770001426,265.93436770001426,265.93436770001426,265.93436770001426,265.93436770001426,265.93436770001426,265.93436770001426,265.93436770001426,266.300665399991,266.300665399991,266.300665399991,266.300665399991,266.300665399991,266.300665399991,266.300665399991,266.300665399991,266.300665399991,23,0,,,266.300665399991,266.50263599999016,1000,266.50263599999016,1000,1000,1000,1000,1,num_2,0.8421948999748565,,28,1,2026-03-05_15h20.04.121,2026A_exp2,2022.2.4,59.93220468315844,
1000,1,0.0,6.1,1,0,83,83,62,,,,,267.3685900999699,268.01914789999137,268.01914789999137,268.52073469996685,45,315,268.52073469996685,268.52073469996685,268.52073469996685,268.52073469996685,268.52073469996685,268.52073469996685,268.52073469996685,268.52073469996685,268.52073469996685,268.8865999999689,268.8865999999689,268.8865999999689,268.8865999999689,268.8865999999689,268.8865999999689,268.8865999999689,268.8865999999689,268.8865999999689,23,0,,,268.8865999999689,269.08861669996986,1000,269.08861669996986,1000,1000,1000,1000,1,num_2,0.527883600036148,,28,1,2026-03-05_15h20.04.121,2026A_exp2,2022.2.4,59.93220468315844,
1000,1,0.0,4.9,1,0,84,84,55,,,,,269.63758529996267,270.288054500008,270.288054500008,270.789122999995,315,45,270.789122999995,270.789122999995,270.789122999995,270.789122999995,270.789122999995,270.789122999995,270.789122999995,270.789122999995,270.789122999995,271.1389021999785,271.1389021999785,271.1389021999785,271.1389021999785,271.1389021999785,271.1389021999785,271.1389021999785,271.1389021999785,271.1389021999785,22,0,,,271.1389021999785,271.3407352999784,1000,271.35582950001117,1000,1000,1000,1000,1,num_2,0.3252868000417948,,28,1,2026-03-05_15h20.04.121,2026A_exp2,2022.2.4,59.93220468315844,
1000,1,0.0,0.0,1,0,85,85,40,,,,,271.7062505999929,272.35657979996176,272.35657979996176,272.85772500000894,315,45,272.85772500000894,272.85772500000894,272.85772500000894,272.85772500000894,272.85772500000894,272.85772500000894,272.85772500000894,272.85772500000894,272.85772500000894,273.2243730999762,273.2243730999762,273.2243730999762,273.2243730999762,273.2243730999762,273.2243730999762,273.2243730999762,273.2243730999762,273.2243730999762,23,0,,,273.2243730999762,273.42467019998,1000,273.42467019998,1000,1000,1000,1000,0,num_3,0.60872980003478,,28,1,2026-03-05_15h20.04.121,2026A_exp2,2022.2.4,59.93220468315844,
1000,1,3.7,0.0,0,0,86,86,32,,,,,274.05844069999876,274.7090155999758,274.7090155999758,275.21030239999527,315,315,275.21030239999527,275.21030239999527,275.21030239999527,275.21030239999527,275.21030239999527,275.21030239999527,275.21030239999527,275.21030239999527,275.21030239999527,275.5765687999665,275.5765687999665,275.5765687999665,275.5765687999665,275.5765687999665,275.5765687999665,275.5765687999665,275.5765687999665,275.5765687999665,23,0,,,275.5765687999665,275.7998049999587,1000,275.7998049999587,1000,1000,1000,1000,0,num_3,0.7045485000126064,,28,1,2026-03-05_15h20.04.121,2026A_exp2,2022.2.4,59.93220468315844,
1,0,0.0,0.0,0,0,87,87,51,,,,,276.52774649998173,277.1782484999858,277.1782484999858,277.67926020000596,45,315,277.67926020000596,277.67926020000596,277.67926020000596,277.67926020000596,277.67926020000596,277.67926020000596,277.67926020000596,277.67926020000596,277.67926020000596,278.0458222000161,278.0458222000161,278.0458222000161,278.0458222000161,278.0458222000161,278.0458222000161,278.0458222000161,278.0458222000161,278.0458222000161,23,0,,,278.0458222000161,278.2459617999848,0.0,278.2459617999848,0,0.0,0,1,1000,num_1,1.0664363999967463,,28,1,2026-03-05_15h20.04.121,2026A_exp2,2022.2.4,59.93220468315844,
0,0,0.0,0.0,0,0,88,88,70,,,,,279.33048389997566,279.9811645000009,279.9811645000009,280.46547930000816,315,45,280.46547930000816,280.46547930000816,280.46547930000816,280.46547930000816,280.46547930000816,280.46547930000816,280.46547930000816,280.46547930000816,280.46547930000816,280.8319627000019,280.8319627000019,280.8319627000019,280.8319627000019,280.8319627000019,280.8319627000019,280.8319627000019,280.8319627000019,280.8319627000019,23,0,,,280.8319627000019,281.0321617000154,0.0,281.0321617000154,0,0.0,0,1,1000,num_1,2.032763099996373,,28,1,2026-03-05_15h20.04.121,2026A_exp2,2022.2.4,59.93220468315844,
1000,1,0.0,0.0,1,0,89,89,56,,,,,283.08429649996106,283.7347387999762,283.7347387999762,284.2193234000006,315,315,284.2193234000006,284.2193234000006,284.2193234000006,284.2193234000006,284.2193234000006,284.2193234000006,284.2193234000006,284.2193234000006,284.2193234000006,284.5857283999794,284.5857283999794,284.5857283999794,284.5857283999794,284.5857283999794,284.5857283999794,284.5857283999794,284.5857283999794,284.5857283999794,23,0,,,284.5857283999794,284.78773280000314,1000,284.78773280000314,1000,1000,1000,1000,0,num_3,0.7893577999784611,,28,1,2026-03-05_15h20.04.121,2026A_exp2,2022.2.4,59.93220468315844,
,,,,,,,,,,,,,,,,,,,,,,,,,,,,,,,,,,,,,,,,,,,,,,,,,,,,285.6110537999775,,,,,,,
