validity,detectorcomp,contrastCW,contrastCCW,precueCWorCCW,block_80trials.thisRepN,block_80trials.thisTrialN,block_80trials.thisN,block_80trials.thisIndex,etRecord.started,etRecord.stopped,text.started,text.stopped,text_4.started,text_4.stopped,text_6.started,text_6.stopped,oriCW,oriCCW,roi_2.started,grating_UR.started,grating_UL.started,grating_LR.started,grating_LL.started,noise_UR.started,noise_UL.started,noise_LR.started,noise_LL.started,roi_2.stopped,grating_UR.stopped,grating_UL.stopped,grating_LR.stopped,grating_LL.stopped,noise_UR.stopped,noise_UL.stopped,noise_LR.stopped,noise_LL.stopped,outframe,roi_2.numLooks,roi_2.timesOn,roi_2.timesOff,text_2.started,text_2.stopped,probedcontrast,key_resp.started,respdetect,relevantContrast,correctDetect,TorFdetect,respCWorCCW,key_resp.keys,key_resp.rt,feedback_display_.started,participantNo,blockNo,date,expName,psychopyVersion,frameRate,
1000,1,6.1,0.0,1,0,0,0,68,5.6100019719451666e-05,5.6100019719451666e-05,49.03353389998665,51.03939950000495,51.03939950000495,51.670183399983216,51.670183399983216,52.19044879998546,315,315,52.19044879998546,52.19044879998546,52.19044879998546,52.19044879998546,52.19044879998546,52.19044879998546,52.19044879998546,52.19044879998546,52.19044879998546,52.537887100013904,52.537887100013904,52.537887100013904,52.537887100013904,52.537887100013904,52.537887100013904,52.537887100013904,52.537887100013904,52.537887100013904,0,1,[0.0009611999848857522],[0.3672750000259839],52.537887100013904,52.74527339998167,1000,52.74527339998167,1000,1000,1000,1000,0,num_3,0.7311091999872588,,24,10,2026-03-04_16h03.31.654,2026A_exp2,2022.2.4,59.939640789638766,
1000,1,4.9,6.1,0,0,1,1,20,,,,,53.50550219998695,54.156109099974856,54.156109099974856,54.65720989997499,45,315,54.65720989997499,54.65720989997499,54.65720989997499,54.65720989997499,54.65720989997499,54.65720989997499,54.65720989997499,54.65720989997499,54.65720989997499,55.02370979997795,55.02370979997795,55.02370979997795,55.02370979997795,55.02370979997795,55.02370979997795,55.02370979997795,55.02370979997795,55.02370979997795,0,1,[0.001228500041179359],[0.3671352000092156],55.02370979997795,55.22605910000857,1000,55.22605910000857,1000,1000,1000,1000,1,num_2,0.6182562000467442,,24,10,2026-03-04_16h03.31.654,2026A_exp2,2022.2.4,59.939640789638766,
1000,1,3.7,6.1,0,0,2,2,84,,,,,55.861308599996846,56.51231179997558,56.51231179997558,57.00960579997627,315,315,57.00960579997627,57.00960579997627,57.00960579997627,57.00960579997627,57.00960579997627,57.00960579997627,57.00960579997627,57.00960579997627,57.00960579997627,57.375985499995295,57.375985499995295,57.375985499995295,57.375985499995295,57.375985499995295,57.375985499995295,57.375985499995295,57.375985499995295,57.375985499995295,0,1,[0.0008597000269219279],[0.3677388000069186],57.375985499995295,57.57798860000912,1000,57.57798860000912,1000,1000,1000,1000,1,num_2,0.6018990000011399,,24,10,2026-03-04_16h03.31.654,2026A_exp2,2022.2.4,59.939640789638766,
1000,1,3.7,4.9,1,0,3,3,46,,,,,58.21018599998206,58.86079919995973,58.86079919995973,59.361774099990726,45,315,59.361774099990726,59.361774099990726,59.361774099990726,59.361774099990726,59.361774099990726,59.361774099990726,59.361774099990726,59.361774099990726,59.361774099990726,59.728202099970076,59.728202099970076,59.728202099970076,59.728202099970076,59.728202099970076,59.728202099970076,59.728202099970076,59.728202099970076,59.728202099970076,0,1,[0.0012505000340752304],[0.3671914000296965],59.728202099970076,59.928564200003166,1000,59.928564200003166,1000,1000,1000,1000,1,num_2,0.8273799999733455,,24,10,2026-03-04_16h03.31.654,2026A_exp2,2022.2.4,59.939640789638766,
1000,1,0.0,0.0,0,0,4,4,18,,,,,60.77943160000723,61.43005209998228,61.43005209998228,61.93096389999846,315,315,61.93096389999846,61.93096389999846,61.93096389999846,61.93096389999846,61.93096389999846,61.93096389999846,61.93096389999846,61.93096389999846,61.93096389999846,62.28091059997678,62.28091059997678,62.28091059997678,62.28091059997678,62.28091059997678,62.28091059997678,62.28091059997678,62.28091059997678,62.28091059997678,0,1,[0.0012219000491313636],[0.3512709999922663],62.28091059997678,62.484561799967196,1000,62.49791089998325,1000,1000,1000,1000,1,num_2,0.6172561999992467,,24,10,2026-03-04_16h03.31.654,2026A_exp2,2022.2.4,59.939640789638766,
1000,1,4.9,0.0,1,0,5,5,5,,,,,63.131832399987616,63.782412500004284,63.782412500004284,64.28337109996937,315,315,64.28337109996937,64.28337109996937,64.28337109996937,64.28337109996937,64.28337109996937,64.28337109996937,64.28337109996937,64.28337109996937,64.28337109996937,64.63321379997069,64.63321379997069,64.63321379997069,64.63321379997069,64.63321379997069,64.63321379997069,64.63321379997069,64.63321379997069,64.63321379997069,0,1,[0.0012144999927841127],[0.35057640000013635],64.63321379997069,64.83518860000186,1000,64.85023609997006,1000,1000,1000,1000,0,num_3,0.43300119997002184,,24,10,2026-03-04_16h03.31.654,2026A_exp2,2022.2.4,59.939640789638766,
1,0,0.0,4.9,1,0,6,6,21,,,,,65.30054379999638,65.95122230000561,65.95122230000561,66.45239759999095,45,315,66.45239759999095,66.45239759999095,66.45239759999095,66.45239759999095,66.45239759999095,66.45239759999095,66.45239759999095,66.45239759999095,66.45239759999095,66.8189521000022,66.8189521000022,66.8189521000022,66.8189521000022,66.8189521000022,66.8189521000022,66.8189521000022,66.8189521000022,66.8189521000022,0,1,[0.0012023000163026154],[0.3671837999718264],66.8189521000022,67.01895499997772,4.9,67.01895499997772,1,4.9,1,1,1000,num_4,0.672993799962569,,24,10,2026-03-04_16h03.31.654,2026A_exp2,2022.2.4,59.939640789638766,
0,0,0.0,0.0,1,0,7,7,71,,,,,67.71955809998326,68.37021690001711,68.37021690001711,68.85467079997761,315,45,68.85467079997761,68.85467079997761,68.85467079997761,68.85467079997761,68.85467079997761,68.85467079997761,68.85467079997761,68.85467079997761,68.85467079997761,69.22096579999197,69.22096579999197,69.22096579999197,69.22096579999197,69.22096579999197,69.22096579999197,69.22096579999197,69.22096579999197,69.22096579999197,0,1,[0.0012561999610625207],[0.36690680001629516],69.22096579999197,69.42132879997371,0.0,69.42132879997371,1,0.0,0,0,1000,num_4,1.2305781999602914,,24,10,2026-03-04_16h03.31.654,2026A_exp2,2022.2.4,59.939640789638766,
1000,1,4.9,3.7,0,0,8,8,32,,,,,70.67252859997097,71.32326949998969,71.32326949998969,71.80771959997946,45,45,71.80771959997946,71.80771959997946,71.80771959997946,71.80771959997946,71.80771959997946,71.80771959997946,71.80771959997946,71.80771959997946,71.80771959997946,72.17419609997887,72.17419609997887,72.17419609997887,72.17419609997887,72.17419609997887,72.17419609997887,72.17419609997887,72.17419609997887,72.17419609997887,0,1,[0.00121929997112602],[0.36726299999281764],72.17419609997887,72.37441829999443,1000,72.37441829999443,1000,1000,1000,1000,0,num_3,0.7900020999950357,,24,10,2026-03-04_16h03.31.654,2026A_exp2,2022.2.4,59.939640789638766,
1000,1,3.7,6.1,0,0,9,9,0,,,,,73.19204679998802,73.84237669996219,73.84237669996219,74.34355529997265,45,45,74.34355529997265,74.34355529997265,74.34355529997265,74.34355529997265,74.34355529997265,74.34355529997265,74.34355529997265,74.34355529997265,74.34355529997265,74.70983929996146,74.70983929996146,74.70983929996146,74.70983929996146,74.70983929996146,74.70983929996146,74.70983929996146,74.70983929996146,74.70983929996146,0,1,[0.0012411000207066536],[0.36681430001044646],74.70983929996146,74.91231879999395,1000,74.91231879999395,1000,1000,1000,1000,1,num_2,0.39568790001794696,,24,10,2026-03-04_16h03.31.654,2026A_exp2,2022.2.4,59.939640789638766,
1000,1,0.0,4.9,1,0,10,10,79,,,,,75.32730669999728,75.97792219999246,75.97792219999246,76.47886219999054,315,45,76.47886219999054,76.47886219999054,76.47886219999054,76.47886219999054,76.47886219999054,76.47886219999054,76.47886219999054,76.47886219999054,76.47886219999054,76.82869840000058,76.82869840000058,76.82869840000058,76.82869840000058,76.82869840000058,76.82869840000058,76.82869840000058,76.82869840000058,76.82869840000058,0,1,[0.0012866000179201365],[0.3506213999935426],76.82869840000058,77.02888529998017,1000,77.02888529998017,1000,1000,1000,1000,1,num_2,0.5025173000176437,,24,10,2026-03-04_16h03.31.654,2026A_exp2,2022.2.4,59.939640789638766,
0,0,0.0,6.1,0,0,11,11,7,,,,,77.54867839999497,78.19720980001148,78.19720980001148,78.69796089996817,45,45,78.69796089996817,78.69796089996817,78.69796089996817,78.69796089996817,78.69796089996817,78.69796089996817,78.69796089996817,78.69796089996817,78.69796089996817,79.06422679999378,79.06422679999378,79.06422679999378,79.06422679999378,79.06422679999378,79.06422679999378,79.06422679999378,79.06422679999378,79.06422679999378,0,1,[0.0011745000374503434],[0.36705240001901984],79.06422679999378,79.26459949999116,6.1,79.26459949999116,1,6.1,1,1,1000,num_4,0.6833718999987468,,24,10,2026-03-04_16h03.31.654,2026A_exp2,2022.2.4,59.939640789638766,
1000,1,0.0,0.0,1,0,12,12,33,,,,,79.96497609996004,80.59929310000734,80.59929310000734,81.100323199993,45,45,81.100323199993,81.100323199993,81.100323199993,81.100323199993,81.100323199993,81.100323199993,81.100323199993,81.100323199993,81.100323199993,81.46679859998403,81.46679859998403,81.46679859998403,81.46679859998403,81.46679859998403,81.46679859998403,81.46679859998403,81.46679859998403,81.46679859998403,0,1,[0.0012212000438012183],[0.36740530002862215],81.46679859998403,81.66924239997752,1000,81.66924239997752,1000,1000,1000,1000,0,num_3,0.6621531000128016,,24,10,2026-03-04_16h03.31.654,2026A_exp2,2022.2.4,59.939640789638766,
1,0,0.0,3.7,1,0,13,13,41,,,,,82.35088240000186,83.00152180000441,83.00152180000441,83.50278759998037,315,45,83.50278759998037,83.50278759998037,83.50278759998037,83.50278759998037,83.50278759998037,83.50278759998037,83.50278759998037,83.50278759998037,83.50278759998037,83.86921609996352,83.86921609996352,83.86921609996352,83.86921609996352,83.86921609996352,83.86921609996352,83.86921609996352,83.86921609996352,83.86921609996352,1,2,"[0.0012245000107213855, 0.06705389998387545]","[0.05030469998018816, 0.36752019997220486]",83.86921609996352,84.06941749999532,3.7,84.06941749999532,1,3.7,1,1,1000,num_4,0.8952571999980137,,24,10,2026-03-04_16h03.31.654,2026A_exp2,2022.2.4,59.939640789638766,
1000,1,4.9,0.0,0,0,14,14,54,,,,,84.98669270001119,85.63767199998256,85.63767199998256,86.12208609998925,315,315,86.12208609998925,86.12208609998925,86.12208609998925,86.12208609998925,86.12208609998925,86.12208609998925,86.12208609998925,86.12208609998925,86.12208609998925,86.48836129996926,86.48836129996926,86.48836129996926,86.48836129996926,86.48836129996926,86.48836129996926,86.48836129996926,86.48836129996926,86.48836129996926,0,1,[0.0012499000295065343],[0.36731539998436347],86.48836129996926,86.69096490001539,1000,86.69096490001539,1000,1000,1000,1000,0,num_3,0.928954699949827,,24,10,2026-03-04_16h03.31.654,2026A_exp2,2022.2.4,59.939640789638766,
1000,1,0.0,0.0,1,0,15,15,23,,,,,87.63943609996932,88.29027499997756,88.29027499997756,88.7912251999951,315,45,88.7912251999951,88.7912251999951,88.7912251999951,88.7912251999951,88.7912251999951,88.7912251999951,88.7912251999951,88.7912251999951,88.7912251999951,89.15781539998716,89.15781539998716,89.15781539998716,89.15781539998716,89.15781539998716,89.15781539998716,89.15781539998716,89.15781539998716,89.15781539998716,0,1,[0.0012208999833092093],[0.3670601000194438],89.15781539998716,89.36001539998688,1000,89.36001539998688,1000,1000,1000,1000,0,num_3,1.244520200008992,,24,10,2026-03-04_16h03.31.654,2026A_exp2,2022.2.4,59.939640789638766,
1,0,0.0,0.0,0,0,16,16,1,,,,,90.62579319998622,91.27663009997923,91.27663009997923,91.77753570000641,315,45,91.77753570000641,91.77753570000641,91.77753570000641,91.77753570000641,91.77753570000641,91.77753570000641,91.77753570000641,91.77753570000641,91.77753570000641,92.12738359998912,92.12738359998912,92.12738359998912,92.12738359998912,92.12738359998912,92.12738359998912,92.12738359998912,92.12738359998912,92.12738359998912,22,0,,,92.12738359998912,92.32777119998354,0.0,92.34441149997292,0,0.0,0,1,1000,num_1,0.8430494000203907,,24,10,2026-03-04_16h03.31.654,2026A_exp2,2022.2.4,59.939640789638766,
1,0,0.0,6.1,1,0,17,17,36,,,,,93.21168130001752,93.86240879999241,93.86240879999241,94.34690699999919,315,45,94.34690699999919,94.34690699999919,94.34690699999919,94.34690699999919,94.34690699999919,94.34690699999919,94.34690699999919,94.34690699999919,94.34690699999919,94.71334289998049,94.71334289998049,94.71334289998049,94.71334289998049,94.71334289998049,94.71334289998049,94.71334289998049,94.71334289998049,94.71334289998049,0,1,[0.001206299988552928],[0.36732970003504306],94.71334289998049,94.91340189997572,6.1,94.91340189997572,1,6.1,1,1,1000,num_4,0.5538392000016756,,24,10,2026-03-04_16h03.31.654,2026A_exp2,2022.2.4,59.939640789638766,
1000,1,0.0,0.0,0,0,18,18,15,,,,,95.49733729998115,96.14798139996128,96.14798139996128,96.63245089998236,45,315,96.63245089998236,96.63245089998236,96.63245089998236,96.63245089998236,96.63245089998236,96.63245089998236,96.63245089998236,96.63245089998236,96.63245089998236,96.99897620000411,96.99897620000411,96.99897620000411,96.99897620000411,96.99897620000411,96.99897620000411,96.99897620000411,96.99897620000411,96.99897620000411,0,1,[0.0012043999740853906],[0.3674176000058651],96.99897620000411,97.20091539999703,1000,97.20091539999703,1000,1000,1000,1000,1,num_2,0.9072466000216082,,24,10,2026-03-04_16h03.31.654,2026A_exp2,2022.2.4,59.939640789638766,
1000,1,6.1,0.0,1,0,19,19,16,,,,,98.13327240000945,98.78409169998486,98.78409169998486,99.28490440000314,45,315,99.28490440000314,99.28490440000314,99.28490440000314,99.28490440000314,99.28490440000314,99.28490440000314,99.28490440000314,99.28490440000314,99.28490440000314,99.63510519999545,99.63510519999545,99.63510519999545,99.63510519999545,99.63510519999545,99.63510519999545,99.63510519999545,99.63510519999545,99.63510519999545,20,2,"[0.0837475000298582, 0.23514070000965148]","[0.10034840001026168, 0.25202890002401546]",99.63510519999545,99.83774709998397,1000,99.85171249997802,1000,1000,1000,1000,0,num_3,1.0558988000266254,,24,10,2026-03-04_16h03.31.654,2026A_exp2,2022.2.4,59.939640789638766,
1000,1,0.0,0.0,0,0,20,20,74,,,,,100.93623009999283,101.58700529998168,101.58700529998168,102.08801909995964,45,315,102.08801909995964,102.08801909995964,102.08801909995964,102.08801909995964,102.08801909995964,102.08801909995964,102.08801909995964,102.08801909995964,102.08801909995964,102.43774729996221,102.43774729996221,102.43774729996221,102.43774729996221,102.43774729996221,102.43774729996221,102.43774729996221,102.43774729996221,102.43774729996221,8,3,"[0.0013780000153928995, 0.267203800030984, 0.3507952999789268]","[0.1839005000074394, 0.3005517999990843, 0.35080030001699924]",102.43774729996221,102.6398350999807,1000,102.6546701999614,1000,1000,1000,1000,0,num_3,0.6685550999827683,,24,10,2026-03-04_16h03.31.654,2026A_exp2,2022.2.4,59.939640789638766,
1000,1,6.1,0.0,1,0,21,21,30,,,,,103.33856940001715,103.98927039996488,103.98927039996488,104.49048500001663,45,315,104.49048500001663,104.49048500001663,104.49048500001663,104.49048500001663,104.49048500001663,104.49048500001663,104.49048500001663,104.49048500001663,104.49048500001663,104.85675799997989,104.85675799997989,104.85675799997989,104.85675799997989,104.85675799997989,104.85675799997989,104.85675799997989,104.85675799997989,104.85675799997989,7,4,"[0.0012640999630093575, 0.15029479999793693, 0.2504039999912493, 0.35064459999557585]","[0.10024220001650974, 0.23378070001490414, 0.30045569996582344, 0.36738939996575937]",104.85675799997989,105.05909709999105,1000,105.05909709999105,1000,1000,1000,1000,0,num_3,0.8247548999497667,,24,10,2026-03-04_16h03.31.654,2026A_exp2,2022.2.4,59.939640789638766,
1,0,0.0,6.1,0,0,22,22,34,,,,,105.90783099998953,106.5585859999992,106.5585859999992,107.04301029996714,315,315,107.04301029996714,107.04301029996714,107.04301029996714,107.04301029996714,107.04301029996714,107.04301029996714,107.04301029996714,107.04301029996714,107.04301029996714,107.40931949997321,107.40931949997321,107.40931949997321,107.40931949997321,107.40931949997321,107.40931949997321,107.40931949997321,107.40931949997321,107.40931949997321,0,1,[0.001207799999974668],[0.36725120001938194],107.40931949997321,107.60959800001001,0.0,107.60959800001001,0,0.0,0,1,1000,num_1,1.9617698999936692,,24,10,2026-03-04_16h03.31.654,2026A_exp2,2022.2.4,59.939640789638766,
1,0,0.0,6.1,1,0,23,23,40,,,,,109.59475439996459,110.24546720000217,110.24546720000217,110.73001010000007,45,45,110.73001010000007,110.73001010000007,110.73001010000007,110.73001010000007,110.73001010000007,110.73001010000007,110.73001010000007,110.73001010000007,110.73001010000007,111.09637619997375,111.09637619997375,111.09637619997375,111.09637619997375,111.09637619997375,111.09637619997375,111.09637619997375,111.09637619997375,111.09637619997375,0,1,[0.001206899993121624],[0.3672818999621086],111.09637619997375,111.29656190000242,6.1,111.29656190000242,1,6.1,1,1,1000,num_4,1.2192526000435464,,24,10,2026-03-04_16h03.31.654,2026A_exp2,2022.2.4,59.939640789638766,
1000,1,0.0,4.9,1,0,24,24,59,,,,,112.5478878999711,113.19848099997034,113.19848099997034,113.68287119996967,45,45,113.68287119996967,113.68287119996967,113.68287119996967,113.68287119996967,113.68287119996967,113.68287119996967,113.68287119996967,113.68287119996967,113.68287119996967,114.0493729999871,114.0493729999871,114.0493729999871,114.0493729999871,114.0493729999871,114.0493729999871,114.0493729999871,114.0493729999871,114.0493729999871,4,3,"[0.0012893000384792686, 0.3170061000273563, 0.3665929000126198]","[0.26696600002469495, 0.35000269999727607, 0.3665962000377476]",114.0493729999871,114.25153549999231,1000,114.25153549999231,1000,1000,1000,1000,1,num_2,0.7049649999826215,,24,10,2026-03-04_16h03.31.654,2026A_exp2,2022.2.4,59.939640789638766,
1000,1,0.0,0.0,1,0,25,25,67,,,,,114.98354400001699,115.63425349997124,115.63425349997124,116.13535309996223,45,315,116.13535309996223,116.13535309996223,116.13535309996223,116.13535309996223,116.13535309996223,116.13535309996223,116.13535309996223,116.13535309996223,116.13535309996223,116.50164520001272,116.50164520001272,116.50164520001272,116.50164520001272,116.50164520001272,116.50164520001272,116.50164520001272,116.50164520001272,116.50164520001272,0,1,[0.0012250999570824206],[0.367158799956087],116.50164520001272,116.70395599998301,1000,116.70395599998301,1000,1000,1000,1000,0,num_3,0.691486400028225,,24,10,2026-03-04_16h03.31.654,2026A_exp2,2022.2.4,59.939640789638766,
1,0,3.7,0.0,0,0,26,26,65,,,,,117.4193016999634,118.06999799999176,118.06999799999176,118.57118329999503,315,45,118.57118329999503,118.57118329999503,118.57118329999503,118.57118329999503,118.57118329999503,118.57118329999503,118.57118329999503,118.57118329999503,118.57118329999503,118.9375383000006,118.9375383000006,118.9375383000006,118.9375383000006,118.9375383000006,118.9375383000006,118.9375383000006,118.9375383000006,118.9375383000006,0,1,[0.001340000017080456],[0.36736269999528304],118.9375383000006,119.13765639998019,3.7,119.13765639998019,1,3.7,1,1,1000,num_4,0.7468288000090979,,24,10,2026-03-04_16h03.31.654,2026A_exp2,2022.2.4,59.939640789638766,
1,0,6.1,4.9,0,0,27,27,39,,,,,119.90510819997871,120.55586259998381,120.55586259998381,121.04032839997672,45,315,121.04032839997672,121.04032839997672,121.04032839997672,121.04032839997672,121.04032839997672,121.04032839997672,121.04032839997672,121.04032839997672,121.04032839997672,121.40671549999388,121.40671549999388,121.40671549999388,121.40671549999388,121.40671549999388,121.40671549999388,121.40671549999388,121.40671549999388,121.40671549999388,0,1,[0.001228799985256046],[0.36715910001657903],121.40671549999388,121.60683369997423,6.1,121.60683369997423,1,6.1,1,1,1000,num_4,0.7494387999759056,,24,10,2026-03-04_16h03.31.654,2026A_exp2,2022.2.4,59.939640789638766,
1000,1,0.0,6.1,0,0,28,28,37,,,,,122.37425659998553,123.03313759999583,123.03313759999583,123.52349629998207,45,45,123.52349629998207,123.52349629998207,123.52349629998207,123.52349629998207,123.52349629998207,123.52349629998207,123.52349629998207,123.52349629998207,123.52349629998207,123.87579999997979,123.87579999997979,123.87579999997979,123.87579999997979,123.87579999997979,123.87579999997979,123.87579999997979,123.87579999997979,123.87579999997979,0,1,[0.003906300000380725],[0.36430939997080714],123.87579999997979,124.07764619996306,1000,124.07764619996306,1000,1000,1000,1000,1,num_2,0.7495324999908917,,24,10,2026-03-04_16h03.31.654,2026A_exp2,2022.2.4,59.939640789638766,
1,0,0.0,6.1,0,0,29,29,11,,,,,124.84342009999091,125.49420189997181,125.49420189997181,125.99540179996984,45,315,125.99540179996984,125.99540179996984,125.99540179996984,125.99540179996984,125.99540179996984,125.99540179996984,125.99540179996984,125.99540179996984,125.99540179996984,126.36169130000053,126.36169130000053,126.36169130000053,126.36169130000053,126.36169130000053,126.36169130000053,126.36169130000053,126.36169130000053,126.36169130000053,9,5,"[0.050163500010967255, 0.1666049999766983, 0.21687080000992864, 0.266966599971056, 0.3506164000136778]","[0.15028220001840964, 0.1835420000134036, 0.25016160000814125, 0.3337798999855295, 0.36718860000837594]",126.36169130000053,126.56182559998706,0.0,126.56182559998706,0,0.0,0,1,1000,num_1,1.138576400000602,,24,10,2026-03-04_16h03.31.654,2026A_exp2,2022.2.4,59.939640789638766,
1000,1,0.0,0.0,0,0,30,30,81,,,,,127.72951500001363,128.38030429999344,128.38030429999344,128.86462229996687,315,45,128.86462229996687,128.86462229996687,128.86462229996687,128.86462229996687,128.86462229996687,128.86462229996687,128.86462229996687,128.86462229996687,128.86462229996687,129.23119299998507,129.23119299998507,129.23119299998507,129.23119299998507,129.23119299998507,129.23119299998507,129.23119299998507,129.23119299998507,129.23119299998507,2,1,[0.03323980001732707],[0.36759320000419393],129.23119299998507,129.43333159998292,1000,129.43333159998292,1000,1000,1000,1000,0,num_3,2.6669220000039786,,24,10,2026-03-04_16h03.31.654,2026A_exp2,2022.2.4,59.939640789638766,
1000,1,6.1,0.0,1,0,31,31,75,,,,,132.11730629997328,132.7722868999699,132.7722868999699,133.2779470999958,45,45,133.2779470999958,133.2779470999958,133.2779470999958,133.2779470999958,133.2779470999958,133.2779470999958,133.2779470999958,133.2779470999958,133.2779470999958,133.63571249996312,133.63571249996312,133.63571249996312,133.63571249996312,133.63571249996312,133.63571249996312,133.63571249996312,133.63571249996312,133.63571249996312,0,1,[0.003048399987164885],[0.36521119996905327],133.63571249996312,133.83770759997424,1000,133.83770759997424,1000,1000,1000,1000,0,num_3,0.5026133999926969,,24,10,2026-03-04_16h03.31.654,2026A_exp2,2022.2.4,59.939640789638766,
1000,1,0.0,4.9,1,0,32,32,31,,,,,134.36956199997803,135.0201750000124,135.0201750000124,135.5213056000066,315,315,135.5213056000066,135.5213056000066,135.5213056000066,135.5213056000066,135.5213056000066,135.5213056000066,135.5213056000066,135.5213056000066,135.5213056000066,135.88791519997176,135.88791519997176,135.88791519997176,135.88791519997176,135.88791519997176,135.88791519997176,135.88791519997176,135.88791519997176,135.88791519997176,0,1,[0.0012519999872893095],[0.3670960000017658],135.88791519997176,136.08980449999217,1000,136.08980449999217,1000,1000,1000,1000,1,num_2,0.6984710000106134,,24,10,2026-03-04_16h03.31.654,2026A_exp2,2022.2.4,59.939640789638766,
0,0,6.1,3.7,1,0,33,33,49,,,,,136.80538649996743,137.45609190000687,137.45609190000687,137.95717359997798,45,45,137.95717359997798,137.95717359997798,137.95717359997798,137.95717359997798,137.95717359997798,137.95717359997798,137.95717359997798,137.95717359997798,137.95717359997798,138.32349989999784,138.32349989999784,138.32349989999784,138.32349989999784,138.32349989999784,138.32349989999784,138.32349989999784,138.32349989999784,138.32349989999784,0,1,[0.0012938000145368278],[0.3667575999861583],138.32349989999784,138.52411319996463,6.1,138.52411319996463,1,6.1,1,1,1000,num_4,0.7035278999828734,,24,10,2026-03-04_16h03.31.654,2026A_exp2,2022.2.4,59.939640789638766,
1,0,0.0,6.1,0,0,34,34,60,,,,,139.25772049999796,139.90847989998292,139.90847989998292,140.3929832999711,45,315,140.3929832999711,140.3929832999711,140.3929832999711,140.3929832999711,140.3929832999711,140.3929832999711,140.3929832999711,140.3929832999711,140.3929832999711,140.75937539996812,140.75937539996812,140.75937539996812,140.75937539996812,140.75937539996812,140.75937539996812,140.75937539996812,140.75937539996812,140.75937539996812,0,1,[0.0012085000053048134],[0.3669053000048734],140.75937539996812,140.95965440000873,0.0,140.95965440000873,0,0.0,0,1,1000,num_1,1.2683146999916062,,24,10,2026-03-04_16h03.31.654,2026A_exp2,2022.2.4,59.939640789638766,
1000,1,4.9,0.0,0,0,35,35,26,,,,,142.2440880999784,142.8948398999637,142.8948398999637,143.37919559999136,45,45,143.37919559999136,143.37919559999136,143.37919559999136,143.37919559999136,143.37919559999136,143.37919559999136,143.37919559999136,143.37919559999136,143.37919559999136,143.74572050001007,143.74572050001007,143.74572050001007,143.74572050001007,143.74572050001007,143.74572050001007,143.74572050001007,143.74572050001007,143.74572050001007,6,1,[0.0012193999718874693],[0.2836916000233032],143.74572050001007,143.94799580000108,1000,143.94799580000108,1000,1000,1000,1000,0,num_3,1.0887663000030443,,24,10,2026-03-04_16h03.31.654,2026A_exp2,2022.2.4,59.939640789638766,
1000,1,0.0,0.0,0,0,36,36,64,,,,,145.06360489997314,145.71443270001328,145.71443270001328,146.21546500001568,45,315,146.21546500001568,146.21546500001568,146.21546500001568,146.21546500001568,146.21546500001568,146.21546500001568,146.21546500001568,146.21546500001568,146.21546500001568,146.56514149997383,146.56514149997383,146.56514149997383,146.56514149997383,146.56514149997383,146.56514149997383,146.56514149997383,146.56514149997383,146.56514149997383,0,1,[0.001222599996253848],[0.3507960999850184],146.56514149997383,146.76674240001012,1000,146.78202649997547,1000,1000,1000,1000,0,num_3,0.7899660999537446,,24,10,2026-03-04_16h03.31.654,2026A_exp2,2022.2.4,59.939640789638766,
1000,1,0.0,0.0,1,0,37,37,12,,,,,147.599454900017,148.25026329996763,148.25026329996763,148.75118640001165,315,45,148.75118640001165,148.75118640001165,148.75118640001165,148.75118640001165,148.75118640001165,148.75118640001165,148.75118640001165,148.75118640001165,148.75118640001165,149.1176826999872,149.1176826999872,149.1176826999872,149.1176826999872,149.1176826999872,149.1176826999872,149.1176826999872,149.1176826999872,149.1176826999872,0,1,[0.0010940000065602362],[0.36675070005003363],149.1176826999872,149.31989809998777,1000,149.31989809998777,1000,1000,1000,1000,0,num_3,0.39551489998120815,,24,10,2026-03-04_16h03.31.654,2026A_exp2,2022.2.4,59.939640789638766,
0,0,4.9,0.0,1,0,38,38,25,,,,,149.73485559999244,150.38577809999697,150.38577809999697,150.8866752999602,45,45,150.8866752999602,150.8866752999602,150.8866752999602,150.8866752999602,150.8866752999602,150.8866752999602,150.8866752999602,150.8866752999602,150.8866752999602,151.25324789999286,151.25324789999286,151.25324789999286,151.25324789999286,151.25324789999286,151.25324789999286,151.25324789999286,151.25324789999286,151.25324789999286,0,1,[0.0014723999775014818],[0.3671349000069313],151.25324789999286,151.45341799996095,4.9,151.45341799996095,1,4.9,1,1,1000,num_4,0.7269136999966577,,24,10,2026-03-04_16h03.31.654,2026A_exp2,2022.2.4,59.939640789638766,
1000,1,4.9,6.1,1,0,39,39,28,,,,,152.20400889997836,152.8546908000135,152.8546908000135,153.33918080001604,315,45,153.33918080001604,153.33918080001604,153.33918080001604,153.33918080001604,153.33918080001604,153.33918080001604,153.33918080001604,153.33918080001604,153.33918080001604,153.70561609999277,153.70561609999277,153.70561609999277,153.70561609999277,153.70561609999277,153.70561609999277,153.70561609999277,153.70561609999277,153.70561609999277,0,1,[0.0012920000008307397],[0.36708729999372736],153.70561609999277,153.9078867000062,1000,153.9078867000062,1000,1000,1000,1000,1,num_2,1.0562077999929897,,24,10,2026-03-04_16h03.31.654,2026A_exp2,2022.2.4,59.939640789638766,
1000,1,0.0,0.0,0,0,40,40,17,,,,,154.9899929999956,155.6409621000057,155.6409621000057,156.14203049999196,45,315,156.14203049999196,156.14203049999196,156.14203049999196,156.14203049999196,156.14203049999196,156.14203049999196,156.14203049999196,156.14203049999196,156.14203049999196,156.49173899996094,156.49173899996094,156.49173899996094,156.49173899996094,156.49173899996094,156.49173899996094,156.49173899996094,156.49173899996094,156.49173899996094,2,2,"[0.0012592999846674502, 0.10024579998571426]","[0.06690179998986423, 0.3505666999844834]",156.49173899996094,156.69361229997594,1000,156.69361229997594,1000,1000,1000,1000,1,num_2,0.7583467999938875,,24,10,2026-03-04_16h03.31.654,2026A_exp2,2022.2.4,59.939640789638766,
1000,1,3.7,0.0,0,0,41,41,57,,,,,157.47609889996238,158.1269846999785,158.1269846999785,158.62781989999348,45,315,158.62781989999348,158.62781989999348,158.62781989999348,158.62781989999348,158.62781989999348,158.62781989999348,158.62781989999348,158.62781989999348,158.62781989999348,158.9942280999967,158.9942280999967,158.9942280999967,158.9942280999967,158.9942280999967,158.9942280999967,158.9942280999967,158.9942280999967,158.9942280999967,1,2,"[0.0012753999908454716, 0.28347159997792915]","[0.26696169999195263, 0.36708629998611286]",158.9942280999967,159.19438439997612,1000,159.19438439997612,1000,1000,1000,1000,0,num_3,0.8734087000484578,,24,10,2026-03-04_16h03.31.654,2026A_exp2,2022.2.4,59.939640789638766,
1000,1,0.0,3.7,0,0,42,42,51,,,,,160.09529779996956,160.74599139997736,160.74599139997736,161.24703049997333,45,45,161.24703049997333,161.24703049997333,161.24703049997333,161.24703049997333,161.24703049997333,161.24703049997333,161.24703049997333,161.24703049997333,161.24703049997333,161.61353699996835,161.61353699996835,161.61353699996835,161.61353699996835,161.61353699996835,161.61353699996835,161.61353699996835,161.61353699996835,161.61353699996835,0,1,[0.0012416000245139003],[0.3671275000087917],161.61353699996835,161.81588770000963,1000,161.81588770000963,1000,1000,1000,1000,0,num_3,1.1157059999532066,,24,10,2026-03-04_16h03.31.654,2026A_exp2,2022.2.4,59.939640789638766,
1,0,0.0,0.0,1,0,43,43,6,,,,,162.94832660001703,163.59885919996304,163.59885919996304,164.08320829999866,315,315,164.08320829999866,164.08320829999866,164.08320829999866,164.08320829999866,164.08320829999866,164.08320829999866,164.08320829999866,164.08320829999866,164.08320829999866,164.44974389998242,164.44974389998242,164.44974389998242,164.44974389998242,164.44974389998242,164.44974389998242,164.44974389998242,164.44974389998242,164.44974389998242,0,1,[0.0012596000451594591],[0.36715030000777915],164.44974389998242,164.6498821999994,0.0,164.6498821999994,0,0.0,0,1,1000,num_1,1.1866068000090308,,24,10,2026-03-04_16h03.31.654,2026A_exp2,2022.2.4,59.939640789638766,
1000,1,3.7,4.9,1,0,44,44,44,,,,,165.86778939998476,166.5183493999648,166.5183493999648,167.01947080000537,45,45,167.01947080000537,167.01947080000537,167.01947080000537,167.01947080000537,167.01947080000537,167.01947080000537,167.01947080000537,167.01947080000537,167.01947080000537,167.36940279998817,167.36940279998817,167.36940279998817,167.36940279998817,167.36940279998817,167.36940279998817,167.36940279998817,167.36940279998817,167.36940279998817,3,4,"[0.0012515000416897237, 0.11686910002026707, 0.26700230001006275, 0.33384790003765374]","[0.10012780001852661, 0.2504381000180729, 0.31713129999116063, 0.3503677000408061]",167.36940279998817,167.5711486999644,1000,167.5711486999644,1000,1000,1000,1000,1,num_2,0.7601554000284523,,24,10,2026-03-04_16h03.31.654,2026A_exp2,2022.2.4,59.939640789638766,
1000,1,0.0,0.0,0,0,45,45,86,,,,,168.35333229997195,169.00413020001724,169.00413020001724,169.5052329999744,45,315,169.5052329999744,169.5052329999744,169.5052329999744,169.5052329999744,169.5052329999744,169.5052329999744,169.5052329999744,169.5052329999744,169.5052329999744,169.87183389998972,169.87183389998972,169.87183389998972,169.87183389998972,169.87183389998972,169.87183389998972,169.87183389998972,169.87183389998972,169.87183389998972,0,1,[0.001206299988552928],[0.3671104999957606],169.87183389998972,170.07372109999415,1000,170.07372109999415,1000,1000,1000,1000,0,num_3,0.7619857999961823,,24,10,2026-03-04_16h03.31.654,2026A_exp2,2022.2.4,59.939640789638766,
1,0,4.9,0.0,1,0,46,46,38,,,,,170.85598300001584,171.50691439997172,171.50691439997172,172.007826999994,45,315,172.007826999994,172.007826999994,172.007826999994,172.007826999994,172.007826999994,172.007826999994,172.007826999994,172.007826999994,172.007826999994,172.37430929997936,172.37430929997936,172.37430929997936,172.37430929997936,172.37430929997936,172.37430929997936,172.37430929997936,172.37430929997936,172.37430929997936,0,1,[0.0012913999962620437],[0.36727170000085607],172.37430929997936,172.5744701999938,0.0,172.5744701999938,0,0.0,0,1,1000,num_1,1.4295114999986254,,24,10,2026-03-04_16h03.31.654,2026A_exp2,2022.2.4,59.939640789638766,
1,0,0.0,0.0,0,0,47,47,29,,,,,174.02589960000478,174.67678619996877,174.67678619996877,175.16098539996892,315,315,175.16098539996892,175.16098539996892,175.16098539996892,175.16098539996892,175.16098539996892,175.16098539996892,175.16098539996892,175.16098539996892,175.16098539996892,175.52741460001562,175.52741460001562,175.52741460001562,175.52741460001562,175.52741460001562,175.52741460001562,175.52741460001562,175.52741460001562,175.52741460001562,0,1,[0.0012890000361949205],[0.3671821000170894],175.52741460001562,175.72768790001282,0.0,175.72768790001282,0,0.0,0,1,1000,num_1,0.8118887000018731,,24,10,2026-03-04_16h03.31.654,2026A_exp2,2022.2.4,59.939640789638766,
1000,1,0.0,0.0,0,0,48,48,83,,,,,176.56162589997984,177.21246179996524,177.21246179996524,177.69681300001685,315,45,177.69681300001685,177.69681300001685,177.69681300001685,177.69681300001685,177.69681300001685,177.69681300001685,177.69681300001685,177.69681300001685,177.69681300001685,178.06340509996517,178.06340509996517,178.06340509996517,178.06340509996517,178.06340509996517,178.06340509996517,178.06340509996517,178.06340509996517,178.06340509996517,0,1,[0.0012052999809384346],[0.36718579998705536],178.06340509996517,178.26558419998037,1000,178.26558419998037,1000,1000,1000,1000,1,num_2,1.0907059999881312,,24,10,2026-03-04_16h03.31.654,2026A_exp2,2022.2.4,59.939640789638766,
1000,1,4.9,0.0,1,0,49,49,72,,,,,179.38145059999079,180.03195589996176,180.03195589996176,180.53298299998278,45,45,180.53298299998278,180.53298299998278,180.53298299998278,180.53298299998278,180.53298299998278,180.53298299998278,180.53298299998278,180.53298299998278,180.53298299998278,180.89950100000715,180.89950100000715,180.89950100000715,180.89950100000715,180.89950100000715,180.89950100000715,180.89950100000715,180.89950100000715,180.89950100000715,23,0,,,180.89950100000715,181.10095069999807,1000,181.10095069999807,1000,1000,1000,1000,0,num_3,0.5187191000441089,,24,10,2026-03-04_16h03.31.654,2026A_exp2,2022.2.4,59.939640789638766,
1,0,0.0,4.9,0,0,50,50,4,,,,,181.65022999997018,182.3008021999849,182.3008021999849,182.8020559999859,45,315,182.8020559999859,182.8020559999859,182.8020559999859,182.8020559999859,182.8020559999859,182.8020559999859,182.8020559999859,182.8020559999859,182.8020559999859,183.1683149000164,183.1683149000164,183.1683149000164,183.1683149000164,183.1683149000164,183.1683149000164,183.1683149000164,183.1683149000164,183.1683149000164,0,1,[0.0012135000433772802],[0.3672826000256464],183.1683149000164,183.3686646000133,0.0,183.3686646000133,1,0.0,0,0,1000,num_4,1.0437607999774627,,24,10,2026-03-04_16h03.31.654,2026A_exp2,2022.2.4,59.939640789638766,
1000,1,0.0,6.1,1,0,51,51,62,,,,,184.43623190000653,185.08704269997543,185.08704269997543,185.57140730001265,315,45,185.57140730001265,185.57140730001265,185.57140730001265,185.57140730001265,185.57140730001265,185.57140730001265,185.57140730001265,185.57140730001265,185.57140730001265,185.93804239999736,185.93804239999736,185.93804239999736,185.93804239999736,185.93804239999736,185.93804239999736,185.93804239999736,185.93804239999736,185.93804239999736,0,1,[0.0012504999758675694],[0.36855309997918084],185.93804239999736,186.1541559000034,1000,186.1541559000034,1000,1000,1000,1000,0,num_3,1.0498338000033982,,24,10,2026-03-04_16h03.31.654,2026A_exp2,2022.2.4,59.939640789638766,
1000,1,3.7,4.9,1,0,52,52,43,,,,,187.22255840001162,187.87321389996214,187.87321389996214,188.37416800000938,315,45,188.37416800000938,188.37416800000938,188.37416800000938,188.37416800000938,188.37416800000938,188.37416800000938,188.37416800000938,188.37416800000938,188.37416800000938,188.7406377000152,188.7406377000152,188.7406377000152,188.7406377000152,188.7406377000152,188.7406377000152,188.7406377000152,188.7406377000152,188.7406377000152,0,1,[0.0010819000308401883],[0.36714310001116246],188.7406377000152,188.9428625999717,1000,188.9428625999717,1000,1000,1000,1000,0,num_3,1.2366250000195578,,24,10,2026-03-04_16h03.31.654,2026A_exp2,2022.2.4,59.939640789638766,
1,0,3.7,0.0,1,0,53,53,19,,,,,190.20877369999653,190.85944779997226,190.85944779997226,191.36042280000402,45,45,191.36042280000402,191.36042280000402,191.36042280000402,191.36042280000402,191.36042280000402,191.36042280000402,191.36042280000402,191.36042280000402,191.36042280000402,191.7271771999658,191.7271771999658,191.7271771999658,191.7271771999658,191.7271771999658,191.7271771999658,191.7271771999658,191.7271771999658,191.7271771999658,0,1,[0.0013188000302761793],[0.3669923000270501],191.7271771999658,191.9271649000002,0.0,191.9271649000002,1,0.0,0,0,1000,num_4,1.0762301000067964,,24,10,2026-03-04_16h03.31.654,2026A_exp2,2022.2.4,59.939640789638766,
0,0,0.0,3.7,1,0,54,54,10,,,,,193.02821550000226,193.6789961999748,193.6789961999748,194.16333539999323,45,45,194.16333539999323,194.16333539999323,194.16333539999323,194.16333539999323,194.16333539999323,194.16333539999323,194.16333539999323,194.16333539999323,194.16333539999323,194.52989239996532,194.52989239996532,194.52989239996532,194.52989239996532,194.52989239996532,194.52989239996532,194.52989239996532,194.52989239996532,194.52989239996532,0,1,[0.0012169000110588968],[0.36678580002626404],194.52989239996532,194.7300161999883,0.0,194.7300161999883,0,0.0,0,1,1000,num_1,0.9858399999793619,,24,10,2026-03-04_16h03.31.654,2026A_exp2,2022.2.4,59.939640789638766,
1,0,0.0,0.0,1,0,55,55,73,,,,,195.74775979999686,196.39820389996748,196.39820389996748,196.88266669999575,45,45,196.88266669999575,196.88266669999575,196.88266669999575,196.88266669999575,196.88266669999575,196.88266669999575,196.88266669999575,196.88266669999575,196.88266669999575,197.24910780001665,197.24910780001665,197.24910780001665,197.24910780001665,197.24910780001665,197.24910780001665,197.24910780001665,197.24910780001665,197.24910780001665,0,1,[0.0012101000174880028],[0.36739650001982227],197.24910780001665,197.4493304999778,0.0,197.4493304999778,0,0.0,0,1,1000,num_1,1.4669585999799892,,24,10,2026-03-04_16h03.31.654,2026A_exp2,2022.2.4,59.939640789638766,
1000,1,3.7,0.0,0,0,56,56,45,,,,,198.93405099998927,199.5850216000108,199.5850216000108,200.0693200000096,45,45,200.0693200000096,200.0693200000096,200.0693200000096,200.0693200000096,200.0693200000096,200.0693200000096,200.0693200000096,200.0693200000096,200.0693200000096,200.4357427000068,200.4357427000068,200.4357427000068,200.4357427000068,200.4357427000068,200.4357427000068,200.4357427000068,200.4357427000068,200.4357427000068,0,1,[0.0012203999795019627],[0.36724719998892397],200.4357427000068,200.63807739998447,1000,200.63807739998447,1000,1000,1000,1000,0,num_3,0.9742257999605499,,24,10,2026-03-04_16h03.31.654,2026A_exp2,2022.2.4,59.939640789638766,
1,0,6.1,0.0,0,0,57,57,56,,,,,201.63705389999086,202.29208320000907,202.29208320000907,202.78861370001687,45,45,202.78861370001687,202.78861370001687,202.78861370001687,202.78861370001687,202.78861370001687,202.78861370001687,202.78861370001687,202.78861370001687,202.78861370001687,203.15509229997406,203.15509229997406,203.15509229997406,203.15509229997406,203.15509229997406,203.15509229997406,203.15509229997406,203.15509229997406,203.15509229997406,4,3,"[0.0013094000169076025, 0.2838154000346549, 0.3505571000277996]","[0.2671222999924794, 0.30055450001964346, 0.36713790002977476]",203.15509229997406,203.355203300016,6.1,203.355203300016,1,6.1,1,1,1000,num_4,0.7525849000085145,,24,10,2026-03-04_16h03.31.654,2026A_exp2,2022.2.4,59.939640789638766,
1,0,3.7,0.0,0,0,58,58,42,,,,,204.13925999996718,204.79000769997947,204.79000769997947,205.27428030001465,315,315,205.27428030001465,205.27428030001465,205.27428030001465,205.27428030001465,205.27428030001465,205.27428030001465,205.27428030001465,205.27428030001465,205.27428030001465,205.6412224000087,205.6412224000087,205.6412224000087,205.6412224000087,205.6412224000087,205.6412224000087,205.6412224000087,205.6412224000087,205.6412224000087,20,2,"[0.16644420003285632, 0.2664818000048399]","[0.18326510000042617, 0.2998370000277646]",205.6412224000087,205.84098129998893,3.7,205.84098129998893,1,3.7,1,1,1000,num_4,0.6026845999876969,,24,10,2026-03-04_16h03.31.654,2026A_exp2,2022.2.4,59.939640789638766,
1,0,0.0,3.7,0,0,59,59,35,,,,,206.47506259998772,207.10911610000767,207.10911610000767,207.61032420000993,45,315,207.61032420000993,207.61032420000993,207.61032420000993,207.61032420000993,207.61032420000993,207.61032420000993,207.61032420000993,207.61032420000993,207.61032420000993,207.9768260999699,207.9768260999699,207.9768260999699,207.9768260999699,207.9768260999699,207.9768260999699,207.9768260999699,207.9768260999699,207.9768260999699,0,1,[0.0012951999669894576],[0.3671038000029512],207.9768260999699,208.17678829998476,0.0,208.17678829998476,0,0.0,0,1,1000,num_1,1.0828824999625795,,24,10,2026-03-04_16h03.31.654,2026A_exp2,2022.2.4,59.939640789638766,
1,0,0.0,3.7,1,0,60,60,66,,,,,209.27771639998537,209.9284773999825,209.9284773999825,210.41302909998922,45,45,210.41302909998922,210.41302909998922,210.41302909998922,210.41302909998922,210.41302909998922,210.41302909998922,210.41302909998922,210.41302909998922,210.41302909998922,210.77920200000517,210.77920200000517,210.77920200000517,210.77920200000517,210.77920200000517,210.77920200000517,210.77920200000517,210.77920200000517,210.77920200000517,0,1,[0.0012274000328034163],[0.3667504000477493],210.77920200000517,210.97949389996938,3.7,210.97949389996938,1,3.7,1,1,1000,num_4,0.6877927000168711,,24,10,2026-03-04_16h03.31.654,2026A_exp2,2022.2.4,59.939640789638766,
1000,1,0.0,0.0,0,0,61,61,80,,,,,211.69686809997074,212.34757049998734,212.34757049998734,212.83193479996407,315,45,212.83193479996407,212.83193479996407,212.83193479996407,212.83193479996407,212.83193479996407,212.83193479996407,212.83193479996407,212.83193479996407,212.83193479996407,213.1984673999832,213.1984673999832,213.1984673999832,213.1984673999832,213.1984673999832,213.1984673999832,213.1984673999832,213.1984673999832,213.1984673999832,2,3,"[0.0012381999986246228, 0.20049249997828156, 0.36681869998574257]","[0.1836849999963306, 0.3503095000050962, 0.36682150000706315]",213.1984673999832,213.40056029998232,1000,213.40056029998232,1000,1000,1000,1000,0,num_3,0.955684199987445,,24,10,2026-03-04_16h03.31.654,2026A_exp2,2022.2.4,59.939640789638766,
1,0,3.7,6.1,0,0,62,62,55,,,,,214.3828756000148,215.03364569996484,215.03364569996484,215.53467550000641,45,315,215.53467550000641,215.53467550000641,215.53467550000641,215.53467550000641,215.53467550000641,215.53467550000641,215.53467550000641,215.53467550000641,215.53467550000641,215.90123469999526,215.90123469999526,215.90123469999526,215.90123469999526,215.90123469999526,215.90123469999526,215.90123469999526,215.90123469999526,215.90123469999526,8,4,"[0.05009490001248196, 0.1167655999888666, 0.16702360002091154, 0.25020949996542186]","[0.06680189998587593, 0.1501855999813415, 0.23348479997366667, 0.36697149998508394]",215.90123469999526,216.10126759996638,3.7,216.10126759996638,0,3.7,1,0,1000,num_1,0.9025378999649547,,24,10,2026-03-04_16h03.31.654,2026A_exp2,2022.2.4,59.939640789638766,
1,0,0.0,6.1,1,0,63,63,52,,,,,217.03557690000162,217.68625779997092,217.68625779997092,218.17074470000807,315,45,218.17074470000807,218.17074470000807,218.17074470000807,218.17074470000807,218.17074470000807,218.17074470000807,218.17074470000807,218.17074470000807,218.17074470000807,218.53720389999216,218.53720389999216,218.53720389999216,218.53720389999216,218.53720389999216,218.53720389999216,218.53720389999216,218.53720389999216,218.53720389999216,0,1,[0.0012655999744310975],[0.3670064999605529],218.53720389999216,218.73738589999266,6.1,218.73738589999266,1,6.1,1,1,1000,num_4,0.5861696000210941,,24,10,2026-03-04_16h03.31.654,2026A_exp2,2022.2.4,59.939640789638766,
0,0,0.0,0.0,1,0,64,64,89,,,,,219.35453429998597,220.00515809998615,220.00515809998615,220.48961839999538,45,45,220.48961839999538,220.48961839999538,220.48961839999538,220.48961839999538,220.48961839999538,220.48961839999538,220.48961839999538,220.48961839999538,220.48961839999538,220.8559668000089,220.8559668000089,220.8559668000089,220.8559668000089,220.8559668000089,220.8559668000089,220.8559668000089,220.8559668000089,220.8559668000089,0,1,[0.0012061000452376902],[0.3671023000497371],220.8559668000089,221.06844870001078,0.0,221.06844870001078,0,0.0,0,1,1000,num_1,1.2798318000277504,,24,10,2026-03-04_16h03.31.654,2026A_exp2,2022.2.4,59.939640789638766,
1000,1,0.0,0.0,0,0,65,65,85,,,,,222.37424739997368,223.02495940000517,223.02495940000517,223.50924980000127,315,315,223.50924980000127,223.50924980000127,223.50924980000127,223.50924980000127,223.50924980000127,223.50924980000127,223.50924980000127,223.50924980000127,223.50924980000127,223.87587899999926,223.87587899999926,223.87587899999926,223.87587899999926,223.87587899999926,223.87587899999926,223.87587899999926,223.87587899999926,223.87587899999926,4,2,"[0.017712200002279133, 0.10009960003662854]","[0.05021010001655668, 0.36756069998955354]",223.87587899999926,224.08189679996576,1000,224.08189679996576,1000,1000,1000,1000,1,num_2,0.8739375000004657,,24,10,2026-03-04_16h03.31.654,2026A_exp2,2022.2.4,59.939640789638766,
1000,1,0.0,0.0,1,0,66,66,27,,,,,224.9767906999914,225.62782850000076,225.62782850000076,226.12856079998892,315,315,226.12856079998892,226.12856079998892,226.12856079998892,226.12856079998892,226.12856079998892,226.12856079998892,226.12856079998892,226.12856079998892,226.12856079998892,226.47846690000733,226.47846690000733,226.47846690000733,226.47846690000733,226.47846690000733,226.47846690000733,226.47846690000733,226.47846690000733,226.47846690000733,0,1,[0.0012451999937184155],[0.3506327000213787],226.47846690000733,226.68062699999427,1000,226.68062699999427,1000,1000,1000,1000,1,num_2,1.0193173000006936,,24,10,2026-03-04_16h03.31.654,2026A_exp2,2022.2.4,59.939640789638766,
1,0,0.0,0.0,1,0,67,67,87,,,,,227.72981250000885,228.38030319998506,228.38030319998506,228.8648229999817,315,45,228.8648229999817,228.8648229999817,228.8648229999817,228.8648229999817,228.8648229999817,228.8648229999817,228.8648229999817,228.8648229999817,228.8648229999817,229.23102299997117,229.23102299997117,229.23102299997117,229.23102299997117,229.23102299997117,229.23102299997117,229.23102299997117,229.23102299997117,229.23102299997117,0,1,[0.001233499962836504],[0.36738479998894036],229.23102299997117,229.43139129999327,0.0,229.43139129999327,1,0.0,0,0,1000,num_4,0.7247311000246555,,24,10,2026-03-04_16h03.31.654,2026A_exp2,2022.2.4,59.939640789638766,
1000,1,3.7,0.0,0,0,68,68,2,,,,,230.18201079999562,230.83270199998515,230.83270199998515,231.31721439998364,45,45,231.31721439998364,231.31721439998364,231.31721439998364,231.31721439998364,231.31721439998364,231.31721439998364,231.31721439998364,231.31721439998364,231.31721439998364,231.6836561000091,231.6836561000091,231.6836561000091,231.6836561000091,231.6836561000091,231.6836561000091,231.6836561000091,231.6836561000091,231.6836561000091,0,1,[0.0011322000063955784],[0.36752890003845096],231.6836561000091,231.88464389997534,1000,231.88464389997534,1000,1000,1000,1000,0,num_3,1.0156272000167519,,24,10,2026-03-04_16h03.31.654,2026A_exp2,2022.2.4,59.939640789638766,
1,0,4.9,0.0,0,0,69,69,58,,,,,232.91811729996698,233.56883940001717,233.56883940001717,234.0698631000123,45,45,234.0698631000123,234.0698631000123,234.0698631000123,234.0698631000123,234.0698631000123,234.0698631000123,234.0698631000123,234.0698631000123,234.0698631000123,234.41954169998644,234.41954169998644,234.41954169998644,234.41954169998644,234.41954169998644,234.41954169998644,234.41954169998644,234.41954169998644,234.41954169998644,0,1,[0.001221399987116456],[0.3506125999847427],234.41954169998644,234.61978700000327,4.9,234.61978700000327,1,4.9,1,1,1000,num_4,0.7839567000046372,,24,10,2026-03-04_16h03.31.654,2026A_exp2,2022.2.4,59.939640789638766,
1000,1,6.1,0.0,0,0,70,70,82,,,,,235.42058530001668,236.0713063000003,236.0713063000003,236.55575880000833,45,45,236.55575880000833,236.55575880000833,236.55575880000833,236.55575880000833,236.55575880000833,236.55575880000833,236.55575880000833,236.55575880000833,236.55575880000833,236.92225459998008,236.92225459998008,236.92225459998008,236.92225459998008,236.92225459998008,236.92225459998008,236.92225459998008,236.92225459998008,236.92225459998008,0,1,[0.0011982000432908535],[0.36712519999127835],236.92225459998008,237.12425779999467,1000,237.12425779999467,1000,1000,1000,1000,0,num_3,0.792482899967581,,24,10,2026-03-04_16h03.31.654,2026A_exp2,2022.2.4,59.939640789638766,
1,0,0.0,0.0,0,0,71,71,63,,,,,237.93975570000475,238.5904859000002,238.5904859000002,239.09148569998797,45,45,239.09148569998797,239.09148569998797,239.09148569998797,239.09148569998797,239.09148569998797,239.09148569998797,239.09148569998797,239.09148569998797,239.09148569998797,239.45802149997326,239.45802149997326,239.45802149997326,239.45802149997326,239.45802149997326,239.45802149997326,239.45802149997326,239.45802149997326,239.45802149997326,0,1,[0.0012512999819591641],[0.36705180001445115],239.45802149997326,239.65836050000507,0.0,239.65836050000507,0,0.0,0,1,1000,num_1,1.2978478000150062,,24,10,2026-03-04_16h03.31.654,2026A_exp2,2022.2.4,59.939640789638766,
1,0,6.1,0.0,0,0,72,72,70,,,,,240.97617579996586,241.6101891999715,241.6101891999715,242.11134559998754,315,315,242.11134559998754,242.11134559998754,242.11134559998754,242.11134559998754,242.11134559998754,242.11134559998754,242.11134559998754,242.11134559998754,242.11134559998754,242.4776123999618,242.4776123999618,242.4776123999618,242.4776123999618,242.4776123999618,242.4776123999618,242.4776123999618,242.4776123999618,242.4776123999618,14,4,"[0.017321099992841482, 0.09982309996848926, 0.20047559996601194, 0.3171868000063114]","[0.06672110001090914, 0.1330469999811612, 0.21688969997921959, 0.3672596999676898]",242.4776123999618,242.67784530000063,6.1,242.67784530000063,1,6.1,1,1,1000,num_4,0.6304462000261992,,24,10,2026-03-04_16h03.31.654,2026A_exp2,2022.2.4,59.939640789638766,
1,0,4.9,0.0,1,0,73,73,8,,,,,243.32848929998,243.97914469998796,243.97914469998796,244.46369820000837,315,45,244.46369820000837,244.46369820000837,244.46369820000837,244.46369820000837,244.46369820000837,244.46369820000837,244.46369820000837,244.46369820000837,244.46369820000837,244.83007049997104,244.83007049997104,244.83007049997104,244.83007049997104,244.83007049997104,244.83007049997104,244.83007049997104,244.83007049997104,244.83007049997104,0,1,[0.0012188000255264342],[0.36708130000624806],244.83007049997104,245.03035209997324,0.0,245.03035209997324,0,0.0,0,1,1000,num_1,1.0533947999938391,,24,10,2026-03-04_16h03.31.654,2026A_exp2,2022.2.4,59.939640789638766,
1,0,0.0,3.7,0,0,74,74,61,,,,,246.1145109999925,246.76541819999693,246.76541819999693,247.24969889997737,45,315,247.24969889997737,247.24969889997737,247.24969889997737,247.24969889997737,247.24969889997737,247.24969889997737,247.24969889997737,247.24969889997737,247.24969889997737,247.6162213999778,247.6162213999778,247.6162213999778,247.6162213999778,247.6162213999778,247.6162213999778,247.6162213999778,247.6162213999778,247.6162213999778,0,1,[0.0012165000080130994],[0.36720370000693947],247.6162213999778,247.81645509996451,0.0,247.81645509996451,1,0.0,0,0,1000,num_4,1.1957792000030167,,24,10,2026-03-04_16h03.31.654,2026A_exp2,2022.2.4,59.939640789638766,
1,0,3.7,0.0,1,0,75,75,50,,,,,249.03407689998858,249.6848478000029,249.6848478000029,250.16946509998525,45,315,250.16946509998525,250.16946509998525,250.16946509998525,250.16946509998525,250.16946509998525,250.16946509998525,250.16946509998525,250.16946509998525,250.16946509998525,250.53578769997694,250.53578769997694,250.53578769997694,250.53578769997694,250.53578769997694,250.53578769997694,250.53578769997694,250.53578769997694,250.53578769997694,2,2,"[0.0012722999672405422, 0.23363450000761077]","[0.20024969999212772, 0.36722449999069795]",250.53578769997694,250.73607719998108,0.0,250.73607719998108,0,0.0,0,1,1000,num_1,1.3798987999907695,,24,10,2026-03-04_16h03.31.654,2026A_exp2,2022.2.4,59.939640789638766,
1,0,0.0,4.9,1,0,76,76,53,,,,,252.13734879996628,252.78813120000996,252.78813120000996,253.2725735999993,315,315,253.2725735999993,253.2725735999993,253.2725735999993,253.2725735999993,253.2725735999993,253.2725735999993,253.2725735999993,253.2725735999993,253.2725735999993,253.6387556999689,253.6387556999689,253.6387556999689,253.6387556999689,253.6387556999689,253.6387556999689,253.6387556999689,253.6387556999689,253.6387556999689,0,1,[0.0012124000350013375],[0.36739850003505126],253.6387556999689,253.8392085999949,4.9,253.8392085999949,1,4.9,1,1,1000,num_4,0.5810845000087284,,24,10,2026-03-04_16h03.31.654,2026A_exp2,2022.2.4,59.939640789638766,
1000,1,6.1,0.0,0,0,77,77,14,,,,,254.43957689998206,255.09027729998343,255.09027729998343,255.5748314000084,315,45,255.5748314000084,255.5748314000084,255.5748314000084,255.5748314000084,255.5748314000084,255.5748314000084,255.5748314000084,255.5748314000084,255.5748314000084,255.9412667999859,255.9412667999859,255.9412667999859,255.9412667999859,255.9412667999859,255.9412667999859,255.9412667999859,255.9412667999859,255.9412667999859,0,1,[0.001199799997266382],[0.36722549999831244],255.9412667999859,256.1430631999974,1000,256.1430631999974,1000,1000,1000,1000,0,num_3,1.197127899969928,,24,10,2026-03-04_16h03.31.654,2026A_exp2,2022.2.4,59.939640789638766,
1,0,6.1,4.9,0,0,78,78,24,,,,,257.35922819998814,258.00984309997875,258.00984309997875,258.5109999999986,315,45,258.5109999999986,258.5109999999986,258.5109999999986,258.5109999999986,258.5109999999986,258.5109999999986,258.5109999999986,258.5109999999986,258.5109999999986,258.87739589996636,258.87739589996636,258.87739589996636,258.87739589996636,258.87739589996636,258.87739589996636,258.87739589996636,258.87739589996636,258.87739589996636,0,1,[0.0012727000284940004],[0.36705360002815723],258.87739589996636,259.0777233999688,6.1,259.0777233999688,1,6.1,1,1,1000,num_4,0.7339565000147559,,24,10,2026-03-04_16h03.31.654,2026A_exp2,2022.2.4,59.939640789638766,
1000,1,0.0,4.9,1,0,79,79,76,,,,,259.82834989996627,260.4623741999967,260.4623741999967,260.9634604000021,45,45,260.9634604000021,260.9634604000021,260.9634604000021,260.9634604000021,260.9634604000021,260.9634604000021,260.9634604000021,260.9634604000021,260.9634604000021,261.3299859999679,261.3299859999679,261.3299859999679,261.3299859999679,261.3299859999679,261.3299859999679,261.3299859999679,261.3299859999679,261.3299859999679,0,1,[0.0012150999973528087],[0.36667650000890717],261.3299859999679,261.53204419999383,1000,261.53204419999383,1000,1000,1000,1000,1,num_2,0.6881711999885738,,24,10,2026-03-04_16h03.31.654,2026A_exp2,2022.2.4,59.939640789638766,
1000,1,4.9,0.0,1,0,80,80,22,,,,,262.2475456999964,262.8981984999846,262.8981984999846,263.39915249997284,315,45,263.39915249997284,263.39915249997284,263.39915249997284,263.39915249997284,263.39915249997284,263.39915249997284,263.39915249997284,263.39915249997284,263.39915249997284,263.748998199997,263.748998199997,263.748998199997,263.748998199997,263.748998199997,263.748998199997,263.748998199997,263.748998199997,263.748998199997,0,1,[0.0012912999955005944],[0.35040399996796623],263.748998199997,263.95124650001526,1000,263.95124650001526,1000,1000,1000,1000,0,num_3,0.5484009999781847,,24,10,2026-03-04_16h03.31.654,2026A_exp2,2022.2.4,59.939640789638766,
1000,1,6.1,0.0,1,0,81,81,69,,,,,264.51636609999696,265.16703179996694,265.16703179996694,265.6681347999838,45,315,265.6681347999838,265.6681347999838,265.6681347999838,265.6681347999838,265.6681347999838,265.6681347999838,265.6681347999838,265.6681347999838,265.6681347999838,266.03463870001724,266.03463870001724,266.03463870001724,266.03463870001724,266.03463870001724,266.03463870001724,266.03463870001724,266.03463870001724,266.03463870001724,0,1,[0.0012400000123307109],[0.367447099997662],266.03463870001724,266.2368571999832,1000,266.2368571999832,1000,1000,1000,1000,0,num_3,0.5271145000006072,,24,10,2026-03-04_16h03.31.654,2026A_exp2,2022.2.4,59.939640789638766,
1000,1,0.0,3.7,1,0,82,82,47,,,,,266.78528159996495,267.4361232999945,267.4361232999945,267.9371988999774,45,45,267.9371988999774,267.9371988999774,267.9371988999774,267.9371988999774,267.9371988999774,267.9371988999774,267.9371988999774,267.9371988999774,267.9371988999774,268.30356159998337,268.30356159998337,268.30356159998337,268.30356159998337,268.30356159998337,268.30356159998337,268.30356159998337,268.30356159998337,268.30356159998337,0,1,[0.0012394000077620149],[0.3672247999929823],268.30356159998337,268.50578469998436,1000,268.50578469998436,1000,1000,1000,1000,1,num_2,0.5536678999778815,,24,10,2026-03-04_16h03.31.654,2026A_exp2,2022.2.4,59.939640789638766,
1,0,3.7,3.7,0,0,83,83,13,,,,,269.08787340001436,269.73831659997813,269.73831659997813,270.23948549997294,45,45,270.23948549997294,270.23948549997294,270.23948549997294,270.23948549997294,270.23948549997294,270.23948549997294,270.23948549997294,270.23948549997294,270.23948549997294,270.58924160001334,270.58924160001334,270.58924160001334,270.58924160001334,270.58924160001334,270.58924160001334,270.58924160001334,270.58924160001334,270.58924160001334,0,1,[0.0012030000216327608],[0.3505408000200987],270.58924160001334,270.7892067999928,3.7,270.8061311999918,1,3.7,1,1,1000,num_4,0.7423376999795437,,24,10,2026-03-04_16h03.31.654,2026A_exp2,2022.2.4,59.939640789638766,
1000,1,0.0,6.1,1,0,84,84,88,,,,,271.57336089998716,272.2241966999718,272.2241966999718,272.70864530000836,315,315,272.70864530000836,272.70864530000836,272.70864530000836,272.70864530000836,272.70864530000836,272.70864530000836,272.70864530000836,272.70864530000836,272.70864530000836,273.0749754999997,273.0749754999997,273.0749754999997,273.0749754999997,273.0749754999997,273.0749754999997,273.0749754999997,273.0749754999997,273.0749754999997,0,1,[0.0012072999961674213],[0.36720989999594167],273.0749754999997,273.2773383000167,1000,273.2773383000167,1000,1000,1000,1000,1,num_2,0.6943469000398181,,24,10,2026-03-04_16h03.31.654,2026A_exp2,2022.2.4,59.939640789638766,
1000,1,0.0,6.1,0,0,85,85,9,,,,,273.99245949997567,274.64334770001005,274.64334770001005,275.1443743999698,315,45,275.1443743999698,275.1443743999698,275.1443743999698,275.1443743999698,275.1443743999698,275.1443743999698,275.1443743999698,275.1443743999698,275.1443743999698,275.51064210000914,275.51064210000914,275.51064210000914,275.51064210000914,275.51064210000914,275.51064210000914,275.51064210000914,275.51064210000914,275.51064210000914,0,1,[0.0012427999754436314],[0.3672779999906197],275.51064210000914,275.7129352999618,1000,275.7129352999618,1000,1000,1000,1000,1,num_2,0.5943994999979623,,24,10,2026-03-04_16h03.31.654,2026A_exp2,2022.2.4,59.939640789638766,
1000,1,3.7,0.0,1,0,86,86,48,,,,,276.3282059999765,276.97882849996677,276.97882849996677,277.49376899999334,45,45,277.49376899999334,277.49376899999334,277.49376899999334,277.49376899999334,277.49376899999334,277.49376899999334,277.49376899999334,277.49376899999334,277.49376899999334,277.84653839998646,277.84653839998646,277.84653839998646,277.84653839998646,277.84653839998646,277.84653839998646,277.84653839998646,277.84653839998646,277.84653839998646,0,1,[0.004205900011584163],[0.36595259996829554],277.84653839998646,278.0618803999969,1000,278.0618803999969,1000,1000,1000,1000,1,num_2,0.6467398999957368,,24,10,2026-03-04_16h03.31.654,2026A_exp2,2022.2.4,59.939640789638766,
1000,1,6.1,6.1,1,0,87,87,77,,,,,278.73058609996224,279.3812486999668,279.3812486999668,279.88231479999376,315,45,279.88231479999376,279.88231479999376,279.88231479999376,279.88231479999376,279.88231479999376,279.88231479999376,279.88231479999376,279.88231479999376,279.88231479999376,280.24886870000046,280.24886870000046,280.24886870000046,280.24886870000046,280.24886870000046,280.24886870000046,280.24886870000046,280.24886870000046,280.24886870000046,0,1,[0.0012153999996371567],[0.36708390002604574],280.24886870000046,280.4512510999921,1000,280.4512510999921,1000,1000,1000,1000,1,num_2,0.689392999978736,,24,10,2026-03-04_16h03.31.654,2026A_exp2,2022.2.4,59.939640789638766,
1,0,3.7,0.0,0,0,88,88,3,,,,,281.1663734999602,281.8171194999595,281.8171194999595,282.3181486999965,45,315,282.3181486999965,282.3181486999965,282.3181486999965,282.3181486999965,282.3181486999965,282.3181486999965,282.3181486999965,282.3181486999965,282.3181486999965,282.6679410999641,282.6679410999641,282.6679410999641,282.6679410999641,282.6679410999641,282.6679410999641,282.6679410999641,282.6679410999641,282.6679410999641,0,1,[0.0012733000330626965],[0.3505426000338048],282.6679410999641,282.86823650001315,3.7,282.86823650001315,0,3.7,1,0,1000,num_1,1.3686044000205584,,24,10,2026-03-04_16h03.31.654,2026A_exp2,2022.2.4,59.939640789638766,
1000,1,0.0,3.7,0,0,89,89,78,,,,,284.25449469999876,284.9034893999924,284.9034893999924,285.40444189996924,45,315,285.40444189996924,285.40444189996924,285.40444189996924,285.40444189996924,285.40444189996924,285.40444189996924,285.40444189996924,285.40444189996924,285.40444189996924,285.77104129997315,285.77104129997315,285.77104129997315,285.77104129997315,285.77104129997315,285.77104129997315,285.77104129997315,285.77104129997315,285.77104129997315,0,1,[0.001209600013680756],[0.36674270004732534],285.77104129997315,285.97298109997064,1000,285.97298109997064,1000,1000,1000,1000,1,num_2,1.262913100013975,,24,10,2026-03-04_16h03.31.654,2026A_exp2,2022.2.4,59.939640789638766,
,,,,,,,,,,,,,,,,,,,,,,,,,,,,,,,,,,,,,,,,,,,,,,,,,,,,287.27189919998636,,,,,,,
