validity,detectorcomp,contrastCW,contrastCCW,precueCWorCCW,block_80trials.thisRepN,block_80trials.thisTrialN,block_80trials.thisN,block_80trials.thisIndex,etRecord.started,etRecord.stopped,text.started,text.stopped,text_4.started,text_4.stopped,text_6.started,text_6.stopped,oriCW,oriCCW,roi_2.started,grating_UR.started,grating_UL.started,grating_LR.started,grating_LL.started,noise_UR.started,noise_UL.started,noise_LR.started,noise_LL.started,roi_2.stopped,grating_UR.stopped,grating_UL.stopped,grating_LR.stopped,grating_LL.stopped,noise_UR.stopped,noise_UL.stopped,noise_LR.stopped,noise_LL.stopped,outframe,roi_2.numLooks,roi_2.timesOn,roi_2.timesOff,text_2.started,text_2.stopped,probedcontrast,key_resp.started,respdetect,relevantContrast,correctDetect,TorFdetect,respCWorCCW,key_resp.keys,key_resp.rt,feedback_display_.started,participantNo,blockNo,date,expName,psychopyVersion,frameRate,
1,0,3.7,0.0,1,0,0,0,12,3.869994543492794e-05,3.869994543492794e-05,65.94126409990713,67.9474478000775,67.9474478000775,68.57803039997816,68.57803039997816,69.10189180006273,315,45,69.10189180006273,69.10189180006273,69.10189180006273,69.10189180006273,69.10189180006273,69.10189180006273,69.10189180006273,69.10189180006273,69.10189180006273,69.44566549989395,69.44566549989395,69.44566549989395,69.44566549989395,69.44566549989395,69.44566549989395,69.44566549989395,69.44566549989395,69.44566549989395,23,0,,,69.44566549989395,69.64585900004022,0.0,69.64585900004022,0,0.0,0,1,1000,num_1,3.2787512000650167,,33,1,2026-03-12_17h10.09.831,2026A_exp2,2022.2.4,59.91837921801729,
1000,1,0.0,6.1,1,0,1,1,52,,,,,72.94908150006086,73.59965569991618,73.59965569991618,74.0841117000673,45,315,74.0841117000673,74.0841117000673,74.0841117000673,74.0841117000673,74.0841117000673,74.0841117000673,74.0841117000673,74.0841117000673,74.0841117000673,74.45077840005979,74.45077840005979,74.45077840005979,74.45077840005979,74.45077840005979,74.45077840005979,74.45077840005979,74.45077840005979,74.45077840005979,23,0,,,74.45077840005979,74.65059929993004,1000,74.65059929993004,1000,1000,1000,1000,1,num_2,1.0422461002599448,,33,1,2026-03-12_17h10.09.831,2026A_exp2,2022.2.4,59.91837921801729,
1,0,4.9,3.7,0,0,2,2,63,,,,,75.71853110007942,76.35293890000321,76.35293890000321,76.85404490004294,45,45,76.85404490004294,76.85404490004294,76.85404490004294,76.85404490004294,76.85404490004294,76.85404490004294,76.85404490004294,76.85404490004294,76.85404490004294,77.21990499994718,77.21990499994718,77.21990499994718,77.21990499994718,77.21990499994718,77.21990499994718,77.21990499994718,77.21990499994718,77.21990499994718,23,0,,,77.21990499994718,77.42011469998397,4.9,77.42011469998397,1,4.9,1,1,1000,num_4,1.2643617000430822,,33,1,2026-03-12_17h10.09.831,2026A_exp2,2022.2.4,59.91837921801729,
1000,1,3.7,0.0,1,0,3,3,54,,,,,78.70501159993,79.35657770000398,79.35657770000398,79.85685999994166,45,45,79.85685999994166,79.85685999994166,79.85685999994166,79.85685999994166,79.85685999994166,79.85685999994166,79.85685999994166,79.85685999994166,79.85685999994166,80.20811829995364,80.20811829995364,80.20811829995364,80.20811829995364,80.20811829995364,80.20811829995364,80.20811829995364,80.20811829995364,80.20811829995364,22,0,,,80.20811829995364,80.42337019997649,1000,80.42337019997649,1000,1000,1000,1000,0,num_3,0.6772282000165433,,33,1,2026-03-12_17h10.09.831,2026A_exp2,2022.2.4,59.91837921801729,
1,0,0.0,6.1,0,0,4,4,82,,,,,81.12401199992746,81.77458480000496,81.77458480000496,82.25974610005505,45,315,82.25974610005505,82.25974610005505,82.25974610005505,82.25974610005505,82.25974610005505,82.25974610005505,82.25974610005505,82.25974610005505,82.25974610005505,82.6252868999727,82.6252868999727,82.6252868999727,82.6252868999727,82.6252868999727,82.6252868999727,82.6252868999727,82.6252868999727,82.6252868999727,23,0,,,82.6252868999727,82.82564489985816,0.0,82.82564489985816,0,0.0,0,1,1000,num_1,0.8026676001027226,,33,1,2026-03-12_17h10.09.831,2026A_exp2,2022.2.4,59.91837921801729,
0,0,3.7,6.1,0,0,5,5,73,,,,,83.6605406999588,84.29396749986336,84.29396749986336,84.79480249993503,315,45,84.79480249993503,84.79480249993503,84.79480249993503,84.79480249993503,84.79480249993503,84.79480249993503,84.79480249993503,84.79480249993503,84.79480249993503,85.16112609999254,85.16112609999254,85.16112609999254,85.16112609999254,85.16112609999254,85.16112609999254,85.16112609999254,85.16112609999254,85.16112609999254,23,0,,,85.16112609999254,85.36173769994639,6.1,85.36173769994639,1,6.1,1,1,1000,num_4,1.2032133000902832,,33,1,2026-03-12_17h10.09.831,2026A_exp2,2022.2.4,59.91837921801729,
1000,1,0.0,4.9,1,0,6,6,78,,,,,86.59604420000687,87.22989100008272,87.22989100008272,87.73126729996875,45,45,87.73126729996875,87.73126729996875,87.73126729996875,87.73126729996875,87.73126729996875,87.73126729996875,87.73126729996875,87.73126729996875,87.73126729996875,88.09796439995989,88.09796439995989,88.09796439995989,88.09796439995989,88.09796439995989,88.09796439995989,88.09796439995989,88.09796439995989,88.09796439995989,23,0,,,88.09796439995989,88.29791359999217,1000,88.29791359999217,1000,1000,1000,1000,0,num_3,1.4823459000326693,,33,1,2026-03-12_17h10.09.831,2026A_exp2,2022.2.4,59.91837921801729,
1,0,0.0,3.7,0,0,7,7,61,,,,,89.79922379995696,90.44982709991746,90.44982709991746,90.93429280002601,315,315,90.93429280002601,90.93429280002601,90.93429280002601,90.93429280002601,90.93429280002601,90.93429280002601,90.93429280002601,90.93429280002601,90.93429280002601,91.30087259993888,91.30087259993888,91.30087259993888,91.30087259993888,91.30087259993888,91.30087259993888,91.30087259993888,91.30087259993888,91.30087259993888,23,0,,,91.30087259993888,91.50070700002834,0.0,91.50070700002834,0,0.0,0,1,1000,num_1,0.8957352000288665,,33,1,2026-03-12_17h10.09.831,2026A_exp2,2022.2.4,59.91837921801729,
1000,1,0.0,6.1,0,0,8,8,58,,,,,92.41868079989217,93.06933739990927,93.06933739990927,93.570258700056,45,315,93.570258700056,93.570258700056,93.570258700056,93.570258700056,93.570258700056,93.570258700056,93.570258700056,93.570258700056,93.570258700056,93.93651670007966,93.93651670007966,93.93651670007966,93.93651670007966,93.93651670007966,93.93651670007966,93.93651670007966,93.93651670007966,93.93651670007966,23,0,,,93.93651670007966,94.13731279992498,1000,94.13731279992498,1000,1000,1000,1000,0,num_3,0.8189744001720101,,33,1,2026-03-12_17h10.09.831,2026A_exp2,2022.2.4,59.91837921801729,
1,0,0.0,0.0,1,0,9,9,24,,,,,94.97123620007187,95.62147839996032,95.62147839996032,96.12308069993742,315,315,96.12308069993742,96.12308069993742,96.12308069993742,96.12308069993742,96.12308069993742,96.12308069993742,96.12308069993742,96.12308069993742,96.12308069993742,96.48900850000791,96.48900850000791,96.48900850000791,96.48900850000791,96.48900850000791,96.48900850000791,96.48900850000791,96.48900850000791,96.48900850000791,23,0,,,96.48900850000791,96.68983849999495,0.0,96.68983849999495,1,0.0,0,0,1000,num_4,1.1867549000307918,,33,1,2026-03-12_17h10.09.831,2026A_exp2,2022.2.4,59.91837921801729,
1000,1,6.1,4.9,0,0,10,10,49,,,,,97.90721550001763,98.54121960001066,98.54121960001066,99.04225319996476,45,315,99.04225319996476,99.04225319996476,99.04225319996476,99.04225319996476,99.04225319996476,99.04225319996476,99.04225319996476,99.04225319996476,99.04225319996476,99.40876309992746,99.40876309992746,99.40876309992746,99.40876309992746,99.40876309992746,99.40876309992746,99.40876309992746,99.40876309992746,99.40876309992746,23,0,,,99.40876309992746,99.60892369993962,1000,99.60892369993962,1000,1000,1000,1000,0,num_3,0.6435465000104159,,33,1,2026-03-12_17h10.09.831,2026A_exp2,2022.2.4,59.91837921801729,
1000,1,0.0,4.9,0,0,11,11,74,,,,,100.27635860000737,100.91049079992808,100.91049079992808,101.41171610006131,315,315,101.41171610006131,101.41171610006131,101.41171610006131,101.41171610006131,101.41171610006131,101.41171610006131,101.41171610006131,101.41171610006131,101.41171610006131,101.77812879998237,101.77812879998237,101.77812879998237,101.77812879998237,101.77812879998237,101.77812879998237,101.77812879998237,101.77812879998237,101.77812879998237,23,0,,,101.77812879998237,101.97812379989773,1000,101.97812379989773,1000,1000,1000,1000,1,num_2,0.9224185000639409,,33,1,2026-03-12_17h10.09.831,2026A_exp2,2022.2.4,59.91837921801729,
1,0,3.7,4.9,1,0,12,12,71,,,,,102.92911119991913,103.56329079996794,103.56329079996794,104.0641838000156,45,315,104.0641838000156,104.0641838000156,104.0641838000156,104.0641838000156,104.0641838000156,104.0641838000156,104.0641838000156,104.0641838000156,104.0641838000156,104.4310713999439,104.4310713999439,104.4310713999439,104.4310713999439,104.4310713999439,104.4310713999439,104.4310713999439,104.4310713999439,104.4310713999439,23,0,,,104.4310713999439,104.63066709996201,4.9,104.63066709996201,0,4.9,1,0,1000,num_1,1.2220516002271324,,33,1,2026-03-12_17h10.09.831,2026A_exp2,2022.2.4,59.91837921801729,
1000,1,0.0,4.9,0,0,13,13,5,,,,,105.88223109999672,106.5325060999021,106.5325060999021,107.01702530006878,45,315,107.01702530006878,107.01702530006878,107.01702530006878,107.01702530006878,107.01702530006878,107.01702530006878,107.01702530006878,107.01702530006878,107.01702530006878,107.38359580002725,107.38359580002725,107.38359580002725,107.38359580002725,107.38359580002725,107.38359580002725,107.38359580002725,107.38359580002725,107.38359580002725,23,0,,,107.38359580002725,107.58424449991435,1000,107.58424449991435,1000,1000,1000,1000,1,num_2,0.7247611002530903,,33,1,2026-03-12_17h10.09.831,2026A_exp2,2022.2.4,59.91837921801729,
1000,1,0.0,0.0,1,0,14,14,46,,,,,108.33457299997099,108.98487289994955,108.98487289994955,109.46960050007328,45,315,109.46960050007328,109.46960050007328,109.46960050007328,109.46960050007328,109.46960050007328,109.46960050007328,109.46960050007328,109.46960050007328,109.46960050007328,109.83600339991972,109.83600339991972,109.83600339991972,109.83600339991972,109.83600339991972,109.83600339991972,109.83600339991972,109.83600339991972,109.83600339991972,23,0,,,109.83600339991972,110.03618069994263,1000,110.03618069994263,1000,1000,1000,1000,1,num_2,0.7126624002121389,,33,1,2026-03-12_17h10.09.831,2026A_exp2,2022.2.4,59.91837921801729,
1000,1,0.0,6.1,1,0,15,15,69,,,,,110.7703905000817,111.42092190007679,111.42092190007679,111.90506420005113,315,315,111.90506420005113,111.90506420005113,111.90506420005113,111.90506420005113,111.90506420005113,111.90506420005113,111.90506420005113,111.90506420005113,111.90506420005113,112.27157419989817,112.27157419989817,112.27157419989817,112.27157419989817,112.27157419989817,112.27157419989817,112.27157419989817,112.27157419989817,112.27157419989817,23,0,,,112.27157419989817,112.47178169991821,1000,112.47178169991821,1000,1000,1000,1000,1,num_2,0.6044405000284314,,33,1,2026-03-12_17h10.09.831,2026A_exp2,2022.2.4,59.91837921801729,
1000,1,3.7,0.0,1,0,16,16,88,,,,,113.10585859999992,113.75639860006049,113.75639860006049,114.24088549986482,315,315,114.24088549986482,114.24088549986482,114.24088549986482,114.24088549986482,114.24088549986482,114.24088549986482,114.24088549986482,114.24088549986482,114.24088549986482,114.60712910001166,114.60712910001166,114.60712910001166,114.60712910001166,114.60712910001166,114.60712910001166,114.60712910001166,114.60712910001166,114.60712910001166,23,0,,,114.60712910001166,114.8077429998666,1000,114.8077429998666,1000,1000,1000,1000,0,num_3,0.485007599927485,,33,1,2026-03-12_17h10.09.831,2026A_exp2,2022.2.4,59.91837921801729,
1000,1,4.9,0.0,0,0,17,17,50,,,,,115.31053909985349,115.95871050003916,115.95871050003916,116.45976149989292,45,45,116.45976149989292,116.45976149989292,116.45976149989292,116.45976149989292,116.45976149989292,116.45976149989292,116.45976149989292,116.45976149989292,116.45976149989292,116.82625749986619,116.82625749986619,116.82625749986619,116.82625749986619,116.82625749986619,116.82625749986619,116.82625749986619,116.82625749986619,116.82625749986619,23,0,,,116.82625749986619,117.0264743999578,1000,117.0264743999578,1000,1000,1000,1000,0,num_3,0.5700953002087772,,33,1,2026-03-12_17h10.09.831,2026A_exp2,2022.2.4,59.91837921801729,
1000,1,0.0,6.1,0,0,18,18,85,,,,,117.62723900005221,118.27757030003704,118.27757030003704,118.7622666999232,315,45,118.7622666999232,118.7622666999232,118.7622666999232,118.7622666999232,118.7622666999232,118.7622666999232,118.7622666999232,118.7622666999232,118.7622666999232,119.12841239990667,119.12841239990667,119.12841239990667,119.12841239990667,119.12841239990667,119.12841239990667,119.12841239990667,119.12841239990667,119.12841239990667,23,0,,,119.12841239990667,119.32875390001573,1000,119.32875390001573,1000,1000,1000,1000,1,num_2,0.3960461001843214,,33,1,2026-03-12_17h10.09.831,2026A_exp2,2022.2.4,59.91837921801729,
1,0,6.1,6.1,0,0,19,19,27,,,,,119.74610239989124,120.38103140005842,120.38103140005842,120.88107670005411,315,315,120.88107670005411,120.88107670005411,120.88107670005411,120.88107670005411,120.88107670005411,120.88107670005411,120.88107670005411,120.88107670005411,120.88107670005411,121.24751579994336,121.24751579994336,121.24751579994336,121.24751579994336,121.24751579994336,121.24751579994336,121.24751579994336,121.24751579994336,121.24751579994336,23,0,,,121.24751579994336,121.44751450000331,6.1,121.44751450000331,1,6.1,1,1,1000,num_4,2.029699800303206,,33,1,2026-03-12_17h10.09.831,2026A_exp2,2022.2.4,59.91837921801729,
1000,1,0.0,0.0,0,0,20,20,67,,,,,123.49951600003988,124.13372639985755,124.13372639985755,124.63481039996259,45,45,124.63481039996259,124.63481039996259,124.63481039996259,124.63481039996259,124.63481039996259,124.63481039996259,124.63481039996259,124.63481039996259,124.63481039996259,125.0009753999766,125.0009753999766,125.0009753999766,125.0009753999766,125.0009753999766,125.0009753999766,125.0009753999766,125.0009753999766,125.0009753999766,23,0,,,125.0009753999766,125.201378100086,1000,125.201378100086,1000,1000,1000,1000,1,num_2,0.4759982000105083,,33,1,2026-03-12_17h10.09.831,2026A_exp2,2022.2.4,59.91837921801729,
0,0,0.0,3.7,0,0,21,21,47,,,,,125.7022430000361,126.33564869989641,126.33564869989641,126.83671130007133,45,45,126.83671130007133,126.83671130007133,126.83671130007133,126.83671130007133,126.83671130007133,126.83671130007133,126.83671130007133,126.83671130007133,126.83671130007133,127.20326930005103,127.20326930005103,127.20326930005103,127.20326930005103,127.20326930005103,127.20326930005103,127.20326930005103,127.20326930005103,127.20326930005103,23,0,,,127.20326930005103,127.4034347999841,3.7,127.4034347999841,1,3.7,1,1,1000,num_4,1.3056023002136499,,33,1,2026-03-12_17h10.09.831,2026A_exp2,2022.2.4,59.91837921801729,
1,0,4.9,3.7,1,0,22,22,10,,,,,128.73793260008097,129.37204930000007,129.37204930000007,129.87309959996492,45,315,129.87309959996492,129.87309959996492,129.87309959996492,129.87309959996492,129.87309959996492,129.87309959996492,129.87309959996492,129.87309959996492,129.87309959996492,130.24003029987216,130.24003029987216,130.24003029987216,130.24003029987216,130.24003029987216,130.24003029987216,130.24003029987216,130.24003029987216,130.24003029987216,23,0,,,130.24003029987216,130.4402020999696,3.7,130.4402020999696,0,3.7,1,0,1000,num_1,0.764182000188157,,33,1,2026-03-12_17h10.09.831,2026A_exp2,2022.2.4,59.91837921801729,
1,0,0.0,0.0,0,0,23,23,44,,,,,131.2239178000018,131.87459599995054,131.87459599995054,132.3594483998604,45,315,132.3594483998604,132.3594483998604,132.3594483998604,132.3594483998604,132.3594483998604,132.3594483998604,132.3594483998604,132.3594483998604,132.3594483998604,132.72528250003234,132.72528250003234,132.72528250003234,132.72528250003234,132.72528250003234,132.72528250003234,132.72528250003234,132.72528250003234,132.72528250003234,23,0,,,132.72528250003234,132.9255959999282,0.0,132.9255959999282,0,0.0,0,1,1000,num_1,1.3272864001337439,,33,1,2026-03-12_17h10.09.831,2026A_exp2,2022.2.4,59.91837921801729,
1,0,3.7,0.0,0,0,24,24,8,,,,,134.27849310007878,134.91091390000656,134.91091390000656,135.41282720002346,315,45,135.41282720002346,135.41282720002346,135.41282720002346,135.41282720002346,135.41282720002346,135.41282720002346,135.41282720002346,135.41282720002346,135.41282720002346,135.7793340999633,135.7793340999633,135.7793340999633,135.7793340999633,135.7793340999633,135.7793340999633,135.7793340999633,135.7793340999633,135.7793340999633,23,0,,,135.7793340999633,135.9795689000748,3.7,135.9795689000748,1,3.7,1,1,1000,num_4,1.1607287002261728,,33,1,2026-03-12_17h10.09.831,2026A_exp2,2022.2.4,59.91837921801729,
1000,1,0.0,4.9,0,0,25,25,53,,,,,137.16345959994942,137.7975155999884,137.7975155999884,138.2984112999402,45,315,138.2984112999402,138.2984112999402,138.2984112999402,138.2984112999402,138.2984112999402,138.2984112999402,138.2984112999402,138.2984112999402,138.2984112999402,138.66465230006725,138.66465230006725,138.66465230006725,138.66465230006725,138.66465230006725,138.66465230006725,138.66465230006725,138.66465230006725,138.66465230006725,23,0,,,138.66465230006725,138.86536159995012,1000,138.86536159995012,1000,1000,1000,1000,1,num_2,1.0352103000041097,,33,1,2026-03-12_17h10.09.831,2026A_exp2,2022.2.4,59.91837921801729,
0,0,6.1,6.1,0,0,26,26,42,,,,,139.91670729988255,140.56644769990817,140.56644769990817,141.06768470001407,45,315,141.06768470001407,141.06768470001407,141.06768470001407,141.06768470001407,141.06768470001407,141.06768470001407,141.06768470001407,141.06768470001407,141.06768470001407,141.43425259995274,141.43425259995274,141.43425259995274,141.43425259995274,141.43425259995274,141.43425259995274,141.43425259995274,141.43425259995274,141.43425259995274,23,0,,,141.43425259995274,141.63432479999028,6.1,141.63432479999028,1,6.1,1,1,1000,num_4,3.3542235002387315,,33,1,2026-03-12_17h10.09.831,2026A_exp2,2022.2.4,59.91837921801729,
1,0,3.7,6.1,1,0,27,27,77,,,,,145.00460519990884,145.65496079996228,145.65496079996228,146.13961609988473,45,45,146.13961609988473,146.13961609988473,146.13961609988473,146.13961609988473,146.13961609988473,146.13961609988473,146.13961609988473,146.13961609988473,146.13961609988473,146.5058462000452,146.5058462000452,146.5058462000452,146.5058462000452,146.5058462000452,146.5058462000452,146.5058462000452,146.5058462000452,146.5058462000452,23,0,,,146.5058462000452,146.70612949994393,6.1,146.70612949994393,1,6.1,1,1,1000,num_4,1.1064631000626832,,33,1,2026-03-12_17h10.09.831,2026A_exp2,2022.2.4,59.91837921801729,
1000,1,0.0,0.0,1,0,28,28,60,,,,,147.84060940006748,148.49119019997306,148.49119019997306,148.975746500073,45,315,148.975746500073,148.975746500073,148.975746500073,148.975746500073,148.975746500073,148.975746500073,148.975746500073,148.975746500073,148.975746500073,149.342134000035,149.342134000035,149.342134000035,149.342134000035,149.342134000035,149.342134000035,149.342134000035,149.342134000035,149.342134000035,23,0,,,149.342134000035,149.54241059999913,1000,149.54241059999913,1000,1000,1000,1000,0,num_3,0.8227176000364125,,33,1,2026-03-12_17h10.09.831,2026A_exp2,2022.2.4,59.91837921801729,
1000,1,0.0,6.1,1,0,29,29,62,,,,,150.39343449985608,151.04372099996544,151.04372099996544,151.54505040007643,315,45,151.54505040007643,151.54505040007643,151.54505040007643,151.54505040007643,151.54505040007643,151.54505040007643,151.54505040007643,151.54505040007643,151.54505040007643,151.89455699990503,151.89455699990503,151.89455699990503,151.89455699990503,151.89455699990503,151.89455699990503,151.89455699990503,151.89455699990503,151.89455699990503,22,0,,,151.89455699990503,152.0949347000569,1000,152.0949347000569,1000,1000,1000,1000,1,num_2,0.5421782000921667,,33,1,2026-03-12_17h10.09.831,2026A_exp2,2022.2.4,59.91837921801729,
1,0,0.0,4.9,1,0,30,30,1,,,,,152.66222739988007,153.3128448999487,153.3128448999487,153.79734910000116,45,45,153.79734910000116,153.79734910000116,153.79734910000116,153.79734910000116,153.79734910000116,153.79734910000116,153.79734910000116,153.79734910000116,153.79734910000116,154.1636061000172,154.1636061000172,154.1636061000172,154.1636061000172,154.1636061000172,154.1636061000172,154.1636061000172,154.1636061000172,154.1636061000172,23,0,,,154.1636061000172,154.3640089998953,4.9,154.3640089998953,1,4.9,1,1,1000,num_4,1.5846918001770973,,33,1,2026-03-12_17h10.09.831,2026A_exp2,2022.2.4,59.91837921801729,
1000,1,0.0,0.0,0,0,31,31,6,,,,,155.96551480004564,156.61600259994157,156.61600259994157,157.1003805999644,45,45,157.1003805999644,157.1003805999644,157.1003805999644,157.1003805999644,157.1003805999644,157.1003805999644,157.1003805999644,157.1003805999644,157.1003805999644,157.46678070002235,157.46678070002235,157.46678070002235,157.46678070002235,157.46678070002235,157.46678070002235,157.46678070002235,157.46678070002235,157.46678070002235,23,0,,,157.46678070002235,157.66711739986204,1000,157.66711739986204,1000,1000,1000,1000,1,num_2,0.7781154999975115,,33,1,2026-03-12_17h10.09.831,2026A_exp2,2022.2.4,59.91837921801729,
1,0,0.0,6.1,0,0,32,32,43,,,,,158.4679455999285,159.1020801998675,159.1020801998675,159.6029934999533,45,315,159.6029934999533,159.6029934999533,159.6029934999533,159.6029934999533,159.6029934999533,159.6029934999533,159.6029934999533,159.6029934999533,159.6029934999533,159.9705761000514,159.9705761000514,159.9705761000514,159.9705761000514,159.9705761000514,159.9705761000514,159.9705761000514,159.9705761000514,159.9705761000514,23,0,,,159.9705761000514,160.17022359999828,0.0,160.17022359999828,0,0.0,0,1,1000,num_1,1.218909100163728,,33,1,2026-03-12_17h10.09.831,2026A_exp2,2022.2.4,59.91837921801729,
1000,1,3.7,4.9,0,0,33,33,80,,,,,161.42092499998398,162.05492169992067,162.05492169992067,162.55582830007188,315,45,162.55582830007188,162.55582830007188,162.55582830007188,162.55582830007188,162.55582830007188,162.55582830007188,162.55582830007188,162.55582830007188,162.55582830007188,162.92255889996886,162.92255889996886,162.92255889996886,162.92255889996886,162.92255889996886,162.92255889996886,162.92255889996886,162.92255889996886,162.92255889996886,23,0,,,162.92255889996886,163.1226633999031,1000,163.1226633999031,1000,1000,1000,1000,1,num_2,1.514531700173393,,33,1,2026-03-12_17h10.09.831,2026A_exp2,2022.2.4,59.91837921801729,
1000,1,3.7,6.1,1,0,34,34,29,,,,,164.6575849999208,165.30790390004404,165.30790390004404,165.79242100007832,315,315,165.79242100007832,165.79242100007832,165.79242100007832,165.79242100007832,165.79242100007832,165.79242100007832,165.79242100007832,165.79242100007832,165.79242100007832,166.1588717000559,166.1588717000559,166.1588717000559,166.1588717000559,166.1588717000559,166.1588717000559,166.1588717000559,166.1588717000559,166.1588717000559,23,0,,,166.1588717000559,166.35933739994653,1000,166.35933739994653,1000,1000,1000,1000,1,num_2,0.5734557001851499,,33,1,2026-03-12_17h10.09.831,2026A_exp2,2022.2.4,59.91837921801729,
1000,1,0.0,6.1,1,0,35,35,19,,,,,166.95957619999535,167.61022899998352,167.61022899998352,168.09473660006188,45,45,168.09473660006188,168.09473660006188,168.09473660006188,168.09473660006188,168.09473660006188,168.09473660006188,168.09473660006188,168.09473660006188,168.09473660006188,168.4613071999047,168.4613071999047,168.4613071999047,168.4613071999047,168.4613071999047,168.4613071999047,168.4613071999047,168.4613071999047,168.4613071999047,23,0,,,168.4613071999047,168.66161679988727,1000,168.66161679988727,1000,1000,1000,1000,1,num_2,0.503089000005275,,33,1,2026-03-12_17h10.09.831,2026A_exp2,2022.2.4,59.91837921801729,
1000,1,0.0,6.1,0,0,36,36,75,,,,,169.19548489991575,169.84623949998058,169.84623949998058,170.3305617000442,315,315,170.3305617000442,170.3305617000442,170.3305617000442,170.3305617000442,170.3305617000442,170.3305617000442,170.3305617000442,170.3305617000442,170.3305617000442,170.69685720000416,170.69685720000416,170.69685720000416,170.69685720000416,170.69685720000416,170.69685720000416,170.69685720000416,170.69685720000416,170.69685720000416,23,0,,,170.69685720000416,170.8990925999824,1000,170.8990925999824,1000,1000,1000,1000,1,num_2,0.3941667000763118,,33,1,2026-03-12_17h10.09.831,2026A_exp2,2022.2.4,59.91837921801729,
1,0,0.0,0.0,1,0,37,37,21,,,,,171.31415780005045,171.96498410007916,171.96498410007916,172.46595279988833,45,315,172.46595279988833,172.46595279988833,172.46595279988833,172.46595279988833,172.46595279988833,172.46595279988833,172.46595279988833,172.46595279988833,172.46595279988833,172.8322016999591,172.8322016999591,172.8322016999591,172.8322016999591,172.8322016999591,172.8322016999591,172.8322016999591,172.8322016999591,172.8322016999591,23,0,,,172.8322016999591,173.0327520999126,0.0,173.0327520999126,0,0.0,0,1,1000,num_1,1.404572200262919,,33,1,2026-03-12_17h10.09.831,2026A_exp2,2022.2.4,59.91837921801729,
1000,1,0.0,0.0,1,0,38,38,56,,,,,174.46727730007842,175.11815480003133,175.11815480003133,175.60249729990028,315,315,175.60249729990028,175.60249729990028,175.60249729990028,175.60249729990028,175.60249729990028,175.60249729990028,175.60249729990028,175.60249729990028,175.60249729990028,175.96896820003167,175.96896820003167,175.96896820003167,175.96896820003167,175.96896820003167,175.96896820003167,175.96896820003167,175.96896820003167,175.96896820003167,23,0,,,175.96896820003167,176.1900204999838,1000,176.1900204999838,1000,1000,1000,1000,0,num_3,0.6793137001805007,,33,1,2026-03-12_17h10.09.831,2026A_exp2,2022.2.4,59.91837921801729,
1000,1,0.0,0.0,1,0,39,39,40,,,,,176.88649649987929,177.5382985000033,177.5382985000033,178.03825680003501,315,45,178.03825680003501,178.03825680003501,178.03825680003501,178.03825680003501,178.03825680003501,178.03825680003501,178.03825680003501,178.03825680003501,178.03825680003501,178.4047010000795,178.4047010000795,178.4047010000795,178.4047010000795,178.4047010000795,178.4047010000795,178.4047010000795,178.4047010000795,178.4047010000795,23,0,,,178.4047010000795,178.60694209998474,1000,178.60694209998474,1000,1000,1000,1000,1,num_2,0.535218900302425,,33,1,2026-03-12_17h10.09.831,2026A_exp2,2022.2.4,59.91837921801729,
1,0,4.9,4.9,0,0,40,40,39,,,,,179.17204570001923,179.82284449995495,179.82284449995495,180.3239885000512,45,45,180.3239885000512,180.3239885000512,180.3239885000512,180.3239885000512,180.3239885000512,180.3239885000512,180.3239885000512,180.3239885000512,180.3239885000512,180.673576900037,180.673576900037,180.673576900037,180.673576900037,180.673576900037,180.673576900037,180.673576900037,180.673576900037,180.673576900037,22,0,,,180.673576900037,180.87376550002955,4.9,180.89069089991972,1,4.9,1,1,1000,num_4,1.266285700025037,,33,1,2026-03-12_17h10.09.831,2026A_exp2,2022.2.4,59.91837921801729,
1000,1,6.1,3.7,0,0,41,41,18,,,,,182.17491999990307,182.82570070005022,182.82570070005022,183.3102813998703,45,315,183.3102813998703,183.3102813998703,183.3102813998703,183.3102813998703,183.3102813998703,183.3102813998703,183.3102813998703,183.3102813998703,183.3102813998703,183.6765779000707,183.6765779000707,183.6765779000707,183.6765779000707,183.6765779000707,183.6765779000707,183.6765779000707,183.6765779000707,183.6765779000707,23,0,,,183.6765779000707,183.878839999903,1000,183.878839999903,1000,1000,1000,1000,0,num_3,0.7503029000945389,,33,1,2026-03-12_17h10.09.831,2026A_exp2,2022.2.4,59.91837921801729,
1,0,0.0,3.7,1,0,42,42,0,,,,,184.64428970008157,185.29502109996974,185.29502109996974,185.795974599896,45,315,185.795974599896,185.795974599896,185.795974599896,185.795974599896,185.795974599896,185.795974599896,185.795974599896,185.795974599896,185.795974599896,186.1624781000428,186.1624781000428,186.1624781000428,186.1624781000428,186.1624781000428,186.1624781000428,186.1624781000428,186.1624781000428,186.1624781000428,23,0,,,186.1624781000428,186.36267949989997,3.7,186.36267949989997,1,3.7,1,1,1000,num_4,1.5866349001880735,,33,1,2026-03-12_17h10.09.831,2026A_exp2,2022.2.4,59.91837921801729,
1,0,3.7,0.0,1,0,43,43,11,,,,,187.98075510002673,188.6315794000402,188.6315794000402,189.11603650008328,315,315,189.11603650008328,189.11603650008328,189.11603650008328,189.11603650008328,189.11603650008328,189.11603650008328,189.11603650008328,189.11603650008328,189.11603650008328,189.4823642000556,189.4823642000556,189.4823642000556,189.4823642000556,189.4823642000556,189.4823642000556,189.4823642000556,189.4823642000556,189.4823642000556,23,0,,,189.4823642000556,189.68253770004958,0.0,189.68253770004958,1,0.0,0,0,1000,num_4,1.2498078001663089,,33,1,2026-03-12_17h10.09.831,2026A_exp2,2022.2.4,59.91837921801729,
0,0,6.1,0.0,1,0,44,44,30,,,,,190.95078959991224,191.584577600006,191.584577600006,192.08569290000014,45,45,192.08569290000014,192.08569290000014,192.08569290000014,192.08569290000014,192.08569290000014,192.08569290000014,192.08569290000014,192.08569290000014,192.08569290000014,192.45212979987264,192.45212979987264,192.45212979987264,192.45212979987264,192.45212979987264,192.45212979987264,192.45212979987264,192.45212979987264,192.45212979987264,23,0,,,192.45212979987264,192.65234799985774,6.1,192.65234799985774,1,6.1,1,1,1000,num_4,1.4252783001866192,,33,1,2026-03-12_17h10.09.831,2026A_exp2,2022.2.4,59.91837921801729,
1000,1,0.0,6.1,0,0,45,45,2,,,,,194.1036054000724,194.75440760003403,194.75440760003403,195.2385471998714,45,45,195.2385471998714,195.2385471998714,195.2385471998714,195.2385471998714,195.2385471998714,195.2385471998714,195.2385471998714,195.2385471998714,195.2385471998714,195.60498609999195,195.60498609999195,195.60498609999195,195.60498609999195,195.60498609999195,195.60498609999195,195.60498609999195,195.60498609999195,195.60498609999195,23,0,,,195.60498609999195,195.80726590007544,1000,195.80726590007544,1000,1000,1000,1000,1,num_2,2.0622092001140118,,33,1,2026-03-12_17h10.09.831,2026A_exp2,2022.2.4,59.91837921801729,
1,0,0.0,0.0,1,0,46,46,41,,,,,197.89074869989417,198.54146820004098,198.54146820004098,199.0422896000091,45,315,199.0422896000091,199.0422896000091,199.0422896000091,199.0422896000091,199.0422896000091,199.0422896000091,199.0422896000091,199.0422896000091,199.0422896000091,199.4090897999704,199.4090897999704,199.4090897999704,199.4090897999704,199.4090897999704,199.4090897999704,199.4090897999704,199.4090897999704,199.4090897999704,1,2,"[0.0007740000728517771, 0.13424300006590784]","[0.11739760008640587, 0.3679235999006778]",199.4090897999704,199.60940820001997,0.0,199.60940820001997,0,0.0,0,1,1000,num_1,0.9473516000434756,,33,1,2026-03-12_17h10.09.831,2026A_exp2,2022.2.4,59.91837921801729,
1000,1,0.0,6.1,1,0,47,47,3,,,,,200.57663589995354,201.22754430002533,201.22754430002533,201.72857719985768,315,45,201.72857719985768,201.72857719985768,201.72857719985768,201.72857719985768,201.72857719985768,201.72857719985768,201.72857719985768,201.72857719985768,201.72857719985768,202.0783937999513,202.0783937999513,202.0783937999513,202.0783937999513,202.0783937999513,202.0783937999513,202.0783937999513,202.0783937999513,202.0783937999513,17,2,"[0.0012703998945653439, 0.3505074998829514]","[0.066829799907282, 0.3505120000336319]",202.0783937999513,202.28031709999777,1000,202.28031709999777,1000,1000,1000,1000,1,num_2,0.6120278001762927,,33,1,2026-03-12_17h10.09.831,2026A_exp2,2022.2.4,59.91837921801729,
1,0,3.7,0.0,1,0,48,48,28,,,,,202.91244919993915,203.56315140007064,203.56315140007064,204.0643016998656,315,45,204.0643016998656,204.0643016998656,204.0643016998656,204.0643016998656,204.0643016998656,204.0643016998656,204.0643016998656,204.0643016998656,204.0643016998656,204.43072120007128,204.43072120007128,204.43072120007128,204.43072120007128,204.43072120007128,204.43072120007128,204.43072120007128,204.43072120007128,204.43072120007128,23,0,,,204.43072120007128,204.6310012000613,0.0,204.6310012000613,0,0.0,0,1,1000,num_1,0.7660517999902368,,33,1,2026-03-12_17h10.09.831,2026A_exp2,2022.2.4,59.91837921801729,
1,0,4.9,6.1,0,0,49,49,33,,,,,205.41493980004452,206.06559309992008,206.06559309992008,206.5500435999129,45,315,206.5500435999129,206.5500435999129,206.5500435999129,206.5500435999129,206.5500435999129,206.5500435999129,206.5500435999129,206.5500435999129,206.5500435999129,206.916571599897,206.916571599897,206.916571599897,206.916571599897,206.916571599897,206.916571599897,206.916571599897,206.916571599897,206.916571599897,22,1,[0.3171137000899762],[0.3339549000374973],206.916571599897,207.11662260000594,4.9,207.11662260000594,0,4.9,1,0,1000,num_1,1.897152200108394,,33,1,2026-03-12_17h10.09.831,2026A_exp2,2022.2.4,59.91837921801729,
1,0,0.0,0.0,0,0,50,50,17,,,,,209.03517979988828,209.6692105999682,209.6692105999682,210.17050580005161,45,45,210.17050580005161,210.17050580005161,210.17050580005161,210.17050580005161,210.17050580005161,210.17050580005161,210.17050580005161,210.17050580005161,210.17050580005161,210.53670930000953,210.53670930000953,210.53670930000953,210.53670930000953,210.53670930000953,210.53670930000953,210.53670930000953,210.53670930000953,210.53670930000953,20,3,"[0.21754830004647374, 0.2842580999713391, 0.31760490010492504]","[0.23420000006444752, 0.3010674000252038, 0.3342749001458287]",210.53670930000953,210.7370819998905,0.0,210.7370819998905,1,0.0,0,0,1000,num_4,1.107483000261709,,33,1,2026-03-12_17h10.09.831,2026A_exp2,2022.2.4,59.91837921801729,
1000,1,3.7,0.0,0,0,51,51,32,,,,,211.87151840003207,212.52209039987065,212.52209039987065,213.02286279993132,45,45,213.02286279993132,213.02286279993132,213.02286279993132,213.02286279993132,213.02286279993132,213.02286279993132,213.02286279993132,213.02286279993132,213.02286279993132,213.3731138999574,213.3731138999574,213.3731138999574,213.3731138999574,213.3731138999574,213.3731138999574,213.3731138999574,213.3731138999574,213.3731138999574,1,2,"[0.004184700082987547, 0.29832340008579195]","[0.28154460014775395, 0.365074299974367]",213.3731138999574,213.58887129998766,1000,213.58887129998766,1000,1000,1000,1000,1,num_2,1.6554823000915349,,33,1,2026-03-12_17h10.09.831,2026A_exp2,2022.2.4,59.91837921801729,
1,0,4.9,0.0,0,0,52,52,4,,,,,215.27480840007775,215.92572509986348,215.92572509986348,216.42671280005015,45,315,216.42671280005015,216.42671280005015,216.42671280005015,216.42671280005015,216.42671280005015,216.42671280005015,216.42671280005015,216.42671280005015,216.42671280005015,216.7931677000597,216.7931677000597,216.7931677000597,216.7931677000597,216.7931677000597,216.7931677000597,216.7931677000597,216.7931677000597,216.7931677000597,23,0,,,216.7931677000597,216.99328919989057,4.9,216.99328919989057,1,4.9,1,1,1000,num_4,0.7871095000300556,,33,1,2026-03-12_17h10.09.831,2026A_exp2,2022.2.4,59.91837921801729,
1,0,4.9,3.7,0,0,53,53,9,,,,,217.81092439987697,218.44460950000212,218.44460950000212,218.94592610001564,45,45,218.94592610001564,218.94592610001564,218.94592610001564,218.94592610001564,218.94592610001564,218.94592610001564,218.94592610001564,218.94592610001564,218.94592610001564,219.3122368999757,219.3122368999757,219.3122368999757,219.3122368999757,219.3122368999757,219.3122368999757,219.3122368999757,219.3122368999757,219.3122368999757,23,0,,,219.3122368999757,219.51243090000935,4.9,219.51243090000935,1,4.9,1,1,1000,num_4,1.7644412000663579,,33,1,2026-03-12_17h10.09.831,2026A_exp2,2022.2.4,59.91837921801729,
1000,1,0.0,3.7,1,0,54,54,65,,,,,221.2973706999328,221.94828590005636,221.94828590005636,222.43272130005062,315,45,222.43272130005062,222.43272130005062,222.43272130005062,222.43272130005062,222.43272130005062,222.43272130005062,222.43272130005062,222.43272130005062,222.43272130005062,222.79896080004983,222.79896080004983,222.79896080004983,222.79896080004983,222.79896080004983,222.79896080004983,222.79896080004983,222.79896080004983,222.79896080004983,23,0,,,222.79896080004983,223.00122960004956,1000,223.00122960004956,1000,1000,1000,1000,1,num_2,0.7393853000830859,,33,1,2026-03-12_17h10.09.831,2026A_exp2,2022.2.4,59.91837921801729,
1000,1,0.0,0.0,0,0,55,55,87,,,,,223.76683859992772,224.4173663998954,224.4173663998954,224.91849049995653,45,45,224.91849049995653,224.91849049995653,224.91849049995653,224.91849049995653,224.91849049995653,224.91849049995653,224.91849049995653,224.91849049995653,224.91849049995653,225.2849111999385,225.2849111999385,225.2849111999385,225.2849111999385,225.2849111999385,225.2849111999385,225.2849111999385,225.2849111999385,225.2849111999385,23,0,,,225.2849111999385,225.48682380001992,1000,225.48682380001992,1000,1000,1000,1000,1,num_2,2.2858248001430184,,33,1,2026-03-12_17h10.09.831,2026A_exp2,2022.2.4,59.91837921801729,
1,0,4.9,3.7,1,0,56,56,26,,,,,227.8041222000029,228.4547462000046,228.4547462000046,228.95584130007774,315,45,228.95584130007774,228.95584130007774,228.95584130007774,228.95584130007774,228.95584130007774,228.95584130007774,228.95584130007774,228.95584130007774,228.95584130007774,229.32229969999753,229.32229969999753,229.32229969999753,229.32229969999753,229.32229969999753,229.32229969999753,229.32229969999753,229.32229969999753,229.32229969999753,5,6,"[0.001002600183710456, 0.06708210008218884, 0.1671075001358986, 0.2005330000538379, 0.25050950003787875, 0.3339438000693917]","[0.050239000003784895, 0.15048440010286868, 0.18377190013416111, 0.2340296001639217, 0.31732990010641515, 0.36728410003706813]",229.32229969999753,229.52238960005343,3.7,229.52238960005343,0,3.7,1,0,1000,num_1,1.1789206000976264,,33,1,2026-03-12_17h10.09.831,2026A_exp2,2022.2.4,59.91837921801729,
1,0,4.9,0.0,1,0,57,57,25,,,,,230.72350659989752,231.3743497999385,231.3743497999385,231.85872519994155,45,315,231.85872519994155,231.85872519994155,231.85872519994155,231.85872519994155,231.85872519994155,231.85872519994155,231.85872519994155,231.85872519994155,231.85872519994155,232.2247867998667,232.2247867998667,232.2247867998667,232.2247867998667,232.2247867998667,232.2247867998667,232.2247867998667,232.2247867998667,232.2247867998667,23,0,,,232.2247867998667,232.43885149993002,0.0,232.43885149993002,0,0.0,0,1,1000,num_1,0.8943129002582282,,33,1,2026-03-12_17h10.09.831,2026A_exp2,2022.2.4,59.91837921801729,
0,0,0.0,4.9,0,0,58,58,14,,,,,233.35958490008488,234.0103555000387,234.0103555000387,234.49479499994777,315,45,234.49479499994777,234.49479499994777,234.49479499994777,234.49479499994777,234.49479499994777,234.49479499994777,234.49479499994777,234.49479499994777,234.49479499994777,234.86106129991822,234.86106129991822,234.86106129991822,234.86106129991822,234.86106129991822,234.86106129991822,234.86106129991822,234.86106129991822,234.86106129991822,23,0,,,234.86106129991822,235.06127860001288,4.9,235.06127860001288,1,4.9,1,1,1000,num_4,0.9124265001155436,,33,1,2026-03-12_17h10.09.831,2026A_exp2,2022.2.4,59.91837921801729,
1,0,6.1,4.9,0,0,59,59,81,,,,,235.99549890006892,236.64630639995448,236.64630639995448,237.13063660007901,45,315,237.13063660007901,237.13063660007901,237.13063660007901,237.13063660007901,237.13063660007901,237.13063660007901,237.13063660007901,237.13063660007901,237.13063660007901,237.49718090007082,237.49718090007082,237.49718090007082,237.49718090007082,237.49718090007082,237.49718090007082,237.49718090007082,237.49718090007082,237.49718090007082,23,0,,,237.49718090007082,237.6975289999973,6.1,237.6975289999973,1,6.1,1,1,1000,num_4,1.9157492001540959,,33,1,2026-03-12_17h10.09.831,2026A_exp2,2022.2.4,59.91837921801729,
1000,1,0.0,0.0,1,0,60,60,16,,,,,239.6325010000728,240.283226700034,240.283226700034,240.7673911000602,45,315,240.7673911000602,240.7673911000602,240.7673911000602,240.7673911000602,240.7673911000602,240.7673911000602,240.7673911000602,240.7673911000602,240.7673911000602,241.13414199999534,241.13414199999534,241.13414199999534,241.13414199999534,241.13414199999534,241.13414199999534,241.13414199999534,241.13414199999534,241.13414199999534,0,1,[0.0012143999338150024],[0.36716279992833734],241.13414199999534,241.3361350998748,1000,241.3361350998748,1000,1000,1000,1000,0,num_3,1.1405021001119167,,33,1,2026-03-12_17h10.09.831,2026A_exp2,2022.2.4,59.91837921801729,
1,0,0.0,0.0,0,0,61,61,51,,,,,242.5020446998533,243.13614089996554,243.13614089996554,243.63763640006073,45,45,243.63763640006073,243.63763640006073,243.63763640006073,243.63763640006073,243.63763640006073,243.63763640006073,243.63763640006073,243.63763640006073,243.63763640006073,244.00365399988368,244.00365399988368,244.00365399988368,244.00365399988368,244.00365399988368,244.00365399988368,244.00365399988368,244.00365399988368,244.00365399988368,23,0,,,244.00365399988368,244.20390899991617,0.0,244.20390899991617,1,0.0,0,0,1000,num_4,0.9373560000676662,,33,1,2026-03-12_17h10.09.831,2026A_exp2,2022.2.4,59.91837921801729,
1,0,3.7,0.0,1,0,62,62,13,,,,,245.17130180005915,245.82215030002408,245.82215030002408,246.30657409993,45,315,246.30657409993,246.30657409993,246.30657409993,246.30657409993,246.30657409993,246.30657409993,246.30657409993,246.30657409993,246.30657409993,246.6730468000751,246.6730468000751,246.6730468000751,246.6730468000751,246.6730468000751,246.6730468000751,246.6730468000751,246.6730468000751,246.6730468000751,23,0,,,246.6730468000751,246.87322860001586,0.0,246.87322860001586,0,0.0,0,1,1000,num_1,1.1805122999940068,,33,1,2026-03-12_17h10.09.831,2026A_exp2,2022.2.4,59.91837921801729,
1000,1,0.0,4.9,1,0,63,63,79,,,,,248.07421780005097,248.72501900000498,248.72501900000498,249.20935650006868,45,45,249.20935650006868,249.20935650006868,249.20935650006868,249.20935650006868,249.20935650006868,249.20935650006868,249.20935650006868,249.20935650006868,249.20935650006868,249.57598179997876,249.57598179997876,249.57598179997876,249.57598179997876,249.57598179997876,249.57598179997876,249.57598179997876,249.57598179997876,249.57598179997876,23,0,,,249.57598179997876,249.77810500003397,1000,249.77810500003397,1000,1000,1000,1000,1,num_2,0.6344713000580668,,33,1,2026-03-12_17h10.09.831,2026A_exp2,2022.2.4,59.91837921801729,
1,0,3.7,3.7,1,0,64,64,86,,,,,250.4432767999824,251.09413939993829,251.09413939993829,251.59499279991724,315,315,251.59499279991724,251.59499279991724,251.59499279991724,251.59499279991724,251.59499279991724,251.59499279991724,251.59499279991724,251.59499279991724,251.59499279991724,251.9616155999247,251.9616155999247,251.9616155999247,251.9616155999247,251.9616155999247,251.9616155999247,251.9616155999247,251.9616155999247,251.9616155999247,23,0,,,251.9616155999247,252.16185029991902,3.7,252.16185029991902,0,3.7,1,0,1000,num_1,0.8914499001111835,,33,1,2026-03-12_17h10.09.831,2026A_exp2,2022.2.4,59.91837921801729,
1000,1,0.0,6.1,0,0,65,65,35,,,,,253.07959980005398,253.73006299999543,253.73006299999543,254.2142779000569,315,315,254.2142779000569,254.2142779000569,254.2142779000569,254.2142779000569,254.2142779000569,254.2142779000569,254.2142779000569,254.2142779000569,254.2142779000569,254.58084529987536,254.58084529987536,254.58084529987536,254.58084529987536,254.58084529987536,254.58084529987536,254.58084529987536,254.58084529987536,254.58084529987536,23,0,,,254.58084529987536,254.78261159989052,1000,254.78261159989052,1000,1000,1000,1000,1,num_2,0.630103100091219,,33,1,2026-03-12_17h10.09.831,2026A_exp2,2022.2.4,59.91837921801729,
1000,1,3.7,0.0,0,0,66,66,66,,,,,255.4315792999696,256.0823900999967,256.0823900999967,256.58344349986874,45,315,256.58344349986874,256.58344349986874,256.58344349986874,256.58344349986874,256.58344349986874,256.58344349986874,256.58344349986874,256.58344349986874,256.58344349986874,256.9332276999485,256.9332276999485,256.9332276999485,256.9332276999485,256.9332276999485,256.9332276999485,256.9332276999485,256.9332276999485,256.9332276999485,22,0,,,256.9332276999485,257.1351344999857,1000,257.1351344999857,1000,1000,1000,1000,0,num_3,0.5652142001781613,,33,1,2026-03-12_17h10.09.831,2026A_exp2,2022.2.4,59.91837921801729,
1,0,3.7,4.9,0,0,67,67,76,,,,,257.7172419000417,258.36803129990585,258.36803129990585,258.8688131000381,315,315,258.8688131000381,258.8688131000381,258.8688131000381,258.8688131000381,258.8688131000381,258.8688131000381,258.8688131000381,258.8688131000381,258.8688131000381,259.23555490002036,259.23555490002036,259.23555490002036,259.23555490002036,259.23555490002036,259.23555490002036,259.23555490002036,259.23555490002036,259.23555490002036,17,3,"[0.0007289000786840916, 0.050283800112083554, 0.13361030002124608]","[0.03351880004629493, 0.06687019998207688, 0.18364490009844303]",259.23555490002036,259.4356740999501,3.7,259.4356740999501,0,3.7,1,0,1000,num_1,1.6738362999167293,,33,1,2026-03-12_17h10.09.831,2026A_exp2,2022.2.4,59.91837921801729,
1000,1,0.0,0.0,0,0,68,68,72,,,,,261.13728790008463,261.7880033000838,261.7880033000838,262.2725881000515,45,45,262.2725881000515,262.2725881000515,262.2725881000515,262.2725881000515,262.2725881000515,262.2725881000515,262.2725881000515,262.2725881000515,262.2725881000515,262.6389220999554,262.6389220999554,262.6389220999554,262.6389220999554,262.6389220999554,262.6389220999554,262.6389220999554,262.6389220999554,262.6389220999554,11,4,"[0.10039729997515678, 0.13364569982513785, 0.16705589997582138, 0.3004936999641359]","[0.11701089981943369, 0.1503421999514103, 0.2672607998829335, 0.3671946998219937]",262.6389220999554,262.8412649000529,1000,262.8412649000529,1000,1000,1000,1000,1,num_2,0.7081031000707299,,33,1,2026-03-12_17h10.09.831,2026A_exp2,2022.2.4,59.91837921801729,
1000,1,6.1,0.0,0,0,69,69,89,,,,,263.57311169989407,264.22375519992784,264.22375519992784,264.72494659991935,315,315,264.72494659991935,264.72494659991935,264.72494659991935,264.72494659991935,264.72494659991935,264.72494659991935,264.72494659991935,264.72494659991935,264.72494659991935,265.091497000074,265.091497000074,265.091497000074,265.091497000074,265.091497000074,265.091497000074,265.091497000074,265.091497000074,265.091497000074,23,0,,,265.091497000074,265.2932644998655,1000,265.2932644998655,1000,1000,1000,1000,0,num_3,0.6077875001356006,,33,1,2026-03-12_17h10.09.831,2026A_exp2,2022.2.4,59.91837921801729,
1000,1,0.0,0.0,0,0,70,70,7,,,,,265.9254940999672,266.576052099932,266.576052099932,267.07738769985735,315,45,267.07738769985735,267.07738769985735,267.07738769985735,267.07738769985735,267.07738769985735,267.07738769985735,267.07738769985735,267.07738769985735,267.07738769985735,267.44383169990033,267.44383169990033,267.44383169990033,267.44383169990033,267.44383169990033,267.44383169990033,267.44383169990033,267.44383169990033,267.44383169990033,23,0,,,267.44383169990033,267.64551369985566,1000,267.64551369985566,1000,1000,1000,1000,1,num_2,0.7035670003388077,,33,1,2026-03-12_17h10.09.831,2026A_exp2,2022.2.4,59.91837921801729,
1000,1,6.1,0.0,0,0,71,71,59,,,,,268.37850059987977,269.0286882999353,269.0286882999353,269.52981289988384,315,315,269.52981289988384,269.52981289988384,269.52981289988384,269.52981289988384,269.52981289988384,269.52981289988384,269.52981289988384,269.52981289988384,269.52981289988384,269.8966711999383,269.8966711999383,269.8966711999383,269.8966711999383,269.8966711999383,269.8966711999383,269.8966711999383,269.8966711999383,269.8966711999383,23,0,,,269.8966711999383,270.1215439999942,1000,270.1215439999942,1000,1000,1000,1000,0,num_3,0.5712081999517977,,33,1,2026-03-12_17h10.09.831,2026A_exp2,2022.2.4,59.91837921801729,
1000,1,0.0,3.7,0,0,72,72,57,,,,,270.7135284000542,271.3644091000315,271.3644091000315,271.8654952000361,45,45,271.8654952000361,271.8654952000361,271.8654952000361,271.8654952000361,271.8654952000361,271.8654952000361,271.8654952000361,271.8654952000361,271.8654952000361,272.21507599996403,272.21507599996403,272.21507599996403,272.21507599996403,272.21507599996403,272.21507599996403,272.21507599996403,272.21507599996403,272.21507599996403,22,0,,,272.21507599996403,272.4153744999785,1000,272.4318693999667,1000,1000,1000,1000,1,num_2,0.6766951000317931,,33,1,2026-03-12_17h10.09.831,2026A_exp2,2022.2.4,59.91837921801729,
1,0,4.9,4.9,0,0,73,73,84,,,,,273.1326414998621,273.7833803999238,273.7833803999238,274.28457909985445,315,45,274.28457909985445,274.28457909985445,274.28457909985445,274.28457909985445,274.28457909985445,274.28457909985445,274.28457909985445,274.28457909985445,274.28457909985445,274.6509680999443,274.6509680999443,274.6509680999443,274.6509680999443,274.6509680999443,274.6509680999443,274.6509680999443,274.6509680999443,274.6509680999443,23,0,,,274.6509680999443,274.8511564999353,4.9,274.8511564999353,1,4.9,1,1,1000,num_4,1.178406200138852,,33,1,2026-03-12_17h10.09.831,2026A_exp2,2022.2.4,59.91837921801729,
1000,1,6.1,4.9,0,0,74,74,68,,,,,276.0521911000833,276.70306119997986,276.70306119997986,277.1873214999214,315,45,277.1873214999214,277.1873214999214,277.1873214999214,277.1873214999214,277.1873214999214,277.1873214999214,277.1873214999214,277.1873214999214,277.1873214999214,277.5538721999619,277.5538721999619,277.5538721999619,277.5538721999619,277.5538721999619,277.5538721999619,277.5538721999619,277.5538721999619,277.5538721999619,23,0,,,277.5538721999619,277.754119399935,1000,277.754119399935,1000,1000,1000,1000,0,num_3,0.6671259002760053,,33,1,2026-03-12_17h10.09.831,2026A_exp2,2022.2.4,59.91837921801729,
1,0,0.0,0.0,0,0,75,75,34,,,,,278.43797490000725,279.08857090002857,279.08857090002857,279.5898907999508,315,315,279.5898907999508,279.5898907999508,279.5898907999508,279.5898907999508,279.5898907999508,279.5898907999508,279.5898907999508,279.5898907999508,279.5898907999508,279.95640649995767,279.95640649995767,279.95640649995767,279.95640649995767,279.95640649995767,279.95640649995767,279.95640649995767,279.95640649995767,279.95640649995767,23,0,,,279.95640649995767,280.15646329987794,0.0,280.15646329987794,1,0.0,0,0,1000,num_4,1.4961253001820296,,33,1,2026-03-12_17h10.09.831,2026A_exp2,2022.2.4,59.91837921801729,
1000,1,0.0,0.0,1,0,76,76,23,,,,,281.6744309000205,282.32534689991735,282.32534689991735,282.80959459999576,315,315,282.80959459999576,282.80959459999576,282.80959459999576,282.80959459999576,282.80959459999576,282.80959459999576,282.80959459999576,282.80959459999576,282.80959459999576,283.1759128998965,283.1759128998965,283.1759128998965,283.1759128998965,283.1759128998965,283.1759128998965,283.1759128998965,283.1759128998965,283.1759128998965,23,0,,,283.1759128998965,283.3780203999486,1000,283.3780203999486,1000,1000,1000,1000,1,num_2,0.6116488999687135,,33,1,2026-03-12_17h10.09.831,2026A_exp2,2022.2.4,59.91837921801729,
0,0,0.0,0.0,0,0,77,77,22,,,,,284.010208300082,284.66084429994226,284.66084429994226,285.1621592999436,45,315,285.1621592999436,285.1621592999436,285.1621592999436,285.1621592999436,285.1621592999436,285.1621592999436,285.1621592999436,285.1621592999436,285.1621592999436,285.5285374999512,285.5285374999512,285.5285374999512,285.5285374999512,285.5285374999512,285.5285374999512,285.5285374999512,285.5285374999512,285.5285374999512,23,0,,,285.5285374999512,285.72861219989136,0.0,285.72861219989136,0,0.0,0,1,1000,num_1,1.492009400157258,,33,1,2026-03-12_17h10.09.831,2026A_exp2,2022.2.4,59.91837921801729,
0,0,0.0,3.7,0,0,78,78,83,,,,,287.2468151000794,287.89742649998516,287.89742649998516,288.38184649986215,45,315,288.38184649986215,288.38184649986215,288.38184649986215,288.38184649986215,288.38184649986215,288.38184649986215,288.38184649986215,288.38184649986215,288.38184649986215,288.7482984000817,288.7482984000817,288.7482984000817,288.7482984000817,288.7482984000817,288.7482984000817,288.7482984000817,288.7482984000817,288.7482984000817,23,0,,,288.7482984000817,288.94857149990276,3.7,288.94857149990276,1,3.7,1,1,1000,num_4,1.0797676001675427,,33,1,2026-03-12_17h10.09.831,2026A_exp2,2022.2.4,59.91837921801729,
1000,1,0.0,4.9,1,0,79,79,55,,,,,290.04941139998846,290.7002286000643,290.7002286000643,291.18465429986827,315,315,291.18465429986827,291.18465429986827,291.18465429986827,291.18465429986827,291.18465429986827,291.18465429986827,291.18465429986827,291.18465429986827,291.18465429986827,291.5511747999117,291.5511747999117,291.5511747999117,291.5511747999117,291.5511747999117,291.5511747999117,291.5511747999117,291.5511747999117,291.5511747999117,0,1,[0.0012153999414294958],[0.36721810000017285],291.5511747999117,291.7532550999895,1000,291.7532550999895,1000,1000,1000,1000,1,num_2,0.660516400123015,,33,1,2026-03-12_17h10.09.831,2026A_exp2,2022.2.4,59.91837921801729,
1000,1,3.7,4.9,1,0,80,80,20,,,,,292.4353000000119,293.0860707000829,293.0860707000829,293.5869944000151,315,45,293.5869944000151,293.5869944000151,293.5869944000151,293.5869944000151,293.5869944000151,293.5869944000151,293.5869944000151,293.5869944000151,293.5869944000151,293.9369202000089,293.9369202000089,293.9369202000089,293.9369202000089,293.9369202000089,293.9369202000089,293.9369202000089,293.9369202000089,293.9369202000089,2,3,"[0.0012153999414294958, 0.03353619994595647, 0.1169199999421835]","[0.017226099967956543, 0.10032520000822842, 0.3505462999455631]",293.9369202000089,294.13864540006034,1000,294.15372029994614,1000,1000,1000,1000,1,num_2,0.7227435000240803,,33,1,2026-03-12_17h10.09.831,2026A_exp2,2022.2.4,59.91837921801729,
1000,1,0.0,0.0,0,0,81,81,37,,,,,294.9044284999836,295.5552433000412,295.5552433000412,296.0562159998808,315,45,296.0562159998808,296.0562159998808,296.0562159998808,296.0562159998808,296.0562159998808,296.0562159998808,296.0562159998808,296.0562159998808,296.0562159998808,296.4227809999138,296.4227809999138,296.4227809999138,296.4227809999138,296.4227809999138,296.4227809999138,296.4227809999138,296.4227809999138,296.4227809999138,20,3,"[0.04982220008969307, 0.2665947999339551, 0.3340366000775248]","[0.06649100012145936, 0.28334520012140274, 0.350079300114885]",296.4227809999138,296.62458639987744,1000,296.62458639987744,1000,1000,1000,1000,1,num_2,1.4675952000543475,,33,1,2026-03-12_17h10.09.831,2026A_exp2,2022.2.4,59.91837921801729,
1,0,6.1,3.7,0,0,82,82,31,,,,,298.1078017000109,298.7584855000023,298.7584855000023,299.25920460000634,45,45,299.25920460000634,299.25920460000634,299.25920460000634,299.25920460000634,299.25920460000634,299.25920460000634,299.25920460000634,299.25920460000634,299.25920460000634,299.6259951000102,299.6259951000102,299.6259951000102,299.6259951000102,299.6259951000102,299.6259951000102,299.6259951000102,299.6259951000102,299.6259951000102,23,0,,,299.6259951000102,299.82620180002414,6.1,299.82620180002414,1,6.1,1,1,1000,num_4,0.8982566001359373,,33,1,2026-03-12_17h10.09.831,2026A_exp2,2022.2.4,59.91837921801729,
0,0,0.0,0.0,1,0,83,83,38,,,,,300.7436929999385,301.39449049998075,301.39449049998075,301.8954390999861,315,315,301.8954390999861,301.8954390999861,301.8954390999861,301.8954390999861,301.8954390999861,301.8954390999861,301.8954390999861,301.8954390999861,301.8954390999861,302.26168780005537,302.26168780005537,302.26168780005537,302.26168780005537,302.26168780005537,302.26168780005537,302.26168780005537,302.26168780005537,302.26168780005537,23,0,,,302.26168780005537,302.4622049999889,0.0,302.4622049999889,1,0.0,0,0,1000,num_4,2.127537799999118,,33,1,2026-03-12_17h10.09.831,2026A_exp2,2022.2.4,59.91837921801729,
0,0,0.0,0.0,0,0,84,84,70,,,,,304.61407410004176,305.26491179992445,305.26491179992445,305.7492076000199,315,45,305.7492076000199,305.7492076000199,305.7492076000199,305.7492076000199,305.7492076000199,305.7492076000199,305.7492076000199,305.7492076000199,305.7492076000199,306.11577289993875,306.11577289993875,306.11577289993875,306.11577289993875,306.11577289993875,306.11577289993875,306.11577289993875,306.11577289993875,306.11577289993875,2,2,"[0.0012344999704509974, 0.05075699998997152]","[0.03340069996193051, 0.3672253000549972]",306.11577289993875,306.31598459999077,0.0,306.31598459999077,0,0.0,0,1,1000,num_1,1.649334599962458,,33,1,2026-03-12_17h10.09.831,2026A_exp2,2022.2.4,59.91837921801729,
1000,1,0.0,0.0,0,0,85,85,15,,,,,307.98409279994667,308.63498770003207,308.63498770003207,309.11958679999225,45,315,309.11958679999225,309.11958679999225,309.11958679999225,309.11958679999225,309.11958679999225,309.11958679999225,309.11958679999225,309.11958679999225,309.11958679999225,309.4858748000115,309.4858748000115,309.4858748000115,309.4858748000115,309.4858748000115,309.4858748000115,309.4858748000115,309.4858748000115,309.4858748000115,13,7,"[0.01718769990839064, 0.05016979994252324, 0.10037279990501702, 0.18366659991443157, 0.2171424999833107, 0.26709620002657175, 0.3339923999737948]","[0.03315820009447634, 0.06695459992624819, 0.11686010006815195, 0.20030030002817512, 0.2336651999503374, 0.31710340012796223, 0.36715489998459816]",309.4858748000115,309.6860360999126,1000,309.6860360999126,1000,1000,1000,1000,0,num_3,0.5667881001718342,,33,1,2026-03-12_17h10.09.831,2026A_exp2,2022.2.4,59.91837921801729,
0,0,4.9,4.9,1,0,86,86,48,,,,,310.27295070001855,310.92901550000533,310.92901550000533,311.42170819989406,45,315,311.42170819989406,311.42170819989406,311.42170819989406,311.42170819989406,311.42170819989406,311.42170819989406,311.42170819989406,311.42170819989406,311.42170819989406,311.7879488999024,311.7879488999024,311.7879488999024,311.7879488999024,311.7879488999024,311.7879488999024,311.7879488999024,311.7879488999024,311.7879488999024,23,0,,,311.7879488999024,311.9882245999761,4.9,311.9882245999761,1,4.9,1,1,1000,num_4,0.729174500098452,,33,1,2026-03-12_17h10.09.831,2026A_exp2,2022.2.4,59.91837921801729,
1000,1,0.0,0.0,0,0,87,87,45,,,,,312.7390837999992,313.38972890004516,313.38972890004516,313.87417529989034,45,45,313.87417529989034,313.87417529989034,313.87417529989034,313.87417529989034,313.87417529989034,313.87417529989034,313.87417529989034,313.87417529989034,313.87417529989034,314.24053020006977,314.24053020006977,314.24053020006977,314.24053020006977,314.24053020006977,314.24053020006977,314.24053020006977,314.24053020006977,314.24053020006977,23,0,,,314.24053020006977,314.4424564000219,1000,314.4424564000219,1000,1000,1000,1000,0,num_3,0.7071920000016689,,33,1,2026-03-12_17h10.09.831,2026A_exp2,2022.2.4,59.91837921801729,
1000,1,3.7,4.9,0,0,88,88,64,,,,,315.1749899999704,315.8254342,315.8254342,316.32657869998366,315,45,316.32657869998366,316.32657869998366,316.32657869998366,316.32657869998366,316.32657869998366,316.32657869998366,316.32657869998366,316.32657869998366,316.32657869998366,316.6929882999975,316.6929882999975,316.6929882999975,316.6929882999975,316.6929882999975,316.6929882999975,316.6929882999975,316.6929882999975,316.6929882999975,23,0,,,316.6929882999975,316.89501129998825,1000,316.89501129998825,1000,1000,1000,1000,0,num_3,1.2858568001538515,,33,1,2026-03-12_17h10.09.831,2026A_exp2,2022.2.4,59.91837921801729,
1000,1,0.0,0.0,0,0,89,89,36,,,,,318.21131490007974,318.86168870003894,318.86168870003894,319.35712679987773,315,315,319.35712679987773,319.35712679987773,319.35712679987773,319.35712679987773,319.35712679987773,319.35712679987773,319.35712679987773,319.35712679987773,319.35712679987773,319.71269199997187,319.71269199997187,319.71269199997187,319.71269199997187,319.71269199997187,319.71269199997187,319.71269199997187,319.71269199997187,319.71269199997187,23,0,,,319.71269199997187,319.914665899938,1000,319.914665899938,1000,1000,1000,1000,0,num_3,1.362500400049612,,33,1,2026-03-12_17h10.09.831,2026A_exp2,2022.2.4,59.91837921801729,
,,,,,,,,,,,,,,,,,,,,,,,,,,,,,,,,,,,,,,,,,,,,,,,,,,,,321.306896999944,,,,,,,
