validity,detectorcomp,contrastCW,contrastCCW,precueCWorCCW,block_80trials.thisRepN,block_80trials.thisTrialN,block_80trials.thisN,block_80trials.thisIndex,etRecord.started,etRecord.stopped,text.started,text.stopped,text_4.started,text_4.stopped,text_6.started,text_6.stopped,oriCW,oriCCW,roi_2.started,grating_UR.started,grating_UL.started,grating_LR.started,grating_LL.started,noise_UR.started,noise_UL.started,noise_LR.started,noise_LL.started,roi_2.stopped,grating_UR.stopped,grating_UL.stopped,grating_LR.stopped,grating_LL.stopped,noise_UR.stopped,noise_UL.stopped,noise_LR.stopped,noise_LL.stopped,outframe,roi_2.numLooks,roi_2.timesOn,roi_2.timesOff,text_2.started,text_2.stopped,probedcontrast,key_resp.started,respdetect,relevantContrast,correctDetect,TorFdetect,respCWorCCW,key_resp.keys,key_resp.rt,feedback_display_.started,participantNo,blockNo,date,expName,psychopyVersion,frameRate,
1000,1,0.0,0.0,0,0,0,0,87,3.9700011257082224e-05,3.9700011257082224e-05,66.10674700001255,68.11322629998904,68.11322629998904,68.7466544000199,68.7466544000199,69.26488690002589,45,45,69.26488690002589,69.26488690002589,69.26488690002589,69.26488690002589,69.26488690002589,69.26488690002589,69.26488690002589,69.26488690002589,69.26488690002589,69.61434789997293,69.61434789997293,69.61434789997293,69.61434789997293,69.61434789997293,69.61434789997293,69.61434789997293,69.61434789997293,69.61434789997293,23,0,,,69.61434789997293,69.82123579998733,1000,69.82123579998733,1000,1000,1000,1000,1,num_2,0.7428266999777406,,23,9,2026-03-04_14h04.57.280,2026A_exp2,2022.2.4,59.82278098827503,
1,0,0.0,0.0,1,0,1,1,41,,,,,70.58206240000436,71.23273059999337,71.23273059999337,71.73366389999865,315,315,71.73366389999865,71.73366389999865,71.73366389999865,71.73366389999865,71.73366389999865,71.73366389999865,71.73366389999865,71.73366389999865,71.73366389999865,72.10018110001693,72.10018110001693,72.10018110001693,72.10018110001693,72.10018110001693,72.10018110001693,72.10018110001693,72.10018110001693,72.10018110001693,23,0,,,72.10018110001693,72.30041520000668,0.0,72.30041520000668,1,0.0,0,0,1000,num_4,0.7198538000229746,,23,9,2026-03-04_14h04.57.280,2026A_exp2,2022.2.4,59.82278098827503,
1000,1,3.7,6.1,1,0,2,2,29,,,,,73.05117130000144,73.70179909997387,73.70179909997387,74.1862435999792,315,315,74.1862435999792,74.1862435999792,74.1862435999792,74.1862435999792,74.1862435999792,74.1862435999792,74.1862435999792,74.1862435999792,74.1862435999792,74.55417989997659,74.55417989997659,74.55417989997659,74.55417989997659,74.55417989997659,74.55417989997659,74.55417989997659,74.55417989997659,74.55417989997659,23,0,,,74.55417989997659,74.77002940000966,1000,74.77002940000966,1000,1000,1000,1000,1,num_2,0.44167959998594597,,23,9,2026-03-04_14h04.57.280,2026A_exp2,2022.2.4,59.82278098827503,
1000,1,0.0,4.9,0,0,3,3,53,,,,,75.23678320000181,75.88736609998159,75.88736609998159,76.38831509999,315,315,76.38831509999,76.38831509999,76.38831509999,76.38831509999,76.38831509999,76.38831509999,76.38831509999,76.38831509999,76.38831509999,76.7547822999768,76.7547822999768,76.7547822999768,76.7547822999768,76.7547822999768,76.7547822999768,76.7547822999768,76.7547822999768,76.7547822999768,23,0,,,76.7547822999768,76.95755519997329,1000,76.95755519997329,1000,1000,1000,1000,1,num_2,0.3900630999705754,,23,9,2026-03-04_14h04.57.280,2026A_exp2,2022.2.4,59.82278098827503,
1000,1,0.0,0.0,0,0,4,4,6,,,,,77.3721482999972,78.02276810002513,78.02276810002513,78.5238763000234,45,45,78.5238763000234,78.5238763000234,78.5238763000234,78.5238763000234,78.5238763000234,78.5238763000234,78.5238763000234,78.5238763000234,78.5238763000234,78.87348230002681,78.87348230002681,78.87348230002681,78.87348230002681,78.87348230002681,78.87348230002681,78.87348230002681,78.87348230002681,78.87348230002681,22,0,,,78.87348230002681,79.07603970001219,1000,79.09059540001908,1000,1000,1000,1000,1,num_2,0.3778862999752164,,23,9,2026-03-04_14h04.57.280,2026A_exp2,2022.2.4,59.82278098827503,
1000,1,3.7,0.0,1,0,5,5,54,,,,,79.49105090001831,80.12476269999752,80.12476269999752,80.62584599998081,315,45,80.62584599998081,80.62584599998081,80.62584599998081,80.62584599998081,80.62584599998081,80.62584599998081,80.62584599998081,80.62584599998081,80.62584599998081,80.9922884000116,80.9922884000116,80.9922884000116,80.9922884000116,80.9922884000116,80.9922884000116,80.9922884000116,80.9922884000116,80.9922884000116,23,0,,,80.9922884000116,81.19471369998064,1000,81.19471369998064,1000,1000,1000,1000,0,num_3,0.4741395000019111,,23,9,2026-03-04_14h04.57.280,2026A_exp2,2022.2.4,59.82278098827503,
1,0,4.9,3.7,1,0,6,6,26,,,,,81.69302990002325,82.34372429997893,82.34372429997893,82.84500209998805,315,45,82.84500209998805,82.84500209998805,82.84500209998805,82.84500209998805,82.84500209998805,82.84500209998805,82.84500209998805,82.84500209998805,82.84500209998805,83.19468660000712,83.19468660000712,83.19468660000712,83.19468660000712,83.19468660000712,83.19468660000712,83.19468660000712,83.19468660000712,83.19468660000712,22,0,,,83.19468660000712,83.39482250000583,3.7,83.41150639997795,0,3.7,1,0,1000,num_1,0.8092010000254959,,23,9,2026-03-04_14h04.57.280,2026A_exp2,2022.2.4,59.82278098827503,
1000,1,0.0,6.1,1,0,7,7,52,,,,,84.24549559998559,84.89635569998063,84.89635569998063,85.38085319998208,45,45,85.38085319998208,85.38085319998208,85.38085319998208,85.38085319998208,85.38085319998208,85.38085319998208,85.38085319998208,85.38085319998208,85.38085319998208,85.74704940000083,85.74704940000083,85.74704940000083,85.74704940000083,85.74704940000083,85.74704940000083,85.74704940000083,85.74704940000083,85.74704940000083,23,0,,,85.74704940000083,85.94930859998567,1000,85.94930859998567,1000,1000,1000,1000,1,num_2,0.3752560000284575,,23,9,2026-03-04_14h04.57.280,2026A_exp2,2022.2.4,59.82278098827503,
0,0,6.1,0.0,1,0,8,8,30,,,,,86.34765020001214,86.99831120000454,86.99831120000454,87.49941470002523,315,45,87.49941470002523,87.49941470002523,87.49941470002523,87.49941470002523,87.49941470002523,87.49941470002523,87.49941470002523,87.49941470002523,87.49941470002523,87.86582000000635,87.86582000000635,87.86582000000635,87.86582000000635,87.86582000000635,87.86582000000635,87.86582000000635,87.86582000000635,87.86582000000635,23,0,,,87.86582000000635,88.06615169998258,6.1,88.06615169998258,1,6.1,1,1,1000,num_4,0.6576169999898411,,23,9,2026-03-04_14h04.57.280,2026A_exp2,2022.2.4,59.82278098827503,
1000,1,0.0,0.0,0,0,9,9,15,,,,,88.75018229999114,89.40093689999776,89.40093689999776,89.88530899997568,315,45,89.88530899997568,89.88530899997568,89.88530899997568,89.88530899997568,89.88530899997568,89.88530899997568,89.88530899997568,89.88530899997568,89.88530899997568,90.25165629998082,90.25165629998082,90.25165629998082,90.25165629998082,90.25165629998082,90.25165629998082,90.25165629998082,90.25165629998082,90.25165629998082,23,0,,,90.25165629998082,90.4537818999961,1000,90.4537818999961,1000,1000,1000,1000,1,num_2,0.3906798000098206,,23,9,2026-03-04_14h04.57.280,2026A_exp2,2022.2.4,59.82278098827503,
1,0,3.7,0.0,1,0,10,10,28,,,,,90.8689942000201,91.51954459998524,91.51954459998524,92.00395149999531,45,315,92.00395149999531,92.00395149999531,92.00395149999531,92.00395149999531,92.00395149999531,92.00395149999531,92.00395149999531,92.00395149999531,92.00395149999531,92.37045759998728,92.37045759998728,92.37045759998728,92.37045759998728,92.37045759998728,92.37045759998728,92.37045759998728,92.37045759998728,92.37045759998728,22,1,[0.10033929999917746],[0.1336890000384301],92.37045759998728,92.5706464999821,0.0,92.5706464999821,1,0.0,0,0,1000,num_4,0.6176682999939658,,23,9,2026-03-04_14h04.57.280,2026A_exp2,2022.2.4,59.82278098827503,
1,0,6.1,3.7,0,0,11,11,31,,,,,93.20453420002013,93.85923370003002,93.85923370003002,94.33965270000044,45,45,94.33965270000044,94.33965270000044,94.33965270000044,94.33965270000044,94.33965270000044,94.33965270000044,94.33965270000044,94.33965270000044,94.33965270000044,94.70604090002598,94.70604090002598,94.70604090002598,94.70604090002598,94.70604090002598,94.70604090002598,94.70604090002598,94.70604090002598,94.70604090002598,23,0,,,94.70604090002598,94.90605679998407,6.1,94.90605679998407,1,6.1,1,1,1000,num_4,0.6819248999818228,,23,9,2026-03-04_14h04.57.280,2026A_exp2,2022.2.4,59.82278098827503,
0,0,3.7,6.1,0,0,12,12,73,,,,,95.6068117999821,96.2576595999999,96.2576595999999,96.74216800002614,45,45,96.74216800002614,96.74216800002614,96.74216800002614,96.74216800002614,96.74216800002614,96.74216800002614,96.74216800002614,96.74216800002614,96.74216800002614,97.10854960000142,97.10854960000142,97.10854960000142,97.10854960000142,97.10854960000142,97.10854960000142,97.10854960000142,97.10854960000142,97.10854960000142,23,0,,,97.10854960000142,97.30888839997351,6.1,97.30888839997351,1,6.1,1,1,1000,num_4,0.630989600031171,,23,9,2026-03-04_14h04.57.280,2026A_exp2,2022.2.4,59.82278098827503,
1000,1,0.0,6.1,0,0,13,13,2,,,,,97.9592849999899,98.60998670000117,98.60998670000117,99.09450629999628,45,315,99.09450629999628,99.09450629999628,99.09450629999628,99.09450629999628,99.09450629999628,99.09450629999628,99.09450629999628,99.09450629999628,99.09450629999628,99.4609326000209,99.4609326000209,99.4609326000209,99.4609326000209,99.4609326000209,99.4609326000209,99.4609326000209,99.4609326000209,99.4609326000209,19,3,"[0.05028299998957664, 0.20042030001059175, 0.35058610001578927]","[0.06704670004546642, 0.23380220000399277, 0.3673634000006132]",99.4609326000209,99.66272790002404,1000,99.66272790002404,1000,1000,1000,1000,1,num_2,0.47740500001236796,,23,9,2026-03-04_14h04.57.280,2026A_exp2,2022.2.4,59.82278098827503,
1,0,3.7,4.9,0,0,14,14,76,,,,,100.16142319998471,100.81224270001985,100.81224270001985,101.31339760002447,45,45,101.31339760002447,101.31339760002447,101.31339760002447,101.31339760002447,101.31339760002447,101.31339760002447,101.31339760002447,101.31339760002447,101.31339760002447,101.67968800000381,101.67968800000381,101.67968800000381,101.67968800000381,101.67968800000381,101.67968800000381,101.67968800000381,101.67968800000381,101.67968800000381,21,2,"[0.23364010005025193, 0.3172550000017509]","[0.2506996000302024, 0.33405689999926835]",101.67968800000381,101.880061200005,3.7,101.880061200005,1,3.7,1,1,1000,num_4,0.5485177000518888,,23,9,2026-03-04_14h04.57.280,2026A_exp2,2022.2.4,59.82278098827503,
1000,1,0.0,0.0,0,0,15,15,67,,,,,102.44703570002457,103.09792339999694,103.09792339999694,103.58233770000516,45,45,103.58233770000516,103.58233770000516,103.58233770000516,103.58233770000516,103.58233770000516,103.58233770000516,103.58233770000516,103.58233770000516,103.58233770000516,103.94867650000378,103.94867650000378,103.94867650000378,103.94867650000378,103.94867650000378,103.94867650000378,103.94867650000378,103.94867650000378,103.94867650000378,19,3,"[0.0007477999897673726, 0.16766340000322089, 0.317693600023631]","[0.03364899998996407, 0.1842289000051096, 0.3344271000241861]",103.94867650000378,104.15047499997308,1000,104.15047499997308,1000,1000,1000,1000,0,num_3,0.4609781000181101,,23,9,2026-03-04_14h04.57.280,2026A_exp2,2022.2.4,59.82278098827503,
1000,1,6.1,0.0,0,0,16,16,89,,,,,104.63265149999643,105.2834646999836,105.2834646999836,105.78437810001196,45,315,105.78437810001196,105.78437810001196,105.78437810001196,105.78437810001196,105.78437810001196,105.78437810001196,105.78437810001196,105.78437810001196,105.78437810001196,106.15096689999336,106.15096689999336,106.15096689999336,106.15096689999336,106.15096689999336,106.15096689999336,106.15096689999336,106.15096689999336,106.15096689999336,23,0,,,106.15096689999336,106.35300300002564,1000,106.35300300002564,1000,1000,1000,1000,0,num_3,0.7632132999715395,,23,9,2026-03-04_14h04.57.280,2026A_exp2,2022.2.4,59.82278098827503,
1000,1,0.0,0.0,0,0,17,17,45,,,,,107.13511350000044,107.78596810001181,107.78596810001181,108.28701430000365,315,315,108.28701430000365,108.28701430000365,108.28701430000365,108.28701430000365,108.28701430000365,108.28701430000365,108.28701430000365,108.28701430000365,108.28701430000365,108.65345789998537,108.65345789998537,108.65345789998537,108.65345789998537,108.65345789998537,108.65345789998537,108.65345789998537,108.65345789998537,108.65345789998537,23,0,,,108.65345789998537,108.85565189999761,1000,108.85565189999761,1000,1000,1000,1000,1,num_2,0.8921085000038147,,23,9,2026-03-04_14h04.57.280,2026A_exp2,2022.2.4,59.82278098827503,
1,0,3.7,4.9,1,0,18,18,71,,,,,109.77131909999298,110.4218260999769,110.4218260999769,110.90634169999976,45,45,110.90634169999976,110.90634169999976,110.90634169999976,110.90634169999976,110.90634169999976,110.90634169999976,110.90634169999976,110.90634169999976,110.90634169999976,111.27270869998029,111.27270869998029,111.27270869998029,111.27270869998029,111.27270869998029,111.27270869998029,111.27270869998029,111.27270869998029,111.27270869998029,23,0,,,111.27270869998029,111.47277079999913,4.9,111.47277079999913,1,4.9,1,1,1000,num_4,0.6346907999832183,,23,9,2026-03-04_14h04.57.280,2026A_exp2,2022.2.4,59.82278098827503,
1000,1,0.0,6.1,1,0,19,19,19,,,,,112.12342760001775,112.77412750001531,112.77412750001531,113.25855000002775,45,315,113.25855000002775,113.25855000002775,113.25855000002775,113.25855000002775,113.25855000002775,113.25855000002775,113.25855000002775,113.25855000002775,113.25855000002775,113.62500050000381,113.62500050000381,113.62500050000381,113.62500050000381,113.62500050000381,113.62500050000381,113.62500050000381,113.62500050000381,113.62500050000381,23,0,,,113.62500050000381,113.82524510001531,1000,113.82524510001531,1000,1000,1000,1000,1,num_2,0.4116286999778822,,23,9,2026-03-04_14h04.57.280,2026A_exp2,2022.2.4,59.82278098827503,
1000,1,6.1,4.9,0,0,20,20,68,,,,,114.25889489997644,114.90970590000506,114.90970590000506,115.4108265999821,45,45,115.4108265999821,115.4108265999821,115.4108265999821,115.4108265999821,115.4108265999821,115.4108265999821,115.4108265999821,115.4108265999821,115.4108265999821,115.7605682000285,115.7605682000285,115.7605682000285,115.7605682000285,115.7605682000285,115.7605682000285,115.7605682000285,115.7605682000285,115.7605682000285,22,0,,,115.7605682000285,115.9609656999819,1000,115.97760719998041,1000,1000,1000,1000,0,num_3,0.4264044999727048,,23,9,2026-03-04_14h04.57.280,2026A_exp2,2022.2.4,59.82278098827503,
1000,1,3.7,0.0,0,0,21,21,66,,,,,116.42772099998547,117.0784990999964,117.0784990999964,117.5796181000187,315,315,117.5796181000187,117.5796181000187,117.5796181000187,117.5796181000187,117.5796181000187,117.5796181000187,117.5796181000187,117.5796181000187,117.5796181000187,117.9460240000044,117.9460240000044,117.9460240000044,117.9460240000044,117.9460240000044,117.9460240000044,117.9460240000044,117.9460240000044,117.9460240000044,23,0,,,117.9460240000044,118.14811840001494,1000,118.14811840001494,1000,1000,1000,1000,1,num_2,1.0879098000004888,,23,9,2026-03-04_14h04.57.280,2026A_exp2,2022.2.4,59.82278098827503,
1,0,3.7,0.0,1,0,22,22,13,,,,,119.26380559999961,119.91474600002402,119.91474600002402,120.41584730002796,315,315,120.41584730002796,120.41584730002796,120.41584730002796,120.41584730002796,120.41584730002796,120.41584730002796,120.41584730002796,120.41584730002796,120.41584730002796,120.76556490000803,120.76556490000803,120.76556490000803,120.76556490000803,120.76556490000803,120.76556490000803,120.76556490000803,120.76556490000803,120.76556490000803,22,0,,,120.76556490000803,120.96561519999523,0.0,120.96561519999523,1,0.0,0,0,1000,num_4,0.6309666999732144,,23,9,2026-03-04_14h04.57.280,2026A_exp2,2022.2.4,59.82278098827503,
1000,1,0.0,0.0,1,0,23,23,40,,,,,121.61618970002746,122.26699550001649,122.26699550001649,122.75138580001658,45,315,122.75138580001658,122.75138580001658,122.75138580001658,122.75138580001658,122.75138580001658,122.75138580001658,122.75138580001658,122.75138580001658,122.75138580001658,123.11798119999003,123.11798119999003,123.11798119999003,123.11798119999003,123.11798119999003,123.11798119999003,123.11798119999003,123.11798119999003,123.11798119999003,23,0,,,123.11798119999003,123.31978429999435,1000,123.31978429999435,1000,1000,1000,1000,0,num_3,0.7563398000202142,,23,9,2026-03-04_14h04.57.280,2026A_exp2,2022.2.4,59.82278098827503,
1000,1,0.0,0.0,1,0,24,24,46,,,,,124.10212809999939,124.7526446999982,124.7526446999982,125.23717999999644,315,315,125.23717999999644,125.23717999999644,125.23717999999644,125.23717999999644,125.23717999999644,125.23717999999644,125.23717999999644,125.23717999999644,125.23717999999644,125.60374910000246,125.60374910000246,125.60374910000246,125.60374910000246,125.60374910000246,125.60374910000246,125.60374910000246,125.60374910000246,125.60374910000246,23,0,,,125.60374910000246,125.80564819998108,1000,125.80564819998108,1000,1000,1000,1000,1,num_2,0.6219238999765366,,23,9,2026-03-04_14h04.57.280,2026A_exp2,2022.2.4,59.82278098827503,
1,0,3.7,0.0,1,0,25,25,11,,,,,126.45444830000633,127.1050866000005,127.1050866000005,127.60629810002865,45,315,127.60629810002865,127.60629810002865,127.60629810002865,127.60629810002865,127.60629810002865,127.60629810002865,127.60629810002865,127.60629810002865,127.60629810002865,127.97270250000292,127.97270250000292,127.97270250000292,127.97270250000292,127.97270250000292,127.97270250000292,127.97270250000292,127.97270250000292,127.97270250000292,23,0,,,127.97270250000292,128.17300339997746,0.0,128.17300339997746,1,0.0,0,0,1000,num_4,0.6958953000139445,,23,9,2026-03-04_14h04.57.280,2026A_exp2,2022.2.4,59.82278098827503,
1,0,4.9,3.7,0,0,26,26,63,,,,,128.89020550000714,129.54097380000167,129.54097380000167,130.02545419998933,315,315,130.02545419998933,130.02545419998933,130.02545419998933,130.02545419998933,130.02545419998933,130.02545419998933,130.02545419998933,130.02545419998933,130.02545419998933,130.3915998999728,130.3915998999728,130.3915998999728,130.3915998999728,130.3915998999728,130.3915998999728,130.3915998999728,130.3915998999728,130.3915998999728,23,0,,,130.3915998999728,130.59195089997957,4.9,130.59195089997957,1,4.9,1,1,1000,num_4,0.6915680000092834,,23,9,2026-03-04_14h04.57.280,2026A_exp2,2022.2.4,59.82278098827503,
1,0,0.0,6.1,0,0,27,27,43,,,,,131.3092956999899,131.95992569997907,131.95992569997907,132.44433169998229,315,45,132.44433169998229,132.44433169998229,132.44433169998229,132.44433169998229,132.44433169998229,132.44433169998229,132.44433169998229,132.44433169998229,132.44433169998229,132.81091509998078,132.81091509998078,132.81091509998078,132.81091509998078,132.81091509998078,132.81091509998078,132.81091509998078,132.81091509998078,132.81091509998078,23,0,,,132.81091509998078,133.01113080000505,0.0,133.01113080000505,0,0.0,0,1,1000,num_1,0.7682383999926969,,23,9,2026-03-04_14h04.57.280,2026A_exp2,2022.2.4,59.82278098827503,
1000,1,0.0,6.1,1,0,28,28,69,,,,,133.79512690001866,134.44591780001065,134.44591780001065,134.93022530002054,45,315,134.93022530002054,134.93022530002054,134.93022530002054,134.93022530002054,134.93022530002054,134.93022530002054,134.93022530002054,134.93022530002054,134.93022530002054,135.29664199997205,135.29664199997205,135.29664199997205,135.29664199997205,135.29664199997205,135.29664199997205,135.29664199997205,135.29664199997205,135.29664199997205,23,0,,,135.29664199997205,135.49888859997736,1000,135.49888859997736,1000,1000,1000,1000,1,num_2,0.456813000026159,,23,9,2026-03-04_14h04.57.280,2026A_exp2,2022.2.4,59.82278098827503,
1000,1,0.0,6.1,1,0,29,29,62,,,,,135.98051439999836,136.63114800001495,136.63114800001495,137.13255029998254,45,315,137.13255029998254,137.13255029998254,137.13255029998254,137.13255029998254,137.13255029998254,137.13255029998254,137.13255029998254,137.13255029998254,137.13255029998254,137.49890050000977,137.49890050000977,137.49890050000977,137.49890050000977,137.49890050000977,137.49890050000977,137.49890050000977,137.49890050000977,137.49890050000977,23,0,,,137.49890050000977,137.70074449997628,1000,137.70074449997628,1000,1000,1000,1000,1,num_2,0.41527130000758916,,23,9,2026-03-04_14h04.57.280,2026A_exp2,2022.2.4,59.82278098827503,
1000,1,0.0,6.1,0,0,30,30,58,,,,,138.1329054000089,138.78358589997515,138.78358589997515,139.2846265999833,45,315,139.2846265999833,139.2846265999833,139.2846265999833,139.2846265999833,139.2846265999833,139.2846265999833,139.2846265999833,139.2846265999833,139.2846265999833,139.65108999999939,139.65108999999939,139.65108999999939,139.65108999999939,139.65108999999939,139.65108999999939,139.65108999999939,139.65108999999939,139.65108999999939,23,0,,,139.65108999999939,139.85132180002984,1000,139.85132180002984,1000,1000,1000,1000,1,num_2,0.42480779998004436,,23,9,2026-03-04_14h04.57.280,2026A_exp2,2022.2.4,59.82278098827503,
1,0,4.9,3.7,1,0,31,31,10,,,,,140.3016630000202,140.95239190000575,140.95239190000575,141.45357040001545,45,315,141.45357040001545,141.45357040001545,141.45357040001545,141.45357040001545,141.45357040001545,141.45357040001545,141.45357040001545,141.45357040001545,141.45357040001545,141.81990280002356,141.81990280002356,141.81990280002356,141.81990280002356,141.81990280002356,141.81990280002356,141.81990280002356,141.81990280002356,141.81990280002356,23,0,,,141.81990280002356,142.01995290000923,3.7,142.01995290000923,1,3.7,1,1,1000,num_4,0.6400725000421517,,23,9,2026-03-04_14h04.57.280,2026A_exp2,2022.2.4,59.82278098827503,
1000,1,0.0,0.0,0,0,32,32,37,,,,,142.68734349997249,143.33800099999644,143.33800099999644,143.8226985000074,45,45,143.8226985000074,143.8226985000074,143.8226985000074,143.8226985000074,143.8226985000074,143.8226985000074,143.8226985000074,143.8226985000074,143.8226985000074,144.18895270000212,144.18895270000212,144.18895270000212,144.18895270000212,144.18895270000212,144.18895270000212,144.18895270000212,144.18895270000212,144.18895270000212,23,0,,,144.18895270000212,144.39743850001832,1000,144.39743850001832,1000,1000,1000,1000,0,num_3,0.5985348999965936,,23,9,2026-03-04_14h04.57.280,2026A_exp2,2022.2.4,59.82278098827503,
1000,1,4.9,0.0,0,0,33,33,50,,,,,145.02304160001222,145.67375640000682,145.67375640000682,146.17476850003004,45,315,146.17476850003004,146.17476850003004,146.17476850003004,146.17476850003004,146.17476850003004,146.17476850003004,146.17476850003004,146.17476850003004,146.17476850003004,146.54129500000272,146.54129500000272,146.54129500000272,146.54129500000272,146.54129500000272,146.54129500000272,146.54129500000272,146.54129500000272,146.54129500000272,23,0,,,146.54129500000272,146.74383210000815,1000,146.74383210000815,1000,1000,1000,1000,0,num_3,0.3478635000064969,,23,9,2026-03-04_14h04.57.280,2026A_exp2,2022.2.4,59.82278098827503,
1000,1,3.7,0.0,0,0,34,34,32,,,,,147.10844879999058,147.7591803999967,147.7591803999967,148.26030460000038,45,315,148.26030460000038,148.26030460000038,148.26030460000038,148.26030460000038,148.26030460000038,148.26030460000038,148.26030460000038,148.26030460000038,148.26030460000038,148.62673690001247,148.62673690001247,148.62673690001247,148.62673690001247,148.62673690001247,148.62673690001247,148.62673690001247,148.62673690001247,148.62673690001247,23,0,,,148.62673690001247,148.8286774000153,1000,148.8286774000153,1000,1000,1000,1000,0,num_3,0.45489970000926405,,23,9,2026-03-04_14h04.57.280,2026A_exp2,2022.2.4,59.82278098827503,
1000,1,0.0,0.0,0,0,35,35,7,,,,,149.31073999998625,149.96125460002804,149.96125460002804,150.46253560000332,45,315,150.46253560000332,150.46253560000332,150.46253560000332,150.46253560000332,150.46253560000332,150.46253560000332,150.46253560000332,150.46253560000332,150.46253560000332,150.81208649999462,150.81208649999462,150.81208649999462,150.81208649999462,150.81208649999462,150.81208649999462,150.81208649999462,150.81208649999462,150.81208649999462,22,0,,,150.81208649999462,151.01414099999238,1000,151.02919279999333,1000,1000,1000,1000,0,num_3,0.6314065000042319,,23,9,2026-03-04_14h04.57.280,2026A_exp2,2022.2.4,59.82278098827503,
1,0,0.0,4.9,1,0,36,36,1,,,,,151.67962449998595,152.3302983000176,152.3302983000176,152.8369623000035,315,45,152.8369623000035,152.8369623000035,152.8369623000035,152.8369623000035,152.8369623000035,152.8369623000035,152.8369623000035,152.8369623000035,152.8369623000035,153.19756180001423,153.19756180001423,153.19756180001423,153.19756180001423,153.19756180001423,153.19756180001423,153.19756180001423,153.19756180001423,153.19756180001423,23,0,,,153.19756180001423,153.39822759997332,4.9,153.39822759997332,1,4.9,1,1,1000,num_4,1.0223647999810055,,23,9,2026-03-04_14h04.57.280,2026A_exp2,2022.2.4,59.82278098827503,
1000,1,0.0,0.0,1,0,37,37,23,,,,,154.449148899992,155.0999179999926,155.0999179999926,155.58433380001225,315,45,155.58433380001225,155.58433380001225,155.58433380001225,155.58433380001225,155.58433380001225,155.58433380001225,155.58433380001225,155.58433380001225,155.58433380001225,155.95067679998465,155.95067679998465,155.95067679998465,155.95067679998465,155.95067679998465,155.95067679998465,155.95067679998465,155.95067679998465,155.95067679998465,23,0,,,155.95067679998465,156.15249730000505,1000,156.15249730000505,1000,1000,1000,1000,1,num_2,0.6437175000319257,,23,9,2026-03-04_14h04.57.280,2026A_exp2,2022.2.4,59.82278098827503,
1000,1,0.0,6.1,0,0,38,38,85,,,,,156.81808250001632,157.46893219999038,157.46893219999038,157.97021020000102,45,45,157.97021020000102,157.97021020000102,157.97021020000102,157.97021020000102,157.97021020000102,157.97021020000102,157.97021020000102,157.97021020000102,157.97021020000102,158.33650640002452,158.33650640002452,158.33650640002452,158.33650640002452,158.33650640002452,158.33650640002452,158.33650640002452,158.33650640002452,158.33650640002452,23,0,,,158.33650640002452,158.53855380002642,1000,158.53855380002642,1000,1000,1000,1000,1,num_2,0.4416895000031218,,23,9,2026-03-04_14h04.57.280,2026A_exp2,2022.2.4,59.82278098827503,
1000,1,0.0,6.1,0,0,39,39,35,,,,,159.00387790001696,159.65431640000315,159.65431640000315,160.15558339998825,45,315,160.15558339998825,160.15558339998825,160.15558339998825,160.15558339998825,160.15558339998825,160.15558339998825,160.15558339998825,160.15558339998825,160.15558339998825,160.52193980000447,160.52193980000447,160.52193980000447,160.52193980000447,160.52193980000447,160.52193980000447,160.52193980000447,160.52193980000447,160.52193980000447,23,0,,,160.52193980000447,160.72442199999932,1000,160.72442199999932,1000,1000,1000,1000,1,num_2,0.45535970001947135,,23,9,2026-03-04_14h04.57.280,2026A_exp2,2022.2.4,59.82278098827503,
1,0,3.7,3.7,1,0,40,40,86,,,,,161.20590820000507,161.85665540001355,161.85665540001355,162.35775209998246,45,45,162.35775209998246,162.35775209998246,162.35775209998246,162.35775209998246,162.35775209998246,162.35775209998246,162.35775209998246,162.35775209998246,162.35775209998246,162.7240402000025,162.7240402000025,162.7240402000025,162.7240402000025,162.7240402000025,162.7240402000025,162.7240402000025,162.7240402000025,162.7240402000025,23,0,,,162.7240402000025,162.92439880000893,3.7,162.92439880000893,1,3.7,1,1,1000,num_4,0.711947399948258,,23,9,2026-03-04_14h04.57.280,2026A_exp2,2022.2.4,59.82278098827503,
1,0,6.1,4.9,0,0,41,41,81,,,,,163.6583066000021,164.30903990002116,164.30903990002116,164.79338599997573,45,315,164.79338599997573,164.79338599997573,164.79338599997573,164.79338599997573,164.79338599997573,164.79338599997573,164.79338599997573,164.79338599997573,164.79338599997573,165.15992950001964,165.15992950001964,165.15992950001964,165.15992950001964,165.15992950001964,165.15992950001964,165.15992950001964,165.15992950001964,165.15992950001964,23,0,,,165.15992950001964,165.36019350000424,6.1,165.36019350000424,0,6.1,1,0,1000,num_1,0.8286784999654628,,23,9,2026-03-04_14h04.57.280,2026A_exp2,2022.2.4,59.82278098827503,
1000,1,0.0,3.7,1,0,42,42,65,,,,,166.2109155000071,166.8615888999775,166.8615888999775,167.34598819998791,45,315,167.34598819998791,167.34598819998791,167.34598819998791,167.34598819998791,167.34598819998791,167.34598819998791,167.34598819998791,167.34598819998791,167.34598819998791,167.71242280001752,167.71242280001752,167.71242280001752,167.71242280001752,167.71242280001752,167.71242280001752,167.71242280001752,167.71242280001752,167.71242280001752,23,0,,,167.71242280001752,167.9144920000108,1000,167.9144920000108,1000,1000,1000,1000,1,num_2,0.43347990000620484,,23,9,2026-03-04_14h04.57.280,2026A_exp2,2022.2.4,59.82278098827503,
1000,1,0.0,4.9,1,0,43,43,55,,,,,168.3630404000287,169.01373379997676,169.01373379997676,169.51479049999034,315,45,169.51479049999034,169.51479049999034,169.51479049999034,169.51479049999034,169.51479049999034,169.51479049999034,169.51479049999034,169.51479049999034,169.51479049999034,169.88132520002546,169.88132520002546,169.88132520002546,169.88132520002546,169.88132520002546,169.88132520002546,169.88132520002546,169.88132520002546,169.88132520002546,23,0,,,169.88132520002546,170.0817080999841,1000,170.0817080999841,1000,1000,1000,1000,1,num_2,0.3949247999698855,,23,9,2026-03-04_14h04.57.280,2026A_exp2,2022.2.4,59.82278098827503,
0,0,0.0,0.0,0,0,44,44,70,,,,,170.49848559999373,171.14929939998547,171.14929939998547,171.6503984000301,315,315,171.6503984000301,171.6503984000301,171.6503984000301,171.6503984000301,171.6503984000301,171.6503984000301,171.6503984000301,171.6503984000301,171.6503984000301,172.01682050002273,172.01682050002273,172.01682050002273,172.01682050002273,172.01682050002273,172.01682050002273,172.01682050002273,172.01682050002273,172.01682050002273,23,0,,,172.01682050002273,172.21684619999724,0.0,172.21684619999724,1,0.0,0,0,1000,num_4,0.6427079999702983,,23,9,2026-03-04_14h04.57.280,2026A_exp2,2022.2.4,59.82278098827503,
1,0,4.9,6.1,0,0,45,45,33,,,,,172.88411360001191,173.53477219998604,173.53477219998604,174.019315499987,315,45,174.019315499987,174.019315499987,174.019315499987,174.019315499987,174.019315499987,174.019315499987,174.019315499987,174.019315499987,174.019315499987,174.38583609997295,174.38583609997295,174.38583609997295,174.38583609997295,174.38583609997295,174.38583609997295,174.38583609997295,174.38583609997295,174.38583609997295,23,0,,,174.38583609997295,174.58595679997234,4.9,174.58595679997234,1,4.9,1,1,1000,num_4,1.9063112000003457,,23,9,2026-03-04_14h04.57.280,2026A_exp2,2022.2.4,59.82278098827503,
1,0,0.0,0.0,0,0,46,46,51,,,,,176.52113790001022,177.17178039997816,177.17178039997816,177.65617360000033,315,45,177.65617360000033,177.65617360000033,177.65617360000033,177.65617360000033,177.65617360000033,177.65617360000033,177.65617360000033,177.65617360000033,177.65617360000033,178.02277039998444,178.02277039998444,178.02277039998444,178.02277039998444,178.02277039998444,178.02277039998444,178.02277039998444,178.02277039998444,178.02277039998444,23,0,,,178.02277039998444,178.22298939997563,0.0,178.22298939997563,1,0.0,0,0,1000,num_4,2.5333071000059135,,23,9,2026-03-04_14h04.57.280,2026A_exp2,2022.2.4,59.82278098827503,
1,0,3.7,0.0,0,0,47,47,8,,,,,180.77534140000353,181.4260624999879,181.4260624999879,181.91053609998198,45,315,181.91053609998198,181.91053609998198,181.91053609998198,181.91053609998198,181.91053609998198,181.91053609998198,181.91053609998198,181.91053609998198,181.91053609998198,182.27697509998688,182.27697509998688,182.27697509998688,182.27697509998688,182.27697509998688,182.27697509998688,182.27697509998688,182.27697509998688,182.27697509998688,23,0,,,182.27697509998688,182.4772142000147,3.7,182.4772142000147,1,3.7,1,1,1000,num_4,0.7912816000171006,,23,9,2026-03-04_14h04.57.280,2026A_exp2,2022.2.4,59.82278098827503,
1,0,0.0,0.0,0,0,48,48,34,,,,,183.29459349997342,183.94537349999882,183.94537349999882,184.42994409997482,45,315,184.42994409997482,184.42994409997482,184.42994409997482,184.42994409997482,184.42994409997482,184.42994409997482,184.42994409997482,184.42994409997482,184.42994409997482,184.79609920002986,184.79609920002986,184.79609920002986,184.79609920002986,184.79609920002986,184.79609920002986,184.79609920002986,184.79609920002986,184.79609920002986,23,0,,,184.79609920002986,184.99632490001386,0.0,184.99632490001386,0,0.0,0,1,1000,num_1,1.0082818000228144,,23,9,2026-03-04_14h04.57.280,2026A_exp2,2022.2.4,59.82278098827503,
1000,1,3.7,4.9,0,0,49,49,64,,,,,186.03076170000713,186.68148289999226,186.68148289999226,187.16575540002668,315,45,187.16575540002668,187.16575540002668,187.16575540002668,187.16575540002668,187.16575540002668,187.16575540002668,187.16575540002668,187.16575540002668,187.16575540002668,187.53214450000087,187.53214450000087,187.53214450000087,187.53214450000087,187.53214450000087,187.53214450000087,187.53214450000087,187.53214450000087,187.53214450000087,23,0,,,187.53214450000087,187.74678019998828,1000,187.74678019998828,1000,1000,1000,1000,0,num_3,0.7613797999802046,,23,9,2026-03-04_14h04.57.280,2026A_exp2,2022.2.4,59.82278098827503,
1000,1,0.0,3.7,0,0,50,50,57,,,,,188.53329360001953,189.18382159998873,189.18382159998873,189.6683932999731,315,315,189.6683932999731,189.6683932999731,189.6683932999731,189.6683932999731,189.6683932999731,189.6683932999731,189.6683932999731,189.6683932999731,189.6683932999731,190.03474610002013,190.03474610002013,190.03474610002013,190.03474610002013,190.03474610002013,190.03474610002013,190.03474610002013,190.03474610002013,190.03474610002013,23,0,,,190.03474610002013,190.23482810001587,1000,190.23482810001587,1000,1000,1000,1000,1,num_2,0.47267739998642355,,23,9,2026-03-04_14h04.57.280,2026A_exp2,2022.2.4,59.82278098827503,
1000,1,0.0,4.9,1,0,51,51,78,,,,,190.73536200000672,191.38612260000082,191.38612260000082,191.8872005000012,45,45,191.8872005000012,191.8872005000012,191.8872005000012,191.8872005000012,191.8872005000012,191.8872005000012,191.8872005000012,191.8872005000012,191.8872005000012,192.25351279997267,192.25351279997267,192.25351279997267,192.25351279997267,192.25351279997267,192.25351279997267,192.25351279997267,192.25351279997267,192.25351279997267,23,0,,,192.25351279997267,192.45562800002517,1000,192.45562800002517,1000,1000,1000,1000,1,num_2,0.3890166000346653,,23,9,2026-03-04_14h04.57.280,2026A_exp2,2022.2.4,59.82278098827503,
1000,1,6.1,0.0,0,0,52,52,59,,,,,192.87091160001,193.52164900000207,193.52164900000207,194.0227591000148,315,45,194.0227591000148,194.0227591000148,194.0227591000148,194.0227591000148,194.0227591000148,194.0227591000148,194.0227591000148,194.0227591000148,194.0227591000148,194.3891944999923,194.3891944999923,194.3891944999923,194.3891944999923,194.3891944999923,194.3891944999923,194.3891944999923,194.3891944999923,194.3891944999923,23,0,,,194.3891944999923,194.58978300000308,1000,194.58978300000308,1000,1000,1000,1000,0,num_3,0.44634820002829656,,23,9,2026-03-04_14h04.57.280,2026A_exp2,2022.2.4,59.82278098827503,
1,0,4.9,0.0,0,0,53,53,4,,,,,195.0564674999914,195.7071600999916,195.7071600999916,196.20828359998995,45,45,196.20828359998995,196.20828359998995,196.20828359998995,196.20828359998995,196.20828359998995,196.20828359998995,196.20828359998995,196.20828359998995,196.20828359998995,196.5746648000204,196.5746648000204,196.5746648000204,196.5746648000204,196.5746648000204,196.5746648000204,196.5746648000204,196.5746648000204,196.5746648000204,23,0,,,196.5746648000204,196.77501440001652,4.9,196.77501440001652,1,4.9,1,1,1000,num_4,2.2532604999723844,,23,9,2026-03-04_14h04.57.280,2026A_exp2,2022.2.4,59.82278098827503,
1,0,3.7,0.0,1,0,54,54,12,,,,,199.04363570001442,199.69444250001106,199.69444250001106,200.195656099997,315,45,200.195656099997,200.195656099997,200.195656099997,200.195656099997,200.195656099997,200.195656099997,200.195656099997,200.195656099997,200.195656099997,200.5618117999984,200.5618117999984,200.5618117999984,200.5618117999984,200.5618117999984,200.5618117999984,200.5618117999984,200.5618117999984,200.5618117999984,23,0,,,200.5618117999984,200.76226579997456,0.0,200.76226579997456,0,0.0,0,1,1000,num_1,0.8574558999971487,,23,9,2026-03-04_14h04.57.280,2026A_exp2,2022.2.4,59.82278098827503,
1,0,4.9,4.9,0,0,55,55,39,,,,,201.64620930003002,202.29691059998004,202.29691059998004,202.78146999998717,45,45,202.78146999998717,202.78146999998717,202.78146999998717,202.78146999998717,202.78146999998717,202.78146999998717,202.78146999998717,202.78146999998717,202.78146999998717,203.1479598999722,203.1479598999722,203.1479598999722,203.1479598999722,203.1479598999722,203.1479598999722,203.1479598999722,203.1479598999722,203.1479598999722,23,0,,,203.1479598999722,203.34790870000143,4.9,203.34790870000143,1,4.9,1,1,1000,num_4,0.8160086999996565,,23,9,2026-03-04_14h04.57.280,2026A_exp2,2022.2.4,59.82278098827503,
1000,1,0.0,4.9,0,0,56,56,5,,,,,204.18221080000512,204.83300859999144,204.83300859999144,205.317380100023,315,315,205.317380100023,205.317380100023,205.317380100023,205.317380100023,205.317380100023,205.317380100023,205.317380100023,205.317380100023,205.317380100023,205.6838644000236,205.6838644000236,205.6838644000236,205.6838644000236,205.6838644000236,205.6838644000236,205.6838644000236,205.6838644000236,205.6838644000236,23,0,,,205.6838644000236,205.88595299998997,1000,205.88595299998997,1000,1000,1000,1000,1,num_2,0.2217957000248134,,23,9,2026-03-04_14h04.57.280,2026A_exp2,2022.2.4,59.82278098827503,
1000,1,0.0,0.0,1,0,57,57,60,,,,,206.13422190002166,206.78517129999818,206.78517129999818,207.28605260001495,315,315,207.28605260001495,207.28605260001495,207.28605260001495,207.28605260001495,207.28605260001495,207.28605260001495,207.28605260001495,207.28605260001495,207.28605260001495,207.63576099998318,207.63576099998318,207.63576099998318,207.63576099998318,207.63576099998318,207.63576099998318,207.63576099998318,207.63576099998318,207.63576099998318,22,0,,,207.63576099998318,207.8381346000242,1000,207.8381346000242,1000,1000,1000,1000,0,num_3,0.48576589999720454,,23,9,2026-03-04_14h04.57.280,2026A_exp2,2022.2.4,59.82278098827503,
0,0,0.0,0.0,0,0,58,58,22,,,,,208.35300840000855,209.00383439997677,209.00383439997677,209.5047787000076,315,315,209.5047787000076,209.5047787000076,209.5047787000076,209.5047787000076,209.5047787000076,209.5047787000076,209.5047787000076,209.5047787000076,209.5047787000076,209.87128969997866,209.87128969997866,209.87128969997866,209.87128969997866,209.87128969997866,209.87128969997866,209.87128969997866,209.87128969997866,209.87128969997866,23,0,,,209.87128969997866,210.0714292000048,0.0,210.0714292000048,1,0.0,0,0,1000,num_4,0.8364151999703608,,23,9,2026-03-04_14h04.57.280,2026A_exp2,2022.2.4,59.82278098827503,
0,0,6.1,6.1,0,0,59,59,42,,,,,210.9388865000219,211.58965789998183,211.58965789998183,212.07424059999175,45,315,212.07424059999175,212.07424059999175,212.07424059999175,212.07424059999175,212.07424059999175,212.07424059999175,212.07424059999175,212.07424059999175,212.07424059999175,212.4406073000282,212.4406073000282,212.4406073000282,212.4406073000282,212.4406073000282,212.4406073000282,212.4406073000282,212.4406073000282,212.4406073000282,23,0,,,212.4406073000282,212.64074469998013,6.1,212.64074469998013,1,6.1,1,1,1000,num_4,0.6191560999723151,,23,9,2026-03-04_14h04.57.280,2026A_exp2,2022.2.4,59.82278098827503,
1,0,0.0,0.0,0,0,60,60,17,,,,,213.29126989998622,213.9420950000058,213.9420950000058,214.44313879997935,315,315,214.44313879997935,214.44313879997935,214.44313879997935,214.44313879997935,214.44313879997935,214.44313879997935,214.44313879997935,214.44313879997935,214.44313879997935,214.79292859998532,214.79292859998532,214.79292859998532,214.79292859998532,214.79292859998532,214.79292859998532,214.79292859998532,214.79292859998532,214.79292859998532,22,0,,,214.79292859998532,214.99305430002278,0.0,214.99305430002278,0,0.0,0,1,1000,num_1,0.8435011000256054,,23,9,2026-03-04_14h04.57.280,2026A_exp2,2022.2.4,59.82278098827503,
1,0,4.9,4.9,0,0,61,61,84,,,,,215.86049859999912,216.51124379999237,216.51124379999237,217.01228309998987,315,45,217.01228309998987,217.01228309998987,217.01228309998987,217.01228309998987,217.01228309998987,217.01228309998987,217.01228309998987,217.01228309998987,217.01228309998987,217.36204809998162,217.36204809998162,217.36204809998162,217.36204809998162,217.36204809998162,217.36204809998162,217.36204809998162,217.36204809998162,217.36204809998162,22,0,,,217.36204809998162,217.56244070001412,4.9,217.56244070001412,1,4.9,1,1,1000,num_4,0.6024962000083178,,23,9,2026-03-04_14h04.57.280,2026A_exp2,2022.2.4,59.82278098827503,
1,0,4.9,3.7,0,0,62,62,9,,,,,218.19608859997243,218.84690509998472,218.84690509998472,219.33133289997932,315,315,219.33133289997932,219.33133289997932,219.33133289997932,219.33133289997932,219.33133289997932,219.33133289997932,219.33133289997932,219.33133289997932,219.33133289997932,219.69763359997887,219.69763359997887,219.69763359997887,219.69763359997887,219.69763359997887,219.69763359997887,219.69763359997887,219.69763359997887,219.69763359997887,23,0,,,219.69763359997887,219.8980039000162,4.9,219.8980039000162,1,4.9,1,1,1000,num_4,0.5615638000308536,,23,9,2026-03-04_14h04.57.280,2026A_exp2,2022.2.4,59.82278098827503,
0,0,0.0,4.9,0,0,63,63,14,,,,,220.48188069998287,221.11589989997447,221.11589989997447,221.6170412999927,315,45,221.6170412999927,221.6170412999927,221.6170412999927,221.6170412999927,221.6170412999927,221.6170412999927,221.6170412999927,221.6170412999927,221.6170412999927,221.98335539997788,221.98335539997788,221.98335539997788,221.98335539997788,221.98335539997788,221.98335539997788,221.98335539997788,221.98335539997788,221.98335539997788,23,0,,,221.98335539997788,222.183488700015,4.9,222.183488700015,1,4.9,1,1,1000,num_4,1.9888621999998577,,23,9,2026-03-04_14h04.57.280,2026A_exp2,2022.2.4,59.82278098827503,
1000,1,0.0,4.9,1,0,64,64,79,,,,,224.20246409997344,224.853041400027,224.853041400027,225.33742549997987,315,45,225.33742549997987,225.33742549997987,225.33742549997987,225.33742549997987,225.33742549997987,225.33742549997987,225.33742549997987,225.33742549997987,225.33742549997987,225.70376110001234,225.70376110001234,225.70376110001234,225.70376110001234,225.70376110001234,225.70376110001234,225.70376110001234,225.70376110001234,225.70376110001234,23,0,,,225.70376110001234,225.90397599997232,1000,225.90397599997232,1000,1000,1000,1000,1,num_2,0.5405423999764025,,23,9,2026-03-04_14h04.57.280,2026A_exp2,2022.2.4,59.82278098827503,
1000,1,3.7,4.9,1,0,65,65,20,,,,,226.47109260002617,227.1218006000272,227.1218006000272,227.62284440000076,45,315,227.62284440000076,227.62284440000076,227.62284440000076,227.62284440000076,227.62284440000076,227.62284440000076,227.62284440000076,227.62284440000076,227.62284440000076,227.9893939999747,227.9893939999747,227.9893939999747,227.9893939999747,227.9893939999747,227.9893939999747,227.9893939999747,227.9893939999747,227.9893939999747,23,0,,,227.9893939999747,228.19133419997524,1000,228.19133419997524,1000,1000,1000,1000,1,num_2,0.4213029000093229,,23,9,2026-03-04_14h04.57.280,2026A_exp2,2022.2.4,59.82278098827503,
1000,1,0.0,6.1,0,0,66,66,75,,,,,228.63998269999865,229.29066509997938,229.29066509997938,229.7916640000185,315,315,229.7916640000185,229.7916640000185,229.7916640000185,229.7916640000185,229.7916640000185,229.7916640000185,229.7916640000185,229.7916640000185,229.7916640000185,230.1582919000066,230.1582919000066,230.1582919000066,230.1582919000066,230.1582919000066,230.1582919000066,230.1582919000066,230.1582919000066,230.1582919000066,23,0,,,230.1582919000066,230.36016059998656,1000,230.36016059998656,1000,1000,1000,1000,1,num_2,0.45943200000328943,,23,9,2026-03-04_14h04.57.280,2026A_exp2,2022.2.4,59.82278098827503,
1000,1,0.0,0.0,0,0,67,67,72,,,,,230.84218320000218,231.4927945000236,231.4927945000236,231.9941155000124,315,315,231.9941155000124,231.9941155000124,231.9941155000124,231.9941155000124,231.9941155000124,231.9941155000124,231.9941155000124,231.9941155000124,231.9941155000124,232.36026029998902,232.36026029998902,232.36026029998902,232.36026029998902,232.36026029998902,232.36026029998902,232.36026029998902,232.36026029998902,232.36026029998902,23,0,,,232.36026029998902,232.5629638999817,1000,232.5629638999817,1000,1000,1000,1000,1,num_2,1.241778500028886,,23,9,2026-03-04_14h04.57.280,2026A_exp2,2022.2.4,59.82278098827503,
1000,1,6.1,4.9,0,0,68,68,49,,,,,233.82852380000986,234.47925979999127,234.47925979999127,234.9803777000052,315,45,234.9803777000052,234.9803777000052,234.9803777000052,234.9803777000052,234.9803777000052,234.9803777000052,234.9803777000052,234.9803777000052,234.9803777000052,235.3466252000071,235.3466252000071,235.3466252000071,235.3466252000071,235.3466252000071,235.3466252000071,235.3466252000071,235.3466252000071,235.3466252000071,23,0,,,235.3466252000071,235.54890769999474,1000,235.54890769999474,1000,1000,1000,1000,0,num_3,0.3671403999906033,,23,9,2026-03-04_14h04.57.280,2026A_exp2,2022.2.4,59.82278098827503,
1000,1,0.0,0.0,0,0,69,69,36,,,,,235.94737930002157,236.59809079999104,236.59809079999104,237.09933910000836,315,45,237.09933910000836,237.09933910000836,237.09933910000836,237.09933910000836,237.09933910000836,237.09933910000836,237.09933910000836,237.09933910000836,237.09933910000836,237.4654859000002,237.4654859000002,237.4654859000002,237.4654859000002,237.4654859000002,237.4654859000002,237.4654859000002,237.4654859000002,237.4654859000002,23,0,,,237.4654859000002,237.66784180002287,1000,237.66784180002287,1000,1000,1000,1000,1,num_2,1.520228200010024,,23,9,2026-03-04_14h04.57.280,2026A_exp2,2022.2.4,59.82278098827503,
1000,1,3.7,4.9,0,0,70,70,80,,,,,239.21703639999032,239.85131769999862,239.85131769999862,240.35253680002643,45,45,240.35253680002643,240.35253680002643,240.35253680002643,240.35253680002643,240.35253680002643,240.35253680002643,240.35253680002643,240.35253680002643,240.35253680002643,240.71881370001938,240.71881370001938,240.71881370001938,240.71881370001938,240.71881370001938,240.71881370001938,240.71881370001938,240.71881370001938,240.71881370001938,23,0,,,240.71881370001938,240.92068089998793,1000,240.92068089998793,1000,1000,1000,1000,0,num_3,0.45078559999819845,,23,9,2026-03-04_14h04.57.280,2026A_exp2,2022.2.4,59.82278098827503,
1000,1,0.0,6.1,1,0,71,71,3,,,,,241.4025954999961,242.05337570002303,242.05337570002303,242.55459559999872,315,315,242.55459559999872,242.55459559999872,242.55459559999872,242.55459559999872,242.55459559999872,242.55459559999872,242.55459559999872,242.55459559999872,242.55459559999872,242.92105160001665,242.92105160001665,242.92105160001665,242.92105160001665,242.92105160001665,242.92105160001665,242.92105160001665,242.92105160001665,242.92105160001665,23,0,,,242.92105160001665,243.12345200002892,1000,243.12345200002892,1000,1000,1000,1000,1,num_2,0.2572076999931596,,23,9,2026-03-04_14h04.57.280,2026A_exp2,2022.2.4,59.82278098827503,
1,0,0.0,3.7,0,0,72,72,61,,,,,243.4047185999807,244.0553575999802,244.0553575999802,244.55637559999013,45,45,244.55637559999013,244.55637559999013,244.55637559999013,244.55637559999013,244.55637559999013,244.55637559999013,244.55637559999013,244.55637559999013,244.55637559999013,244.9230395000195,244.9230395000195,244.9230395000195,244.9230395000195,244.9230395000195,244.9230395000195,244.9230395000195,244.9230395000195,244.9230395000195,23,0,,,244.9230395000195,245.12312160001602,0.0,245.12312160001602,0,0.0,0,1,1000,num_1,1.136770199984312,,23,9,2026-03-04_14h04.57.280,2026A_exp2,2022.2.4,59.82278098827503,
1000,1,0.0,4.9,0,0,73,73,74,,,,,246.2909268999938,246.94159110001056,246.94159110001056,247.42616999999154,45,45,247.42616999999154,247.42616999999154,247.42616999999154,247.42616999999154,247.42616999999154,247.42616999999154,247.42616999999154,247.42616999999154,247.42616999999154,247.7924645000021,247.7924645000021,247.7924645000021,247.7924645000021,247.7924645000021,247.7924645000021,247.7924645000021,247.7924645000021,247.7924645000021,23,0,,,247.7924645000021,247.99534199998016,1000,247.99534199998016,1000,1000,1000,1000,1,num_2,0.44852760003414005,,23,9,2026-03-04_14h04.57.280,2026A_exp2,2022.2.4,59.82278098827503,
1,0,6.1,6.1,0,0,74,74,27,,,,,248.45979360002093,249.11040649999632,249.11040649999632,249.6116942000226,315,315,249.6116942000226,249.6116942000226,249.6116942000226,249.6116942000226,249.6116942000226,249.6116942000226,249.6116942000226,249.6116942000226,249.6116942000226,249.9780321000144,249.9780321000144,249.9780321000144,249.9780321000144,249.9780321000144,249.9780321000144,249.9780321000144,249.9780321000144,249.9780321000144,23,0,,,249.9780321000144,250.17813549999846,6.1,250.17813549999846,0,6.1,1,0,1000,num_1,1.1946049999678507,,23,9,2026-03-04_14h04.57.280,2026A_exp2,2022.2.4,59.82278098827503,
1000,1,0.0,0.0,1,0,75,75,16,,,,,251.39598079997813,252.04684480000287,252.04684480000287,252.54773689998547,45,45,252.54773689998547,252.54773689998547,252.54773689998547,252.54773689998547,252.54773689998547,252.54773689998547,252.54773689998547,252.54773689998547,252.54773689998547,252.9143378000008,252.9143378000008,252.9143378000008,252.9143378000008,252.9143378000008,252.9143378000008,252.9143378000008,252.9143378000008,252.9143378000008,23,0,,,252.9143378000008,253.1162408000091,1000,253.1162408000091,1000,1000,1000,1000,0,num_3,0.9196388999698684,,23,9,2026-03-04_14h04.57.280,2026A_exp2,2022.2.4,59.82278098827503,
1,0,0.0,0.0,0,0,76,76,44,,,,,254.06545240001287,254.71613229997456,254.71613229997456,255.21731009997893,315,315,255.21731009997893,255.21731009997893,255.21731009997893,255.21731009997893,255.21731009997893,255.21731009997893,255.21731009997893,255.21731009997893,255.21731009997893,255.5836850000196,255.5836850000196,255.5836850000196,255.5836850000196,255.5836850000196,255.5836850000196,255.5836850000196,255.5836850000196,255.5836850000196,23,0,,,255.5836850000196,255.78391840000404,0.0,255.78391840000404,1,0.0,0,0,1000,num_4,0.7565259999828413,,23,9,2026-03-04_14h04.57.280,2026A_exp2,2022.2.4,59.82278098827503,
1,0,3.7,6.1,1,0,77,77,77,,,,,256.5681496000034,257.21859280002536,257.21859280002536,257.70283849997213,45,315,257.70283849997213,257.70283849997213,257.70283849997213,257.70283849997213,257.70283849997213,257.70283849997213,257.70283849997213,257.70283849997213,257.70283849997213,258.06934190000175,258.06934190000175,258.06934190000175,258.06934190000175,258.06934190000175,258.06934190000175,258.06934190000175,258.06934190000175,258.06934190000175,23,0,,,258.06934190000175,258.2697368999943,6.1,258.2697368999943,1,6.1,1,1,1000,num_4,0.5499441999709234,,23,9,2026-03-04_14h04.57.280,2026A_exp2,2022.2.4,59.82278098827503,
1000,1,6.1,3.7,0,0,78,78,18,,,,,258.83694329997525,259.4875450999825,259.4875450999825,259.9720601000008,315,45,259.9720601000008,259.9720601000008,259.9720601000008,259.9720601000008,259.9720601000008,259.9720601000008,259.9720601000008,259.9720601000008,259.9720601000008,260.33846850000555,260.33846850000555,260.33846850000555,260.33846850000555,260.33846850000555,260.33846850000555,260.33846850000555,260.33846850000555,260.33846850000555,23,0,,,260.33846850000555,260.54112990002614,1000,260.54112990002614,1000,1000,1000,1000,0,num_3,0.5110377000528388,,23,9,2026-03-04_14h04.57.280,2026A_exp2,2022.2.4,59.82278098827503,
1,0,0.0,6.1,0,0,79,79,82,,,,,261.07265019998886,261.72305510001024,261.72305510001024,262.2076137000113,315,45,262.2076137000113,262.2076137000113,262.2076137000113,262.2076137000113,262.2076137000113,262.2076137000113,262.2076137000113,262.2076137000113,262.2076137000113,262.57403979997616,262.57403979997616,262.57403979997616,262.57403979997616,262.57403979997616,262.57403979997616,262.57403979997616,262.57403979997616,262.57403979997616,23,0,,,262.57403979997616,262.7742681999807,0.0,262.7742681999807,0,0.0,0,1,1000,num_1,0.9181633000262082,,23,9,2026-03-04_14h04.57.280,2026A_exp2,2022.2.4,59.82278098827503,
1000,1,0.0,0.0,1,0,80,80,56,,,,,263.7083683999954,264.3591138999909,264.3591138999909,264.86011609999696,315,45,264.86011609999696,264.86011609999696,264.86011609999696,264.86011609999696,264.86011609999696,264.86011609999696,264.86011609999696,264.86011609999696,264.86011609999696,265.209948099975,265.209948099975,265.209948099975,265.209948099975,265.209948099975,265.209948099975,265.209948099975,265.209948099975,265.209948099975,22,0,,,265.209948099975,265.4117852000054,1000,265.4117852000054,1000,1000,1000,1000,1,num_2,0.9757963999873027,,23,9,2026-03-04_14h04.57.280,2026A_exp2,2022.2.4,59.82278098827503,
1,0,0.0,0.0,1,0,81,81,21,,,,,266.4110827000113,267.0617110999883,267.0617110999883,267.56297700002324,45,315,267.56297700002324,267.56297700002324,267.56297700002324,267.56297700002324,267.56297700002324,267.56297700002324,267.56297700002324,267.56297700002324,267.56297700002324,267.929243999999,267.929243999999,267.929243999999,267.929243999999,267.929243999999,267.929243999999,267.929243999999,267.929243999999,267.929243999999,23,0,,,267.929243999999,268.1295419000089,0.0,268.1295419000089,0,0.0,0,1,1000,num_1,0.8270817999728024,,23,9,2026-03-04_14h04.57.280,2026A_exp2,2022.2.4,59.82278098827503,
1,0,4.9,0.0,1,0,82,82,25,,,,,268.9802260000142,269.63104190002196,269.63104190002196,270.1154988000053,315,45,270.1154988000053,270.1154988000053,270.1154988000053,270.1154988000053,270.1154988000053,270.1154988000053,270.1154988000053,270.1154988000053,270.1154988000053,270.48189160000766,270.48189160000766,270.48189160000766,270.48189160000766,270.48189160000766,270.48189160000766,270.48189160000766,270.48189160000766,270.48189160000766,23,0,,,270.48189160000766,270.6820836000261,0.0,270.6820836000261,0,0.0,0,1,1000,num_1,0.6332652000128292,,23,9,2026-03-04_14h04.57.280,2026A_exp2,2022.2.4,59.82278098827503,
1,0,0.0,0.0,1,0,83,83,24,,,,,271.3326035999926,271.9832312000217,271.9832312000217,272.4677501000115,315,45,272.4677501000115,272.4677501000115,272.4677501000115,272.4677501000115,272.4677501000115,272.4677501000115,272.4677501000115,272.4677501000115,272.4677501000115,272.83411519997753,272.83411519997753,272.83411519997753,272.83411519997753,272.83411519997753,272.83411519997753,272.83411519997753,272.83411519997753,272.83411519997753,23,0,,,272.83411519997753,273.034476300003,0.0,273.034476300003,0,0.0,0,1,1000,num_1,0.7857294999994338,,23,9,2026-03-04_14h04.57.280,2026A_exp2,2022.2.4,59.82278098827503,
1,0,0.0,3.7,1,0,84,84,0,,,,,273.8517738999799,274.5026403000229,274.5026403000229,274.98686950001866,315,45,274.98686950001866,274.98686950001866,274.98686950001866,274.98686950001866,274.98686950001866,274.98686950001866,274.98686950001866,274.98686950001866,274.98686950001866,275.3533451000112,275.3533451000112,275.3533451000112,275.3533451000112,275.3533451000112,275.3533451000112,275.3533451000112,275.3533451000112,275.3533451000112,23,0,,,275.3533451000112,275.5533783999854,3.7,275.5533783999854,1,3.7,1,1,1000,num_4,0.8340118000051007,,23,9,2026-03-04_14h04.57.280,2026A_exp2,2022.2.4,59.82278098827503,
0,0,0.0,0.0,1,0,85,85,38,,,,,276.40441419999115,277.05499550001696,277.05499550001696,277.5394738999894,45,45,277.5394738999894,277.5394738999894,277.5394738999894,277.5394738999894,277.5394738999894,277.5394738999894,277.5394738999894,277.5394738999894,277.5394738999894,277.9059130999958,277.9059130999958,277.9059130999958,277.9059130999958,277.9059130999958,277.9059130999958,277.9059130999958,277.9059130999958,277.9059130999958,23,0,,,277.9059130999958,278.10629889997654,0.0,278.10629889997654,0,0.0,0,1,1000,num_1,1.714013300021179,,23,9,2026-03-04_14h04.57.280,2026A_exp2,2022.2.4,59.82278098827503,
0,0,4.9,4.9,1,0,86,86,48,,,,,279.8410206999979,280.49190050002653,280.49190050002653,280.9929306000122,45,45,280.9929306000122,280.9929306000122,280.9929306000122,280.9929306000122,280.9929306000122,280.9929306000122,280.9929306000122,280.9929306000122,280.9929306000122,281.3428049000213,281.3428049000213,281.3428049000213,281.3428049000213,281.3428049000213,281.3428049000213,281.3428049000213,281.3428049000213,281.3428049000213,22,0,,,281.3428049000213,281.54292570002144,4.9,281.54292570002144,1,4.9,1,1,1000,num_4,1.4844855000264943,,23,9,2026-03-04_14h04.57.280,2026A_exp2,2022.2.4,59.82278098827503,
0,0,0.0,3.7,0,0,87,87,83,,,,,283.0444241000223,283.69516280002426,283.69516280002426,284.179581400007,315,45,284.179581400007,284.179581400007,284.179581400007,284.179581400007,284.179581400007,284.179581400007,284.179581400007,284.179581400007,284.179581400007,284.5460395999835,284.5460395999835,284.5460395999835,284.5460395999835,284.5460395999835,284.5460395999835,284.5460395999835,284.5460395999835,284.5460395999835,23,0,,,284.5460395999835,284.74603019998176,3.7,284.74603019998176,1,3.7,1,1,1000,num_4,0.7853054999723099,,23,9,2026-03-04_14h04.57.280,2026A_exp2,2022.2.4,59.82278098827503,
0,0,0.0,3.7,0,0,88,88,47,,,,,285.5468560999725,286.1974012000137,286.1974012000137,286.69859789998736,315,45,286.69859789998736,286.69859789998736,286.69859789998736,286.69859789998736,286.69859789998736,286.69859789998736,286.69859789998736,286.69859789998736,286.69859789998736,287.0484343999997,287.0484343999997,287.0484343999997,287.0484343999997,287.0484343999997,287.0484343999997,287.0484343999997,287.0484343999997,287.0484343999997,22,0,,,287.0484343999997,287.2486709000077,3.7,287.2486709000077,1,3.7,1,1,1000,num_4,0.7959799999953248,,23,9,2026-03-04_14h04.57.280,2026A_exp2,2022.2.4,59.82278098827503,
1000,1,3.7,0.0,1,0,89,89,88,,,,,288.0660508000292,288.71679229999427,288.71679229999427,289.2012737999903,45,315,289.2012737999903,289.2012737999903,289.2012737999903,289.2012737999903,289.2012737999903,289.2012737999903,289.2012737999903,289.2012737999903,289.2012737999903,289.5673012000043,289.5673012000043,289.5673012000043,289.5673012000043,289.5673012000043,289.5673012000043,289.5673012000043,289.5673012000043,289.5673012000043,23,0,,,289.5673012000043,289.76952309999615,1000,289.76952309999615,1000,1000,1000,1000,0,num_3,0.5139565999852493,,23,9,2026-03-04_14h04.57.280,2026A_exp2,2022.2.4,59.82278098827503,
,,,,,,,,,,,,,,,,,,,,,,,,,,,,,,,,,,,,,,,,,,,,,,,,,,,,290.3032513000071,,,,,,,
