validity,detectorcomp,contrastCW,contrastCCW,precueCWorCCW,block_80trials.thisRepN,block_80trials.thisTrialN,block_80trials.thisN,block_80trials.thisIndex,etRecord.started,etRecord.stopped,text.started,text.stopped,text_4.started,text_4.stopped,text_6.started,text_6.stopped,oriCW,oriCCW,roi_2.started,grating_UR.started,grating_UL.started,grating_LR.started,grating_LL.started,noise_UR.started,noise_UL.started,noise_LR.started,noise_LL.started,roi_2.stopped,grating_UR.stopped,grating_UL.stopped,grating_LR.stopped,grating_LL.stopped,noise_UR.stopped,noise_UL.stopped,noise_LR.stopped,noise_LL.stopped,outframe,roi_2.numLooks,roi_2.timesOn,roi_2.timesOff,text_2.started,text_2.stopped,probedcontrast,key_resp.started,respdetect,relevantContrast,correctDetect,TorFdetect,respCWorCCW,key_resp.keys,key_resp.rt,feedback_display_.started,participantNo,blockNo,date,expName,psychopyVersion,frameRate,
1,0,6.1,3.7,1,0,0,0,16,7.000000914558768e-05,7.000000914558768e-05,44.50016210001195,46.50389829999767,46.50389829999767,47.148971100046765,47.148971100046765,47.656829999992624,315,315,47.656829999992624,47.656829999992624,47.656829999992624,47.656829999992624,47.656829999992624,47.656829999992624,47.656829999992624,47.656829999992624,47.656829999992624,48.00560979999136,48.00560979999136,48.00560979999136,48.00560979999136,48.00560979999136,48.00560979999136,48.00560979999136,48.00560979999136,48.00560979999136,0,1,[0.0009130000253207982],[0.3676780000096187],48.00560979999136,48.205826100020204,3.7,48.205826100020204,0,3.7,1,0,1000,num_1,1.113919099967461,,26,15,2026-03-05_11h30.59.867,2026A_exp2,2022.2.4,59.80471369081527,
1000,1,6.1,6.1,0,0,1,1,87,,,,,49.3402408999973,49.990762100031134,49.990762100031134,50.48856130003696,45,45,50.48856130003696,50.48856130003696,50.48856130003696,50.48856130003696,50.48856130003696,50.48856130003696,50.48856130003696,50.48856130003696,50.48856130003696,50.84172409999883,50.84172409999883,50.84172409999883,50.84172409999883,50.84172409999883,50.84172409999883,50.84172409999883,50.84172409999883,50.84172409999883,23,0,,,50.84172409999883,51.04751290002605,1000,51.04751290002605,1000,1000,1000,1000,0,num_3,0.5200000000186265,,26,15,2026-03-05_11h30.59.867,2026A_exp2,2022.2.4,59.80471369081527,
1,0,0.0,0.0,0,0,2,2,11,,,,,51.592517900047824,52.242835200042464,52.242835200042464,52.74429090000922,315,315,52.74429090000922,52.74429090000922,52.74429090000922,52.74429090000922,52.74429090000922,52.74429090000922,52.74429090000922,52.74429090000922,52.74429090000922,53.11054419999709,53.11054419999709,53.11054419999709,53.11054419999709,53.11054419999709,53.11054419999709,53.11054419999709,53.11054419999709,53.11054419999709,23,0,,,53.11054419999709,53.3107016000431,0.0,53.3107016000431,1,0.0,0,0,1000,num_4,1.1522888999897987,,26,15,2026-03-05_11h30.59.867,2026A_exp2,2022.2.4,59.80471369081527,
0,0,6.1,4.9,1,0,3,3,42,,,,,54.4787816000171,55.12934630003292,55.12934630003292,55.630869000044186,45,315,55.630869000044186,55.630869000044186,55.630869000044186,55.630869000044186,55.630869000044186,55.630869000044186,55.630869000044186,55.630869000044186,55.630869000044186,55.98019560001558,55.98019560001558,55.98019560001558,55.98019560001558,55.98019560001558,55.98019560001558,55.98019560001558,55.98019560001558,55.98019560001558,22,0,,,55.98019560001558,56.18031409999821,6.1,56.18031409999821,1,6.1,1,1,1000,num_4,0.7793334000161849,,26,15,2026-03-05_11h30.59.867,2026A_exp2,2022.2.4,59.80471369081527,
1000,1,0.0,4.9,1,0,4,4,72,,,,,56.981299000035506,57.631904700014275,57.631904700014275,58.1330909000244,45,45,58.1330909000244,58.1330909000244,58.1330909000244,58.1330909000244,58.1330909000244,58.1330909000244,58.1330909000244,58.1330909000244,58.1330909000244,58.499277400027495,58.499277400027495,58.499277400027495,58.499277400027495,58.499277400027495,58.499277400027495,58.499277400027495,58.499277400027495,58.499277400027495,23,0,,,58.499277400027495,58.716376000025775,1000,58.716376000025775,1000,1000,1000,1000,1,num_2,0.5871255000238307,,26,15,2026-03-05_11h30.59.867,2026A_exp2,2022.2.4,59.80471369081527,
1,0,6.1,0.0,0,0,5,5,51,,,,,59.317464100022335,59.96740890003275,59.96740890003275,60.46861440001521,315,315,60.46861440001521,60.46861440001521,60.46861440001521,60.46861440001521,60.46861440001521,60.46861440001521,60.46861440001521,60.46861440001521,60.46861440001521,60.8351070000208,60.8351070000208,60.8351070000208,60.8351070000208,60.8351070000208,60.8351070000208,60.8351070000208,60.8351070000208,60.8351070000208,23,0,,,60.8351070000208,61.03516770002898,6.1,61.03516770002898,1,6.1,1,1,1000,num_4,0.6447381000034511,,26,15,2026-03-05_11h30.59.867,2026A_exp2,2022.2.4,59.80471369081527,
1000,1,3.7,4.9,0,0,6,6,25,,,,,61.70291340001859,62.35339720000047,62.35339720000047,62.852248200040776,45,45,62.852248200040776,62.852248200040776,62.852248200040776,62.852248200040776,62.852248200040776,62.852248200040776,62.852248200040776,62.852248200040776,62.852248200040776,63.20407630002592,63.20407630002592,63.20407630002592,63.20407630002592,63.20407630002592,63.20407630002592,63.20407630002592,63.20407630002592,63.20407630002592,23,0,,,63.20407630002592,63.406537700037006,1000,63.406537700037006,1000,1000,1000,1000,1,num_2,0.45721809996757656,,26,15,2026-03-05_11h30.59.867,2026A_exp2,2022.2.4,59.80471369081527,
1000,1,3.7,6.1,1,0,7,7,43,,,,,63.887989400012884,64.53876120003406,64.53876120003406,65.03978069999721,315,45,65.03978069999721,65.03978069999721,65.03978069999721,65.03978069999721,65.03978069999721,65.03978069999721,65.03978069999721,65.03978069999721,65.03978069999721,65.4062724999967,65.4062724999967,65.4062724999967,65.4062724999967,65.4062724999967,65.4062724999967,65.4062724999967,65.4062724999967,65.4062724999967,23,0,,,65.4062724999967,65.6083326000371,1000,65.6083326000371,1000,1000,1000,1000,1,num_2,0.34369969996623695,,26,15,2026-03-05_11h30.59.867,2026A_exp2,2022.2.4,59.80471369081527,
1000,1,4.9,3.7,0,0,8,8,40,,,,,65.97346589999506,66.62415690004127,66.62415690004127,67.12531680002576,45,45,67.12531680002576,67.12531680002576,67.12531680002576,67.12531680002576,67.12531680002576,67.12531680002576,67.12531680002576,67.12531680002576,67.12531680002576,67.47506160003832,67.47506160003832,67.47506160003832,67.47506160003832,67.47506160003832,67.47506160003832,67.47506160003832,67.47506160003832,67.47506160003832,22,0,,,67.47506160003832,67.67707450001035,1000,67.67707450001035,1000,1000,1000,1000,0,num_3,0.49057429999811575,,26,15,2026-03-05_11h30.59.867,2026A_exp2,2022.2.4,59.80471369081527,
1,0,0.0,0.0,0,0,9,9,32,,,,,68.19241910002893,68.84293490002165,68.84293490002165,69.34401350002736,315,315,69.34401350002736,69.34401350002736,69.34401350002736,69.34401350002736,69.34401350002736,69.34401350002736,69.34401350002736,69.34401350002736,69.34401350002736,69.71057680004742,69.71057680004742,69.71057680004742,69.71057680004742,69.71057680004742,69.71057680004742,69.71057680004742,69.71057680004742,69.71057680004742,23,0,,,69.71057680004742,69.9106649000314,0.0,69.9106649000314,1,0.0,0,0,1000,num_4,0.8562289999681525,,26,15,2026-03-05_11h30.59.867,2026A_exp2,2022.2.4,59.80471369081527,
1000,1,0.0,0.0,0,0,10,10,13,,,,,70.79477690003114,71.44569630001206,71.44569630001206,71.93014910002239,315,45,71.93014910002239,71.93014910002239,71.93014910002239,71.93014910002239,71.93014910002239,71.93014910002239,71.93014910002239,71.93014910002239,71.93014910002239,72.29636440001195,72.29636440001195,72.29636440001195,72.29636440001195,72.29636440001195,72.29636440001195,72.29636440001195,72.29636440001195,72.29636440001195,23,0,,,72.29636440001195,72.49883260001661,1000,72.49883260001661,1000,1000,1000,1000,1,num_2,0.356080400000792,,26,15,2026-03-05_11h30.59.867,2026A_exp2,2022.2.4,59.80471369081527,
1000,1,4.9,0.0,0,0,11,11,45,,,,,72.88039890001528,73.53102940000826,73.53102940000826,74.03209100000095,45,315,74.03209100000095,74.03209100000095,74.03209100000095,74.03209100000095,74.03209100000095,74.03209100000095,74.03209100000095,74.03209100000095,74.03209100000095,74.38182980002603,74.38182980002603,74.38182980002603,74.38182980002603,74.38182980002603,74.38182980002603,74.38182980002603,74.38182980002603,74.38182980002603,22,0,,,74.38182980002603,74.583746600023,1000,74.5988420000067,1000,1000,1000,1000,0,num_3,0.33695730002364144,,26,15,2026-03-05_11h30.59.867,2026A_exp2,2022.2.4,59.80471369081527,
0,0,0.0,0.0,1,0,12,12,80,,,,,74.96564539999235,75.61649740004214,75.61649740004214,76.117658400035,315,315,76.117658400035,76.117658400035,76.117658400035,76.117658400035,76.117658400035,76.117658400035,76.117658400035,76.117658400035,76.117658400035,76.48395800002618,76.48395800002618,76.48395800002618,76.48395800002618,76.48395800002618,76.48395800002618,76.48395800002618,76.48395800002618,76.48395800002618,23,0,,,76.48395800002618,76.68422749999445,0.0,76.68422749999445,1,0.0,0,0,1000,num_4,0.683542100014165,,26,15,2026-03-05_11h30.59.867,2026A_exp2,2022.2.4,59.80471369081527,
1000,1,0.0,4.9,0,0,13,13,23,,,,,77.3848060000455,78.03563170001144,78.03563170001144,78.519980400044,45,315,78.519980400044,78.519980400044,78.519980400044,78.519980400044,78.519980400044,78.519980400044,78.519980400044,78.519980400044,78.519980400044,78.8864088000264,78.8864088000264,78.8864088000264,78.8864088000264,78.8864088000264,78.8864088000264,78.8864088000264,78.8864088000264,78.8864088000264,23,0,,,78.8864088000264,79.08860410004854,1000,79.08860410004854,1000,1000,1000,1000,1,num_2,0.32643960003042594,,26,15,2026-03-05_11h30.59.867,2026A_exp2,2022.2.4,59.80471369081527,
1000,1,0.0,3.7,1,0,14,14,82,,,,,79.43698630004656,80.07093770004576,80.07093770004576,80.57196090003708,315,315,80.57196090003708,80.57196090003708,80.57196090003708,80.57196090003708,80.57196090003708,80.57196090003708,80.57196090003708,80.57196090003708,80.57196090003708,80.93824640003731,80.93824640003731,80.93824640003731,80.93824640003731,80.93824640003731,80.93824640003731,80.93824640003731,80.93824640003731,80.93824640003731,23,0,,,80.93824640003731,81.14029780001147,1000,81.14029780001147,1000,1000,1000,1000,1,num_2,0.5150400000275113,,26,15,2026-03-05_11h30.59.867,2026A_exp2,2022.2.4,59.80471369081527,
1,0,0.0,0.0,0,0,15,15,22,,,,,81.67246279999381,82.32320869999239,82.32320869999239,82.82431520003593,45,315,82.82431520003593,82.82431520003593,82.82431520003593,82.82431520003593,82.82431520003593,82.82431520003593,82.82431520003593,82.82431520003593,82.82431520003593,83.19073349999962,83.19073349999962,83.19073349999962,83.19073349999962,83.19073349999962,83.19073349999962,83.19073349999962,83.19073349999962,83.19073349999962,23,0,,,83.19073349999962,83.39088500000071,0.0,83.39088500000071,1,0.0,0,0,1000,num_4,0.7449511999730021,,26,15,2026-03-05_11h30.59.867,2026A_exp2,2022.2.4,59.80471369081527,
1,0,0.0,4.9,1,0,16,16,73,,,,,84.15820380003424,84.80906220001634,84.80906220001634,85.2934474000358,315,45,85.2934474000358,85.2934474000358,85.2934474000358,85.2934474000358,85.2934474000358,85.2934474000358,85.2934474000358,85.2934474000358,85.2934474000358,85.65994300000602,85.65994300000602,85.65994300000602,85.65994300000602,85.65994300000602,85.65994300000602,85.65994300000602,85.65994300000602,85.65994300000602,23,0,,,85.65994300000602,85.85994749999372,4.9,85.85994749999372,1,4.9,1,1,1000,num_4,0.7714669000124559,,26,15,2026-03-05_11h30.59.867,2026A_exp2,2022.2.4,59.80471369081527,
0,0,3.7,3.7,1,0,17,17,62,,,,,86.66066890000366,87.31145050004125,87.31145050004125,87.79585220001172,45,315,87.79585220001172,87.79585220001172,87.79585220001172,87.79585220001172,87.79585220001172,87.79585220001172,87.79585220001172,87.79585220001172,87.79585220001172,88.16267390002031,88.16267390002031,88.16267390002031,88.16267390002031,88.16267390002031,88.16267390002031,88.16267390002031,88.16267390002031,88.16267390002031,23,0,,,88.16267390002031,88.36251420003828,3.7,88.36251420003828,0,3.7,1,0,1000,num_1,1.525414300034754,,26,15,2026-03-05_11h30.59.867,2026A_exp2,2022.2.4,59.80471369081527,
1000,1,3.7,3.7,1,0,18,18,54,,,,,89.91439200000605,90.56492510001408,90.56492510001408,91.04918220004765,45,45,91.04918220004765,91.04918220004765,91.04918220004765,91.04918220004765,91.04918220004765,91.04918220004765,91.04918220004765,91.04918220004765,91.04918220004765,91.41572819999419,91.41572819999419,91.41572819999419,91.41572819999419,91.41572819999419,91.41572819999419,91.41572819999419,91.41572819999419,91.41572819999419,23,0,,,91.41572819999419,91.62081749999197,1000,91.62081749999197,1000,1000,1000,1000,1,num_2,0.5138406000332907,,26,15,2026-03-05_11h30.59.867,2026A_exp2,2022.2.4,59.80471369081527,
1000,1,4.9,0.0,1,0,19,19,56,,,,,92.16643219999969,92.81709210004192,92.81709210004192,93.30147260002559,45,315,93.30147260002559,93.30147260002559,93.30147260002559,93.30147260002559,93.30147260002559,93.30147260002559,93.30147260002559,93.30147260002559,93.30147260002559,93.66773889999604,93.66773889999604,93.66773889999604,93.66773889999604,93.66773889999604,93.66773889999604,93.66773889999604,93.66773889999604,93.66773889999604,0,2,"[0.0011989999911747873, 0.20037129998672754]","[0.1836050000274554, 0.36730480002006516]",93.66773889999604,93.86980490002315,1000,93.86980490002315,1000,1000,1000,1000,1,num_2,0.6573857000330463,,26,15,2026-03-05_11h30.59.867,2026A_exp2,2022.2.4,59.80471369081527,
1,0,3.7,3.7,0,0,20,20,8,,,,,94.55203130003065,95.20279140002094,95.20279140002094,95.70391730003757,45,45,95.70391730003757,95.70391730003757,95.70391730003757,95.70391730003757,95.70391730003757,95.70391730003757,95.70391730003757,95.70391730003757,95.70391730003757,96.0702843000181,96.0702843000181,96.0702843000181,96.0702843000181,96.0702843000181,96.0702843000181,96.0702843000181,96.0702843000181,96.0702843000181,19,1,[0.017444900004193187],[0.08340100001078099],96.0702843000181,96.27031859999988,3.7,96.27031859999988,1,3.7,1,1,1000,num_4,0.6256986999651417,,26,15,2026-03-05_11h30.59.867,2026A_exp2,2022.2.4,59.80471369081527,
1,0,0.0,0.0,1,0,21,21,59,,,,,96.92099499999313,97.57177989999764,97.57177989999764,98.05603440001141,315,315,98.05603440001141,98.05603440001141,98.05603440001141,98.05603440001141,98.05603440001141,98.05603440001141,98.05603440001141,98.05603440001141,98.05603440001141,98.42259750002995,98.42259750002995,98.42259750002995,98.42259750002995,98.42259750002995,98.42259750002995,98.42259750002995,98.42259750002995,98.42259750002995,23,0,,,98.42259750002995,98.62274429999525,0.0,98.62274429999525,0,0.0,0,1,1000,num_1,0.7606123000150546,,26,15,2026-03-05_11h30.59.867,2026A_exp2,2022.2.4,59.80471369081527,
1000,1,0.0,4.9,1,0,22,22,57,,,,,99.40681420004694,100.05747430003248,100.05747430003248,100.54196340002818,315,315,100.54196340002818,100.54196340002818,100.54196340002818,100.54196340002818,100.54196340002818,100.54196340002818,100.54196340002818,100.54196340002818,100.54196340002818,100.90835360001074,100.90835360001074,100.90835360001074,100.90835360001074,100.90835360001074,100.90835360001074,100.90835360001074,100.90835360001074,100.90835360001074,23,0,,,100.90835360001074,101.10877130000154,1000,101.10877130000154,1000,1000,1000,1000,1,num_2,0.4342337000416592,,26,15,2026-03-05_11h30.59.867,2026A_exp2,2022.2.4,59.80471369081527,
1,0,6.1,6.1,0,0,23,23,89,,,,,101.55898810003418,102.20972350001102,102.20972350001102,102.71083110000473,315,45,102.71083110000473,102.71083110000473,102.71083110000473,102.71083110000473,102.71083110000473,102.71083110000473,102.71083110000473,102.71083110000473,102.71083110000473,103.07691050000722,103.07691050000722,103.07691050000722,103.07691050000722,103.07691050000722,103.07691050000722,103.07691050000722,103.07691050000722,103.07691050000722,23,0,,,103.07691050000722,103.27740020002238,6.1,103.27740020002238,1,6.1,1,1,1000,num_4,0.665979299985338,,26,15,2026-03-05_11h30.59.867,2026A_exp2,2022.2.4,59.80471369081527,
1000,1,0.0,0.0,1,0,24,24,34,,,,,103.96128839999437,104.61226369999349,104.61226369999349,105.09664090001024,315,45,105.09664090001024,105.09664090001024,105.09664090001024,105.09664090001024,105.09664090001024,105.09664090001024,105.09664090001024,105.09664090001024,105.09664090001024,105.46294490003493,105.46294490003493,105.46294490003493,105.46294490003493,105.46294490003493,105.46294490003493,105.46294490003493,105.46294490003493,105.46294490003493,23,0,,,105.46294490003493,105.66483449999942,1000,105.66483449999942,1000,1000,1000,1000,1,num_2,0.4545046000275761,,26,15,2026-03-05_11h30.59.867,2026A_exp2,2022.2.4,59.80471369081527,
1000,1,0.0,0.0,1,0,25,25,68,,,,,106.14732849999564,106.79754990001675,106.79754990001675,107.29886560002342,315,45,107.29886560002342,107.29886560002342,107.29886560002342,107.29886560002342,107.29886560002342,107.29886560002342,107.29886560002342,107.29886560002342,107.29886560002342,107.66543749999255,107.66543749999255,107.66543749999255,107.66543749999255,107.66543749999255,107.66543749999255,107.66543749999255,107.66543749999255,107.66543749999255,23,0,,,107.66543749999255,107.86755170003744,1000,107.86755170003744,1000,1000,1000,1000,1,num_2,0.6356247999938205,,26,15,2026-03-05_11h30.59.867,2026A_exp2,2022.2.4,59.80471369081527,
1000,1,6.1,0.0,0,0,26,26,69,,,,,108.532574700017,109.18301120004617,109.18301120004617,109.6845888000098,315,45,109.6845888000098,109.6845888000098,109.6845888000098,109.6845888000098,109.6845888000098,109.6845888000098,109.6845888000098,109.6845888000098,109.6845888000098,110.05089770001359,110.05089770001359,110.05089770001359,110.05089770001359,110.05089770001359,110.05089770001359,110.05089770001359,110.05089770001359,110.05089770001359,23,0,,,110.05089770001359,110.25340879999567,1000,110.25340879999567,1000,1000,1000,1000,0,num_3,0.45021889999043196,,26,15,2026-03-05_11h30.59.867,2026A_exp2,2022.2.4,59.80471369081527,
1,0,0.0,3.7,0,0,27,27,31,,,,,110.73491739999736,111.38568130001659,111.38568130001659,111.88674139999785,315,45,111.88674139999785,111.88674139999785,111.88674139999785,111.88674139999785,111.88674139999785,111.88674139999785,111.88674139999785,111.88674139999785,111.88674139999785,112.23648280004272,112.23648280004272,112.23648280004272,112.23648280004272,112.23648280004272,112.23648280004272,112.23648280004272,112.23648280004272,112.23648280004272,22,0,,,112.23648280004272,112.43668520002393,0.0,112.43668520002393,1,0.0,0,0,1000,num_4,0.7469473999808542,,26,15,2026-03-05_11h30.59.867,2026A_exp2,2022.2.4,59.80471369081527,
1,0,6.1,0.0,0,0,28,28,77,,,,,113.20390950003639,113.854788800003,113.854788800003,114.33909830002813,45,45,114.33909830002813,114.33909830002813,114.33909830002813,114.33909830002813,114.33909830002813,114.33909830002813,114.33909830002813,114.33909830002813,114.33909830002813,114.70561540004564,114.70561540004564,114.70561540004564,114.70561540004564,114.70561540004564,114.70561540004564,114.70561540004564,114.70561540004564,114.70561540004564,23,0,,,114.70561540004564,114.91959530004533,6.1,114.91959530004533,1,6.1,1,1,1000,num_4,0.6559981000027619,,26,15,2026-03-05_11h30.59.867,2026A_exp2,2022.2.4,59.80471369081527,
1,0,0.0,0.0,1,0,29,29,4,,,,,115.60666930000298,116.25713990000077,116.25713990000077,116.75813560001552,315,45,116.75813560001552,116.75813560001552,116.75813560001552,116.75813560001552,116.75813560001552,116.75813560001552,116.75813560001552,116.75813560001552,116.75813560001552,117.12467150000157,117.12467150000157,117.12467150000157,117.12467150000157,117.12467150000157,117.12467150000157,117.12467150000157,117.12467150000157,117.12467150000157,23,0,,,117.12467150000157,117.3248115000315,0.0,117.3248115000315,1,0.0,0,0,1000,num_4,0.6669531999505125,,26,15,2026-03-05_11h30.59.867,2026A_exp2,2022.2.4,59.80471369081527,
1000,1,4.9,0.0,1,0,30,30,74,,,,,118.00882650003769,118.65958650002722,118.65958650002722,119.14396790001774,315,45,119.14396790001774,119.14396790001774,119.14396790001774,119.14396790001774,119.14396790001774,119.14396790001774,119.14396790001774,119.14396790001774,119.14396790001774,119.51041200000327,119.51041200000327,119.51041200000327,119.51041200000327,119.51041200000327,119.51041200000327,119.51041200000327,119.51041200000327,119.51041200000327,23,0,,,119.51041200000327,119.72667150001507,1000,119.72667150001507,1000,1000,1000,1000,0,num_3,0.4247742000152357,,26,15,2026-03-05_11h30.59.867,2026A_exp2,2022.2.4,59.80471369081527,
0,0,0.0,6.1,1,0,31,31,46,,,,,120.17776230000891,120.82832640002016,120.82832640002016,121.3294652000186,315,45,121.3294652000186,121.3294652000186,121.3294652000186,121.3294652000186,121.3294652000186,121.3294652000186,121.3294652000186,121.3294652000186,121.3294652000186,121.69577750004828,121.69577750004828,121.69577750004828,121.69577750004828,121.69577750004828,121.69577750004828,121.69577750004828,121.69577750004828,121.69577750004828,22,1,[0.21645030000945553],[0.2334258999908343],121.69577750004828,121.89599039999302,0.0,121.89599039999302,1,0.0,0,0,1000,num_4,0.6480026000062935,,26,15,2026-03-05_11h30.59.867,2026A_exp2,2022.2.4,59.80471369081527,
1000,1,0.0,3.7,1,0,32,32,67,,,,,122.56336650002049,123.21409590000985,123.21409590000985,123.69849179999437,45,45,123.69849179999437,123.69849179999437,123.69849179999437,123.69849179999437,123.69849179999437,123.69849179999437,123.69849179999437,123.69849179999437,123.69849179999437,124.0650645000278,124.0650645000278,124.0650645000278,124.0650645000278,124.0650645000278,124.0650645000278,124.0650645000278,124.0650645000278,124.0650645000278,23,0,,,124.0650645000278,124.26716410001973,1000,124.26716410001973,1000,1000,1000,1000,0,num_3,0.6997876000241376,,26,15,2026-03-05_11h30.59.867,2026A_exp2,2022.2.4,59.80471369081527,
1,0,0.0,3.7,0,0,33,33,76,,,,,124.98240330000408,125.6332037000102,125.6332037000102,126.13452280004276,315,315,126.13452280004276,126.13452280004276,126.13452280004276,126.13452280004276,126.13452280004276,126.13452280004276,126.13452280004276,126.13452280004276,126.13452280004276,126.5006044000038,126.5006044000038,126.5006044000038,126.5006044000038,126.5006044000038,126.5006044000038,126.5006044000038,126.5006044000038,126.5006044000038,23,0,,,126.5006044000038,126.70085190003738,0.0,126.70085190003738,0,0.0,0,1,1000,num_1,0.6981095999944955,,26,15,2026-03-05_11h30.59.867,2026A_exp2,2022.2.4,59.80471369081527,
1000,1,0.0,0.0,0,0,34,34,79,,,,,127.4181315000169,128.0689842000138,128.0689842000138,128.55329420004273,45,315,128.55329420004273,128.55329420004273,128.55329420004273,128.55329420004273,128.55329420004273,128.55329420004273,128.55329420004273,128.55329420004273,128.55329420004273,128.9194955000421,128.9194955000421,128.9194955000421,128.9194955000421,128.9194955000421,128.9194955000421,128.9194955000421,128.9194955000421,128.9194955000421,18,4,"[0.1000608999747783, 0.23346060002222657, 0.26685359998373315, 0.35046579997288063]","[0.11663250002311543, 0.25019450002582744, 0.28341329999966547, 0.3668527000118047]",128.9194955000421,129.1218187000486,1000,129.1218187000486,1000,1000,1000,1000,1,num_2,0.5168589999666438,,26,15,2026-03-05_11h30.59.867,2026A_exp2,2022.2.4,59.80471369081527,
1000,1,3.7,0.0,1,0,35,35,78,,,,,129.6537675000145,130.30848040001,130.30848040001,130.81336810003268,45,45,130.81336810003268,130.81336810003268,130.81336810003268,130.81336810003268,130.81336810003268,130.81336810003268,130.81336810003268,130.81336810003268,130.81336810003268,131.17201919999206,131.17201919999206,131.17201919999206,131.17201919999206,131.17201919999206,131.17201919999206,131.17201919999206,131.17201919999206,131.17201919999206,21,2,"[0.16572140000062063, 0.3318536999868229]","[0.1820200000074692, 0.3486675000167452]",131.17201919999206,131.37422650004737,1000,131.37422650004737,1000,1000,1000,1000,1,num_2,0.5926598999649286,,26,15,2026-03-05_11h30.59.867,2026A_exp2,2022.2.4,59.80471369081527,
1,0,0.0,3.7,1,0,36,36,30,,,,,131.9894375000149,132.64017860003514,132.64017860003514,133.14137260004645,45,45,133.14137260004645,133.14137260004645,133.14137260004645,133.14137260004645,133.14137260004645,133.14137260004645,133.14137260004645,133.14137260004645,133.14137260004645,133.50772059999872,133.50772059999872,133.50772059999872,133.50772059999872,133.50772059999872,133.50772059999872,133.50772059999872,133.50772059999872,133.50772059999872,23,0,,,133.50772059999872,133.70792350004194,3.7,133.70792350004194,1,3.7,1,1,1000,num_4,0.7562170999590307,,26,15,2026-03-05_11h30.59.867,2026A_exp2,2022.2.4,59.80471369081527,
1000,1,3.7,0.0,1,0,37,37,52,,,,,134.491854300024,135.1425797000411,135.1425797000411,135.62719460000517,45,315,135.62719460000517,135.62719460000517,135.62719460000517,135.62719460000517,135.62719460000517,135.62719460000517,135.62719460000517,135.62719460000517,135.62719460000517,135.99352860002546,135.99352860002546,135.99352860002546,135.99352860002546,135.99352860002546,135.99352860002546,135.99352860002546,135.99352860002546,135.99352860002546,23,0,,,135.99352860002546,136.1936435000389,1000,136.1936435000389,1000,1000,1000,1000,0,num_3,0.597569499979727,,26,15,2026-03-05_11h30.59.867,2026A_exp2,2022.2.4,59.80471369081527,
1000,1,6.1,6.1,1,0,38,38,53,,,,,136.8108165000449,137.46393349999562,137.46393349999562,137.96274000004632,45,45,137.96274000004632,137.96274000004632,137.96274000004632,137.96274000004632,137.96274000004632,137.96274000004632,137.96274000004632,137.96274000004632,137.96274000004632,138.32914089999394,138.32914089999394,138.32914089999394,138.32914089999394,138.32914089999394,138.32914089999394,138.32914089999394,138.32914089999394,138.32914089999394,23,0,,,138.32914089999394,138.53135940001812,1000,138.53135940001812,1000,1000,1000,1000,0,num_3,0.588572499982547,,26,15,2026-03-05_11h30.59.867,2026A_exp2,2022.2.4,59.80471369081527,
1000,1,0.0,0.0,1,0,39,39,35,,,,,139.14668960002018,139.79729270003736,139.79729270003736,140.29839960002573,45,45,140.29839960002573,140.29839960002573,140.29839960002573,140.29839960002573,140.29839960002573,140.29839960002573,140.29839960002573,140.29839960002573,140.29839960002573,140.66482440003892,140.66482440003892,140.66482440003892,140.66482440003892,140.66482440003892,140.66482440003892,140.66482440003892,140.66482440003892,140.66482440003892,23,0,,,140.66482440003892,140.86703570000827,1000,140.86703570000827,1000,1000,1000,1000,0,num_3,0.5161324000218883,,26,15,2026-03-05_11h30.59.867,2026A_exp2,2022.2.4,59.80471369081527,
1000,1,0.0,0.0,1,0,40,40,44,,,,,141.39893780002603,142.04959000000963,142.04959000000963,142.55081290000817,315,315,142.55081290000817,142.55081290000817,142.55081290000817,142.55081290000817,142.55081290000817,142.55081290000817,142.55081290000817,142.55081290000817,142.55081290000817,142.91706609999528,142.91706609999528,142.91706609999528,142.91706609999528,142.91706609999528,142.91706609999528,142.91706609999528,142.91706609999528,142.91706609999528,23,0,,,142.91706609999528,143.1190925000119,1000,143.1190925000119,1000,1000,1000,1000,0,num_3,0.6241367000038736,,26,15,2026-03-05_11h30.59.867,2026A_exp2,2022.2.4,59.80471369081527,
0,0,4.9,0.0,1,0,41,41,26,,,,,143.76788250001846,144.41866379999556,144.41866379999556,144.92736890004016,45,45,144.92736890004016,144.92736890004016,144.92736890004016,144.92736890004016,144.92736890004016,144.92736890004016,144.92736890004016,144.92736890004016,144.92736890004016,145.2861617000308,145.2861617000308,145.2861617000308,145.2861617000308,145.2861617000308,145.2861617000308,145.2861617000308,145.2861617000308,145.2861617000308,23,0,,,145.2861617000308,145.48620000004303,4.9,145.48620000004303,1,4.9,1,1,1000,num_4,0.7688029000419192,,26,15,2026-03-05_11h30.59.867,2026A_exp2,2022.2.4,59.80471369081527,
1000,1,6.1,0.0,0,0,42,42,21,,,,,146.2867624000064,146.9377947000321,146.9377947000321,147.43896350002615,45,315,147.43896350002615,147.43896350002615,147.43896350002615,147.43896350002615,147.43896350002615,147.43896350002615,147.43896350002615,147.43896350002615,147.43896350002615,147.80528190004406,147.80528190004406,147.80528190004406,147.80528190004406,147.80528190004406,147.80528190004406,147.80528190004406,147.80528190004406,147.80528190004406,0,1,[0.0011952000204473734],[0.36734810000052676],147.80528190004406,148.0074249000172,1000,148.0074249000172,1000,1000,1000,1000,0,num_3,0.45615029998589307,,26,15,2026-03-05_11h30.59.867,2026A_exp2,2022.2.4,59.80471369081527,
1000,1,3.7,0.0,1,0,43,43,38,,,,,148.48946040001465,149.13994130003266,149.13994130003266,149.62422930001048,315,45,149.62422930001048,149.62422930001048,149.62422930001048,149.62422930001048,149.62422930001048,149.62422930001048,149.62422930001048,149.62422930001048,149.62422930001048,149.99094790004892,149.99094790004892,149.99094790004892,149.99094790004892,149.99094790004892,149.99094790004892,149.99094790004892,149.99094790004892,149.99094790004892,0,1,[0.0009759999811649323],[0.36760299996240065],149.99094790004892,150.19297480001114,1000,150.19297480001114,1000,1000,1000,1000,1,num_2,0.7267770000034943,,26,15,2026-03-05_11h30.59.867,2026A_exp2,2022.2.4,59.80471369081527,
0,0,0.0,0.0,1,0,44,44,14,,,,,150.9416342000477,151.5927071000333,151.5927071000333,152.0934685000102,45,315,152.0934685000102,152.0934685000102,152.0934685000102,152.0934685000102,152.0934685000102,152.0934685000102,152.0934685000102,152.0934685000102,152.0934685000102,152.459998300008,152.459998300008,152.459998300008,152.459998300008,152.459998300008,152.459998300008,152.459998300008,152.459998300008,152.459998300008,8,3,"[0.05019790004007518, 0.13349510001717135, 0.2170077000046149]","[0.11701580003136769, 0.1502189000020735, 0.3672241000458598]",152.459998300008,152.6600768000353,0.0,152.6600768000353,1,0.0,0,0,1000,num_4,0.8993020000052638,,26,15,2026-03-05_11h30.59.867,2026A_exp2,2022.2.4,59.80471369081527,
1,0,4.9,6.1,0,0,45,45,29,,,,,153.57759530004114,154.22847770003136,154.22847770003136,154.71288810000988,45,315,154.71288810000988,154.71288810000988,154.71288810000988,154.71288810000988,154.71288810000988,154.71288810000988,154.71288810000988,154.71288810000988,154.71288810000988,155.07925300003262,155.07925300003262,155.07925300003262,155.07925300003262,155.07925300003262,155.07925300003262,155.07925300003262,155.07925300003262,155.07925300003262,22,1,[0.06689700001152232],[0.08352210000157356],155.07925300003262,155.27929520001635,4.9,155.27929520001635,0,4.9,1,0,1000,num_1,0.7194613000028767,,26,15,2026-03-05_11h30.59.867,2026A_exp2,2022.2.4,59.80471369081527,
1,0,0.0,4.9,1,0,46,46,41,,,,,156.03047300002072,156.6810432000202,156.6810432000202,157.16515010001604,45,315,157.16515010001604,157.16515010001604,157.16515010001604,157.16515010001604,157.16515010001604,157.16515010001604,157.16515010001604,157.16515010001604,157.16515010001604,157.53167540003778,157.53167540003778,157.53167540003778,157.53167540003778,157.53167540003778,157.53167540003778,157.53167540003778,157.53167540003778,157.53167540003778,0,1,[0.0011979000410065055],[0.3669880999950692],157.53167540003778,157.7319091000245,4.9,157.7319091000245,1,4.9,1,1,1000,num_4,0.7231155999470502,,26,15,2026-03-05_11h30.59.867,2026A_exp2,2022.2.4,59.80471369081527,
1000,1,4.9,0.0,0,0,47,47,37,,,,,158.48250040004496,159.13326800003415,159.13326800003415,159.61881730001187,315,45,159.61881730001187,159.61881730001187,159.61881730001187,159.61881730001187,159.61881730001187,159.61881730001187,159.61881730001187,159.61881730001187,159.61881730001187,159.98403819999658,159.98403819999658,159.98403819999658,159.98403819999658,159.98403819999658,159.98403819999658,159.98403819999658,159.98403819999658,159.98403819999658,10,3,"[0.0019420000026002526, 0.29977740003960207, 0.34985739999683574]","[0.1829899000003934, 0.3164591999957338, 0.3661728000151925]",159.98403819999658,160.18439230002696,1000,160.18439230002696,1000,1000,1000,1000,0,num_3,0.6474341999855824,,26,15,2026-03-05_11h30.59.867,2026A_exp2,2022.2.4,59.80471369081527,
1000,1,3.7,0.0,0,0,48,48,55,,,,,160.8516947000171,161.5024354000343,161.5024354000343,162.00351619999856,45,315,162.00351619999856,162.00351619999856,162.00351619999856,162.00351619999856,162.00351619999856,162.00351619999856,162.00351619999856,162.00351619999856,162.00351619999856,162.3698330000043,162.3698330000043,162.3698330000043,162.3698330000043,162.3698330000043,162.3698330000043,162.3698330000043,162.3698330000043,162.3698330000043,12,3,"[0.017369299952406436, 0.05028589995345101, 0.09987559996079654]","[0.033539899974130094, 0.08337839995510876, 0.21655859996099025]",162.3698330000043,162.56995630002348,1000,162.56995630002348,1000,1000,1000,1000,1,num_2,0.6699130000197329,,26,15,2026-03-05_11h30.59.867,2026A_exp2,2022.2.4,59.80471369081527,
1000,1,0.0,0.0,1,0,49,49,63,,,,,163.27079320000485,163.921525200014,163.921525200014,164.4224710999988,315,315,164.4224710999988,164.4224710999988,164.4224710999988,164.4224710999988,164.4224710999988,164.4224710999988,164.4224710999988,164.4224710999988,164.4224710999988,164.7890078999917,164.7890078999917,164.7890078999917,164.7890078999917,164.7890078999917,164.7890078999917,164.7890078999917,164.7890078999917,164.7890078999917,5,4,"[0.0011953999637626112, 0.0669612999772653, 0.1002847999916412, 0.16706569999223575]","[0.0173804999794811, 0.08357879996765405, 0.15025690000038594, 0.36726759996963665]",164.7890078999917,164.99136030004593,1000,164.99136030004593,1000,1000,1000,1000,1,num_2,0.4567786999978125,,26,15,2026-03-05_11h30.59.867,2026A_exp2,2022.2.4,59.80471369081527,
1,0,0.0,0.0,1,0,50,50,20,,,,,165.47292339999694,166.12368630000856,166.12368630000856,166.62492020003265,315,315,166.62492020003265,166.62492020003265,166.62492020003265,166.62492020003265,166.62492020003265,166.62492020003265,166.62492020003265,166.62492020003265,166.62492020003265,166.9912204000284,166.9912204000284,166.9912204000284,166.9912204000284,166.9912204000284,166.9912204000284,166.9912204000284,166.9912204000284,166.9912204000284,0,1,[0.0012694000033661723],[0.36765219998778775],166.9912204000284,167.19135259999894,0.0,167.19135259999894,1,0.0,0,0,1000,num_4,0.6155061000026762,,26,15,2026-03-05_11h30.59.867,2026A_exp2,2022.2.4,59.80471369081527,
1000,1,0.0,0.0,1,0,51,51,88,,,,,167.82518500002334,168.4759749000077,168.4759749000077,168.96047580003506,45,45,168.96047580003506,168.96047580003506,168.96047580003506,168.96047580003506,168.96047580003506,168.96047580003506,168.96047580003506,168.96047580003506,168.96047580003506,169.326873300015,169.326873300015,169.326873300015,169.326873300015,169.326873300015,169.326873300015,169.326873300015,169.326873300015,169.326873300015,21,2,"[0.033391700009815395, 0.08351430000038818]","[0.05000420002033934, 0.10001000005286187]",169.326873300015,169.52878300001612,1000,169.52878300001612,1000,1000,1000,1000,1,num_2,0.8861074000014924,,26,15,2026-03-05_11h30.59.867,2026A_exp2,2022.2.4,59.80471369081527,
1000,1,3.7,0.0,0,0,52,52,81,,,,,170.4447971000336,171.09530720004113,171.09530720004113,171.57976520003285,315,315,171.57976520003285,171.57976520003285,171.57976520003285,171.57976520003285,171.57976520003285,171.57976520003285,171.57976520003285,171.57976520003285,171.57976520003285,171.94619520002743,171.94619520002743,171.94619520002743,171.94619520002743,171.94619520002743,171.94619520002743,171.94619520002743,171.94619520002743,171.94619520002743,23,0,,,171.94619520002743,172.14800290000858,1000,172.14800290000858,1000,1000,1000,1000,0,num_3,0.6115291999885812,,26,15,2026-03-05_11h30.59.867,2026A_exp2,2022.2.4,59.80471369081527,
1,0,0.0,0.0,1,0,53,53,66,,,,,172.780239899992,173.4310559000005,173.4310559000005,173.93198480003048,45,45,173.93198480003048,173.93198480003048,173.93198480003048,173.93198480003048,173.93198480003048,173.93198480003048,173.93198480003048,173.93198480003048,173.93198480003048,174.298445500026,174.298445500026,174.298445500026,174.298445500026,174.298445500026,174.298445500026,174.298445500026,174.298445500026,174.298445500026,23,0,,,174.298445500026,174.49843880004482,0.0,174.49843880004482,1,0.0,0,0,1000,num_4,0.6290457000141032,,26,15,2026-03-05_11h30.59.867,2026A_exp2,2022.2.4,59.80471369081527,
1000,1,0.0,0.0,0,0,54,54,2,,,,,175.1492014999967,175.79990220000036,175.79990220000036,176.2844427000382,45,315,176.2844427000382,176.2844427000382,176.2844427000382,176.2844427000382,176.2844427000382,176.2844427000382,176.2844427000382,176.2844427000382,176.2844427000382,176.65084180003032,176.65084180003032,176.65084180003032,176.65084180003032,176.65084180003032,176.65084180003032,176.65084180003032,176.65084180003032,176.65084180003032,0,1,[0.0012413000222295523],[0.369898600038141],176.65084180003032,176.8800545000122,1000,176.8800545000122,1000,1000,1000,1000,1,num_2,0.47074349998729303,,26,15,2026-03-05_11h30.59.867,2026A_exp2,2022.2.4,59.80471369081527,
1,0,4.9,4.9,0,0,55,55,28,,,,,177.36805460002506,178.01890369999455,178.01890369999455,178.52003559999866,45,315,178.52003559999866,178.52003559999866,178.52003559999866,178.52003559999866,178.52003559999866,178.52003559999866,178.52003559999866,178.52003559999866,178.52003559999866,178.88642799999798,178.88642799999798,178.88642799999798,178.88642799999798,178.88642799999798,178.88642799999798,178.88642799999798,178.88642799999798,178.88642799999798,6,6,"[0.001249499968253076, 0.05030760000227019, 0.08355149999260902, 0.11680939997313544, 0.33382180001353845, 0.36732279998250306]","[0.017499800014775246, 0.06695959996432066, 0.10024210001574829, 0.31714329996611923, 0.3506012000143528, 0.36732779996236786]",178.88642799999798,179.08661920001032,4.9,179.08661920001032,0,4.9,1,0,1000,num_1,1.384414599975571,,26,15,2026-03-05_11h30.59.867,2026A_exp2,2022.2.4,59.80471369081527,
0,0,0.0,4.9,1,0,56,56,0,,,,,180.48803100001533,181.1387037000386,181.1387037000386,181.62310050002998,315,315,181.62310050002998,181.62310050002998,181.62310050002998,181.62310050002998,181.62310050002998,181.62310050002998,181.62310050002998,181.62310050002998,181.62310050002998,181.9896868999931,181.9896868999931,181.9896868999931,181.9896868999931,181.9896868999931,181.9896868999931,181.9896868999931,181.9896868999931,181.9896868999931,23,0,,,181.9896868999931,182.19321650004713,0.0,182.19321650004713,0,0.0,0,1,1000,num_1,0.6622814000002109,,26,15,2026-03-05_11h30.59.867,2026A_exp2,2022.2.4,59.80471369081527,
1,0,3.7,0.0,0,0,57,57,3,,,,,182.87381770001957,183.52438610000536,183.52438610000536,184.02127409999957,315,45,184.02127409999957,184.02127409999957,184.02127409999957,184.02127409999957,184.02127409999957,184.02127409999957,184.02127409999957,184.02127409999957,184.02127409999957,184.3752510000486,184.3752510000486,184.3752510000486,184.3752510000486,184.3752510000486,184.3752510000486,184.3752510000486,184.3752510000486,184.3752510000486,23,0,,,184.3752510000486,184.57540289999451,3.7,184.57540289999451,1,3.7,1,1,1000,num_4,0.9673328999779187,,26,15,2026-03-05_11h30.59.867,2026A_exp2,2022.2.4,59.80471369081527,
1000,1,6.1,4.9,1,0,58,58,86,,,,,185.55962110002292,186.2103018000489,186.2103018000489,186.71142720000353,315,45,186.71142720000353,186.71142720000353,186.71142720000353,186.71142720000353,186.71142720000353,186.71142720000353,186.71142720000353,186.71142720000353,186.71142720000353,187.0613104000222,187.0613104000222,187.0613104000222,187.0613104000222,187.0613104000222,187.0613104000222,187.0613104000222,187.0613104000222,187.0613104000222,22,0,,,187.0613104000222,187.26203990000067,1000,187.26203990000067,1000,1000,1000,1000,1,num_2,0.5618499999982305,,26,15,2026-03-05_11h30.59.867,2026A_exp2,2022.2.4,59.80471369081527,
1,0,0.0,0.0,0,0,59,59,61,,,,,187.84519170003477,188.4959595000255,188.4959595000255,188.9970639999956,45,45,188.9970639999956,188.9970639999956,188.9970639999956,188.9970639999956,188.9970639999956,188.9970639999956,188.9970639999956,188.9970639999956,188.9970639999956,189.3469299999997,189.3469299999997,189.3469299999997,189.3469299999997,189.3469299999997,189.3469299999997,189.3469299999997,189.3469299999997,189.3469299999997,20,2,"[0.21695460000773892, 0.35040359996492043]","[0.2502456000074744, 0.3504081999999471]",189.3469299999997,189.54707150004106,0.0,189.56381000002148,0,0.0,0,1,1000,num_1,0.6284124999656342,,26,15,2026-03-05_11h30.59.867,2026A_exp2,2022.2.4,59.80471369081527,
1,0,0.0,0.0,0,0,60,60,85,,,,,190.2142165999976,190.86514780001016,190.86514780001016,191.35206310002832,315,45,191.35206310002832,191.35206310002832,191.35206310002832,191.35206310002832,191.35206310002832,191.35206310002832,191.35206310002832,191.35206310002832,191.35206310002832,191.71589700004552,191.71589700004552,191.71589700004552,191.71589700004552,191.71589700004552,191.71589700004552,191.71589700004552,191.71589700004552,191.71589700004552,1,2,"[0.002036800025962293, 0.11475920001976192]","[0.09803769999416545, 0.36541500000748783]",191.71589700004552,191.91603070002748,0.0,191.91603070002748,0,0.0,0,1,1000,num_1,0.6601502999546938,,26,15,2026-03-05_11h30.59.867,2026A_exp2,2022.2.4,59.80471369081527,
1000,1,3.7,0.0,1,0,61,61,19,,,,,192.5999948999961,193.25077660003444,193.25077660003444,193.73512290004874,45,45,193.73512290004874,193.73512290004874,193.73512290004874,193.73512290004874,193.73512290004874,193.73512290004874,193.73512290004874,193.73512290004874,193.73512290004874,194.10163690004265,194.10163690004265,194.10163690004265,194.10163690004265,194.10163690004265,194.10163690004265,194.10163690004265,194.10163690004265,194.10163690004265,0,1,[0.001227300032041967],[0.367191500030458],194.10163690004265,194.30340120004257,1000,194.30340120004257,1000,1000,1000,1000,1,num_2,0.4564216999569908,,26,15,2026-03-05_11h30.59.867,2026A_exp2,2022.2.4,59.80471369081527,
1,0,4.9,0.0,0,0,62,62,47,,,,,194.78578400000697,195.43627280002693,195.43627280002693,195.92079980002018,315,315,195.92079980002018,195.92079980002018,195.92079980002018,195.92079980002018,195.92079980002018,195.92079980002018,195.92079980002018,195.92079980002018,195.92079980002018,196.2871293000062,196.2871293000062,196.2871293000062,196.2871293000062,196.2871293000062,196.2871293000062,196.2871293000062,196.2871293000062,196.2871293000062,0,1,[0.0012012000079266727],[0.3671555999899283],196.2871293000062,196.48730670002988,4.9,196.48730670002988,1,4.9,1,1,1000,num_4,0.6958735999651253,,26,15,2026-03-05_11h30.59.867,2026A_exp2,2022.2.4,59.80471369081527,
1,0,4.9,3.7,1,0,63,63,71,,,,,197.20457420003368,197.8554129000404,197.8554129000404,198.33989120001206,45,45,198.33989120001206,198.33989120001206,198.33989120001206,198.33989120001206,198.33989120001206,198.33989120001206,198.33989120001206,198.33989120001206,198.33989120001206,198.70624920004047,198.70624920004047,198.70624920004047,198.70624920004047,198.70624920004047,198.70624920004047,198.70624920004047,198.70624920004047,198.70624920004047,0,1,[0.0012223999947309494],[0.3672459000372328],198.70624920004047,198.9065206000232,3.7,198.9065206000232,1,3.7,1,1,1000,num_4,0.708243599976413,,26,15,2026-03-05_11h30.59.867,2026A_exp2,2022.2.4,59.80471369081527,
1,0,0.0,6.1,1,0,64,64,5,,,,,199.64038550003897,200.29116630001226,200.29116630001226,200.77563930000179,315,45,200.77563930000179,200.77563930000179,200.77563930000179,200.77563930000179,200.77563930000179,200.77563930000179,200.77563930000179,200.77563930000179,200.77563930000179,201.1420456999913,201.1420456999913,201.1420456999913,201.1420456999913,201.1420456999913,201.1420456999913,201.1420456999913,201.1420456999913,201.1420456999913,19,1,[0.0012667999835684896],[0.06649890000699088],201.1420456999913,201.34209089999786,6.1,201.34209089999786,1,6.1,1,1,1000,num_4,0.7525636999635026,,26,15,2026-03-05_11h30.59.867,2026A_exp2,2022.2.4,59.80471369081527,
1000,1,0.0,3.7,0,0,65,65,50,,,,,202.12605350004742,202.7769373000483,202.7769373000483,203.26130100002047,45,315,203.26130100002047,203.26130100002047,203.26130100002047,203.26130100002047,203.26130100002047,203.26130100002047,203.26130100002047,203.26130100002047,203.26130100002047,203.62742340000113,203.62742340000113,203.62742340000113,203.62742340000113,203.62742340000113,203.62742340000113,203.62742340000113,203.62742340000113,203.62742340000113,23,0,,,203.62742340000113,203.8298594999942,1000,203.8298594999942,1000,1000,1000,1000,1,num_2,0.9617159999907017,,26,15,2026-03-05_11h30.59.867,2026A_exp2,2022.2.4,59.80471369081527,
1000,1,0.0,3.7,1,0,66,66,1,,,,,204.81226940004854,205.46304530004272,205.46304530004272,205.96398020000197,45,45,205.96398020000197,205.96398020000197,205.96398020000197,205.96398020000197,205.96398020000197,205.96398020000197,205.96398020000197,205.96398020000197,205.96398020000197,206.3138498000335,206.3138498000335,206.3138498000335,206.3138498000335,206.3138498000335,206.3138498000335,206.3138498000335,206.3138498000335,206.3138498000335,22,0,,,206.3138498000335,206.51635890000034,1000,206.5308433000464,1000,1000,1000,1000,1,num_2,1.1093110000365414,,26,15,2026-03-05_11h30.59.867,2026A_exp2,2022.2.4,59.80471369081527,
1,0,0.0,0.0,0,0,67,67,39,,,,,207.6650714999996,208.3158226000378,208.3158226000378,208.81677510001464,315,45,208.81677510001464,208.81677510001464,208.81677510001464,208.81677510001464,208.81677510001464,208.81677510001464,208.81677510001464,208.81677510001464,208.81677510001464,209.1833208000171,209.1833208000171,209.1833208000171,209.1833208000171,209.1833208000171,209.1833208000171,209.1833208000171,209.1833208000171,209.1833208000171,0,1,[0.0012203000369481742],[0.36723740003071725],209.1833208000171,209.38361620000796,0.0,209.38361620000796,1,0.0,0,0,1000,num_4,0.8562573000090197,,26,15,2026-03-05_11h30.59.867,2026A_exp2,2022.2.4,59.80471369081527,
1,0,0.0,3.7,0,0,68,68,64,,,,,210.26804470003117,210.901740900008,210.901740900008,211.40279040002497,315,45,211.40279040002497,211.40279040002497,211.40279040002497,211.40279040002497,211.40279040002497,211.40279040002497,211.40279040002497,211.40279040002497,211.40279040002497,211.77027890004683,211.77027890004683,211.77027890004683,211.77027890004683,211.77027890004683,211.77027890004683,211.77027890004683,211.77027890004683,211.77027890004683,1,2,"[0.001256599964108318, 0.300416000012774]","[0.2836818000068888, 0.36669330002041534]",211.77027890004683,211.969333200017,0.0,211.969333200017,1,0.0,0,0,1000,num_4,0.7015182999894023,,26,15,2026-03-05_11h30.59.867,2026A_exp2,2022.2.4,59.80471369081527,
1,0,3.7,3.7,0,0,69,69,60,,,,,212.68677329999628,213.3375535000232,213.3375535000232,213.8387131000054,45,315,213.8387131000054,213.8387131000054,213.8387131000054,213.8387131000054,213.8387131000054,213.8387131000054,213.8387131000054,213.8387131000054,213.8387131000054,214.18839150003623,214.18839150003623,214.18839150003623,214.18839150003623,214.18839150003623,214.18839150003623,214.18839150003623,214.18839150003623,214.18839150003623,18,3,"[0.1504242999944836, 0.2669234999921173, 0.31737310002790764]","[0.1670733999926597, 0.28380139998625964, 0.3505734999780543]",214.18839150003623,214.388442400028,3.7,214.388442400028,0,3.7,1,0,1000,num_1,0.6669769999571145,,26,15,2026-03-05_11h30.59.867,2026A_exp2,2022.2.4,59.80471369081527,
1000,1,6.1,4.9,1,0,70,70,15,,,,,215.07245640002657,215.7232314000139,215.7232314000139,216.20762390003074,45,315,216.20762390003074,216.20762390003074,216.20762390003074,216.20762390003074,216.20762390003074,216.20762390003074,216.20762390003074,216.20762390003074,216.20762390003074,216.57408700004453,216.57408700004453,216.57408700004453,216.57408700004453,216.57408700004453,216.57408700004453,216.57408700004453,216.57408700004453,216.57408700004453,23,0,,,216.57408700004453,216.77415100001963,1000,216.77415100001963,1000,1000,1000,1000,1,num_2,0.4492300000274554,,26,15,2026-03-05_11h30.59.867,2026A_exp2,2022.2.4,59.80471369081527,
1,0,4.9,6.1,1,0,71,71,36,,,,,217.24123959999997,217.89202430000296,217.89202430000296,218.3932252000086,315,45,218.3932252000086,218.3932252000086,218.3932252000086,218.3932252000086,218.3932252000086,218.3932252000086,218.3932252000086,218.3932252000086,218.3932252000086,218.75960410002153,218.75960410002153,218.75960410002153,218.75960410002153,218.75960410002153,218.75960410002153,218.75960410002153,218.75960410002153,218.75960410002153,23,0,,,218.75960410002153,218.95990220003296,6.1,218.95990220003296,1,6.1,1,1,1000,num_4,0.7834702999680303,,26,15,2026-03-05_11h30.59.867,2026A_exp2,2022.2.4,59.80471369081527,
0,0,4.9,6.1,1,0,72,72,70,,,,,219.76049080002122,220.41130120004527,220.41130120004527,220.89577220001956,315,315,220.89577220001956,220.89577220001956,220.89577220001956,220.89577220001956,220.89577220001956,220.89577220001956,220.89577220001956,220.89577220001956,220.89577220001956,221.26208320003934,221.26208320003934,221.26208320003934,221.26208320003934,221.26208320003934,221.26208320003934,221.26208320003934,221.26208320003934,221.26208320003934,23,0,,,221.26208320003934,221.46234220004408,4.9,221.46234220004408,0,4.9,1,0,1000,num_1,0.6647494999924675,,26,15,2026-03-05_11h30.59.867,2026A_exp2,2022.2.4,59.80471369081527,
1,0,6.1,6.1,1,0,73,73,49,,,,,222.1464024000452,222.79666240001097,222.79666240001097,223.28171800001292,45,315,223.28171800001292,223.28171800001292,223.28171800001292,223.28171800001292,223.28171800001292,223.28171800001292,223.28171800001292,223.28171800001292,223.28171800001292,223.64772619999712,223.64772619999712,223.64772619999712,223.64772619999712,223.64772619999712,223.64772619999712,223.64772619999712,223.64772619999712,223.64772619999712,0,1,[0.00072160002309829],[0.36770200001774356],223.64772619999712,223.84808130003512,6.1,223.84808130003512,1,6.1,1,1,1000,num_4,0.7666251999908127,,26,15,2026-03-05_11h30.59.867,2026A_exp2,2022.2.4,59.80471369081527,
1,0,0.0,0.0,1,0,74,74,58,,,,,224.63195930002257,225.28266750002513,225.28266750002513,225.7671093000099,45,315,225.7671093000099,225.7671093000099,225.7671093000099,225.7671093000099,225.7671093000099,225.7671093000099,225.7671093000099,225.7671093000099,225.7671093000099,226.1335156999994,226.1335156999994,226.1335156999994,226.1335156999994,226.1335156999994,226.1335156999994,226.1335156999994,226.1335156999994,226.1335156999994,23,0,,,226.1335156999994,226.33393710001837,0.0,226.33393710001837,1,0.0,0,0,1000,num_4,1.2649403999675997,,26,15,2026-03-05_11h30.59.867,2026A_exp2,2022.2.4,59.80471369081527,
1,0,3.7,0.0,0,0,75,75,10,,,,,227.618258100003,228.26913369999966,228.26913369999966,228.75345780001953,45,315,228.75345780001953,228.75345780001953,228.75345780001953,228.75345780001953,228.75345780001953,228.75345780001953,228.75345780001953,228.75345780001953,228.75345780001953,229.1197999000433,229.1197999000433,229.1197999000433,229.1197999000433,229.1197999000433,229.1197999000433,229.1197999000433,229.1197999000433,229.1197999000433,23,0,,,229.1197999000433,229.3200551000191,3.7,229.3200551000191,1,3.7,1,1,1000,num_4,0.7914354999666102,,26,15,2026-03-05_11h30.59.867,2026A_exp2,2022.2.4,59.80471369081527,
0,0,0.0,4.9,1,0,76,76,33,,,,,230.13754319999134,230.78817590000108,230.78817590000108,231.27261290000752,315,315,231.27261290000752,231.27261290000752,231.27261290000752,231.27261290000752,231.27261290000752,231.27261290000752,231.27261290000752,231.27261290000752,231.27261290000752,231.6390010000323,231.6390010000323,231.6390010000323,231.6390010000323,231.6390010000323,231.6390010000323,231.6390010000323,231.6390010000323,231.6390010000323,23,0,,,231.6390010000323,231.83921370003372,0.0,231.83921370003372,0,0.0,0,1,1000,num_1,0.6319771999842487,,26,15,2026-03-05_11h30.59.867,2026A_exp2,2022.2.4,59.80471369081527,
1000,1,0.0,6.1,0,0,77,77,27,,,,,232.48980250000022,233.1406579000177,233.1406579000177,233.62499060004484,45,315,233.62499060004484,233.62499060004484,233.62499060004484,233.62499060004484,233.62499060004484,233.62499060004484,233.62499060004484,233.62499060004484,233.62499060004484,233.99155340000289,233.99155340000289,233.99155340000289,233.99155340000289,233.99155340000289,233.99155340000289,233.99155340000289,233.99155340000289,233.99155340000289,23,0,,,233.99155340000289,234.19330909999553,1000,234.19330909999553,1000,1000,1000,1000,1,num_2,0.5654726000502706,,26,15,2026-03-05_11h30.59.867,2026A_exp2,2022.2.4,59.80471369081527,
1,0,3.7,0.0,0,0,78,78,7,,,,,234.77567010000348,235.42633230000501,235.42633230000501,235.9273204000201,315,315,235.9273204000201,235.9273204000201,235.9273204000201,235.9273204000201,235.9273204000201,235.9273204000201,235.9273204000201,235.9273204000201,235.9273204000201,236.29373880004277,236.29373880004277,236.29373880004277,236.29373880004277,236.29373880004277,236.29373880004277,236.29373880004277,236.29373880004277,236.29373880004277,23,0,,,236.29373880004277,236.4939538000035,3.7,236.4939538000035,1,3.7,1,1,1000,num_4,0.6980255999951623,,26,15,2026-03-05_11h30.59.867,2026A_exp2,2022.2.4,59.80471369081527,
1,0,3.7,6.1,1,0,79,79,75,,,,,237.2113318000338,237.86210050003137,237.86210050003137,238.34644460002892,45,45,238.34644460002892,238.34644460002892,238.34644460002892,238.34644460002892,238.34644460002892,238.34644460002892,238.34644460002892,238.34644460002892,238.34644460002892,238.71292910003103,238.71292910003103,238.71292910003103,238.71292910003103,238.71292910003103,238.71292910003103,238.71292910003103,238.71292910003103,238.71292910003103,17,3,"[0.0012922000023536384, 0.16695329995127395, 0.28376349998870865]","[0.06688489997759461, 0.18353899999056011, 0.3001310999970883]",238.71292910003103,238.91305279999506,6.1,238.91305279999506,1,6.1,1,1,1000,num_4,0.6218110999907367,,26,15,2026-03-05_11h30.59.867,2026A_exp2,2022.2.4,59.80471369081527,
1000,1,4.9,0.0,0,0,80,80,12,,,,,239.56359100004192,240.2144086000044,240.2144086000044,240.71521819999907,45,45,240.71521819999907,240.71521819999907,240.71521819999907,240.71521819999907,240.71521819999907,240.71521819999907,240.71521819999907,240.71521819999907,240.71521819999907,241.06516430003103,241.06516430003103,241.06516430003103,241.06516430003103,241.06516430003103,241.06516430003103,241.06516430003103,241.06516430003103,241.06516430003103,22,0,,,241.06516430003103,241.2673127000453,1000,241.2673127000453,1000,1000,1000,1000,0,num_3,0.6754729999811389,,26,15,2026-03-05_11h30.59.867,2026A_exp2,2022.2.4,59.80471369081527,
1,0,6.1,3.7,1,0,81,81,83,,,,,241.96603380003944,242.61687670001993,242.61687670001993,243.11793720000423,45,45,243.11793720000423,243.11793720000423,243.11793720000423,243.11793720000423,243.11793720000423,243.11793720000423,243.11793720000423,243.11793720000423,243.11793720000423,243.48423240002012,243.48423240002012,243.48423240002012,243.48423240002012,243.48423240002012,243.48423240002012,243.48423240002012,243.48423240002012,243.48423240002012,23,0,,,243.48423240002012,243.68450040003518,3.7,243.68450040003518,0,3.7,1,0,1000,num_1,0.7233356999931857,,26,15,2026-03-05_11h30.59.867,2026A_exp2,2022.2.4,59.80471369081527,
0,0,0.0,4.9,0,0,82,82,65,,,,,244.43518710002536,245.08588960004272,245.08588960004272,245.5702618000214,45,45,245.5702618000214,245.5702618000214,245.5702618000214,245.5702618000214,245.5702618000214,245.5702618000214,245.5702618000214,245.5702618000214,245.5702618000214,245.9367346999934,245.9367346999934,245.9367346999934,245.9367346999934,245.9367346999934,245.9367346999934,245.9367346999934,245.9367346999934,245.9367346999934,23,0,,,245.9367346999934,246.13686630001757,4.9,246.13686630001757,1,4.9,1,1,1000,num_4,1.03784949996043,,26,15,2026-03-05_11h30.59.867,2026A_exp2,2022.2.4,59.80471369081527,
0,0,6.1,6.1,1,0,83,83,48,,,,,247.20461200003047,247.85525510000298,247.85525510000298,248.33992709999438,315,45,248.33992709999438,248.33992709999438,248.33992709999438,248.33992709999438,248.33992709999438,248.33992709999438,248.33992709999438,248.33992709999438,248.33992709999438,248.7062358999974,248.7062358999974,248.7062358999974,248.7062358999974,248.7062358999974,248.7062358999974,248.7062358999974,248.7062358999974,248.7062358999974,23,0,,,248.7062358999974,248.90645370003767,6.1,248.90645370003767,1,6.1,1,1,1000,num_4,0.7973237000405788,,26,15,2026-03-05_11h30.59.867,2026A_exp2,2022.2.4,59.80471369081527,
1000,1,0.0,0.0,0,0,84,84,24,,,,,249.723686500045,250.37459180003498,250.37459180003498,250.85889460000908,315,315,250.85889460000908,250.85889460000908,250.85889460000908,250.85889460000908,250.85889460000908,250.85889460000908,250.85889460000908,250.85889460000908,250.85889460000908,251.2254184000194,251.2254184000194,251.2254184000194,251.2254184000194,251.2254184000194,251.2254184000194,251.2254184000194,251.2254184000194,251.2254184000194,1,2,"[0.001212199975270778, 0.05018479999853298]","[0.03338099998654798, 0.3671470999834128]",251.2254184000194,251.4273322999943,1000,251.4273322999943,1000,1000,1000,1000,0,num_3,0.6604294000426307,,26,15,2026-03-05_11h30.59.867,2026A_exp2,2022.2.4,59.80471369081527,
1,0,3.7,0.0,0,0,85,85,9,,,,,252.10946410003817,252.76029800000833,252.76029800000833,253.26135430001887,315,45,253.26135430001887,253.26135430001887,253.26135430001887,253.26135430001887,253.26135430001887,253.26135430001887,253.26135430001887,253.26135430001887,253.26135430001887,253.62776790000498,253.62776790000498,253.62776790000498,253.62776790000498,253.62776790000498,253.62776790000498,253.62776790000498,253.62776790000498,253.62776790000498,23,0,,,253.62776790000498,253.82783170003677,3.7,253.82783170003677,1,3.7,1,1,1000,num_4,0.7070150999934413,,26,15,2026-03-05_11h30.59.867,2026A_exp2,2022.2.4,59.80471369081527,
1,0,4.9,4.9,1,0,86,86,18,,,,,254.56197620002786,255.19610310002463,255.19610310002463,255.69707900000503,315,45,255.69707900000503,255.69707900000503,255.69707900000503,255.69707900000503,255.69707900000503,255.69707900000503,255.69707900000503,255.69707900000503,255.69707900000503,256.0636883000261,256.0636883000261,256.0636883000261,256.0636883000261,256.0636883000261,256.0636883000261,256.0636883000261,256.0636883000261,256.0636883000261,23,0,,,256.0636883000261,256.2638082000194,4.9,256.2638082000194,1,4.9,1,1,1000,num_4,0.8793158999760635,,26,15,2026-03-05_11h30.59.867,2026A_exp2,2022.2.4,59.80471369081527,
1,0,6.1,0.0,1,0,87,87,17,,,,,257.1645627000253,257.8153941000346,257.8153941000346,258.29980929999147,45,315,258.29980929999147,258.29980929999147,258.29980929999147,258.29980929999147,258.29980929999147,258.29980929999147,258.29980929999147,258.29980929999147,258.29980929999147,258.6661043000058,258.6661043000058,258.6661043000058,258.6661043000058,258.6661043000058,258.6661043000058,258.6661043000058,258.6661043000058,258.6661043000058,23,0,,,258.6661043000058,258.8663601000444,0.0,258.8663601000444,0,0.0,0,1,1000,num_1,0.7093220000388101,,26,15,2026-03-05_11h30.59.867,2026A_exp2,2022.2.4,59.80471369081527,
1000,1,4.9,0.0,1,0,88,88,84,,,,,259.6002481000032,260.2510448000394,260.2510448000394,260.7355819999939,45,45,260.7355819999939,260.7355819999939,260.7355819999939,260.7355819999939,260.7355819999939,260.7355819999939,260.7355819999939,260.7355819999939,260.7355819999939,261.1020103000337,261.1020103000337,261.1020103000337,261.1020103000337,261.1020103000337,261.1020103000337,261.1020103000337,261.1020103000337,261.1020103000337,23,0,,,261.1020103000337,261.3038549000048,1000,261.3038549000048,1000,1000,1000,1000,0,num_3,0.5348143000155687,,26,15,2026-03-05_11h30.59.867,2026A_exp2,2022.2.4,59.80471369081527,
1,0,0.0,0.0,0,0,89,89,6,,,,,261.86948510003276,262.52004010003293,262.52004010003293,263.02108950004913,315,45,263.02108950004913,263.02108950004913,263.02108950004913,263.02108950004913,263.02108950004913,263.02108950004913,263.02108950004913,263.02108950004913,263.02108950004913,263.38757370004896,263.38757370004896,263.38757370004896,263.38757370004896,263.38757370004896,263.38757370004896,263.38757370004896,263.38757370004896,263.38757370004896,23,0,,,263.38757370004896,263.58770660002483,0.0,263.58770660002483,1,0.0,0,0,1000,num_4,1.6837113000219688,,26,15,2026-03-05_11h30.59.867,2026A_exp2,2022.2.4,59.80471369081527,
,,,,,,,,,,,,,,,,,,,,,,,,,,,,,,,,,,,,,,,,,,,,,,,,,,,,265.3087961000274,,,,,,,
