validity,detectorcomp,contrastCW,contrastCCW,precueCWorCCW,block_80trials.thisRepN,block_80trials.thisTrialN,block_80trials.thisN,block_80trials.thisIndex,etRecord.started,etRecord.stopped,text.started,text.stopped,text_4.started,text_4.stopped,text_6.started,text_6.stopped,oriCW,oriCCW,roi_2.started,grating_UR.started,grating_UL.started,grating_LR.started,grating_LL.started,noise_UR.started,noise_UL.started,noise_LR.started,noise_LL.started,roi_2.stopped,grating_UR.stopped,grating_UL.stopped,grating_LR.stopped,grating_LL.stopped,noise_UR.stopped,noise_UL.stopped,noise_LR.stopped,noise_LL.stopped,outframe,roi_2.numLooks,roi_2.timesOn,roi_2.timesOff,text_2.started,text_2.stopped,probedcontrast,key_resp.started,respdetect,relevantContrast,correctDetect,TorFdetect,respCWorCCW,key_resp.keys,key_resp.rt,feedback_display_.started,participantNo,blockNo,date,expName,psychopyVersion,frameRate,
1,0,6.1,0.0,1,0,0,0,53,3.389996709302068e-05,3.389996709302068e-05,49.73585009999806,51.73862810002174,51.73862810002174,52.37287510000169,52.37287510000169,52.895549900014885,45,315,52.895549900014885,52.895549900014885,52.895549900014885,52.895549900014885,52.895549900014885,52.895549900014885,52.895549900014885,52.895549900014885,52.895549900014885,53.24047379998956,53.24047379998956,53.24047379998956,53.24047379998956,53.24047379998956,53.24047379998956,53.24047379998956,53.24047379998956,53.24047379998956,0,1,[0.0009376000380143523],[0.3680166000267491],53.24047379998956,53.44065569998929,0.0,53.44065569998929,0,0.0,0,1,1000,num_1,1.1657686000107788,,24,6,2026-03-04_15h39.41.295,2026A_exp2,2022.2.4,59.98868611748491,
1,0,0.0,0.0,1,0,1,1,60,,,,,54.62517110002227,55.27577300003031,55.27577300003031,55.77700860000914,45,315,55.77700860000914,55.77700860000914,55.77700860000914,55.77700860000914,55.77700860000914,55.77700860000914,55.77700860000914,55.77700860000914,55.77700860000914,56.126607800018974,56.126607800018974,56.126607800018974,56.126607800018974,56.126607800018974,56.126607800018974,56.126607800018974,56.126607800018974,56.126607800018974,0,1,[0.0014401000225916505],[0.3505182000226341],56.126607800018974,56.32682720001321,0.0,56.32682720001321,1,0.0,0,0,1000,num_4,1.9519392999936827,,24,6,2026-03-04_15h39.41.295,2026A_exp2,2022.2.4,59.98868611748491,
1000,1,0.0,3.7,0,0,2,2,21,,,,,58.295490199991036,58.946166199981235,58.946166199981235,59.447153599991,315,315,59.447153599991,59.447153599991,59.447153599991,59.447153599991,59.447153599991,59.447153599991,59.447153599991,59.447153599991,59.447153599991,59.79698919999646,59.79698919999646,59.79698919999646,59.79698919999646,59.79698919999646,59.79698919999646,59.79698919999646,59.79698919999646,59.79698919999646,0,1,[0.0007114000036381185],[0.350916099967435],59.79698919999646,60.00231840001652,1000,60.00231840001652,1000,1000,1000,1000,1,num_2,0.9971400999929756,,24,6,2026-03-04_15h39.41.295,2026A_exp2,2022.2.4,59.98868611748491,
1000,1,0.0,0.0,1,0,3,3,8,,,,,61.01499410002725,61.665520899987314,61.665520899987314,62.16658710001502,45,45,62.16658710001502,62.16658710001502,62.16658710001502,62.16658710001502,62.16658710001502,62.16658710001502,62.16658710001502,62.16658710001502,62.16658710001502,62.533085600007325,62.533085600007325,62.533085600007325,62.533085600007325,62.533085600007325,62.533085600007325,62.533085600007325,62.533085600007325,62.533085600007325,0,1,[0.0012385000009089708],[0.3671023999922909],62.533085600007325,62.73495060001733,1000,62.73495060001733,1000,1000,1000,1000,1,num_2,2.2405490999808535,,24,6,2026-03-04_15h39.41.295,2026A_exp2,2022.2.4,59.98868611748491,
1,0,4.9,0.0,0,0,4,4,19,,,,,65.00307939999038,65.6527308000368,65.6527308000368,66.15386530000251,45,45,66.15386530000251,66.15386530000251,66.15386530000251,66.15386530000251,66.15386530000251,66.15386530000251,66.15386530000251,66.15386530000251,66.15386530000251,66.52038629999151,66.52038629999151,66.52038629999151,66.52038629999151,66.52038629999151,66.52038629999151,66.52038629999151,66.52038629999151,66.52038629999151,0,1,[0.0012462000013329089],[0.36727410001913086],66.52038629999151,66.72065490001114,4.9,66.72065490001114,1,4.9,1,1,1000,num_4,0.7423410000046715,,24,6,2026-03-04_15h39.41.295,2026A_exp2,2022.2.4,59.98868611748491,
1000,1,3.7,0.0,0,0,5,5,28,,,,,67.48807279998437,68.1385795000242,68.1385795000242,68.62316730001476,315,45,68.62316730001476,68.62316730001476,68.62316730001476,68.62316730001476,68.62316730001476,68.62316730001476,68.62316730001476,68.62316730001476,68.62316730001476,68.98956130002625,68.98956130002625,68.98956130002625,68.98956130002625,68.98956130002625,68.98956130002625,68.98956130002625,68.98956130002625,68.98956130002625,0,1,[0.0007458999752998352],[0.3673414000077173],68.98956130002625,69.19131490000291,1000,69.19131490000291,1000,1000,1000,1000,0,num_3,0.9033420999767259,,24,6,2026-03-04_15h39.41.295,2026A_exp2,2022.2.4,59.98868611748491,
1,0,0.0,0.0,0,0,6,6,75,,,,,70.12397459999193,70.77467920002528,70.77467920002528,71.27627859998029,315,315,71.27627859998029,71.27627859998029,71.27627859998029,71.27627859998029,71.27627859998029,71.27627859998029,71.27627859998029,71.27627859998029,71.27627859998029,71.62535330001265,71.62535330001265,71.62535330001265,71.62535330001265,71.62535330001265,71.62535330001265,71.62535330001265,71.62535330001265,71.62535330001265,0,1,[0.0009169999975711107],[0.3505952000268735],71.62535330001265,71.82570200000191,0.0,71.82570200000191,0,0.0,0,1,1000,num_1,1.1016936000087298,,24,6,2026-03-04_15h39.41.295,2026A_exp2,2022.2.4,59.98868611748491,
1,0,3.7,3.7,0,0,7,7,69,,,,,72.94332520000171,73.59413610002957,73.59413610002957,74.07858620001934,45,45,74.07858620001934,74.07858620001934,74.07858620001934,74.07858620001934,74.07858620001934,74.07858620001934,74.07858620001934,74.07858620001934,74.07858620001934,74.44501130003482,74.44501130003482,74.44501130003482,74.44501130003482,74.44501130003482,74.44501130003482,74.44501130003482,74.44501130003482,74.44501130003482,0,1,[0.0012163000064902008],[0.36723289999645203],74.44501130003482,74.64520090003498,3.7,74.64520090003498,1,3.7,1,1,1000,num_4,1.2179276999668218,,24,6,2026-03-04_15h39.41.295,2026A_exp2,2022.2.4,59.98868611748491,
1000,1,0.0,6.1,0,0,8,8,85,,,,,75.87956939998548,76.53044000000227,76.53044000000227,77.01501620002091,45,45,77.01501620002091,77.01501620002091,77.01501620002091,77.01501620002091,77.01501620002091,77.01501620002091,77.01501620002091,77.01501620002091,77.01501620002091,77.38103290001163,77.38103290001163,77.38103290001163,77.38103290001163,77.38103290001163,77.38103290001163,77.38103290001163,77.38103290001163,77.38103290001163,1,2,"[0.0007593000191263855, 0.23411050002323464]","[0.21740460000000894, 0.3675978000392206]",77.38103290001163,77.58152519998839,1000,77.58152519998839,1000,1000,1000,1000,1,num_2,0.6891433999990113,,24,6,2026-03-04_15h39.41.295,2026A_exp2,2022.2.4,59.98868611748491,
0,0,6.1,0.0,0,0,9,9,65,,,,,78.29879119998077,78.94955050002318,78.94955050002318,79.4506345000118,45,45,79.4506345000118,79.4506345000118,79.4506345000118,79.4506345000118,79.4506345000118,79.4506345000118,79.4506345000118,79.4506345000118,79.4506345000118,79.80031820002478,79.80031820002478,79.80031820002478,79.80031820002478,79.80031820002478,79.80031820002478,79.80031820002478,79.80031820002478,79.80031820002478,0,1,[0.0013077000039629638],[0.35047099995426834],79.80031820002478,80.00054069998441,0.0,80.01725129998522,0,0.0,0,1,1000,num_1,1.3425304999691434,,24,6,2026-03-04_15h39.41.295,2026A_exp2,2022.2.4,59.98868611748491,
1,0,4.9,4.9,1,0,10,10,32,,,,,81.38517640001373,82.03581370000029,82.03581370000029,82.5203742000158,45,45,82.5203742000158,82.5203742000158,82.5203742000158,82.5203742000158,82.5203742000158,82.5203742000158,82.5203742000158,82.5203742000158,82.5203742000158,82.88669190002838,82.88669190002838,82.88669190002838,82.88669190002838,82.88669190002838,82.88669190002838,82.88669190002838,82.88669190002838,82.88669190002838,0,1,[0.0013139000511728227],[0.36727930000051856],82.88669190002838,83.0868014000007,4.9,83.0868014000007,1,4.9,1,1,1000,num_4,0.7207002999493852,,24,6,2026-03-04_15h39.41.295,2026A_exp2,2022.2.4,59.98868611748491,
1,0,0.0,6.1,0,0,11,11,3,,,,,83.83768320002127,84.48834260000149,84.48834260000149,84.97283610003069,315,315,84.97283610003069,84.97283610003069,84.97283610003069,84.97283610003069,84.97283610003069,84.97283610003069,84.97283610003069,84.97283610003069,84.97283610003069,85.33904150000308,85.33904150000308,85.33904150000308,85.33904150000308,85.33904150000308,85.33904150000308,85.33904150000308,85.33904150000308,85.33904150000308,0,1,[0.0012085000053048134],[0.3673013999941759],85.33904150000308,85.53937000001315,0.0,85.53937000001315,0,0.0,0,1,1000,num_1,0.931202600011602,,24,6,2026-03-04_15h39.41.295,2026A_exp2,2022.2.4,59.98868611748491,
1000,1,0.0,3.7,1,0,12,12,81,,,,,86.49041540001053,87.14697850000812,87.14697850000812,87.64216410001973,45,315,87.64216410001973,87.64216410001973,87.64216410001973,87.64216410001973,87.64216410001973,87.64216410001973,87.64216410001973,87.64216410001973,87.64216410001973,88.00858520000475,88.00858520000475,88.00858520000475,88.00858520000475,88.00858520000475,88.00858520000475,88.00858520000475,88.00858520000475,88.00858520000475,0,1,[0.0012660999782383442],[0.36681929999031126],88.00858520000475,88.21087990002707,1000,88.21087990002707,1000,1000,1000,1000,1,num_2,1.004545700037852,,24,6,2026-03-04_15h39.41.295,2026A_exp2,2022.2.4,59.98868611748491,
1,0,4.9,0.0,0,0,13,13,47,,,,,89.24307760002557,89.89371530001517,89.89371530001517,90.39486250001937,315,45,90.39486250001937,90.39486250001937,90.39486250001937,90.39486250001937,90.39486250001937,90.39486250001937,90.39486250001937,90.39486250001937,90.39486250001937,90.74456840002676,90.74456840002676,90.74456840002676,90.74456840002676,90.74456840002676,90.74456840002676,90.74456840002676,90.74456840002676,90.74456840002676,0,1,[0.0012116000289097428],[0.3507396000204608],90.74456840002676,90.9448441999848,4.9,90.96146520000184,1,4.9,1,1,1000,num_4,0.6932340999483131,,24,6,2026-03-04_15h39.41.295,2026A_exp2,2022.2.4,59.98868611748491,
1000,1,4.9,0.0,0,0,14,14,82,,,,,91.6787398000015,92.3295669000363,92.3295669000363,92.81386870000279,45,45,92.81386870000279,92.81386870000279,92.81386870000279,92.81386870000279,92.81386870000279,92.81386870000279,92.81386870000279,92.81386870000279,92.81386870000279,93.18035039998358,93.18035039998358,93.18035039998358,93.18035039998358,93.18035039998358,93.18035039998358,93.18035039998358,93.18035039998358,93.18035039998358,0,1,[0.0012102000182494521],[0.3675251000095159],93.18035039998358,93.38221419998445,1000,93.38221419998445,1000,1000,1000,1000,0,num_3,0.7050933000282384,,24,6,2026-03-04_15h39.41.295,2026A_exp2,2022.2.4,59.98868611748491,
1000,1,4.9,4.9,0,0,15,15,6,,,,,94.114617299987,94.76513770001475,94.76513770001475,95.26629940001294,45,45,95.26629940001294,95.26629940001294,95.26629940001294,95.26629940001294,95.26629940001294,95.26629940001294,95.26629940001294,95.26629940001294,95.26629940001294,95.6160094999941,95.6160094999941,95.6160094999941,95.6160094999941,95.6160094999941,95.6160094999941,95.6160094999941,95.6160094999941,95.6160094999941,0,1,[0.0012519999872893095],[0.35043980000773445],95.6160094999941,95.81801950000226,1000,95.81801950000226,1000,1000,1000,1000,1,num_2,1.1005098999594338,,24,6,2026-03-04_15h39.41.295,2026A_exp2,2022.2.4,59.98868611748491,
1,0,3.7,0.0,0,0,16,16,15,,,,,96.9340631000232,97.58441820001462,97.58441820001462,98.08591520000482,315,315,98.08591520000482,98.08591520000482,98.08591520000482,98.08591520000482,98.08591520000482,98.08591520000482,98.08591520000482,98.08591520000482,98.08591520000482,98.45240389998071,98.45240389998071,98.45240389998071,98.45240389998071,98.45240389998071,98.45240389998071,98.45240389998071,98.45240389998071,98.45240389998071,0,1,[0.0012912999955005944],[0.3671916999737732],98.45240389998071,98.65259150002385,3.7,98.65259150002385,1,3.7,1,1,1000,num_4,0.6665568000171334,,24,6,2026-03-04_15h39.41.295,2026A_exp2,2022.2.4,59.98868611748491,
0,0,0.0,6.1,0,0,17,17,12,,,,,99.33641129999887,99.98715300002368,99.98715300002368,100.47154180001235,315,315,100.47154180001235,100.47154180001235,100.47154180001235,100.47154180001235,100.47154180001235,100.47154180001235,100.47154180001235,100.47154180001235,100.47154180001235,100.83791230001952,100.83791230001952,100.83791230001952,100.83791230001952,100.83791230001952,100.83791230001952,100.83791230001952,100.83791230001952,100.83791230001952,0,1,[0.001256000017747283],[0.3672810000134632],100.83791230001952,101.03820589999668,6.1,101.03820589999668,1,6.1,1,1,1000,num_4,0.6972535999957472,,24,6,2026-03-04_15h39.41.295,2026A_exp2,2022.2.4,59.98868611748491,
1,0,4.9,0.0,0,0,18,18,14,,,,,101.75546800001757,102.40624959999695,102.40624959999695,102.89058870001463,315,315,102.89058870001463,102.89058870001463,102.89058870001463,102.89058870001463,102.89058870001463,102.89058870001463,102.89058870001463,102.89058870001463,102.89058870001463,103.25710859999526,103.25710859999526,103.25710859999526,103.25710859999526,103.25710859999526,103.25710859999526,103.25710859999526,103.25710859999526,103.25710859999526,0,1,[0.001202500017825514],[0.3672006000415422],103.25710859999526,103.45740190002834,4.9,103.45740190002834,0,4.9,1,0,1000,num_1,1.294421800004784,,24,6,2026-03-04_15h39.41.295,2026A_exp2,2022.2.4,59.98868611748491,
1000,1,6.1,3.7,0,0,19,19,43,,,,,104.77512940001907,105.42584949999582,105.42584949999582,105.92675240000244,45,315,105.92675240000244,105.92675240000244,105.92675240000244,105.92675240000244,105.92675240000244,105.92675240000244,105.92675240000244,105.92675240000244,105.92675240000244,106.27640879998216,106.27640879998216,106.27640879998216,106.27640879998216,106.27640879998216,106.27640879998216,106.27640879998216,106.27640879998216,106.27640879998216,0,1,[0.0007202000124379992],[0.3505531999981031],106.27640879998216,106.4767606999958,1000,106.4767606999958,1000,1000,1000,1000,0,num_3,0.7862961000064388,,24,6,2026-03-04_15h39.41.295,2026A_exp2,2022.2.4,59.98868611748491,
0,0,0.0,0.0,0,0,20,20,20,,,,,107.29423370002769,107.94471660000272,107.94471660000272,108.42924100003438,45,45,108.42924100003438,108.42924100003438,108.42924100003438,108.42924100003438,108.42924100003438,108.42924100003438,108.42924100003438,108.42924100003438,108.42924100003438,108.7956744999974,108.7956744999974,108.7956744999974,108.7956744999974,108.7956744999974,108.7956744999974,108.7956744999974,108.7956744999974,108.7956744999974,0,1,[0.0007348000071942806],[0.3678747999947518],108.7956744999974,108.99590530002024,0.0,108.99590530002024,1,0.0,0,0,1000,num_4,0.8749824999831617,,24,6,2026-03-04_15h39.41.295,2026A_exp2,2022.2.4,59.98868611748491,
1000,1,4.9,6.1,0,0,21,21,35,,,,,109.89688120002393,110.54747150000185,110.54747150000185,111.04849220003234,315,315,111.04849220003234,111.04849220003234,111.04849220003234,111.04849220003234,111.04849220003234,111.04849220003234,111.04849220003234,111.04849220003234,111.04849220003234,111.41503309999825,111.41503309999825,111.41503309999825,111.41503309999825,111.41503309999825,111.41503309999825,111.41503309999825,111.41503309999825,111.41503309999825,0,1,[0.0007593999616801739],[0.3675418999628164],111.41503309999825,111.61524559999816,1000,111.61524559999816,1000,1000,1000,1000,1,num_2,1.3196694999933243,,24,6,2026-03-04_15h39.41.295,2026A_exp2,2022.2.4,59.98868611748491,
1,0,0.0,3.7,1,0,22,22,83,,,,,112.9666845999891,113.61709830001928,113.61709830001928,114.1015977000352,45,45,114.1015977000352,114.1015977000352,114.1015977000352,114.1015977000352,114.1015977000352,114.1015977000352,114.1015977000352,114.1015977000352,114.1015977000352,114.46799540001666,114.46799540001666,114.46799540001666,114.46799540001666,114.46799540001666,114.46799540001666,114.46799540001666,114.46799540001666,114.46799540001666,0,1,[0.0008691999828442931],[0.3673605999792926],114.46799540001666,114.66820300003747,3.7,114.66820300003747,1,3.7,1,1,1000,num_4,0.5944437999860384,,24,6,2026-03-04_15h39.41.295,2026A_exp2,2022.2.4,59.98868611748491,
1000,1,3.7,3.7,1,0,23,23,25,,,,,115.28585420001764,115.91980420000618,115.91980420000618,116.42090510000708,315,45,116.42090510000708,116.42090510000708,116.42090510000708,116.42090510000708,116.42090510000708,116.42090510000708,116.42090510000708,116.42090510000708,116.42090510000708,116.78724420000799,116.78724420000799,116.78724420000799,116.78724420000799,116.78724420000799,116.78724420000799,116.78724420000799,116.78724420000799,116.78724420000799,0,1,[0.001231999951414764],[0.36682649998692796],116.78724420000799,116.98947850003606,1000,116.98947850003606,1000,1000,1000,1000,1,num_2,1.3293872999493033,,24,6,2026-03-04_15h39.41.295,2026A_exp2,2022.2.4,59.98868611748491,
0,0,0.0,0.0,0,0,24,24,10,,,,,118.33868970000185,118.98944069998106,118.98944069998106,119.49062950001098,45,315,119.49062950001098,119.49062950001098,119.49062950001098,119.49062950001098,119.49062950001098,119.49062950001098,119.49062950001098,119.49062950001098,119.49062950001098,119.85704089998035,119.85704089998035,119.85704089998035,119.85704089998035,119.85704089998035,119.85704089998035,119.85704089998035,119.85704089998035,119.85704089998035,0,1,[0.0012589999823831022],[0.36720519996015355],119.85704089998035,120.05732010002248,0.0,120.05732010002248,0,0.0,0,1,1000,num_1,1.6536180999828503,,24,6,2026-03-04_15h39.41.295,2026A_exp2,2022.2.4,59.98868611748491,
1,0,3.7,4.9,0,0,25,25,70,,,,,121.74215340003138,122.39285360003123,122.39285360003123,122.87721170001896,315,315,122.87721170001896,122.87721170001896,122.87721170001896,122.87721170001896,122.87721170001896,122.87721170001896,122.87721170001896,122.87721170001896,122.87721170001896,123.24376540002413,123.24376540002413,123.24376540002413,123.24376540002413,123.24376540002413,123.24376540002413,123.24376540002413,123.24376540002413,123.24376540002413,0,1,[0.001199499994982034],[0.3671159000368789],123.24376540002413,123.44395980000263,3.7,123.44395980000263,1,3.7,1,1,1000,num_4,0.8514864000026137,,24,6,2026-03-04_15h39.41.295,2026A_exp2,2022.2.4,59.98868611748491,
1000,1,0.0,0.0,0,0,26,26,33,,,,,124.31139769998845,124.96215760003543,124.96215760003543,125.4475562000298,315,45,125.4475562000298,125.4475562000298,125.4475562000298,125.4475562000298,125.4475562000298,125.4475562000298,125.4475562000298,125.4475562000298,125.4475562000298,125.8127991000074,125.8127991000074,125.8127991000074,125.8127991000074,125.8127991000074,125.8127991000074,125.8127991000074,125.8127991000074,125.8127991000074,0,1,[0.000819800014141947],[0.3664088000077754],125.8127991000074,126.0130054000183,1000,126.03013199998531,1000,1000,1000,1000,1,num_2,1.3450626999838278,,24,6,2026-03-04_15h39.41.295,2026A_exp2,2022.2.4,59.98868611748491,
1000,1,0.0,0.0,1,0,27,27,37,,,,,127.39779499999713,128.0320522999973,128.0320522999973,128.53395479999017,315,315,128.53395479999017,128.53395479999017,128.53395479999017,128.53395479999017,128.53395479999017,128.53395479999017,128.53395479999017,128.53395479999017,128.53395479999017,,,,,,,,,,0,1,[0.0008928000461310148],[0.36606910004047677],128.91727480001282,,1000,129.13313420000486,1000,1000,1000,1000,1,num_2,0.9619566000183113,,24,6,2026-03-04_15h39.41.295,2026A_exp2,2022.2.4,59.98868611748491,
1000,1,0.0,0.0,1,0,28,28,72,,,,,130.11693980003474,130.7679930999875,130.7679930999875,131.25209870003164,315,315,131.25209870003164,131.25209870003164,131.25209870003164,131.25209870003164,131.25209870003164,131.25209870003164,131.25209870003164,131.25209870003164,131.25209870003164,131.6185106000048,131.6185106000048,131.6185106000048,131.6185106000048,131.6185106000048,131.6185106000048,131.6185106000048,131.6185106000048,131.6185106000048,20,1,[0.0007406999939121306],[0.050715899968054146],131.6185106000048,131.8189392000204,1000,131.8189392000204,1000,1000,1000,1000,1,num_2,0.7237102000508457,,24,6,2026-03-04_15h39.41.295,2026A_exp2,2022.2.4,59.98868611748491,
1000,1,4.9,3.7,1,0,29,29,46,,,,,132.5695451000356,133.2202319999924,133.2202319999924,133.70482550002635,315,45,133.70482550002635,133.70482550002635,133.70482550002635,133.70482550002635,133.70482550002635,133.70482550002635,133.70482550002635,133.70482550002635,133.70482550002635,134.0709993999917,134.0709993999917,134.0709993999917,134.0709993999917,134.0709993999917,134.0709993999917,134.0709993999917,134.0709993999917,134.0709993999917,1,2,"[0.0007997999782674015, 0.05032679997384548]","[0.03351239999756217, 0.3669508999446407]",134.0709993999917,134.27130259998376,1000,134.27130259998376,1000,1000,1000,1000,0,num_3,0.6239649999770336,,24,6,2026-03-04_15h39.41.295,2026A_exp2,2022.2.4,59.98868611748491,
1,0,6.1,0.0,0,0,30,30,58,,,,,134.92210610001348,135.57251550001092,135.57251550001092,136.0571080999798,45,315,136.0571080999798,136.0571080999798,136.0571080999798,136.0571080999798,136.0571080999798,136.0571080999798,136.0571080999798,136.0571080999798,136.0571080999798,136.423541199998,136.423541199998,136.423541199998,136.423541199998,136.423541199998,136.423541199998,136.423541199998,136.423541199998,136.423541199998,0,1,[0.0007299999706447124],[0.3672977999667637],136.423541199998,136.62404700001935,6.1,136.62404700001935,1,6.1,1,1,1000,num_4,0.742871800030116,,24,6,2026-03-04_15h39.41.295,2026A_exp2,2022.2.4,59.98868611748491,
1000,1,6.1,0.0,1,0,31,31,71,,,,,137.39119569998002,138.02504279999994,138.02504279999994,138.5261644999846,45,45,138.5261644999846,138.5261644999846,138.5261644999846,138.5261644999846,138.5261644999846,138.5261644999846,138.5261644999846,138.5261644999846,138.5261644999846,138.89267690002453,138.89267690002453,138.89267690002453,138.89267690002453,138.89267690002453,138.89267690002453,138.89267690002453,138.89267690002453,138.89267690002453,0,1,[0.0007572000031359494],[0.36723780003376305],138.89267690002453,139.09297679999145,1000,139.09297679999145,1000,1000,1000,1000,0,num_3,1.1536771000246517,,24,6,2026-03-04_15h39.41.295,2026A_exp2,2022.2.4,59.98868611748491,
1,0,4.9,0.0,0,0,32,32,57,,,,,140.27736479998566,140.91146879998269,140.91146879998269,141.41286350000883,45,45,141.41286350000883,141.41286350000883,141.41286350000883,141.41286350000883,141.41286350000883,141.41286350000883,141.41286350000883,141.41286350000883,141.41286350000883,141.77879190002568,141.77879190002568,141.77879190002568,141.77879190002568,141.77879190002568,141.77879190002568,141.77879190002568,141.77879190002568,141.77879190002568,0,1,[0.0008289999677799642],[0.3674758999841288],141.77879190002568,141.97921800002223,4.9,141.97921800002223,1,4.9,1,1,1000,num_4,0.6351735999924131,,24,6,2026-03-04_15h39.41.295,2026A_exp2,2022.2.4,59.98868611748491,
1,0,0.0,6.1,1,0,33,33,39,,,,,142.64636880002217,143.28023209999083,143.28023209999083,143.78129730001092,315,315,143.78129730001092,143.78129730001092,143.78129730001092,143.78129730001092,143.78129730001092,143.78129730001092,143.78129730001092,143.78129730001092,143.78129730001092,144.14776750002056,144.14776750002056,144.14776750002056,144.14776750002056,144.14776750002056,144.14776750002056,144.14776750002056,144.14776750002056,144.14776750002056,0,1,[0.000721599964890629],[0.3671780999866314],144.14776750002056,144.34798239998054,6.1,144.34798239998054,1,6.1,1,1,1000,num_4,0.9232834000140429,,24,6,2026-03-04_15h39.41.295,2026A_exp2,2022.2.4,59.98868611748491,
1,0,3.7,0.0,1,0,34,34,73,,,,,145.29928470001323,145.9330476000323,145.9330476000323,146.43396560003748,315,45,146.43396560003748,146.43396560003748,146.43396560003748,146.43396560003748,146.43396560003748,146.43396560003748,146.43396560003748,146.43396560003748,146.43396560003748,146.8003669999889,146.8003669999889,146.8003669999889,146.8003669999889,146.8003669999889,146.8003669999889,146.8003669999889,146.8003669999889,146.8003669999889,12,5,"[0.0007540999795310199, 0.08395629998994991, 0.2170423999777995, 0.2502775999600999, 0.3505411999649368]","[0.01730219996534288, 0.11733599996659905, 0.23377890000119805, 0.33405219996348023, 0.36719479999737814]",146.8003669999889,147.00066060002428,0.0,147.00066060002428,0,0.0,0,1,1000,num_1,1.6944147999747656,,24,6,2026-03-04_15h39.41.295,2026A_exp2,2022.2.4,59.98868611748491,
0,0,4.9,6.1,0,0,35,35,1,,,,,148.7192786000087,149.36976670002332,149.36976670002332,149.8541370999883,45,315,149.8541370999883,149.8541370999883,149.8541370999883,149.8541370999883,149.8541370999883,149.8541370999883,149.8541370999883,149.8541370999883,149.8541370999883,150.22055120003643,150.22055120003643,150.22055120003643,150.22055120003643,150.22055120003643,150.22055120003643,150.22055120003643,150.22055120003643,150.22055120003643,19,2,"[0.3006224000127986, 0.3348348999861628]","[0.317809300031513, 0.36699740000767633]",150.22055120003643,150.4210052000126,6.1,150.4210052000126,1,6.1,1,1,1000,num_4,0.6100742999697104,,24,6,2026-03-04_15h39.41.295,2026A_exp2,2022.2.4,59.98868611748491,
1,0,0.0,0.0,1,0,36,36,77,,,,,151.05479999998352,151.68869540002197,151.68869540002197,152.18986510002287,315,45,152.18986510002287,152.18986510002287,152.18986510002287,152.18986510002287,152.18986510002287,152.18986510002287,152.18986510002287,152.18986510002287,152.18986510002287,152.5562540999963,152.5562540999963,152.5562540999963,152.5562540999963,152.5562540999963,152.5562540999963,152.5562540999963,152.5562540999963,152.5562540999963,0,1,[0.0007619999814778566],[0.36650150001514703],152.5562540999963,152.75692419998813,0.0,152.75692419998813,1,0.0,0,0,1000,num_4,1.0578249000245705,,24,6,2026-03-04_15h39.41.295,2026A_exp2,2022.2.4,59.98868611748491,
1000,1,0.0,0.0,1,0,37,37,78,,,,,153.84129459998803,154.47482450003736,154.47482450003736,154.97593539999798,45,45,154.97593539999798,154.97593539999798,154.97593539999798,154.97593539999798,154.97593539999798,154.97593539999798,154.97593539999798,154.97593539999798,154.97593539999798,155.3424432000029,155.3424432000029,155.3424432000029,155.3424432000029,155.3424432000029,155.3424432000029,155.3424432000029,155.3424432000029,155.3424432000029,0,1,[0.0007321999873965979],[0.3674889000249095],155.3424432000029,155.5425377000356,1000,155.5425377000356,1000,1000,1000,1000,1,num_2,0.8561650000046939,,24,6,2026-03-04_15h39.41.295,2026A_exp2,2022.2.4,59.98868611748491,
1000,1,0.0,3.7,0,0,38,38,18,,,,,156.42717310000444,157.0774068000028,157.0774068000028,157.57849899999565,45,45,157.57849899999565,157.57849899999565,157.57849899999565,157.57849899999565,157.57849899999565,157.57849899999565,157.57849899999565,157.57849899999565,157.57849899999565,157.94501760002458,157.94501760002458,157.94501760002458,157.94501760002458,157.94501760002458,157.94501760002458,157.94501760002458,157.94501760002458,157.94501760002458,16,6,"[0.0007279000128619373, 0.04999229998793453, 0.18433829996502027, 0.3001823999802582, 0.3339473999803886, 0.36718880000989884]","[0.017240700020920485, 0.08341809996636584, 0.20071220002137125, 0.3172418000176549, 0.35064540000166744, 0.36719219997758046]",157.94501760002458,,1000,158.14684390003094,1000,1000,1000,1000,1,num_2,1.0924831999582238,,24,6,2026-03-04_15h39.41.295,2026A_exp2,2022.2.4,59.98868611748491,
1,0,0.0,4.9,1,0,39,39,2,,,,,159.2630868999986,159.9136299000238,159.9136299000238,160.39807540003676,45,45,160.39807540003676,160.39807540003676,160.39807540003676,160.39807540003676,160.39807540003676,160.39807540003676,160.39807540003676,160.39807540003676,160.39807540003676,160.76451760000782,160.76451760000782,160.76451760000782,160.76451760000782,160.76451760000782,160.76451760000782,160.76451760000782,160.76451760000782,160.76451760000782,0,1,[0.0007525999681092799],[0.3675691999960691],160.76451760000782,160.96477560000494,4.9,160.96477560000494,1,4.9,1,1,1000,num_4,0.4977456000051461,,24,6,2026-03-04_15h39.41.295,2026A_exp2,2022.2.4,59.98868611748491,
1,0,0.0,0.0,1,0,40,40,24,,,,,161.48207329999423,162.11658919998445,162.11658919998445,162.6168447000091,315,315,162.6168447000091,162.6168447000091,162.6168447000091,162.6168447000091,162.6168447000091,162.6168447000091,162.6168447000091,162.6168447000091,162.6168447000091,162.98329599999124,162.98329599999124,162.98329599999124,162.98329599999124,162.98329599999124,162.98329599999124,162.98329599999124,162.98329599999124,162.98329599999124,2,2,"[0.0007748999632894993, 0.35047759994631633]","[0.3168216999620199, 0.3672487999428995]",162.98329599999124,163.18353859998751,0.0,163.18353859998751,1,0.0,0,0,1000,num_4,0.6077835999894887,,24,6,2026-03-04_15h39.41.295,2026A_exp2,2022.2.4,59.98868611748491,
1,0,0.0,6.1,1,0,41,41,17,,,,,163.81804230000125,164.46804669999983,164.46804669999983,164.95251430000644,45,45,164.95251430000644,164.95251430000644,164.95251430000644,164.95251430000644,164.95251430000644,164.95251430000644,164.95251430000644,164.95251430000644,164.95251430000644,165.31896459998097,165.31896459998097,165.31896459998097,165.31896459998097,165.31896459998097,165.31896459998097,165.31896459998097,165.31896459998097,165.31896459998097,1,2,"[0.0008502999553456903, 0.23381539998808876]","[0.21741909999400377, 0.3676491999649443]",165.31896459998097,165.5195596999838,6.1,165.5195596999838,1,6.1,1,1,1000,num_4,0.8714894000440836,,24,6,2026-03-04_15h39.41.295,2026A_exp2,2022.2.4,59.98868611748491,
1000,1,4.9,4.9,0,0,42,42,36,,,,,166.41985910001677,167.05380719999084,167.05380719999084,167.55557199998293,45,45,167.55557199998293,167.55557199998293,167.55557199998293,167.55557199998293,167.55557199998293,167.55557199998293,167.55557199998293,167.55557199998293,167.55557199998293,167.92151060001925,167.92151060001925,167.92151060001925,167.92151060001925,167.92151060001925,167.92151060001925,167.92151060001925,167.92151060001925,167.92151060001925,0,1,[0.0008000999805517495],[0.36704979999922216],167.92151060001925,168.12186429998837,1000,168.12186429998837,1000,1000,1000,1000,0,num_3,1.1333725999575108,,24,6,2026-03-04_15h39.41.295,2026A_exp2,2022.2.4,59.98868611748491,
1000,1,0.0,6.1,1,0,43,43,40,,,,,169.27305600000545,169.9235601000255,169.9235601000255,170.4080313000013,45,315,170.4080313000013,170.4080313000013,170.4080313000013,170.4080313000013,170.4080313000013,170.4080313000013,170.4080313000013,170.4080313000013,170.4080313000013,170.77469869999913,170.77469869999913,170.77469869999913,170.77469869999913,170.77469869999913,170.77469869999913,170.77469869999913,170.77469869999913,170.77469869999913,0,1,[0.0007971000159159303],[0.3672311999835074],170.77469869999913,170.97476389998337,1000,170.97476389998337,1000,1000,1000,1000,1,num_2,1.1841833999496885,,24,6,2026-03-04_15h39.41.295,2026A_exp2,2022.2.4,59.98868611748491,
1,0,0.0,0.0,0,0,44,44,64,,,,,172.17601300001843,172.8264269999927,172.8264269999927,173.32754289999139,315,315,173.32754289999139,173.32754289999139,173.32754289999139,173.32754289999139,173.32754289999139,173.32754289999139,173.32754289999139,173.32754289999139,173.32754289999139,173.6771142000216,173.6771142000216,173.6771142000216,173.6771142000216,173.6771142000216,173.6771142000216,173.6771142000216,173.6771142000216,173.6771142000216,0,1,[0.0009749000309966505],[0.350361300050281],173.6771142000216,173.8775755999959,0.0,173.8775755999959,0,0.0,0,1,1000,num_1,0.8734784999978729,,24,6,2026-03-04_15h39.41.295,2026A_exp2,2022.2.4,59.98868611748491,
1,0,6.1,0.0,1,0,45,45,41,,,,,174.77841919998173,175.41254580003442,175.41254580003442,175.913873100013,315,45,175.913873100013,175.913873100013,175.913873100013,175.913873100013,175.913873100013,175.913873100013,175.913873100013,175.913873100013,175.913873100013,176.28009810001822,176.28009810001822,176.28009810001822,176.28009810001822,176.28009810001822,176.28009810001822,176.28009810001822,176.28009810001822,176.28009810001822,2,2,"[0.0010716000106185675, 0.35021589999087155]","[0.33336730004521087, 0.36688809999031946]",176.28009810001822,176.4804695000057,0.0,176.4804695000057,0,0.0,0,1,1000,num_1,0.9984371000318788,,24,6,2026-03-04_15h39.41.295,2026A_exp2,2022.2.4,59.98868611748491,
1,0,0.0,0.0,1,0,46,46,56,,,,,177.49787540000398,178.13169730000664,178.13169730000664,178.6327768000192,315,45,178.6327768000192,178.6327768000192,178.6327768000192,178.6327768000192,178.6327768000192,178.6327768000192,178.6327768000192,178.6327768000192,178.6327768000192,178.99945609999122,178.99945609999122,178.99945609999122,178.99945609999122,178.99945609999122,178.99945609999122,178.99945609999122,178.99945609999122,178.99945609999122,0,1,[0.0008023999980650842],[0.36758419999387115],178.99945609999122,179.1998330000206,0.0,179.1998330000206,0,0.0,0,1,1000,num_1,1.0310225000139326,,24,6,2026-03-04_15h39.41.295,2026A_exp2,2022.2.4,59.98868611748491,
1000,1,4.9,6.1,1,0,47,47,4,,,,,180.2505428000004,180.90123260003747,180.90123260003747,181.38572530000238,45,45,181.38572530000238,181.38572530000238,181.38572530000238,181.38572530000238,181.38572530000238,181.38572530000238,181.38572530000238,181.38572530000238,181.38572530000238,181.75194829999236,181.75194829999236,181.75194829999236,181.75194829999236,181.75194829999236,181.75194829999236,181.75194829999236,181.75194829999236,181.75194829999236,4,4,"[0.017858600011095405, 0.18361830001231283, 0.23380009998800233, 0.3502594000310637]","[0.16703599999891594, 0.2171045999857597, 0.3337078000186011, 0.3671703000436537]",181.75194829999236,181.95262729999376,1000,181.95262729999376,1000,1000,1000,1000,0,num_3,1.2786408999818377,,24,6,2026-03-04_15h39.41.295,2026A_exp2,2022.2.4,59.98868611748491,
1,0,3.7,0.0,1,0,48,48,55,,,,,183.25382330000866,183.90446829999564,183.90446829999564,184.38862049998716,45,45,184.38862049998716,184.38862049998716,184.38862049998716,184.38862049998716,184.38862049998716,184.38862049998716,184.38862049998716,184.38862049998716,184.38862049998716,184.75492969999323,184.75492969999323,184.75492969999323,184.75492969999323,184.75492969999323,184.75492969999323,184.75492969999323,184.75492969999323,184.75492969999323,0,1,[0.0011915999930351973],[0.36695910000707954],184.75492969999323,184.95553099998506,0.0,184.95553099998506,0,0.0,0,1,1000,num_1,0.8522894000052474,,24,6,2026-03-04_15h39.41.295,2026A_exp2,2022.2.4,59.98868611748491,
1,0,0.0,4.9,1,0,49,49,44,,,,,185.83952590002446,186.4737685000291,186.4737685000291,186.9746373000089,45,45,186.9746373000089,186.9746373000089,186.9746373000089,186.9746373000089,186.9746373000089,186.9746373000089,186.9746373000089,186.9746373000089,186.9746373000089,187.3411309000221,187.3411309000221,187.3411309000221,187.3411309000221,187.3411309000221,187.3411309000221,187.3411309000221,187.3411309000221,187.3411309000221,0,1,[0.0007722000009380281],[0.36631409998517483],187.3411309000221,187.54107320000185,4.9,187.54107320000185,1,4.9,1,1,1000,num_4,0.5378450999851339,,24,6,2026-03-04_15h39.41.295,2026A_exp2,2022.2.4,59.98868611748491,
1,0,6.1,4.9,1,0,50,50,38,,,,,188.10852890001843,188.75917969999136,188.75917969999136,189.2436053000274,45,45,189.2436053000274,189.2436053000274,189.2436053000274,189.2436053000274,189.2436053000274,189.2436053000274,189.2436053000274,189.2436053000274,189.2436053000274,189.61015890003182,189.61015890003182,189.61015890003182,189.61015890003182,189.61015890003182,189.61015890003182,189.61015890003182,189.61015890003182,189.61015890003182,0,1,[0.0009537000441923738],[0.3673368000308983],189.61015890003182,189.81031640002038,4.9,189.81031640002038,1,4.9,1,1,1000,num_4,0.78818410000531,,24,6,2026-03-04_15h39.41.295,2026A_exp2,2022.2.4,59.98868611748491,
1,0,0.0,0.0,1,0,51,51,66,,,,,190.6275081000058,191.26170259999344,191.26170259999344,191.76287380000576,315,45,191.76287380000576,191.76287380000576,191.76287380000576,191.76287380000576,191.76287380000576,191.76287380000576,191.76287380000576,191.76287380000576,191.76287380000576,192.12928410002496,192.12928410002496,192.12928410002496,192.12928410002496,192.12928410002496,192.12928410002496,192.12928410002496,192.12928410002496,192.12928410002496,4,4,"[0.0008035000064410269, 0.0336325999815017, 0.20090860000345856, 0.3173570999642834]","[0.017630099959205836, 0.18379879998974502, 0.28412119997665286, 0.3673629999975674]",192.12928410002496,192.3293624999933,0.0,192.3293624999933,1,0.0,0,0,1000,num_4,0.5979821000364609,,24,6,2026-03-04_15h39.41.295,2026A_exp2,2022.2.4,59.98868611748491,
1000,1,0.0,3.7,1,0,52,52,86,,,,,192.947607900016,193.59735470003216,193.59735470003216,194.08208620001096,45,45,194.08208620001096,194.08208620001096,194.08208620001096,194.08208620001096,194.08208620001096,194.08208620001096,194.08208620001096,194.08208620001096,194.08208620001096,194.44825479999417,194.44825479999417,194.44825479999417,194.44825479999417,194.44825479999417,194.44825479999417,194.44825479999417,194.44825479999417,194.44825479999417,5,6,"[0.0007509000133723021, 0.08324080001330003, 0.16666049999184906, 0.20062509999843314, 0.23335059999953955, 0.3003997000050731]","[0.0666332000400871, 0.15007249999325722, 0.1834173999959603, 0.2167011999990791, 0.2835872000432573, 0.3670788000454195]",194.44825479999417,194.64823849999812,1000,194.6647921000258,1000,1000,1000,1000,1,num_2,0.7658754999865778,,24,6,2026-03-04_15h39.41.295,2026A_exp2,2022.2.4,59.98868611748491,
0,0,3.7,0.0,1,0,53,53,0,,,,,195.44957019999856,196.09991019999143,196.09991019999143,196.5847809999832,315,45,196.5847809999832,196.5847809999832,196.5847809999832,196.5847809999832,196.5847809999832,196.5847809999832,196.5847809999832,196.5847809999832,196.5847809999832,196.95070250000572,196.95070250000572,196.95070250000572,196.95070250000572,196.95070250000572,196.95070250000572,196.95070250000572,196.95070250000572,196.95070250000572,1,2,"[0.0008593000238761306, 0.21707239997340366]","[0.20007040002383292, 0.36679040000308305]",196.95070250000572,197.15095270000165,3.7,197.15095270000165,1,3.7,1,1,1000,num_4,1.4235621000407264,,24,6,2026-03-04_15h39.41.295,2026A_exp2,2022.2.4,59.98868611748491,
1000,1,0.0,0.0,1,0,54,54,80,,,,,198.6021635000361,199.23631529998966,199.23631529998966,199.7372650000034,45,315,199.7372650000034,199.7372650000034,199.7372650000034,199.7372650000034,199.7372650000034,199.7372650000034,199.7372650000034,199.7372650000034,199.7372650000034,200.10369279998122,200.10369279998122,200.10369279998122,200.10369279998122,200.10369279998122,200.10369279998122,200.10369279998122,200.10369279998122,200.10369279998122,6,6,"[0.0007153000333346426, 0.06726729997899383, 0.13384490000316873, 0.1673523000208661, 0.25026250001974404, 0.33375260001048446]","[0.05030350002925843, 0.1171924999798648, 0.150535500026308, 0.23380170000018552, 0.31697250000433996, 0.3673869000049308]",200.10369279998122,200.30420130002312,1000,200.30420130002312,1000,1000,1000,1000,1,num_2,1.7188000999740325,,24,6,2026-03-04_15h39.41.295,2026A_exp2,2022.2.4,59.98868611748491,
1000,1,0.0,0.0,1,0,55,55,27,,,,,202.03902399999788,202.67299560003448,202.67299560003448,203.174357699987,315,45,203.174357699987,203.174357699987,203.174357699987,203.174357699987,203.174357699987,203.174357699987,203.174357699987,203.174357699987,203.174357699987,203.5407520000008,203.5407520000008,203.5407520000008,203.5407520000008,203.5407520000008,203.5407520000008,203.5407520000008,203.5407520000008,203.5407520000008,1,1,[0.0009160999907180667],[0.36686259997077286],203.5407520000008,203.74129959999118,1000,203.74129959999118,1000,1000,1000,1000,1,num_2,1.673303899995517,,24,6,2026-03-04_15h39.41.295,2026A_exp2,2022.2.4,59.98868611748491,
1000,1,3.7,0.0,1,0,56,56,54,,,,,205.44255340000382,206.09314970002742,206.09314970002742,206.57748350000475,45,45,206.57748350000475,206.57748350000475,206.57748350000475,206.57748350000475,206.57748350000475,206.57748350000475,206.57748350000475,206.57748350000475,206.57748350000475,206.94378139998298,206.94378139998298,206.94378139998298,206.94378139998298,206.94378139998298,206.94378139998298,206.94378139998298,206.94378139998298,206.94378139998298,0,1,[0.0009319999953731894],[0.3669672000105493],206.94378139998298,207.14479520003079,1000,207.14479520003079,1000,1000,1000,1000,0,num_3,0.7583385999896564,,24,6,2026-03-04_15h39.41.295,2026A_exp2,2022.2.4,59.98868611748491,
1000,1,0.0,0.0,1,0,57,57,63,,,,,207.9283680000226,208.5622238999931,208.5622238999931,209.0631005000323,315,315,209.0631005000323,209.0631005000323,209.0631005000323,209.0631005000323,209.0631005000323,209.0631005000323,209.0631005000323,209.0631005000323,209.0631005000323,209.42980979999993,209.42980979999993,209.42980979999993,209.42980979999993,209.42980979999993,209.42980979999993,209.42980979999993,209.42980979999993,209.42980979999993,0,1,[0.0007666999590583146],[0.3674433999694884],209.42980979999993,209.6301581999869,1000,209.6301581999869,1000,1000,1000,1000,1,num_2,1.0251401999848895,,24,6,2026-03-04_15h39.41.295,2026A_exp2,2022.2.4,59.98868611748491,
1000,1,6.1,0.0,1,0,58,58,61,,,,,210.6808608000283,211.33157480001682,211.33157480001682,211.8158748000278,45,315,211.8158748000278,211.8158748000278,211.8158748000278,211.8158748000278,211.8158748000278,211.8158748000278,211.8158748000278,211.8158748000278,211.8158748000278,212.18253639998147,212.18253639998147,212.18253639998147,212.18253639998147,212.18253639998147,212.18253639998147,212.18253639998147,212.18253639998147,212.18253639998147,21,2,"[0.05025480000767857, 0.08374380000168458]","[0.06729059998178855, 0.10036659997422248]",212.18253639998147,212.38285170000745,1000,212.38285170000745,1000,1000,1000,1000,0,num_3,0.6075705999974161,,24,6,2026-03-04_15h39.41.295,2026A_exp2,2022.2.4,59.98868611748491,
1,0,4.9,0.0,1,0,59,59,52,,,,,213.0171202000347,213.66769000003114,213.66769000003114,214.1518090000027,45,45,214.1518090000027,214.1518090000027,214.1518090000027,214.1518090000027,214.1518090000027,214.1518090000027,214.1518090000027,214.1518090000027,214.1518090000027,214.5184335000231,214.5184335000231,214.5184335000231,214.5184335000231,214.5184335000231,214.5184335000231,214.5184335000231,214.5184335000231,214.5184335000231,2,3,"[0.001138899999205023, 0.06620790000306442, 0.233357299992349]","[0.04976219998206943, 0.21647280000615865, 0.366498599993065]",214.5184335000231,214.71827080001822,0.0,214.71827080001822,0,0.0,0,1,1000,num_1,1.7048151000053622,,24,6,2026-03-04_15h39.41.295,2026A_exp2,2022.2.4,59.98868611748491,
0,0,4.9,3.7,1,0,60,60,13,,,,,216.45346749998862,217.1041420000256,217.1041420000256,217.58900620002532,315,315,217.58900620002532,217.58900620002532,217.58900620002532,217.58900620002532,217.58900620002532,217.58900620002532,217.58900620002532,217.58900620002532,217.58900620002532,217.95496240002103,217.95496240002103,217.95496240002103,217.95496240002103,217.95496240002103,217.95496240002103,217.95496240002103,217.95496240002103,217.95496240002103,0,1,[0.0007354000117629766],[0.3667873000376858],217.95496240002103,218.15550090000033,4.9,218.15550090000033,1,4.9,1,1,1000,num_4,0.9395891000167467,,24,6,2026-03-04_15h39.41.295,2026A_exp2,2022.2.4,59.98868611748491,
1000,1,4.9,4.9,1,0,61,61,67,,,,,219.12312519998522,219.7735660999897,219.7735660999897,220.2581159999827,315,45,220.2581159999827,220.2581159999827,220.2581159999827,220.2581159999827,220.2581159999827,220.2581159999827,220.2581159999827,220.2581159999827,220.2581159999827,220.62483859999338,220.62483859999338,220.62483859999338,220.62483859999338,220.62483859999338,220.62483859999338,220.62483859999338,220.62483859999338,220.62483859999338,0,1,[0.0007947999984025955],[0.36729530000593513],220.62483859999338,220.82477649999782,1000,220.82477649999782,1000,1000,1000,1000,0,num_3,0.845916300022509,,24,6,2026-03-04_15h39.41.295,2026A_exp2,2022.2.4,59.98868611748491,
1000,1,4.9,6.1,0,0,62,62,59,,,,,221.6921078999876,222.3430671999813,222.3430671999813,222.82736840000143,45,315,222.82736840000143,222.82736840000143,222.82736840000143,222.82736840000143,222.82736840000143,222.82736840000143,222.82736840000143,222.82736840000143,222.82736840000143,223.19365470000776,223.19365470000776,223.19365470000776,223.19365470000776,223.19365470000776,223.19365470000776,223.19365470000776,223.19365470000776,223.19365470000776,2,2,"[0.0007386000361293554, 0.21734770003240556]","[0.20018630003323779, 0.36706000001868233]",223.19365470000776,223.39379900001222,1000,223.39379900001222,1000,1000,1000,1000,1,num_2,1.1650866999989375,,24,6,2026-03-04_15h39.41.295,2026A_exp2,2022.2.4,59.98868611748491,
1000,1,4.9,3.7,0,0,63,63,26,,,,,224.57873890001792,225.22895349998726,225.22895349998726,225.7298557999893,45,45,225.7298557999893,225.7298557999893,225.7298557999893,225.7298557999893,225.7298557999893,225.7298557999893,225.7298557999893,225.7298557999893,225.7298557999893,226.07984210003633,226.07984210003633,226.07984210003633,226.07984210003633,226.07984210003633,226.07984210003633,226.07984210003633,226.07984210003633,226.07984210003633,0,1,[0.0007229000329971313],[0.3510241000331007],226.07984210003633,226.2800896000117,1000,226.2800896000117,1000,1000,1000,1000,1,num_2,0.9185003999737091,,24,6,2026-03-04_15h39.41.295,2026A_exp2,2022.2.4,59.98868611748491,
1,0,0.0,0.0,1,0,64,64,68,,,,,227.2144391000038,227.8646402999875,227.8646402999875,228.35126530000707,315,315,228.35126530000707,228.35126530000707,228.35126530000707,228.35126530000707,228.35126530000707,228.35126530000707,228.35126530000707,228.35126530000707,228.35126530000707,228.71625520003727,228.71625520003727,228.71625520003727,228.71625520003727,228.71625520003727,228.71625520003727,228.71625520003727,228.71625520003727,228.71625520003727,23,0,,,228.71625520003727,228.91624749999028,0.0,228.91624749999028,1,0.0,0,0,1000,num_4,0.6586908999597654,,24,6,2026-03-04_15h39.41.295,2026A_exp2,2022.2.4,59.98868611748491,
1,0,4.9,6.1,1,0,65,65,62,,,,,229.60084249998908,230.2339264000184,230.2339264000184,230.73535760003142,315,45,230.73535760003142,230.73535760003142,230.73535760003142,230.73535760003142,230.73535760003142,230.73535760003142,230.73535760003142,230.73535760003142,230.73535760003142,231.10127749998355,231.10127749998355,231.10127749998355,231.10127749998355,231.10127749998355,231.10127749998355,231.10127749998355,231.10127749998355,231.10127749998355,2,2,"[0.01786369999172166, 0.3664347999729216]","[0.3496783999726176, 0.366437999997288]",231.10127749998355,231.30141810001805,6.1,231.30141810001805,1,6.1,1,1,1000,num_4,0.5457869999809191,,24,6,2026-03-04_15h39.41.295,2026A_exp2,2022.2.4,59.98868611748491,
0,0,3.7,0.0,0,0,66,66,16,,,,,231.8688581000315,232.51952810003422,232.51952810003422,233.02096679998795,315,45,233.02096679998795,233.02096679998795,233.02096679998795,233.02096679998795,233.02096679998795,233.02096679998795,233.02096679998795,233.02096679998795,233.02096679998795,233.3706363000092,233.3706363000092,233.3706363000092,233.3706363000092,233.3706363000092,233.3706363000092,233.3706363000092,233.3706363000092,233.3706363000092,0,1,[0.0007366000209003687],[0.3511146000237204],233.3706363000092,233.57118660002016,0.0,233.57118660002016,1,0.0,0,0,1000,num_4,1.47573539998848,,24,6,2026-03-04_15h39.41.295,2026A_exp2,2022.2.4,59.98868611748491,
1000,1,0.0,4.9,1,0,67,67,51,,,,,235.07269270002143,235.70635950000724,235.70635950000724,236.20739420002792,45,45,236.20739420002792,236.20739420002792,236.20739420002792,236.20739420002792,236.20739420002792,236.20739420002792,236.20739420002792,236.20739420002792,236.20739420002792,236.5737404000247,236.5737404000247,236.5737404000247,236.5737404000247,236.5737404000247,236.5737404000247,236.5737404000247,236.5737404000247,236.5737404000247,13,3,"[0.0007294000242836773, 0.16711779998149723, 0.2500601999927312]","[0.017249700031243265, 0.18383549997815862, 0.3669821000075899]",236.5737404000247,236.77474490000168,1000,236.77474490000168,1000,1000,1000,1000,1,num_2,0.7356572999851778,,24,6,2026-03-04_15h39.41.295,2026A_exp2,2022.2.4,59.98868611748491,
1,0,6.1,0.0,1,0,68,68,23,,,,,237.5419768000138,238.19226620002883,238.19226620002883,238.67643390002195,45,315,238.67643390002195,238.67643390002195,238.67643390002195,238.67643390002195,238.67643390002195,238.67643390002195,238.67643390002195,238.67643390002195,238.67643390002195,239.04262219998054,239.04262219998054,239.04262219998054,239.04262219998054,239.04262219998054,239.04262219998054,239.04262219998054,239.04262219998054,239.04262219998054,23,0,,,239.04262219998054,239.2429678000044,0.0,239.2429678000044,0,0.0,0,1,1000,num_1,1.0761473000166006,,24,6,2026-03-04_15h39.41.295,2026A_exp2,2022.2.4,59.98868611748491,
1,0,6.1,3.7,1,0,69,69,45,,,,,240.34415850002551,240.97796410002047,240.97796410002047,241.47904140001629,315,45,241.47904140001629,241.47904140001629,241.47904140001629,241.47904140001629,241.47904140001629,241.47904140001629,241.47904140001629,241.47904140001629,241.47904140001629,241.8457652000361,241.8457652000361,241.8457652000361,241.8457652000361,241.8457652000361,241.8457652000361,241.8457652000361,241.8457652000361,241.8457652000361,6,3,"[0.0174193000420928, 0.1003645000164397, 0.15129770000930876]","[0.033821200020611286, 0.1341400000383146, 0.36735010001575574]",241.8457652000361,242.04563860001508,3.7,242.04563860001508,1,3.7,1,1,1000,num_4,1.352953699999489,,24,6,2026-03-04_15h39.41.295,2026A_exp2,2022.2.4,59.98868611748491,
1,0,0.0,3.7,0,0,70,70,34,,,,,243.43059469998116,244.0648978999816,244.0648978999816,244.56577180000022,315,45,244.56577180000022,244.56577180000022,244.56577180000022,244.56577180000022,244.56577180000022,244.56577180000022,244.56577180000022,244.56577180000022,244.56577180000022,244.9320129000116,244.9320129000116,244.9320129000116,244.9320129000116,244.9320129000116,244.9320129000116,244.9320129000116,244.9320129000116,244.9320129000116,14,2,"[0.0007151999743655324, 0.15050069999415427]","[0.13352029997622594, 0.16725039994344115]",244.9320129000116,245.13221359997988,0.0,245.13221359997988,1,0.0,0,0,1000,num_4,0.6668233999516815,,24,6,2026-03-04_15h39.41.295,2026A_exp2,2022.2.4,59.98868611748491,
1,0,3.7,6.1,0,0,71,71,74,,,,,245.8164059999981,246.45014610001817,246.45014610001817,246.95137620001333,315,45,246.95137620001333,246.95137620001333,246.95137620001333,246.95137620001333,246.95137620001333,246.95137620001333,246.95137620001333,246.95137620001333,246.95137620001333,247.31772230000934,247.31772230000934,247.31772230000934,247.31772230000934,247.31772230000934,247.31772230000934,247.31772230000934,247.31772230000934,247.31772230000934,19,3,"[0.0007999999797903001, 0.05017920001409948, 0.11707550002029166]","[0.01742789999116212, 0.06768899998860434, 0.15033189998939633]",247.31772230000934,247.51765739999246,3.7,247.51765739999246,1,3.7,1,1,1000,num_4,0.5533109999960288,,24,6,2026-03-04_15h39.41.295,2026A_exp2,2022.2.4,59.98868611748491,
0,0,0.0,6.1,1,0,72,72,84,,,,,248.1019668999943,248.7523816000321,248.7523816000321,249.23685699998168,45,315,249.23685699998168,249.23685699998168,249.23685699998168,249.23685699998168,249.23685699998168,249.23685699998168,249.23685699998168,249.23685699998168,249.23685699998168,249.60327200003667,249.60327200003667,249.60327200003667,249.60327200003667,249.60327200003667,249.60327200003667,249.60327200003667,249.60327200003667,249.60327200003667,16,3,"[0.16704490000847727, 0.3169569000019692, 0.36717680003494024]","[0.2503815999953076, 0.33374520001234487, 0.3671801000018604]",249.60327200003667,249.80362289998448,0.0,249.80362289998448,1,0.0,0,0,1000,num_4,1.131619599997066,,24,6,2026-03-04_15h39.41.295,2026A_exp2,2022.2.4,59.98868611748491,
1,0,0.0,0.0,0,0,73,73,31,,,,,250.95496930001536,251.6055351999821,251.6055351999821,252.08986140001798,45,45,252.08986140001798,252.08986140001798,252.08986140001798,252.08986140001798,252.08986140001798,252.08986140001798,252.08986140001798,252.08986140001798,252.08986140001798,252.45637269999133,252.45637269999133,252.45637269999133,252.45637269999133,252.45637269999133,252.45637269999133,252.45637269999133,252.45637269999133,252.45637269999133,0,1,[0.0007770000374875963],[0.36721890000626445],252.45637269999133,252.65657950000605,0.0,252.65657950000605,0,0.0,0,1,1000,num_1,1.0457506999955513,,24,6,2026-03-04_15h39.41.295,2026A_exp2,2022.2.4,59.98868611748491,
1,0,6.1,0.0,0,0,74,74,22,,,,,253.72425670002121,254.35828530002618,254.35828530002618,254.85919540002942,315,315,254.85919540002942,254.85919540002942,254.85919540002942,254.85919540002942,254.85919540002942,254.85919540002942,254.85919540002942,254.85919540002942,254.85919540002942,255.22602220001863,255.22602220001863,255.22602220001863,255.22602220001863,255.22602220001863,255.22602220001863,255.22602220001863,255.22602220001863,255.22602220001863,0,1,[0.0009168999968096614],[0.36739130003843457],255.22602220001863,255.42582040000707,6.1,255.42582040000707,1,6.1,1,1,1000,num_4,0.5326029999996535,,24,6,2026-03-04_15h39.41.295,2026A_exp2,2022.2.4,59.98868611748491,
1,0,6.1,0.0,1,0,75,75,29,,,,,255.97639939998044,256.62733950000256,256.62733950000256,257.1118091000244,315,315,257.1118091000244,257.1118091000244,257.1118091000244,257.1118091000244,257.1118091000244,257.1118091000244,257.1118091000244,257.1118091000244,257.1118091000244,257.47787880001124,257.47787880001124,257.47787880001124,257.47787880001124,257.47787880001124,257.47787880001124,257.47787880001124,257.47787880001124,257.47787880001124,1,2,"[0.0007565999985672534, 0.13354189996607602]","[0.11631169996690005, 0.3670552999828942]",257.47787880001124,257.67833289998816,0.0,257.67833289998816,0,0.0,0,1,1000,num_1,0.8563646000111476,,24,6,2026-03-04_15h39.41.295,2026A_exp2,2022.2.4,59.98868611748491,
0,0,0.0,6.1,0,0,76,76,30,,,,,258.56224450003356,259.1961916,259.1961916,259.6977908000117,315,45,259.6977908000117,259.6977908000117,259.6977908000117,259.6977908000117,259.6977908000117,259.6977908000117,259.6977908000117,259.6977908000117,259.6977908000117,260.0637347000302,260.0637347000302,260.0637347000302,260.0637347000302,260.0637347000302,260.0637347000302,260.0637347000302,260.0637347000302,260.0637347000302,0,1,[0.0007350000087171793],[0.36714930000016466],260.0637347000302,260.2640207000077,6.1,260.2640207000077,1,6.1,1,1,1000,num_4,1.1752035000245087,,24,6,2026-03-04_15h39.41.295,2026A_exp2,2022.2.4,59.98868611748491,
1,0,0.0,4.9,0,0,77,77,48,,,,,261.4652691000374,262.0992792000179,262.0992792000179,262.6001364000258,45,315,262.6001364000258,262.6001364000258,262.6001364000258,262.6001364000258,262.6001364000258,262.6001364000258,262.6001364000258,262.6001364000258,262.6001364000258,262.96669139998266,262.96669139998266,262.96669139998266,262.96669139998266,262.96669139998266,262.96669139998266,262.96669139998266,262.96669139998266,262.96669139998266,0,1,[0.000832799996715039],[0.3671520000207238],262.96669139998266,263.1668677999987,0.0,263.1668677999987,0,0.0,0,1,1000,num_1,0.8884047000319697,,24,6,2026-03-04_15h39.41.295,2026A_exp2,2022.2.4,59.98868611748491,
1000,1,0.0,3.7,1,0,78,78,7,,,,,264.0848352999892,264.73476560000563,264.73476560000563,265.219711999991,45,45,265.219711999991,265.219711999991,265.219711999991,265.219711999991,265.219711999991,265.219711999991,265.219711999991,265.219711999991,265.219711999991,265.58599819999654,265.58599819999654,265.58599819999654,265.58599819999654,265.58599819999654,265.58599819999654,265.58599819999654,265.58599819999654,265.58599819999654,0,1,[0.0008752999710850418],[0.36772639997070655],265.58599819999654,265.78635200002464,1000,265.78635200002464,1000,1000,1000,1000,1,num_2,1.500954199989792,,24,6,2026-03-04_15h39.41.295,2026A_exp2,2022.2.4,59.98868611748491,
1,0,0.0,4.9,0,0,79,79,9,,,,,267.3048783999984,267.9550921000191,267.9550921000191,268.43976710003335,315,45,268.43976710003335,268.43976710003335,268.43976710003335,268.43976710003335,268.43976710003335,268.43976710003335,268.43976710003335,268.43976710003335,268.43976710003335,268.80621830001473,268.80621830001473,268.80621830001473,268.80621830001473,268.80621830001473,268.80621830001473,268.80621830001473,268.80621830001473,268.80621830001473,0,1,[0.0007139000226743519],[0.3671491999994032],268.80621830001473,269.00749019999057,0.0,269.00749019999057,0,0.0,0,1,1000,num_1,0.7910577000002377,,24,6,2026-03-04_15h39.41.295,2026A_exp2,2022.2.4,59.98868611748491,
1000,1,4.9,6.1,0,0,80,80,49,,,,,269.82413580000866,270.47451949998504,270.47451949998504,270.9752878000145,315,45,270.9752878000145,270.9752878000145,270.9752878000145,270.9752878000145,270.9752878000145,270.9752878000145,270.9752878000145,270.9752878000145,270.9752878000145,271.32517279998865,271.32517279998865,271.32517279998865,271.32517279998865,271.32517279998865,271.32517279998865,271.32517279998865,271.32517279998865,271.32517279998865,0,1,[0.0008613999816589057],[0.35057780001079664],271.32517279998865,271.5253881000099,1000,271.54213580000214,1000,1000,1000,1000,1,num_2,1.2008229999919422,,24,6,2026-03-04_15h39.41.295,2026A_exp2,2022.2.4,59.98868611748491,
1,0,0.0,0.0,0,0,81,81,87,,,,,272.7599588999874,273.4105710000149,273.4105710000149,273.9115265000146,315,315,273.9115265000146,273.9115265000146,273.9115265000146,273.9115265000146,273.9115265000146,273.9115265000146,273.9115265000146,273.9115265000146,273.9115265000146,274.27787170000374,274.27787170000374,274.27787170000374,274.27787170000374,274.27787170000374,274.27787170000374,274.27787170000374,274.27787170000374,274.27787170000374,0,1,[0.0007853999850340188],[0.36691629997221753],274.27787170000374,274.47835390002,0.0,274.47835390002,0,0.0,0,1,1000,num_1,0.6801503000315279,,24,6,2026-03-04_15h39.41.295,2026A_exp2,2022.2.4,59.98868611748491,
1000,1,0.0,6.1,0,0,82,82,5,,,,,275.17909799999325,275.81281109998235,275.81281109998235,276.3141260999837,45,315,276.3141260999837,276.3141260999837,276.3141260999837,276.3141260999837,276.3141260999837,276.3141260999837,276.3141260999837,276.3141260999837,276.3141260999837,276.6803060999955,276.6803060999955,276.6803060999955,276.6803060999955,276.6803060999955,276.6803060999955,276.6803060999955,276.6803060999955,276.6803060999955,11,7,"[0.0009092999971471727, 0.0832630000077188, 0.13319069996941835, 0.21745200001168996, 0.25006809999467805, 0.28326880000531673, 0.35027589998207986]","[0.0499151999829337, 0.09982820000732318, 0.15011459996458143, 0.2337361999670975, 0.26680990000022575, 0.33351319999201223, 0.36687719996552914]",276.6803060999955,276.8807663000189,1000,276.8807663000189,1000,1000,1000,1000,0,num_3,1.0224325999733992,,24,6,2026-03-04_15h39.41.295,2026A_exp2,2022.2.4,59.98868611748491,
0,0,4.9,4.9,0,0,83,83,88,,,,,277.93166200001724,278.58253379998496,278.58253379998496,279.0671338000102,315,315,279.0671338000102,279.0671338000102,279.0671338000102,279.0671338000102,279.0671338000102,279.0671338000102,279.0671338000102,279.0671338000102,279.0671338000102,279.4329456000123,279.4329456000123,279.4329456000123,279.4329456000123,279.4329456000123,279.4329456000123,279.4329456000123,279.4329456000123,279.4329456000123,3,4,"[0.0009112000116147101, 0.08352770004421473, 0.20038980001118034, 0.33377830003155395]","[0.06725980003830045, 0.18357770005241036, 0.3172226000460796, 0.36725280003156513]",279.4329456000123,279.6333539999905,4.9,279.6333539999905,1,4.9,1,1,1000,num_4,0.7816988000413403,,24,6,2026-03-04_15h39.41.295,2026A_exp2,2022.2.4,59.98868611748491,
1,0,0.0,0.0,1,0,84,84,42,,,,,280.43433670001104,281.0684222999844,281.0684222999844,281.56939409999177,45,315,281.56939409999177,281.56939409999177,281.56939409999177,281.56939409999177,281.56939409999177,281.56939409999177,281.56939409999177,281.56939409999177,281.56939409999177,281.93611569999484,281.93611569999484,281.93611569999484,281.93611569999484,281.93611569999484,281.93611569999484,281.93611569999484,281.93611569999484,281.93611569999484,1,2,"[0.0007478999905288219, 0.3010144999716431]","[0.2839244999922812, 0.3671825000201352]",281.93611569999484,282.1363957999856,0.0,282.1363957999856,0,0.0,0,1,1000,num_1,0.8868850999861024,,24,6,2026-03-04_15h39.41.295,2026A_exp2,2022.2.4,59.98868611748491,
1,0,4.9,3.7,0,0,85,85,89,,,,,283.0534058000194,283.68771620001644,283.68771620001644,284.1896173999994,315,45,284.1896173999994,284.1896173999994,284.1896173999994,284.1896173999994,284.1896173999994,284.1896173999994,284.1896173999994,284.1896173999994,284.1896173999994,284.5551368999877,284.5551368999877,284.5551368999877,284.5551368999877,284.5551368999877,284.5551368999877,284.5551368999877,284.5551368999877,284.5551368999877,13,4,"[0.03142740001203492, 0.08160530001623556, 0.1481262000161223, 0.28240759996697307]","[0.06495349999750033, 0.11452790000475943, 0.19789930002298206, 0.3318851999938488]",284.5551368999877,284.75504269998055,4.9,284.75504269998055,1,4.9,1,1,1000,num_4,0.7074293999467045,,24,6,2026-03-04_15h39.41.295,2026A_exp2,2022.2.4,59.98868611748491,
1,0,3.7,3.7,1,0,86,86,11,,,,,285.48979650001274,286.13986779999686,286.13986779999686,286.62441639997996,315,315,286.62441639997996,286.62441639997996,286.62441639997996,286.62441639997996,286.62441639997996,286.62441639997996,286.62441639997996,286.62441639997996,286.62441639997996,286.9909391999827,286.9909391999827,286.9909391999827,286.9909391999827,286.9909391999827,286.9909391999827,286.9909391999827,286.9909391999827,286.9909391999827,0,1,[0.0007372999680228531],[0.36683569999877363],286.9909391999827,287.19073420000495,3.7,287.19073420000495,1,3.7,1,1,1000,num_4,0.623720100033097,,24,6,2026-03-04_15h39.41.295,2026A_exp2,2022.2.4,59.98868611748491,
1,0,6.1,3.7,0,0,87,87,79,,,,,287.841568999982,288.4921883000061,288.4921883000061,288.976718800026,315,45,288.976718800026,288.976718800026,288.976718800026,288.976718800026,288.976718800026,288.976718800026,288.976718800026,288.976718800026,288.976718800026,289.34308620000957,289.34308620000957,289.34308620000957,289.34308620000957,289.34308620000957,289.34308620000957,289.34308620000957,289.34308620000957,289.34308620000957,1,2,"[0.0009317999938502908, 0.15014919999521226]","[0.1333724000141956, 0.36703089997172356]",289.34308620000957,289.5431913000066,6.1,289.5431913000066,1,6.1,1,1,1000,num_4,0.695925600011833,,24,6,2026-03-04_15h39.41.295,2026A_exp2,2022.2.4,59.98868611748491,
1000,1,3.7,3.7,0,0,88,88,76,,,,,290.26071120001143,290.9113232999807,290.9113232999807,291.41239310003584,45,315,291.41239310003584,291.41239310003584,291.41239310003584,291.41239310003584,291.41239310003584,291.41239310003584,291.41239310003584,291.41239310003584,291.41239310003584,291.778634199989,291.778634199989,291.778634199989,291.778634199989,291.778634199989,291.778634199989,291.778634199989,291.778634199989,291.778634199989,22,1,[0.3500299000297673],[0.36654070002259687],291.778634199989,291.97878040000796,1000,291.97878040000796,1000,1000,1000,1000,1,num_2,1.292307899973821,,24,6,2026-03-04_15h39.41.295,2026A_exp2,2022.2.4,59.98868611748491,
1000,1,0.0,4.9,0,0,89,89,50,,,,,293.2977360000368,293.94759559998056,293.94759559998056,294.432360100036,45,315,294.432360100036,294.432360100036,294.432360100036,294.432360100036,294.432360100036,294.432360100036,294.432360100036,294.432360100036,294.432360100036,294.7986322999932,294.7986322999932,294.7986322999932,294.7986322999932,294.7986322999932,294.7986322999932,294.7986322999932,294.7986322999932,294.7986322999932,4,4,"[0.0007683999720029533, 0.06683580001117662, 0.283569399965927, 0.33391990000382066]","[0.050356099964119494, 0.266980699962005, 0.31722239998634905, 0.36728549998952076]",294.7986322999932,294.9989277999848,1000,294.9989277999848,1000,1000,1000,1000,1,num_2,0.7434730000095442,,24,6,2026-03-04_15h39.41.295,2026A_exp2,2022.2.4,59.98868611748491,
,,,,,,,,,,,,,,,,,,,,,,,,,,,,,,,,,,,,,,,,,,,,,,,,,,,,295.7697493000305,,,,,,,
