validity,detectorcomp,contrastCW,contrastCCW,precueCWorCCW,block_80trials.thisRepN,block_80trials.thisTrialN,block_80trials.thisN,block_80trials.thisIndex,etRecord.started,etRecord.stopped,text.started,text.stopped,text_4.started,text_4.stopped,text_6.started,text_6.stopped,oriCW,oriCCW,roi_2.started,grating_UR.started,grating_UL.started,grating_LR.started,grating_LL.started,noise_UR.started,noise_UL.started,noise_LR.started,noise_LL.started,roi_2.stopped,grating_UR.stopped,grating_UL.stopped,grating_LR.stopped,grating_LL.stopped,noise_UR.stopped,noise_UL.stopped,noise_LR.stopped,noise_LL.stopped,outframe,roi_2.numLooks,roi_2.timesOn,roi_2.timesOff,text_2.started,text_2.stopped,probedcontrast,key_resp.started,respdetect,relevantContrast,correctDetect,TorFdetect,respCWorCCW,key_resp.keys,key_resp.rt,feedback_display_.started,participantNo,blockNo,date,expName,psychopyVersion,frameRate,
1000,1,0.0,0.0,1,0,0,0,56,3.619998460635543e-05,3.619998460635543e-05,68.30272330000298,70.314082900004,70.314082900004,70.95857099996647,70.95857099996647,71.46210399997653,315,45,71.46210399997653,71.46210399997653,71.46210399997653,71.46210399997653,71.46210399997653,71.46210399997653,71.46210399997653,71.46210399997653,71.46210399997653,71.80968509998638,71.80968509998638,71.80968509998638,71.80968509998638,71.80968509998638,71.80968509998638,71.80968509998638,71.80968509998638,71.80968509998638,22,0,,,71.80968509998638,72.01190729998052,1000,72.01190729998052,1000,1000,1000,1000,1,num_2,4.777496599999722,,26,1,2026-03-05_10h17.50.961,2026A_exp2,2022.2.4,59.9494865618359,
1000,1,0.0,4.9,0,0,1,1,5,,,,,76.81778390001273,77.45203899999615,77.45203899999615,77.9531272999593,45,315,77.9531272999593,77.9531272999593,77.9531272999593,77.9531272999593,77.9531272999593,77.9531272999593,77.9531272999593,77.9531272999593,77.9531272999593,78.31939879996935,78.31939879996935,78.31939879996935,78.31939879996935,78.31939879996935,78.31939879996935,78.31939879996935,78.31939879996935,78.31939879996935,23,0,,,78.31939879996935,78.52177839999786,1000,78.52177839999786,1000,1000,1000,1000,1,num_2,0.4275276999687776,,26,1,2026-03-05_10h17.50.961,2026A_exp2,2022.2.4,59.9494865618359,
0,0,0.0,0.0,0,0,2,2,70,,,,,78.97035359998699,79.62074879999273,79.62074879999273,80.12204859999474,315,315,80.12204859999474,80.12204859999474,80.12204859999474,80.12204859999474,80.12204859999474,80.12204859999474,80.12204859999474,80.12204859999474,80.12204859999474,80.48848920001183,80.48848920001183,80.48848920001183,80.48848920001183,80.48848920001183,80.48848920001183,80.48848920001183,80.48848920001183,80.48848920001183,0,1,[0.0012072999961674213],[0.3672161000431515],80.48848920001183,80.68871590000344,0.0,80.68871590000344,0,0.0,0,1,1000,num_1,2.364260700007435,,26,1,2026-03-05_10h17.50.961,2026A_exp2,2022.2.4,59.9494865618359,
1000,1,3.7,6.1,1,0,3,3,29,,,,,83.0742929999833,83.72466100001475,83.72466100001475,84.20922959997552,45,45,84.20922959997552,84.20922959997552,84.20922959997552,84.20922959997552,84.20922959997552,84.20922959997552,84.20922959997552,84.20922959997552,84.20922959997552,84.57580749999033,84.57580749999033,84.57580749999033,84.57580749999033,84.57580749999033,84.57580749999033,84.57580749999033,84.57580749999033,84.57580749999033,23,0,,,84.57580749999033,84.77792739996221,1000,84.77792739996221,1000,1000,1000,1000,1,num_2,0.6358029000111856,,26,1,2026-03-05_10h17.50.961,2026A_exp2,2022.2.4,59.9494865618359,
1000,1,0.0,6.1,0,0,4,4,2,,,,,85.44343549996847,86.09403189999284,86.09403189999284,86.57851289998507,45,45,86.57851289998507,86.57851289998507,86.57851289998507,86.57851289998507,86.57851289998507,86.57851289998507,86.57851289998507,86.57851289998507,86.57851289998507,86.94488909997744,86.94488909997744,86.94488909997744,86.94488909997744,86.94488909997744,86.94488909997744,86.94488909997744,86.94488909997744,86.94488909997744,23,0,,,86.94488909997744,87.14675139996689,1000,87.14675139996689,1000,1000,1000,1000,1,num_2,0.7870316000189632,,26,1,2026-03-05_10h17.50.961,2026A_exp2,2022.2.4,59.9494865618359,
1,0,3.7,4.9,0,0,5,5,76,,,,,87.96289869997418,88.5965784,88.5965784,89.09760039998218,45,45,89.09760039998218,89.09760039998218,89.09760039998218,89.09760039998218,89.09760039998218,89.09760039998218,89.09760039998218,89.09760039998218,89.09760039998218,89.46393739996711,89.46393739996711,89.46393739996711,89.46393739996711,89.46393739996711,89.46393739996711,89.46393739996711,89.46393739996711,89.46393739996711,4,2,"[0.05038650002097711, 0.18346249999012798]","[0.1671102999825962, 0.36740270000882447]",89.46393739996711,89.66414030001033,3.7,89.66414030001033,0,3.7,1,0,1000,num_1,0.8206864999956451,,26,1,2026-03-05_10h17.50.961,2026A_exp2,2022.2.4,59.9494865618359,
1000,1,0.0,4.9,1,0,6,6,79,,,,,90.51500579999993,91.16587829997297,91.16587829997297,91.65013729996281,315,45,91.65013729996281,91.65013729996281,91.65013729996281,91.65013729996281,91.65013729996281,91.65013729996281,91.65013729996281,91.65013729996281,91.65013729996281,92.01647719996981,92.01647719996981,92.01647719996981,92.01647719996981,92.01647719996981,92.01647719996981,92.01647719996981,92.01647719996981,92.01647719996981,23,0,,,92.01647719996981,92.21848709997721,1000,92.21848709997721,1000,1000,1000,1000,1,num_2,0.6507722999667749,,26,1,2026-03-05_10h17.50.961,2026A_exp2,2022.2.4,59.9494865618359,
1,0,0.0,0.0,1,0,7,7,21,,,,,92.90098709997255,93.55141760001425,93.55141760001425,94.05264119995991,45,315,94.05264119995991,94.05264119995991,94.05264119995991,94.05264119995991,94.05264119995991,94.05264119995991,94.05264119995991,94.05264119995991,94.05264119995991,94.40239569998812,94.40239569998812,94.40239569998812,94.40239569998812,94.40239569998812,94.40239569998812,94.40239569998812,94.40239569998812,94.40239569998812,0,1,[0.0013061999925412238],[0.35045730002457276],94.40239569998812,94.60245499998564,0.0,94.60245499998564,0,0.0,0,1,1000,num_1,0.5954341999604367,,26,1,2026-03-05_10h17.50.961,2026A_exp2,2022.2.4,59.9494865618359,
1,0,0.0,0.0,0,0,8,8,51,,,,,95.21966169995721,95.87045589997433,95.87045589997433,96.35487229999853,45,45,96.35487229999853,96.35487229999853,96.35487229999853,96.35487229999853,96.35487229999853,96.35487229999853,96.35487229999853,96.35487229999853,96.35487229999853,96.72138010000344,96.72138010000344,96.72138010000344,96.72138010000344,96.72138010000344,96.72138010000344,96.72138010000344,96.72138010000344,96.72138010000344,6,2,"[0.05021039996063337, 0.1336796999676153]","[0.08372249995591119, 0.36710649996530265]",96.72138010000344,96.92155989998719,0.0,96.92155989998719,0,0.0,0,1,1000,num_1,0.46791829995345324,,26,1,2026-03-05_10h17.50.961,2026A_exp2,2022.2.4,59.9494865618359,
1000,1,0.0,6.1,0,0,9,9,75,,,,,97.42217629996594,98.05599439999787,98.05599439999787,98.55707459995756,45,315,98.55707459995756,98.55707459995756,98.55707459995756,98.55707459995756,98.55707459995756,98.55707459995756,98.55707459995756,98.55707459995756,98.55707459995756,98.92353719996754,98.92353719996754,98.92353719996754,98.92353719996754,98.92353719996754,98.92353719996754,98.92353719996754,98.92353719996754,98.92353719996754,0,1,[0.0012157000019215047],[0.36717500002123415],98.92353719996754,99.1255259999889,1000,99.1255259999889,1000,1000,1000,1000,1,num_2,0.26373280002735555,,26,1,2026-03-05_10h17.50.961,2026A_exp2,2022.2.4,59.9494865618359,
1000,1,0.0,0.0,0,0,10,10,15,,,,,99.40774659998715,100.05809780000709,100.05809780000709,100.54234089999227,315,315,100.54234089999227,100.54234089999227,100.54234089999227,100.54234089999227,100.54234089999227,100.54234089999227,100.54234089999227,100.54234089999227,100.54234089999227,100.90872100001434,100.90872100001434,100.90872100001434,100.90872100001434,100.90872100001434,100.90872100001434,100.90872100001434,100.90872100001434,100.90872100001434,17,2,"[0.1169031000463292, 0.28384300001198426]","[0.20031040004687384, 0.31707260000985116]",100.90872100001434,101.10955210000975,1000,101.10955210000975,1000,1000,1000,1000,1,num_2,3.015650800021831,,26,1,2026-03-05_10h17.50.961,2026A_exp2,2022.2.4,59.9494865618359,
1,0,3.7,6.1,1,0,11,11,77,,,,,104.14528649998829,104.79607360000955,104.79607360000955,105.29721900000004,315,315,105.29721900000004,105.29721900000004,105.29721900000004,105.29721900000004,105.29721900000004,105.29721900000004,105.29721900000004,105.29721900000004,105.29721900000004,105.66352559998631,105.66352559998631,105.66352559998631,105.66352559998631,105.66352559998631,105.66352559998631,105.66352559998631,105.66352559998631,105.66352559998631,23,0,,,105.66352559998631,105.86380160000408,6.1,105.86380160000408,1,6.1,1,1,1000,num_4,0.9014830000232905,,26,1,2026-03-05_10h17.50.961,2026A_exp2,2022.2.4,59.9494865618359,
1000,1,0.0,0.0,1,0,12,12,60,,,,,106.78128029999789,107.43210079998244,107.43210079998244,107.91652769997017,315,315,107.91652769997017,107.91652769997017,107.91652769997017,107.91652769997017,107.91652769997017,107.91652769997017,107.91652769997017,107.91652769997017,107.91652769997017,108.2827655999572,108.2827655999572,108.2827655999572,108.2827655999572,108.2827655999572,108.2827655999572,108.2827655999572,108.2827655999572,108.2827655999572,23,0,,,108.2827655999572,108.48509339999873,1000,108.48509339999873,1000,1000,1000,1000,0,num_3,1.2315760999917984,,26,1,2026-03-05_10h17.50.961,2026A_exp2,2022.2.4,59.9494865618359,
0,0,0.0,4.9,0,0,13,13,14,,,,,109.73414339998271,110.38500509998994,110.38500509998994,110.8859919999959,315,45,110.8859919999959,110.8859919999959,110.8859919999959,110.8859919999959,110.8859919999959,110.8859919999959,110.8859919999959,110.8859919999959,110.8859919999959,111.25243559997762,111.25243559997762,111.25243559997762,111.25243559997762,111.25243559997762,111.25243559997762,111.25243559997762,111.25243559997762,111.25243559997762,23,0,,,111.25243559997762,111.45264619996306,4.9,111.45264619996306,1,4.9,1,1,1000,num_4,0.8479042999679223,,26,1,2026-03-05_10h17.50.961,2026A_exp2,2022.2.4,59.9494865618359,
1000,1,0.0,4.9,0,0,14,14,74,,,,,112.3200798999751,112.97091109998291,112.97091109998291,113.45531180000398,45,45,113.45531180000398,113.45531180000398,113.45531180000398,113.45531180000398,113.45531180000398,113.45531180000398,113.45531180000398,113.45531180000398,113.45531180000398,113.82190229999833,113.82190229999833,113.82190229999833,113.82190229999833,113.82190229999833,113.82190229999833,113.82190229999833,113.82190229999833,113.82190229999833,21,2,"[0.06671240000287071, 0.1835021000006236]","[0.08339019998675212, 0.19978959998115897]",113.82190229999833,114.02384979999624,1000,114.02384979999624,1000,1000,1000,1000,1,num_2,0.8132798000006005,,26,1,2026-03-05_10h17.50.961,2026A_exp2,2022.2.4,59.9494865618359,
1,0,3.7,0.0,1,0,15,15,12,,,,,114.85602690000087,115.50681369996164,115.50681369996164,116.00792860001093,315,45,116.00792860001093,116.00792860001093,116.00792860001093,116.00792860001093,116.00792860001093,116.00792860001093,116.00792860001093,116.00792860001093,116.00792860001093,116.37439269997412,116.37439269997412,116.37439269997412,116.37439269997412,116.37439269997412,116.37439269997412,116.37439269997412,116.37439269997412,116.37439269997412,0,1,[0.0012965999776497483],[0.36693939997348934],116.37439269997412,116.5743933999911,0.0,116.5743933999911,0,0.0,0,1,1000,num_1,0.9193710000254214,,26,1,2026-03-05_10h17.50.961,2026A_exp2,2022.2.4,59.9494865618359,
1000,1,0.0,4.9,1,0,16,16,55,,,,,117.51027209998574,118.15932009997778,118.15932009997778,118.6603182000108,315,315,118.6603182000108,118.6603182000108,118.6603182000108,118.6603182000108,118.6603182000108,118.6603182000108,118.6603182000108,118.6603182000108,118.6603182000108,119.02719539997634,119.02719539997634,119.02719539997634,119.02719539997634,119.02719539997634,119.02719539997634,119.02719539997634,119.02719539997634,119.02719539997634,23,0,,,119.02719539997634,119.22897489997558,1000,119.22897489997558,1000,1000,1000,1000,1,num_2,0.4396728000137955,,26,1,2026-03-05_10h17.50.961,2026A_exp2,2022.2.4,59.9494865618359,
1,0,0.0,3.7,0,0,17,17,61,,,,,119.69419670000207,120.34491340001114,120.34491340001114,120.84597799996845,45,45,120.84597799996845,120.84597799996845,120.84597799996845,120.84597799996845,120.84597799996845,120.84597799996845,120.84597799996845,120.84597799996845,120.84597799996845,121.19572089996655,121.19572089996655,121.19572089996655,121.19572089996655,121.19572089996655,121.19572089996655,121.19572089996655,121.19572089996655,121.19572089996655,22,0,,,121.19572089996655,121.39596980001079,0.0,121.39596980001079,0,0.0,0,1,1000,num_1,1.0888136000139639,,26,1,2026-03-05_10h17.50.961,2026A_exp2,2022.2.4,59.9494865618359,
0,0,0.0,3.7,0,0,18,18,83,,,,,122.5136283999891,123.16442360001383,123.16442360001383,123.64895249996334,315,45,123.64895249996334,123.64895249996334,123.64895249996334,123.64895249996334,123.64895249996334,123.64895249996334,123.64895249996334,123.64895249996334,123.64895249996334,124.01528439996764,124.01528439996764,124.01528439996764,124.01528439996764,124.01528439996764,124.01528439996764,124.01528439996764,124.01528439996764,124.01528439996764,23,0,,,124.01528439996764,124.21556589996908,3.7,124.21556589996908,0,3.7,1,0,1000,num_1,1.093246000004001,,26,1,2026-03-05_10h17.50.961,2026A_exp2,2022.2.4,59.9494865618359,
1000,1,0.0,0.0,0,0,19,19,7,,,,,125.33332659996813,125.9672750000027,125.9672750000027,126.46824069996364,45,315,126.46824069996364,126.46824069996364,126.46824069996364,126.46824069996364,126.46824069996364,126.46824069996364,126.46824069996364,126.46824069996364,126.46824069996364,126.8348655999871,126.8348655999871,126.8348655999871,126.8348655999871,126.8348655999871,126.8348655999871,126.8348655999871,126.8348655999871,126.8348655999871,23,0,,,126.8348655999871,127.03660859999945,1000,127.03660859999945,1000,1000,1000,1000,0,num_3,2.1290610999567434,,26,1,2026-03-05_10h17.50.961,2026A_exp2,2022.2.4,59.9494865618359,
1000,1,0.0,0.0,0,0,20,20,45,,,,,129.18708929995773,129.83785609999904,129.83785609999904,130.3389135999605,45,45,130.3389135999605,130.3389135999605,130.3389135999605,130.3389135999605,130.3389135999605,130.3389135999605,130.3389135999605,130.3389135999605,130.3389135999605,130.70525810000254,130.70525810000254,130.70525810000254,130.70525810000254,130.70525810000254,130.70525810000254,130.70525810000254,130.70525810000254,130.70525810000254,23,0,,,130.70525810000254,130.90751869999804,1000,130.90751869999804,1000,1000,1000,1000,0,num_3,0.6261138999834657,,26,1,2026-03-05_10h17.50.961,2026A_exp2,2022.2.4,59.9494865618359,
1000,1,0.0,3.7,0,0,21,21,57,,,,,131.55599309998797,132.20679510000627,132.20679510000627,132.70786419999786,45,45,132.70786419999786,132.70786419999786,132.70786419999786,132.70786419999786,132.70786419999786,132.70786419999786,132.70786419999786,132.70786419999786,132.70786419999786,133.07440549996682,133.07440549996682,133.07440549996682,133.07440549996682,133.07440549996682,133.07440549996682,133.07440549996682,133.07440549996682,133.07440549996682,23,0,,,133.07440549996682,133.2761794999824,1000,133.2761794999824,1000,1000,1000,1000,1,num_2,0.6084478999837302,,26,1,2026-03-05_10h17.50.961,2026A_exp2,2022.2.4,59.9494865618359,
1,0,0.0,0.0,0,0,22,22,34,,,,,133.90842779999366,134.55902729998343,134.55902729998343,135.0603644999792,45,45,135.0603644999792,135.0603644999792,135.0603644999792,135.0603644999792,135.0603644999792,135.0603644999792,135.0603644999792,135.0603644999792,135.0603644999792,135.41002269997261,135.41002269997261,135.41002269997261,135.41002269997261,135.41002269997261,135.41002269997261,135.41002269997261,135.41002269997261,135.41002269997261,22,0,,,135.41002269997261,135.61037189996568,0.0,135.6267979000113,0,0.0,0,1,1000,num_1,1.3701071999967098,,26,1,2026-03-05_10h17.50.961,2026A_exp2,2022.2.4,59.9494865618359,
0,0,6.1,6.1,0,0,23,23,42,,,,,137.02822099998593,137.66257340001175,137.66257340001175,138.16335220000474,315,315,138.16335220000474,138.16335220000474,138.16335220000474,138.16335220000474,138.16335220000474,138.16335220000474,138.16335220000474,138.16335220000474,138.16335220000474,138.52970959997037,138.52970959997037,138.52970959997037,138.52970959997037,138.52970959997037,138.52970959997037,138.52970959997037,138.52970959997037,138.52970959997037,0,1,[0.0009038000134751201],[0.3674874000134878],138.52970959997037,138.73007719998714,6.1,138.73007719998714,0,6.1,1,0,1000,num_1,1.170368499995675,,26,1,2026-03-05_10h17.50.961,2026A_exp2,2022.2.4,59.9494865618359,
1,0,0.0,0.0,1,0,24,24,24,,,,,139.93119339999976,140.58188630000222,140.58188630000222,141.06617919995915,45,45,141.06617919995915,141.06617919995915,141.06617919995915,141.06617919995915,141.06617919995915,141.06617919995915,141.06617919995915,141.06617919995915,141.06617919995915,141.43277259997558,141.43277259997558,141.43277259997558,141.43277259997558,141.43277259997558,141.43277259997558,141.43277259997558,141.43277259997558,141.43277259997558,23,0,,,141.43277259997558,141.63293919997523,0.0,141.63293919997523,0,0.0,0,1,1000,num_1,2.4524246999644674,,26,1,2026-03-05_10h17.50.961,2026A_exp2,2022.2.4,59.9494865618359,
1000,1,0.0,6.1,1,0,25,25,52,,,,,144.1020855999668,144.7527611000114,144.7527611000114,145.2370215000119,315,315,145.2370215000119,145.2370215000119,145.2370215000119,145.2370215000119,145.2370215000119,145.2370215000119,145.2370215000119,145.2370215000119,145.2370215000119,145.6035083999741,145.6035083999741,145.6035083999741,145.6035083999741,145.6035083999741,145.6035083999741,145.6035083999741,145.6035083999741,145.6035083999741,23,0,,,145.6035083999741,145.80374939995818,1000,145.80374939995818,1000,1000,1000,1000,1,num_2,0.624996300030034,,26,1,2026-03-05_10h17.50.961,2026A_exp2,2022.2.4,59.9494865618359,
1000,1,0.0,4.9,0,0,26,26,53,,,,,146.45423689996824,147.10512779996498,147.10512779996498,147.60696509998525,45,315,147.60696509998525,147.60696509998525,147.60696509998525,147.60696509998525,147.60696509998525,147.60696509998525,147.60696509998525,147.60696509998525,147.60696509998525,147.97235009999713,147.97235009999713,147.97235009999713,147.97235009999713,147.97235009999713,147.97235009999713,147.97235009999713,147.97235009999713,147.97235009999713,23,0,,,147.97235009999713,148.17460699996445,1000,148.17460699996445,1000,1000,1000,1000,1,num_2,0.5739730999921449,,26,1,2026-03-05_10h17.50.961,2026A_exp2,2022.2.4,59.9494865618359,
1,0,6.1,4.9,0,0,27,27,81,,,,,148.77327649999643,149.4239637000137,149.4239637000137,149.92505019996315,315,45,149.92505019996315,149.92505019996315,149.92505019996315,149.92505019996315,149.92505019996315,149.92505019996315,149.92505019996315,149.92505019996315,149.92505019996315,150.27493869996397,150.27493869996397,150.27493869996397,150.27493869996397,150.27493869996397,150.27493869996397,150.27493869996397,150.27493869996397,150.27493869996397,0,1,[0.0012159000034444034],[0.3503191000199877],150.27493869996397,150.47479969996493,6.1,150.4916377000045,0,6.1,1,0,1000,num_1,1.9782615000149235,,26,1,2026-03-05_10h17.50.961,2026A_exp2,2022.2.4,59.9494865618359,
1,0,3.7,3.7,1,0,28,28,86,,,,,152.49359689996345,153.14445059996797,153.14445059996797,153.62872529996093,45,315,153.62872529996093,153.62872529996093,153.62872529996093,153.62872529996093,153.62872529996093,153.62872529996093,153.62872529996093,153.62872529996093,153.62872529996093,153.99530259997118,153.99530259997118,153.99530259997118,153.99530259997118,153.99530259997118,153.99530259997118,153.99530259997118,153.99530259997118,153.99530259997118,23,0,,,153.99530259997118,154.1953225999605,3.7,154.1953225999605,1,3.7,1,1,1000,num_4,1.0898088000249118,,26,1,2026-03-05_10h17.50.961,2026A_exp2,2022.2.4,59.9494865618359,
1000,1,3.7,0.0,1,0,29,29,54,,,,,155.31303979997756,155.96388399996795,155.96388399996795,156.44829500000924,315,315,156.44829500000924,156.44829500000924,156.44829500000924,156.44829500000924,156.44829500000924,156.44829500000924,156.44829500000924,156.44829500000924,156.44829500000924,156.81472179997945,156.81472179997945,156.81472179997945,156.81472179997945,156.81472179997945,156.81472179997945,156.81472179997945,156.81472179997945,156.81472179997945,23,0,,,156.81472179997945,157.01669419999234,1000,157.01669419999234,1000,1000,1000,1000,0,num_3,0.6688100000028498,,26,1,2026-03-05_10h17.50.961,2026A_exp2,2022.2.4,59.9494865618359,
1000,1,0.0,0.0,1,0,30,30,40,,,,,157.71555969998008,158.3664160000044,158.3664160000044,158.8673915999825,315,45,158.8673915999825,158.8673915999825,158.8673915999825,158.8673915999825,158.8673915999825,158.8673915999825,158.8673915999825,158.8673915999825,158.8673915999825,159.21716549998382,159.21716549998382,159.21716549998382,159.21716549998382,159.21716549998382,159.21716549998382,159.21716549998382,159.21716549998382,159.21716549998382,22,0,,,159.21716549998382,159.4193127999897,1000,159.4341577999876,1000,1000,1000,1000,0,num_3,0.9867820999934338,,26,1,2026-03-05_10h17.50.961,2026A_exp2,2022.2.4,59.9494865618359,
1000,1,0.0,6.1,0,0,31,31,35,,,,,160.45156610000413,161.10613129998092,161.10613129998092,161.6033824000042,315,45,161.6033824000042,161.6033824000042,161.6033824000042,161.6033824000042,161.6033824000042,161.6033824000042,161.6033824000042,161.6033824000042,161.6033824000042,161.96978649997618,161.96978649997618,161.96978649997618,161.96978649997618,161.96978649997618,161.96978649997618,161.96978649997618,161.96978649997618,161.96978649997618,8,5,"[0.001582800003234297, 0.08340429997770116, 0.1997109000221826, 0.23313210002379492, 0.2998805000097491]","[0.06693590001668781, 0.11686120001832023, 0.216479700000491, 0.28317800001241267, 0.3664489000220783]",161.96978649997618,162.1714726999635,1000,162.1714726999635,1000,1000,1000,1000,1,num_2,0.8740603000042029,,26,1,2026-03-05_10h17.50.961,2026A_exp2,2022.2.4,59.9494865618359,
1,0,0.0,0.0,0,0,32,32,44,,,,,163.07085509999888,163.72163899999578,163.72163899999578,164.22287269996013,315,315,164.22287269996013,164.22287269996013,164.22287269996013,164.22287269996013,164.22287269996013,164.22287269996013,164.22287269996013,164.22287269996013,164.22287269996013,164.57243959995685,164.57243959995685,164.57243959995685,164.57243959995685,164.57243959995685,164.57243959995685,164.57243959995685,164.57243959995685,164.57243959995685,22,0,,,164.57243959995685,164.77279720001388,0.0,164.77279720001388,1,0.0,0,0,1000,num_4,1.0961320000351407,,26,1,2026-03-05_10h17.50.961,2026A_exp2,2022.2.4,59.9494865618359,
1,0,3.7,4.9,1,0,33,33,71,,,,,165.89031589997467,166.52446909999708,166.52446909999708,167.02560649998486,45,315,167.02560649998486,167.02560649998486,167.02560649998486,167.02560649998486,167.02560649998486,167.02560649998486,167.02560649998486,167.02560649998486,167.02560649998486,167.39202009997098,167.39202009997098,167.39202009997098,167.39202009997098,167.39202009997098,167.39202009997098,167.39202009997098,167.39202009997098,167.39202009997098,23,0,,,167.39202009997098,167.59233359998325,4.9,167.59233359998325,1,4.9,1,1,1000,num_4,1.212377399962861,,26,1,2026-03-05_10h17.50.961,2026A_exp2,2022.2.4,59.9494865618359,
0,0,0.0,3.7,0,0,34,34,47,,,,,168.82693260000087,169.46081369998865,169.46081369998865,169.96181889995933,315,45,169.96181889995933,169.96181889995933,169.96181889995933,169.96181889995933,169.96181889995933,169.96181889995933,169.96181889995933,169.96181889995933,169.96181889995933,170.32831549999537,170.32831549999537,170.32831549999537,170.32831549999537,170.32831549999537,170.32831549999537,170.32831549999537,170.32831549999537,170.32831549999537,23,0,,,170.32831549999537,170.5283391000121,3.7,170.5283391000121,1,3.7,1,1,1000,num_4,0.7648259000270627,,26,1,2026-03-05_10h17.50.961,2026A_exp2,2022.2.4,59.9494865618359,
1,0,0.0,4.9,1,0,35,35,1,,,,,171.3124392000027,171.96322689997032,171.96322689997032,172.4475871999748,45,45,172.4475871999748,172.4475871999748,172.4475871999748,172.4475871999748,172.4475871999748,172.4475871999748,172.4475871999748,172.4475871999748,172.4475871999748,172.81385039997986,172.81385039997986,172.81385039997986,172.81385039997986,172.81385039997986,172.81385039997986,172.81385039997986,172.81385039997986,172.81385039997986,23,0,,,172.81385039997986,173.01435989997117,4.9,173.01435989997117,1,4.9,1,1,1000,num_4,0.5420295000076294,,26,1,2026-03-05_10h17.50.961,2026A_exp2,2022.2.4,59.9494865618359,
1000,1,0.0,0.0,1,0,36,36,23,,,,,173.58144139999058,174.232104900002,174.232104900002,174.71663609996904,315,315,174.71663609996904,174.71663609996904,174.71663609996904,174.71663609996904,174.71663609996904,174.71663609996904,174.71663609996904,174.71663609996904,174.71663609996904,175.08307759999298,175.08307759999298,175.08307759999298,175.08307759999298,175.08307759999298,175.08307759999298,175.08307759999298,175.08307759999298,175.08307759999298,22,1,[0.0012247000122442842],[0.01742089999606833],175.08307759999298,175.2831963999779,1000,175.2831963999779,1000,1000,1000,1000,0,num_3,0.6813657999737188,,26,1,2026-03-05_10h17.50.961,2026A_exp2,2022.2.4,59.9494865618359,
1,0,4.9,4.9,0,0,37,37,39,,,,,175.9838788000052,176.61786229995778,176.61786229995778,177.11891389999073,315,315,177.11891389999073,177.11891389999073,177.11891389999073,177.11891389999073,177.11891389999073,177.11891389999073,177.11891389999073,177.11891389999073,177.11891389999073,177.48546080000233,177.48546080000233,177.48546080000233,177.48546080000233,177.48546080000233,177.48546080000233,177.48546080000233,177.48546080000233,177.48546080000233,23,0,,,177.48546080000233,177.68556049995823,4.9,177.68556049995823,1,4.9,1,1,1000,num_4,1.727064699982293,,26,1,2026-03-05_10h17.50.961,2026A_exp2,2022.2.4,59.9494865618359,
1000,1,0.0,0.0,0,0,38,38,6,,,,,179.43734569998924,180.0880479000043,180.0880479000043,180.57255819998682,315,45,180.57255819998682,180.57255819998682,180.57255819998682,180.57255819998682,180.57255819998682,180.57255819998682,180.57255819998682,180.57255819998682,180.57255819998682,180.9387793999631,180.9387793999631,180.9387793999631,180.9387793999631,180.9387793999631,180.9387793999631,180.9387793999631,180.9387793999631,180.9387793999631,23,0,,,180.9387793999631,181.13910919998307,1000,181.13910919998307,1000,1000,1000,1000,0,num_3,1.7217914999928325,,26,1,2026-03-05_10h17.50.961,2026A_exp2,2022.2.4,59.9494865618359,
1000,1,0.0,6.1,1,0,39,39,69,,,,,182.8908333000145,183.54155799996806,183.54155799996806,184.04251609998755,45,315,184.04251609998755,184.04251609998755,184.04251609998755,184.04251609998755,184.04251609998755,184.04251609998755,184.04251609998755,184.04251609998755,184.04251609998755,184.3922569999704,184.3922569999704,184.3922569999704,184.3922569999704,184.3922569999704,184.3922569999704,184.3922569999704,184.3922569999704,184.3922569999704,22,0,,,184.3922569999704,184.59466609999072,1000,184.59466609999072,1000,1000,1000,1000,1,num_2,0.5622842999873683,,26,1,2026-03-05_10h17.50.961,2026A_exp2,2022.2.4,59.9494865618359,
1000,1,6.1,0.0,0,0,40,40,59,,,,,185.17647369997576,185.81044719996862,185.81044719996862,186.31157989997882,45,315,186.31157989997882,186.31157989997882,186.31157989997882,186.31157989997882,186.31157989997882,186.31157989997882,186.31157989997882,186.31157989997882,186.31157989997882,186.67798599996604,186.67798599996604,186.67798599996604,186.67798599996604,186.67798599996604,186.67798599996604,186.67798599996604,186.67798599996604,186.67798599996604,23,0,,,186.67798599996604,186.87802000000374,1000,186.87802000000374,1000,1000,1000,1000,0,num_3,0.1986942999646999,,26,1,2026-03-05_10h17.50.961,2026A_exp2,2022.2.4,59.9494865618359,
1000,1,0.0,0.0,1,0,41,41,16,,,,,187.09508339996682,187.7458037000033,187.7458037000033,188.246813500009,315,45,188.246813500009,188.246813500009,188.246813500009,188.246813500009,188.246813500009,188.246813500009,188.246813500009,188.246813500009,188.246813500009,188.61326249997364,188.61326249997364,188.61326249997364,188.61326249997364,188.61326249997364,188.61326249997364,188.61326249997364,188.61326249997364,188.61326249997364,23,0,,,188.61326249997364,188.8150758999982,1000,188.8150758999982,1000,1000,1000,1000,0,num_3,0.6386936999624595,,26,1,2026-03-05_10h17.50.961,2026A_exp2,2022.2.4,59.9494865618359,
1,0,4.9,3.7,0,0,42,42,63,,,,,189.48088230000576,190.13128179998603,190.13128179998603,190.61586249998072,45,315,190.61586249998072,190.61586249998072,190.61586249998072,190.61586249998072,190.61586249998072,190.61586249998072,190.61586249998072,190.61586249998072,190.61586249998072,190.98217999999179,190.98217999999179,190.98217999999179,190.98217999999179,190.98217999999179,190.98217999999179,190.98217999999179,190.98217999999179,190.98217999999179,23,0,,,190.98217999999179,191.1825298999902,4.9,191.1825298999902,1,4.9,1,1,1000,num_4,0.8953594999620691,,26,1,2026-03-05_10h17.50.961,2026A_exp2,2022.2.4,59.9494865618359,
1000,1,3.7,0.0,0,0,43,43,32,,,,,192.10016059997724,192.75075629999628,192.75075629999628,193.23517509998055,45,315,193.23517509998055,193.23517509998055,193.23517509998055,193.23517509998055,193.23517509998055,193.23517509998055,193.23517509998055,193.23517509998055,193.23517509998055,193.60166689998005,193.60166689998005,193.60166689998005,193.60166689998005,193.60166689998005,193.60166689998005,193.60166689998005,193.60166689998005,193.60166689998005,23,0,,,193.60166689998005,193.80375809996622,1000,193.80375809996622,1000,1000,1000,1000,0,num_3,0.7610235000029206,,26,1,2026-03-05_10h17.50.961,2026A_exp2,2022.2.4,59.9494865618359,
1000,1,0.0,0.0,0,0,44,44,67,,,,,194.585754300002,195.23637429997325,195.23637429997325,195.73767239996232,45,315,195.73767239996232,195.73767239996232,195.73767239996232,195.73767239996232,195.73767239996232,195.73767239996232,195.73767239996232,195.73767239996232,195.73767239996232,196.1038799000089,196.1038799000089,196.1038799000089,196.1038799000089,196.1038799000089,196.1038799000089,196.1038799000089,196.1038799000089,196.1038799000089,21,1,[0.0012478999560698867],[0.03348179999738932],196.1038799000089,196.30968070001109,1000,196.30968070001109,1000,1000,1000,1000,1,num_2,2.030897199991159,,26,1,2026-03-05_10h17.50.961,2026A_exp2,2022.2.4,59.9494865618359,
1000,1,6.1,0.0,0,0,45,45,89,,,,,198.35626359999878,199.0068013999844,199.0068013999844,199.50813839997863,45,315,199.50813839997863,199.50813839997863,199.50813839997863,199.50813839997863,199.50813839997863,199.50813839997863,199.50813839997863,199.50813839997863,199.50813839997863,199.8745593999629,199.8745593999629,199.8745593999629,199.8745593999629,199.8745593999629,199.8745593999629,199.8745593999629,199.8745593999629,199.8745593999629,23,0,,,199.8745593999629,200.07673619996058,1000,200.07673619996058,1000,1000,1000,1000,0,num_3,0.3117851999704726,,26,1,2026-03-05_10h17.50.961,2026A_exp2,2022.2.4,59.9494865618359,
1,0,0.0,0.0,0,0,46,46,17,,,,,200.40823489998002,201.0590252999682,201.0590252999682,201.5601536000031,315,315,201.5601536000031,201.5601536000031,201.5601536000031,201.5601536000031,201.5601536000031,201.5601536000031,201.5601536000031,201.5601536000031,201.5601536000031,201.90971340000397,201.90971340000397,201.90971340000397,201.90971340000397,201.90971340000397,201.90971340000397,201.90971340000397,201.90971340000397,201.90971340000397,0,1,[0.0011975999805144966],[0.35073449998162687],201.90971340000397,202.11000220000278,0.0,202.11000220000278,1,0.0,0,0,1000,num_4,1.047075100010261,,26,1,2026-03-05_10h17.50.961,2026A_exp2,2022.2.4,59.9494865618359,
0,0,4.9,4.9,1,0,47,47,48,,,,,203.17765019997023,203.8284008000046,203.8284008000046,204.31290019996231,315,45,204.31290019996231,204.31290019996231,204.31290019996231,204.31290019996231,204.31290019996231,204.31290019996231,204.31290019996231,204.31290019996231,204.31290019996231,204.67925479996484,204.67925479996484,204.67925479996484,204.67925479996484,204.67925479996484,204.67925479996484,204.67925479996484,204.67925479996484,204.67925479996484,23,0,,,204.67925479996484,204.87952740001492,4.9,204.87952740001492,1,4.9,1,1,1000,num_4,1.4209991000243463,,26,1,2026-03-05_10h17.50.961,2026A_exp2,2022.2.4,59.9494865618359,
1,0,0.0,0.0,1,0,48,48,41,,,,,206.3309702000115,206.9649808999966,206.9649808999966,207.46606110001449,315,45,207.46606110001449,207.46606110001449,207.46606110001449,207.46606110001449,207.46606110001449,207.46606110001449,207.46606110001449,207.46606110001449,207.46606110001449,207.83249449997675,207.83249449997675,207.83249449997675,207.83249449997675,207.83249449997675,207.83249449997675,207.83249449997675,207.83249449997675,207.83249449997675,23,0,,,207.83249449997675,208.03257609996945,0.0,208.03257609996945,0,0.0,0,1,1000,num_1,1.6126039999653585,,26,1,2026-03-05_10h17.50.961,2026A_exp2,2022.2.4,59.9494865618359,
1,0,6.1,6.1,0,0,49,49,27,,,,,209.6674222999718,210.31817400001455,210.31817400001455,210.80279599997448,45,45,210.80279599997448,210.80279599997448,210.80279599997448,210.80279599997448,210.80279599997448,210.80279599997448,210.80279599997448,210.80279599997448,210.80279599997448,211.16912019997835,211.16912019997835,211.16912019997835,211.16912019997835,211.16912019997835,211.16912019997835,211.16912019997835,211.16912019997835,211.16912019997835,23,0,,,211.16912019997835,211.36912649997976,6.1,211.36912649997976,1,6.1,1,1,1000,num_4,1.9159593000076711,,26,1,2026-03-05_10h17.50.961,2026A_exp2,2022.2.4,59.9494865618359,
1000,1,0.0,0.0,1,0,50,50,46,,,,,213.30452509998577,213.95524979999755,213.95524979999755,214.43954950000625,315,45,214.43954950000625,214.43954950000625,214.43954950000625,214.43954950000625,214.43954950000625,214.43954950000625,214.43954950000625,214.43954950000625,214.43954950000625,214.80607150000287,214.80607150000287,214.80607150000287,214.80607150000287,214.80607150000287,214.80607150000287,214.80607150000287,214.80607150000287,214.80607150000287,23,0,,,214.80607150000287,215.00820479996037,1000,215.00820479996037,1000,1000,1000,1000,0,num_3,1.3170574000105262,,26,1,2026-03-05_10h17.50.961,2026A_exp2,2022.2.4,59.9494865618359,
1000,1,6.1,4.9,0,0,51,51,49,,,,,216.34112930000992,216.9918822000036,216.9918822000036,217.48304139997344,315,315,217.48304139997344,217.48304139997344,217.48304139997344,217.48304139997344,217.48304139997344,217.48304139997344,217.48304139997344,217.48304139997344,217.48304139997344,217.84246009995695,217.84246009995695,217.84246009995695,217.84246009995695,217.84246009995695,217.84246009995695,217.84246009995695,217.84246009995695,217.84246009995695,14,5,"[0.021915499994065613, 0.06365690001985058, 0.11398329999065027, 0.1641232999972999, 0.19733350002206862]","[0.031952799996361136, 0.09734540001954883, 0.147346000012476, 0.18086219998076558, 0.2476899999892339]",217.84246009995695,218.0427151999902,1000,218.0427151999902,1000,1000,1000,1000,1,num_2,1.1542915999889374,,26,1,2026-03-05_10h17.50.961,2026A_exp2,2022.2.4,59.9494865618359,
1000,1,0.0,6.1,0,0,52,52,85,,,,,219.22705129999667,219.87784949998604,219.87784949998604,220.3786518999841,315,315,220.3786518999841,220.3786518999841,220.3786518999841,220.3786518999841,220.3786518999841,220.3786518999841,220.3786518999841,220.3786518999841,220.3786518999841,220.72860949998721,220.72860949998721,220.72860949998721,220.72860949998721,220.72860949998721,220.72860949998721,220.72860949998721,220.72860949998721,220.72860949998721,22,0,,,220.72860949998721,220.92865549999988,1000,220.92865549999988,1000,1000,1000,1000,1,num_2,0.5404441999853589,,26,1,2026-03-05_10h17.50.961,2026A_exp2,2022.2.4,59.9494865618359,
1000,1,6.1,4.9,0,0,53,53,68,,,,,221.4961767999921,222.1299313000054,222.1299313000054,222.63081309996778,315,45,222.63081309996778,222.63081309996778,222.63081309996778,222.63081309996778,222.63081309996778,222.63081309996778,222.63081309996778,222.63081309996778,222.63081309996778,222.99716739996802,222.99716739996802,222.99716739996802,222.99716739996802,222.99716739996802,222.99716739996802,222.99716739996802,222.99716739996802,222.99716739996802,23,0,,,222.99716739996802,223.1974215999944,1000,223.1974215999944,1000,1000,1000,1000,0,num_3,1.3357294999877922,,26,1,2026-03-05_10h17.50.961,2026A_exp2,2022.2.4,59.9494865618359,
0,0,0.0,0.0,1,0,54,54,38,,,,,224.5491702000145,225.19955969997682,225.19955969997682,225.70275339996442,45,315,225.70275339996442,225.70275339996442,225.70275339996442,225.70275339996442,225.70275339996442,225.70275339996442,225.70275339996442,225.70275339996442,225.70275339996442,226.05068079999182,226.05068079999182,226.05068079999182,226.05068079999182,226.05068079999182,226.05068079999182,226.05068079999182,226.05068079999182,226.05068079999182,15,2,"[0.20093900000210851, 0.2677350000012666]","[0.2173301000148058, 0.3511756000225432]",226.05068079999182,226.2507903999649,0.0,226.2507903999649,0,0.0,0,1,1000,num_1,1.4911099000019021,,26,1,2026-03-05_10h17.50.961,2026A_exp2,2022.2.4,59.9494865618359,
1000,1,3.7,4.9,0,0,55,55,80,,,,,227.7690339999972,228.4196863999823,228.4196863999823,228.90401890000794,45,45,228.90401890000794,228.90401890000794,228.90401890000794,228.90401890000794,228.90401890000794,228.90401890000794,228.90401890000794,228.90401890000794,228.90401890000794,229.2705699999933,229.2705699999933,229.2705699999933,229.2705699999933,229.2705699999933,229.2705699999933,229.2705699999933,229.2705699999933,229.2705699999933,22,1,[0.3503565999562852],[0.3671197999501601],229.2705699999933,229.4723798999912,1000,229.4723798999912,1000,1000,1000,1000,1,num_2,0.9092581999721006,,26,1,2026-03-05_10h17.50.961,2026A_exp2,2022.2.4,59.9494865618359,
0,0,3.7,6.1,0,0,56,56,73,,,,,230.40496349998284,231.05574949999573,231.05574949999573,231.5568069999572,45,45,231.5568069999572,231.5568069999572,231.5568069999572,231.5568069999572,231.5568069999572,231.5568069999572,231.5568069999572,231.5568069999572,231.5568069999572,231.90654409996932,231.90654409996932,231.90654409996932,231.90654409996932,231.90654409996932,231.90654409996932,231.90654409996932,231.90654409996932,231.90654409996932,22,0,,,231.90654409996932,232.10668199998327,6.1,232.10668199998327,1,6.1,1,1,1000,num_4,1.3628727999748662,,26,1,2026-03-05_10h17.50.961,2026A_exp2,2022.2.4,59.9494865618359,
1000,1,0.0,3.7,1,0,57,57,65,,,,,233.49127439997392,234.14201780001167,234.14201780001167,234.6264380000066,45,315,234.6264380000066,234.6264380000066,234.6264380000066,234.6264380000066,234.6264380000066,234.6264380000066,234.6264380000066,234.6264380000066,234.6264380000066,234.99259280000115,234.99259280000115,234.99259280000115,234.99259280000115,234.99259280000115,234.99259280000115,234.99259280000115,234.99259280000115,234.99259280000115,23,0,,,234.99259280000115,235.19496100000106,1000,235.19496100000106,1000,1000,1000,1000,1,num_2,0.4427783999708481,,26,1,2026-03-05_10h17.50.961,2026A_exp2,2022.2.4,59.9494865618359,
0,0,6.1,0.0,1,0,58,58,30,,,,,235.6601290999679,236.3108954000054,236.3108954000054,236.8119004999753,45,315,236.8119004999753,236.8119004999753,236.8119004999753,236.8119004999753,236.8119004999753,236.8119004999753,236.8119004999753,236.8119004999753,236.8119004999753,237.16182209999533,237.16182209999533,237.16182209999533,237.16182209999533,237.16182209999533,237.16182209999533,237.16182209999533,237.16182209999533,237.16182209999533,22,0,,,237.16182209999533,237.36180559999775,6.1,237.37875319999876,1,6.1,1,1,1000,num_4,0.8016888999845833,,26,1,2026-03-05_10h17.50.961,2026A_exp2,2022.2.4,59.9494865618359,
1000,1,0.0,6.1,1,0,59,59,3,,,,,238.19597040000372,238.84685249999166,238.84685249999166,239.33123730000807,315,45,239.33123730000807,239.33123730000807,239.33123730000807,239.33123730000807,239.33123730000807,239.33123730000807,239.33123730000807,239.33123730000807,239.33123730000807,239.69759309996152,239.69759309996152,239.69759309996152,239.69759309996152,239.69759309996152,239.69759309996152,239.69759309996152,239.69759309996152,239.69759309996152,23,0,,,239.69759309996152,239.89983399998164,1000,239.89983399998164,1000,1000,1000,1000,1,num_2,0.481666799983941,,26,1,2026-03-05_10h17.50.961,2026A_exp2,2022.2.4,59.9494865618359,
1,0,3.7,0.0,1,0,60,60,28,,,,,240.39847509999527,241.048955700011,241.048955700011,241.55004509998253,45,315,241.55004509998253,241.55004509998253,241.55004509998253,241.55004509998253,241.55004509998253,241.55004509998253,241.55004509998253,241.55004509998253,241.55004509998253,241.91649329999927,241.91649329999927,241.91649329999927,241.91649329999927,241.91649329999927,241.91649329999927,241.91649329999927,241.91649329999927,241.91649329999927,23,0,,,241.91649329999927,242.11658719996922,0.0,242.11658719996922,0,0.0,0,1,1000,num_1,1.176571599964518,,26,1,2026-03-05_10h17.50.961,2026A_exp2,2022.2.4,59.9494865618359,
1,0,0.0,6.1,0,0,61,61,43,,,,,243.31797460000962,243.96841039997526,243.96841039997526,244.4530281999614,45,315,244.4530281999614,244.4530281999614,244.4530281999614,244.4530281999614,244.4530281999614,244.4530281999614,244.4530281999614,244.4530281999614,244.4530281999614,244.81958069995744,244.81958069995744,244.81958069995744,244.81958069995744,244.81958069995744,244.81958069995744,244.81958069995744,244.81958069995744,244.81958069995744,22,1,[0.3670191999990493],[0.36702440003864467],244.81958069995744,245.01937950000865,0.0,245.01937950000865,0,0.0,0,1,1000,num_1,0.817825999984052,,26,1,2026-03-05_10h17.50.961,2026A_exp2,2022.2.4,59.9494865618359,
1,0,3.7,0.0,1,0,62,62,13,,,,,245.85375589999603,246.5044068999705,246.5044068999705,246.98877029999858,45,45,246.98877029999858,246.98877029999858,246.98877029999858,246.98877029999858,246.98877029999858,246.98877029999858,246.98877029999858,246.98877029999858,246.98877029999858,247.35534670000197,247.35534670000197,247.35534670000197,247.35534670000197,247.35534670000197,247.35534670000197,247.35534670000197,247.35534670000197,247.35534670000197,21,1,[0.03336920001311228],[0.06688900000881404],247.35534670000197,247.55550989997573,0.0,247.55550989997573,0,0.0,0,1,1000,num_1,1.4659162999596447,,26,1,2026-03-05_10h17.50.961,2026A_exp2,2022.2.4,59.9494865618359,
0,0,0.0,0.0,0,0,63,63,22,,,,,249.0405361999874,249.6909818999702,249.6909818999702,250.1752285999828,45,315,250.1752285999828,250.1752285999828,250.1752285999828,250.1752285999828,250.1752285999828,250.1752285999828,250.1752285999828,250.1752285999828,250.1752285999828,250.54178410000168,250.54178410000168,250.54178410000168,250.54178410000168,250.54178410000168,250.54178410000168,250.54178410000168,250.54178410000168,250.54178410000168,2,2,"[0.017169600003398955, 0.15048060001572594]","[0.1338563000317663, 0.3672810000134632]",250.54178410000168,250.74205880000954,0.0,250.74205880000954,0,0.0,0,1,1000,num_1,0.6632768000126816,,26,1,2026-03-05_10h17.50.961,2026A_exp2,2022.2.4,59.9494865618359,
1,0,6.1,3.7,0,0,64,64,31,,,,,251.42588019999675,252.0767011999851,252.0767011999851,252.56114780000644,315,315,252.56114780000644,252.56114780000644,252.56114780000644,252.56114780000644,252.56114780000644,252.56114780000644,252.56114780000644,252.56114780000644,252.56114780000644,252.927558699972,252.927558699972,252.927558699972,252.927558699972,252.927558699972,252.927558699972,252.927558699972,252.927558699972,252.927558699972,19,1,[0.0012447999906726182],[0.06677939998917282],252.927558699972,253.12775429995963,6.1,253.12775429995963,1,6.1,1,1,1000,num_4,0.9813608999829739,,26,1,2026-03-05_10h17.50.961,2026A_exp2,2022.2.4,59.9494865618359,
1000,1,0.0,4.9,1,0,65,65,78,,,,,254.12860319996253,254.77940070000477,254.77940070000477,255.26384069997584,315,45,255.26384069997584,255.26384069997584,255.26384069997584,255.26384069997584,255.26384069997584,255.26384069997584,255.26384069997584,255.26384069997584,255.26384069997584,255.63000589999137,255.63000589999137,255.63000589999137,255.63000589999137,255.63000589999137,255.63000589999137,255.63000589999137,255.63000589999137,255.63000589999137,23,0,,,255.63000589999137,255.83208550000563,1000,255.83208550000563,1000,1000,1000,1000,1,num_2,0.6213711999589577,,26,1,2026-03-05_10h17.50.961,2026A_exp2,2022.2.4,59.9494865618359,
1,0,0.0,6.1,0,0,66,66,82,,,,,256.48099509999156,257.1316960999975,257.1316960999975,257.6329073999659,315,315,257.6329073999659,257.6329073999659,257.6329073999659,257.6329073999659,257.6329073999659,257.6329073999659,257.6329073999659,257.6329073999659,257.6329073999659,257.98256410000613,257.98256410000613,257.98256410000613,257.98256410000613,257.98256410000613,257.98256410000613,257.98256410000613,257.98256410000613,257.98256410000613,22,0,,,257.98256410000613,258.18274809996365,0.0,258.1995339000132,0,0.0,0,1,1000,num_1,0.8373315000208095,,26,1,2026-03-05_10h17.50.961,2026A_exp2,2022.2.4,59.9494865618359,
1000,1,0.0,0.0,0,0,67,67,87,,,,,259.066815499973,259.71761429996695,259.71761429996695,260.20212669996545,45,45,260.20212669996545,260.20212669996545,260.20212669996545,260.20212669996545,260.20212669996545,260.20212669996545,260.20212669996545,260.20212669996545,260.20212669996545,260.56853749998845,260.56853749998845,260.56853749998845,260.56853749998845,260.56853749998845,260.56853749998845,260.56853749998845,260.56853749998845,260.56853749998845,23,0,,,260.56853749998845,260.77051820000634,1000,260.77051820000634,1000,1000,1000,1000,0,num_3,1.0421556999790482,,26,1,2026-03-05_10h17.50.961,2026A_exp2,2022.2.4,59.9494865618359,
1,0,3.7,0.0,0,0,68,68,8,,,,,261.8362401999766,262.48705110000446,262.48705110000446,262.9881912000128,315,315,262.9881912000128,262.9881912000128,262.9881912000128,262.9881912000128,262.9881912000128,262.9881912000128,262.9881912000128,262.9881912000128,262.9881912000128,263.3545887999935,263.3545887999935,263.3545887999935,263.3545887999935,263.3545887999935,263.3545887999935,263.3545887999935,263.3545887999935,263.3545887999935,22,1,[0.3336896999971941],[0.35034909995738417],263.3545887999935,263.55494090000866,3.7,263.55494090000866,1,3.7,1,1,1000,num_4,0.8747091999975964,,26,1,2026-03-05_10h17.50.961,2026A_exp2,2022.2.4,59.9494865618359,
1000,1,0.0,6.1,1,0,69,69,19,,,,,264.45576340000844,265.1064306999906,265.1064306999906,265.59069350000937,315,45,265.59069350000937,265.59069350000937,265.59069350000937,265.59069350000937,265.59069350000937,265.59069350000937,265.59069350000937,265.59069350000937,265.59069350000937,265.9571360999835,265.9571360999835,265.9571360999835,265.9571360999835,265.9571360999835,265.9571360999835,265.9571360999835,265.9571360999835,265.9571360999835,23,0,,,265.9571360999835,266.15906689997064,1000,266.15906689997064,1000,1000,1000,1000,1,num_2,0.46934890002012253,,26,1,2026-03-05_10h17.50.961,2026A_exp2,2022.2.4,59.9494865618359,
1,0,4.9,0.0,1,0,70,70,25,,,,,266.6580549000064,267.29187289997935,267.29187289997935,267.7928804999683,45,45,267.7928804999683,267.7928804999683,267.7928804999683,267.7928804999683,267.7928804999683,267.7928804999683,267.7928804999683,267.7928804999683,267.7928804999683,268.1595927999588,268.1595927999588,268.1595927999588,268.1595927999588,268.1595927999588,268.1595927999588,268.1595927999588,268.1595927999588,268.1595927999588,23,0,,,268.1595927999588,268.3596525999601,0.0,268.3596525999601,0,0.0,0,1,1000,num_1,1.5263288000132889,,26,1,2026-03-05_10h17.50.961,2026A_exp2,2022.2.4,59.9494865618359,
1000,1,4.9,0.0,0,0,71,71,50,,,,,269.9109354999964,270.5618265999947,270.5618265999947,271.062981199997,315,315,271.062981199997,271.062981199997,271.062981199997,271.062981199997,271.062981199997,271.062981199997,271.062981199997,271.062981199997,271.062981199997,271.41265409998596,271.41265409998596,271.41265409998596,271.41265409998596,271.41265409998596,271.41265409998596,271.41265409998596,271.41265409998596,271.41265409998596,22,0,,,271.41265409998596,271.61449770000763,1000,271.61449770000763,1000,1000,1000,1000,0,num_3,1.286828299984336,,26,1,2026-03-05_10h17.50.961,2026A_exp2,2022.2.4,59.9494865618359,
1,0,4.9,0.0,0,0,72,72,4,,,,,272.93076319998363,273.58142389997374,273.58142389997374,274.0827212999575,315,45,274.0827212999575,274.0827212999575,274.0827212999575,274.0827212999575,274.0827212999575,274.0827212999575,274.0827212999575,274.0827212999575,274.0827212999575,274.44911180000054,274.44911180000054,274.44911180000054,274.44911180000054,274.44911180000054,274.44911180000054,274.44911180000054,274.44911180000054,274.44911180000054,23,0,,,274.44911180000054,274.65262329997495,4.9,274.65262329997495,1,4.9,1,1,1000,num_4,0.9048209000029601,,26,1,2026-03-05_10h17.50.961,2026A_exp2,2022.2.4,59.9494865618359,
1,0,4.9,3.7,1,0,73,73,10,,,,,275.5834192999755,276.23421630001394,276.23421630001394,276.73527389997616,315,315,276.73527389997616,276.73527389997616,276.73527389997616,276.73527389997616,276.73527389997616,276.73527389997616,276.73527389997616,276.73527389997616,276.73527389997616,277.101760199992,277.101760199992,277.101760199992,277.101760199992,277.101760199992,277.101760199992,277.101760199992,277.101760199992,277.101760199992,23,0,,,277.101760199992,277.30193759995745,3.7,277.30193759995745,0,3.7,1,0,1000,num_1,1.4793353999848478,,26,1,2026-03-05_10h17.50.961,2026A_exp2,2022.2.4,59.9494865618359,
1,0,4.9,6.1,0,0,74,74,33,,,,,278.80321179999737,279.4540638999897,279.4540638999897,279.9385237999959,45,315,279.9385237999959,279.9385237999959,279.9385237999959,279.9385237999959,279.9385237999959,279.9385237999959,279.9385237999959,279.9385237999959,279.9385237999959,280.3049063999788,280.3049063999788,280.3049063999788,280.3049063999788,280.3049063999788,280.3049063999788,280.3049063999788,280.3049063999788,280.3049063999788,23,0,,,280.3049063999788,280.5051139999996,4.9,280.5051139999996,0,4.9,1,0,1000,num_1,1.4607835999922827,,26,1,2026-03-05_10h17.50.961,2026A_exp2,2022.2.4,59.9494865618359,
1000,1,0.0,0.0,0,0,75,75,72,,,,,281.98986530001275,282.6405875000055,282.6405875000055,283.1248840999906,45,315,283.1248840999906,283.1248840999906,283.1248840999906,283.1248840999906,283.1248840999906,283.1248840999906,283.1248840999906,283.1248840999906,283.1248840999906,283.49138119997224,283.49138119997224,283.49138119997224,283.49138119997224,283.49138119997224,283.49138119997224,283.49138119997224,283.49138119997224,283.49138119997224,8,4,"[0.01729909999994561, 0.11697640002239496, 0.16707520000636578, 0.3005546000204049]","[0.0502437999821268, 0.13369629997760057, 0.2838247999898158, 0.36728649999713525]",283.49138119997224,283.6935285999789,1000,283.6935285999789,1000,1000,1000,1000,0,num_3,0.7108956000301987,,26,1,2026-03-05_10h17.50.961,2026A_exp2,2022.2.4,59.9494865618359,
1000,1,0.0,0.0,0,0,76,76,36,,,,,284.425665399991,285.07636349997483,285.07636349997483,285.57924210000783,315,45,285.57924210000783,285.57924210000783,285.57924210000783,285.57924210000783,285.57924210000783,285.57924210000783,285.57924210000783,285.57924210000783,285.57924210000783,285.9272259999998,285.9272259999998,285.9272259999998,285.9272259999998,285.9272259999998,285.9272259999998,285.9272259999998,285.9272259999998,285.9272259999998,22,0,,,285.9272259999998,286.12896900001215,1000,286.14416530000744,1000,1000,1000,1000,0,num_3,0.7003805999993347,,26,1,2026-03-05_10h17.50.961,2026A_exp2,2022.2.4,59.9494865618359,
1000,1,6.1,3.7,0,0,77,77,18,,,,,286.86134379997384,287.51211499999044,287.51211499999044,288.0131615999853,45,45,288.0131615999853,288.0131615999853,288.0131615999853,288.0131615999853,288.0131615999853,288.0131615999853,288.0131615999853,288.0131615999853,288.0131615999853,288.3796683999826,288.3796683999826,288.3796683999826,288.3796683999826,288.3796683999826,288.3796683999826,288.3796683999826,288.3796683999826,288.3796683999826,23,0,,,288.3796683999826,288.58287149999524,1000,288.58287149999524,1000,1000,1000,1000,1,num_2,1.366404699976556,,26,1,2026-03-05_10h17.50.961,2026A_exp2,2022.2.4,59.9494865618359,
1000,1,3.7,0.0,0,0,78,78,66,,,,,289.96445530001074,290.6152180999634,290.6152180999634,291.11644219997106,45,315,291.11644219997106,291.11644219997106,291.11644219997106,291.11644219997106,291.11644219997106,291.11644219997106,291.11644219997106,291.11644219997106,291.11644219997106,291.48272879997967,291.48272879997967,291.48272879997967,291.48272879997967,291.48272879997967,291.48272879997967,291.48272879997967,291.48272879997967,291.48272879997967,8,3,"[0.0010310999932698905, 0.06697610003175214, 0.15055820002453402]","[0.017497299995739013, 0.13374700001440942, 0.31734840001445264]",291.48272879997967,291.6845585000119,1000,291.6845585000119,1000,1000,1000,1000,0,num_3,0.5524130000267178,,26,1,2026-03-05_10h17.50.961,2026A_exp2,2022.2.4,59.9494865618359,
1000,1,3.7,4.9,0,0,79,79,64,,,,,292.2665735000046,292.9176110000117,292.9176110000117,293.418646599981,45,315,293.418646599981,293.418646599981,293.418646599981,293.418646599981,293.418646599981,293.418646599981,293.418646599981,293.418646599981,293.418646599981,293.7682163999998,293.7682163999998,293.7682163999998,293.7682163999998,293.7682163999998,293.7682163999998,293.7682163999998,293.7682163999998,293.7682163999998,22,0,,,293.7682163999998,293.9704178000102,1000,293.98530729999766,1000,1000,1000,1000,1,num_2,0.5398915999685414,,26,1,2026-03-05_10h17.50.961,2026A_exp2,2022.2.4,59.9494865618359,
1000,1,0.0,0.0,0,0,80,80,37,,,,,294.55232359998627,295.2031324999989,295.2031324999989,295.70423579995986,45,45,295.70423579995986,295.70423579995986,295.70423579995986,295.70423579995986,295.70423579995986,295.70423579995986,295.70423579995986,295.70423579995986,295.70423579995986,296.0540156000061,296.0540156000061,296.0540156000061,296.0540156000061,296.0540156000061,296.0540156000061,296.0540156000061,296.0540156000061,296.0540156000061,22,0,,,296.0540156000061,296.25605349999387,1000,296.25605349999387,1000,1000,1000,1000,0,num_3,0.6131328999763355,,26,1,2026-03-05_10h17.50.961,2026A_exp2,2022.2.4,59.9494865618359,
1000,1,3.7,0.0,1,0,81,81,88,,,,,296.88834549998865,297.53878060000716,297.53878060000716,298.0233191999723,315,45,298.0233191999723,298.0233191999723,298.0233191999723,298.0233191999723,298.0233191999723,298.0233191999723,298.0233191999723,298.0233191999723,298.0233191999723,298.3896976999822,298.3896976999822,298.3896976999822,298.3896976999822,298.3896976999822,298.3896976999822,298.3896976999822,298.3896976999822,298.3896976999822,0,1,[0.001228499982971698],[0.3671613999758847],298.3896976999822,298.59159490000457,1000,298.59159490000457,1000,1000,1000,1000,0,num_3,0.5974020999856293,,26,1,2026-03-05_10h17.50.961,2026A_exp2,2022.2.4,59.9494865618359,
1,0,0.0,3.7,1,0,82,82,0,,,,,299.20707379997475,299.8575977999717,299.8575977999717,300.35894720000215,315,315,300.35894720000215,300.35894720000215,300.35894720000215,300.35894720000215,300.35894720000215,300.35894720000215,300.35894720000215,300.35894720000215,300.35894720000215,300.70854849996977,300.70854849996977,300.70854849996977,300.70854849996977,300.70854849996977,300.70854849996977,300.70854849996977,300.70854849996977,300.70854849996977,22,0,,,300.70854849996977,300.908898899972,3.7,300.908898899972,1,3.7,1,1,1000,num_4,0.8247656000312418,,26,1,2026-03-05_10h17.50.961,2026A_exp2,2022.2.4,59.9494865618359,
1,0,3.7,0.0,1,0,83,83,11,,,,,301.75954890000867,302.4102708999999,302.4102708999999,302.8947334999684,315,315,302.8947334999684,302.8947334999684,302.8947334999684,302.8947334999684,302.8947334999684,302.8947334999684,302.8947334999684,302.8947334999684,302.8947334999684,303.2611864999635,303.2611864999635,303.2611864999635,303.2611864999635,303.2611864999635,303.2611864999635,303.2611864999635,303.2611864999635,303.2611864999635,23,0,,,303.2611864999635,303.46141960000386,0.0,303.46141960000386,0,0.0,0,1,1000,num_1,0.9283455000258982,,26,1,2026-03-05_10h17.50.961,2026A_exp2,2022.2.4,59.9494865618359,
1000,1,0.0,6.1,1,0,84,84,62,,,,,304.41221009998117,305.0629255999811,305.0629255999811,305.54746789997444,315,45,305.54746789997444,305.54746789997444,305.54746789997444,305.54746789997444,305.54746789997444,305.54746789997444,305.54746789997444,305.54746789997444,305.54746789997444,305.91372710000724,305.91372710000724,305.91372710000724,305.91372710000724,305.91372710000724,305.91372710000724,305.91372710000724,305.91372710000724,305.91372710000724,23,0,,,305.91372710000724,306.1154175999691,1000,306.1154175999691,1000,1000,1000,1000,1,num_2,0.7060509999864735,,26,1,2026-03-05_10h17.50.961,2026A_exp2,2022.2.4,59.9494865618359,
1000,1,3.7,4.9,1,0,85,85,20,,,,,306.8482712999685,307.4984856999945,307.4984856999945,307.99980039999355,45,315,307.99980039999355,307.99980039999355,307.99980039999355,307.99980039999355,307.99980039999355,307.99980039999355,307.99980039999355,307.99980039999355,307.99980039999355,308.366341899964,308.366341899964,308.366341899964,308.366341899964,308.366341899964,308.366341899964,308.366341899964,308.366341899964,308.366341899964,23,0,,,308.366341899964,308.5681254999945,1000,308.5681254999945,1000,1000,1000,1000,1,num_2,0.8450911999680102,,26,1,2026-03-05_10h17.50.961,2026A_exp2,2022.2.4,59.9494865618359,
1000,1,0.0,6.1,0,0,86,86,58,,,,,309.4338492999668,310.08455599995796,310.08455599995796,310.5856600999832,315,45,310.5856600999832,310.5856600999832,310.5856600999832,310.5856600999832,310.5856600999832,310.5856600999832,310.5856600999832,310.5856600999832,310.5856600999832,310.9521558000124,310.9521558000124,310.9521558000124,310.9521558000124,310.9521558000124,310.9521558000124,310.9521558000124,310.9521558000124,310.9521558000124,23,0,,,310.9521558000124,311.15372030000435,1000,311.15372030000435,1000,1000,1000,1000,1,num_2,0.5956692000036128,,26,1,2026-03-05_10h17.50.961,2026A_exp2,2022.2.4,59.9494865618359,
1,0,4.9,3.7,0,0,87,87,9,,,,,311.76946380001027,312.42053519998444,312.42053519998444,312.921491599991,315,315,312.921491599991,312.921491599991,312.921491599991,312.921491599991,312.921491599991,312.921491599991,312.921491599991,312.921491599991,312.921491599991,313.2878924999968,313.2878924999968,313.2878924999968,313.2878924999968,313.2878924999968,313.2878924999968,313.2878924999968,313.2878924999968,313.2878924999968,23,0,,,313.2878924999968,313.4880333999754,4.9,313.4880333999754,1,4.9,1,1,1000,num_4,0.9577915999689139,,26,1,2026-03-05_10h17.50.961,2026A_exp2,2022.2.4,59.9494865618359,
1,0,4.9,3.7,1,0,88,88,26,,,,,314.47228250000626,315.1230809999979,315.1230809999979,315.6074975999654,315,315,315.6074975999654,315.6074975999654,315.6074975999654,315.6074975999654,315.6074975999654,315.6074975999654,315.6074975999654,315.6074975999654,315.6074975999654,315.9736607999657,315.9736607999657,315.9736607999657,315.9736607999657,315.9736607999657,315.9736607999657,315.9736607999657,315.9736607999657,315.9736607999657,23,0,,,315.9736607999657,316.1740197999752,3.7,316.1740197999752,0,3.7,1,0,1000,num_1,0.9991889999946579,,26,1,2026-03-05_10h17.50.961,2026A_exp2,2022.2.4,59.9494865618359,
1,0,4.9,4.9,0,0,89,89,84,,,,,317.19163969997317,317.84221739997156,317.84221739997156,318.343552300008,315,45,318.343552300008,318.343552300008,318.343552300008,318.343552300008,318.343552300008,318.343552300008,318.343552300008,318.343552300008,318.343552300008,318.7099451000104,318.7099451000104,318.7099451000104,318.7099451000104,318.7099451000104,318.7099451000104,318.7099451000104,318.7099451000104,318.7099451000104,23,0,,,318.7099451000104,318.91021070000716,4.9,318.91021070000716,1,4.9,1,1,1000,num_4,1.0142875000019558,,26,1,2026-03-05_10h17.50.961,2026A_exp2,2022.2.4,59.9494865618359,
,,,,,,,,,,,,,,,,,,,,,,,,,,,,,,,,,,,,,,,,,,,,,,,,,,,,319.94683390000137,,,,,,,
