validity,detectorcomp,contrastCW,contrastCCW,precueCWorCCW,block_80trials.thisRepN,block_80trials.thisTrialN,block_80trials.thisN,block_80trials.thisIndex,etRecord.started,etRecord.stopped,text.started,text.stopped,text_4.started,text_4.stopped,text_6.started,text_6.stopped,oriCW,oriCCW,roi_2.started,grating_UR.started,grating_UL.started,grating_LR.started,grating_LL.started,noise_UR.started,noise_UL.started,noise_LR.started,noise_LL.started,roi_2.stopped,grating_UR.stopped,grating_UL.stopped,grating_LR.stopped,grating_LL.stopped,noise_UR.stopped,noise_UL.stopped,noise_LR.stopped,noise_LL.stopped,outframe,roi_2.numLooks,roi_2.timesOn,roi_2.timesOff,text_2.started,text_2.stopped,probedcontrast,key_resp.started,respdetect,relevantContrast,correctDetect,TorFdetect,respCWorCCW,key_resp.keys,key_resp.rt,feedback_display_.started,participantNo,blockNo,date,expName,psychopyVersion,frameRate,
1000,1,0.0,0.0,1,0,0,0,9,7.459986954927444e-05,7.459986954927444e-05,47.08548099990003,49.0877521999646,49.0877521999646,49.722041399916634,49.722041399916634,50.2427228000015,45,45,50.2427228000015,50.2427228000015,50.2427228000015,50.2427228000015,50.2427228000015,50.2427228000015,50.2427228000015,50.2427228000015,50.2427228000015,50.58939990005456,50.58939990005456,50.58939990005456,50.58939990005456,50.58939990005456,50.58939990005456,50.58939990005456,50.58939990005456,50.58939990005456,0,1,[0.0009934001136571169],[0.36796380020678043],50.58939990005456,50.796806999947876,1000,50.796806999947876,1000,1000,1000,1000,1,num_2,0.5308970001060516,,33,12,2026-03-12_18h17.29.320,2026A_exp2,2022.2.4,59.90211988814813,
1,0,4.9,0.0,0,0,1,1,53,,,,,51.35697690001689,52.00755289988592,52.00755289988592,52.492040399927646,315,315,52.492040399927646,52.492040399927646,52.492040399927646,52.492040399927646,52.492040399927646,52.492040399927646,52.492040399927646,52.492040399927646,52.492040399927646,52.858404099941254,52.858404099941254,52.858404099941254,52.858404099941254,52.858404099941254,52.858404099941254,52.858404099941254,52.858404099941254,52.858404099941254,0,1,[0.0012217999901622534],[0.36718739988282323],52.858404099941254,53.05857599992305,4.9,53.05857599992305,1,4.9,1,1,1000,num_4,0.6525963000021875,,33,12,2026-03-12_18h17.29.320,2026A_exp2,2022.2.4,59.90211988814813,
1,0,6.1,0.0,0,0,2,2,82,,,,,53.7430902000051,54.39325700001791,54.39325700001791,54.89440459990874,315,315,54.89440459990874,54.89440459990874,54.89440459990874,54.89440459990874,54.89440459990874,54.89440459990874,54.89440459990874,54.89440459990874,54.89440459990874,55.26068209996447,55.26068209996447,55.26068209996447,55.26068209996447,55.26068209996447,55.26068209996447,55.26068209996447,55.26068209996447,55.26068209996447,0,1,[0.0012360000982880592],[0.3673751000314951],55.26068209996447,55.46108080004342,6.1,55.46108080004342,1,6.1,1,1,1000,num_4,0.6186859000008553,,33,12,2026-03-12_18h17.29.320,2026A_exp2,2022.2.4,59.90211988814813,
1,0,0.0,0.0,1,0,3,3,42,,,,,56.11133400001563,56.76228739996441,56.76228739996441,57.2468103999272,45,45,57.2468103999272,57.2468103999272,57.2468103999272,57.2468103999272,57.2468103999272,57.2468103999272,57.2468103999272,57.2468103999272,57.2468103999272,57.61318450002,57.61318450002,57.61318450002,57.61318450002,57.61318450002,57.61318450002,57.61318450002,57.61318450002,57.61318450002,0,1,[0.0012651998549699783],[0.36717749992385507],57.61318450002,57.813238200033084,0.0,57.813238200033084,1,0.0,0,0,1000,num_4,0.7147377000655979,,33,12,2026-03-12_18h17.29.320,2026A_exp2,2022.2.4,59.90211988814813,
1000,1,4.9,0.0,0,0,4,4,41,,,,,58.54713650001213,59.181325200013816,59.181325200013816,59.68257059995085,315,45,59.68257059995085,59.68257059995085,59.68257059995085,59.68257059995085,59.68257059995085,59.68257059995085,59.68257059995085,59.68257059995085,59.68257059995085,60.04890189995058,60.04890189995058,60.04890189995058,60.04890189995058,60.04890189995058,60.04890189995058,60.04890189995058,60.04890189995058,60.04890189995058,0,1,[0.0012076999992132187],[0.3673251001164317],60.04890189995058,60.25082489987835,1000,60.25082489987835,1000,1000,1000,1000,0,num_3,0.5253218000289053,,33,12,2026-03-12_18h17.29.320,2026A_exp2,2022.2.4,59.90211988814813,
1000,1,0.0,3.7,0,0,5,5,46,,,,,60.799692899920046,61.45027039991692,61.45027039991692,61.95125969988294,315,315,61.95125969988294,61.95125969988294,61.95125969988294,61.95125969988294,61.95125969988294,61.95125969988294,61.95125969988294,61.95125969988294,61.95125969988294,62.317844999954104,62.317844999954104,62.317844999954104,62.317844999954104,62.317844999954104,62.317844999954104,62.317844999954104,62.317844999954104,62.317844999954104,0,1,[0.0012604999355971813],[0.367179200053215],62.317844999954104,62.519765599863604,1000,62.519765599863604,1000,1000,1000,1000,1,num_2,0.35130340000614524,,33,12,2026-03-12_18h17.29.320,2026A_exp2,2022.2.4,59.90211988814813,
1000,1,6.1,6.1,1,0,6,6,4,,,,,62.90174299990758,63.552469099871814,63.552469099871814,64.0534741000738,315,315,64.0534741000738,64.0534741000738,64.0534741000738,64.0534741000738,64.0534741000738,64.0534741000738,64.0534741000738,64.0534741000738,64.0534741000738,64.4199717999436,64.4199717999436,64.4199717999436,64.4199717999436,64.4199717999436,64.4199717999436,64.4199717999436,64.4199717999436,64.4199717999436,1,1,[0.01737500005401671],[0.3672060000244528],64.4199717999436,64.62181839998811,1000,64.62181839998811,1000,1000,1000,1000,1,num_2,0.23335970006883144,,33,12,2026-03-12_18h17.29.320,2026A_exp2,2022.2.4,59.90211988814813,
1,0,6.1,0.0,1,0,7,7,80,,,,,64.87104579992592,65.52105550002307,65.52105550002307,66.02214500005357,315,315,66.02214500005357,66.02214500005357,66.02214500005357,66.02214500005357,66.02214500005357,66.02214500005357,66.02214500005357,66.02214500005357,66.02214500005357,66.3885671000462,66.3885671000462,66.3885671000462,66.3885671000462,66.3885671000462,66.3885671000462,66.3885671000462,66.3885671000462,66.3885671000462,0,1,[0.0012672999873757362],[0.36713829985819757],66.3885671000462,66.58864509989507,0.0,66.58864509989507,0,0.0,0,1,1000,num_1,0.8671337000560015,,33,12,2026-03-12_18h17.29.320,2026A_exp2,2022.2.4,59.90211988814813,
1000,1,3.7,0.0,1,0,8,8,38,,,,,67.47299379995093,68.1236969998572,68.1236969998572,68.60802070004866,45,45,68.60802070004866,68.60802070004866,68.60802070004866,68.60802070004866,68.60802070004866,68.60802070004866,68.60802070004866,68.60802070004866,68.60802070004866,68.97452559997328,68.97452559997328,68.97452559997328,68.97452559997328,68.97452559997328,68.97452559997328,68.97452559997328,68.97452559997328,68.97452559997328,0,1,[0.0012707000132650137],[0.36702560004778206],68.97452559997328,69.17652059998363,1000,69.17652059998363,1000,1000,1000,1000,0,num_3,0.2793747999239713,,33,12,2026-03-12_18h17.29.320,2026A_exp2,2022.2.4,59.90211988814813,
1,0,0.0,6.1,1,0,9,9,36,,,,,69.47491659992374,70.12567129987292,70.12567129987292,70.62666589999571,315,315,70.62666589999571,70.62666589999571,70.62666589999571,70.62666589999571,70.62666589999571,70.62666589999571,70.62666589999571,70.62666589999571,70.62666589999571,70.99286959995516,70.99286959995516,70.99286959995516,70.99286959995516,70.99286959995516,70.99286959995516,70.99286959995516,70.99286959995516,70.99286959995516,0,1,[0.0012145000509917736],[0.36715569999068975],70.99286959995516,71.19333490007557,6.1,71.19333490007557,1,6.1,1,1,1000,num_4,0.5987935001030564,,33,12,2026-03-12_18h17.29.320,2026A_exp2,2022.2.4,59.90211988814813,
0,0,4.9,3.7,0,0,10,10,28,,,,,71.81056770007126,72.46116319997236,72.46116319997236,72.94563600001857,45,315,72.94563600001857,72.94563600001857,72.94563600001857,72.94563600001857,72.94563600001857,72.94563600001857,72.94563600001857,72.94563600001857,72.94563600001857,73.31209459993988,73.31209459993988,73.31209459993988,73.31209459993988,73.31209459993988,73.31209459993988,73.31209459993988,73.31209459993988,73.31209459993988,0,1,[0.0012151000555604696],[0.3674048001412302],73.31209459993988,73.51232789992355,3.7,73.51232789992355,0,3.7,1,0,1000,num_1,0.7828253000043333,,33,12,2026-03-12_18h17.29.320,2026A_exp2,2022.2.4,59.90211988814813,
1,0,0.0,3.7,1,0,11,11,32,,,,,74.31301330006681,74.96376099996269,74.96376099996269,75.44828950008377,315,45,75.44828950008377,75.44828950008377,75.44828950008377,75.44828950008377,75.44828950008377,75.44828950008377,75.44828950008377,75.44828950008377,75.44828950008377,75.81473920005374,75.81473920005374,75.81473920005374,75.81473920005374,75.81473920005374,75.81473920005374,75.81473920005374,75.81473920005374,75.81473920005374,0,1,[0.0012105999048799276],[0.36723980004899204],75.81473920005374,76.0149373000022,3.7,76.0149373000022,1,3.7,1,1,1000,num_4,0.5612226000521332,,33,12,2026-03-12_18h17.29.320,2026A_exp2,2022.2.4,59.90211988814813,
1,0,4.9,0.0,1,0,12,12,65,,,,,76.59871260006912,77.24938039993867,77.24938039993867,77.75043760007247,315,45,77.75043760007247,77.75043760007247,77.75043760007247,77.75043760007247,77.75043760007247,77.75043760007247,77.75043760007247,77.75043760007247,77.75043760007247,78.10011760005727,78.10011760005727,78.10011760005727,78.10011760005727,78.10011760005727,78.10011760005727,78.10011760005727,78.10011760005727,78.10011760005727,1,1,[0.017136899987235665],[0.35045880009420216],78.10011760005727,78.30047770007513,0.0,78.30047770007513,0,0.0,0,1,1000,num_1,0.5396457000169903,,33,12,2026-03-12_18h17.29.320,2026A_exp2,2022.2.4,59.90211988814813,
1,0,4.9,3.7,0,0,13,13,44,,,,,78.86758120008744,79.51827630004846,79.51827630004846,80.01956410007551,45,315,80.01956410007551,80.01956410007551,80.01956410007551,80.01956410007551,80.01956410007551,80.01956410007551,80.01956410007551,80.01956410007551,80.01956410007551,80.36910360003822,80.36910360003822,80.36910360003822,80.36910360003822,80.36910360003822,80.36910360003822,80.36910360003822,80.36910360003822,80.36910360003822,0,1,[0.0012256000190973282],[0.35062919999472797],80.36910360003822,80.56939650001004,4.9,80.5858366000466,1,4.9,1,1,1000,num_4,0.5733347998466343,,33,12,2026-03-12_18h17.29.320,2026A_exp2,2022.2.4,59.90211988814813,
1,0,6.1,4.9,1,0,14,14,64,,,,,81.18665609997697,81.83739360002801,81.83739360002801,82.32188310008496,315,315,82.32188310008496,82.32188310008496,82.32188310008496,82.32188310008496,82.32188310008496,82.32188310008496,82.32188310008496,82.32188310008496,82.32188310008496,82.6879741998855,82.6879741998855,82.6879741998855,82.6879741998855,82.6879741998855,82.6879741998855,82.6879741998855,82.6879741998855,82.6879741998855,0,1,[0.0012757000513374805],[0.36683330009691417],82.6879741998855,82.88855969998986,4.9,82.88855969998986,1,4.9,1,1,1000,num_4,0.8712160000577569,,33,12,2026-03-12_18h17.29.320,2026A_exp2,2022.2.4,59.90211988814813,
1000,1,0.0,4.9,0,0,15,15,60,,,,,83.78911860007793,84.43999919993803,84.43999919993803,84.94114469992928,315,315,84.94114469992928,84.94114469992928,84.94114469992928,84.94114469992928,84.94114469992928,84.94114469992928,84.94114469992928,84.94114469992928,84.94114469992928,85.29083549999632,85.29083549999632,85.29083549999632,85.29083549999632,85.29083549999632,85.29083549999632,85.29083549999632,85.29083549999632,85.29083549999632,0,1,[0.0010590997990220785],[0.350687799975276],85.29083549999632,85.49241349985823,1000,85.507758700056,1000,1000,1000,1000,1,num_2,0.13209059997461736,,33,12,2026-03-12_18h17.29.320,2026A_exp2,2022.2.4,59.90211988814813,
1000,1,6.1,0.0,0,0,16,16,81,,,,,85.65818069991656,86.3084754999727,86.3084754999727,86.80951759987511,315,45,86.80951759987511,86.80951759987511,86.80951759987511,86.80951759987511,86.80951759987511,86.80951759987511,86.80951759987511,86.80951759987511,86.80951759987511,87.15952119999565,87.15952119999565,87.15952119999565,87.15952119999565,87.15952119999565,87.15952119999565,87.15952119999565,87.15952119999565,87.15952119999565,12,1,[0.2005482001695782],[0.35065050004050136],87.15952119999565,87.36163769988343,1000,87.36163769988343,1000,1000,1000,1000,0,num_3,0.14216449996456504,,33,12,2026-03-12_18h17.29.320,2026A_exp2,2022.2.4,59.90211988814813,
1,0,0.0,3.7,1,0,17,17,14,,,,,87.52628739993088,88.1770776999183,88.1770776999183,88.67798659997061,315,45,88.67798659997061,88.67798659997061,88.67798659997061,88.67798659997061,88.67798659997061,88.67798659997061,88.67798659997061,88.67798659997061,88.67798659997061,89.04467989993282,89.04467989993282,89.04467989993282,89.04467989993282,89.04467989993282,89.04467989993282,89.04467989993282,89.04467989993282,89.04467989993282,0,1,[0.0012471000663936138],[0.37018839991651475],89.04467989993282,89.24710660008714,3.7,89.24710660008714,1,3.7,1,1,1000,num_4,0.6007137999404222,,33,12,2026-03-12_18h17.29.320,2026A_exp2,2022.2.4,59.90211988814813,
1,0,0.0,4.9,0,0,18,18,73,,,,,89.87887550005689,90.530256500002,90.530256500002,91.03062759991735,45,45,91.03062759991735,91.03062759991735,91.03062759991735,91.03062759991735,91.03062759991735,91.03062759991735,91.03062759991735,91.03062759991735,91.03062759991735,91.39694950007834,91.39694950007834,91.39694950007834,91.39694950007834,91.39694950007834,91.39694950007834,91.39694950007834,91.39694950007834,91.39694950007834,2,1,[0.03358359984122217],[0.36766899982467294],91.39694950007834,91.59713059989735,0.0,91.59713059989735,0,0.0,0,1,1000,num_1,0.6666310001164675,,33,12,2026-03-12_18h17.29.320,2026A_exp2,2022.2.4,59.90211988814813,
1,0,0.0,0.0,0,0,19,19,55,,,,,92.28103820001706,92.93184529989958,92.93184529989958,93.43296830006875,315,45,93.43296830006875,93.43296830006875,93.43296830006875,93.43296830006875,93.43296830006875,93.43296830006875,93.43296830006875,93.43296830006875,93.43296830006875,93.78269420005381,93.78269420005381,93.78269420005381,93.78269420005381,93.78269420005381,93.78269420005381,93.78269420005381,93.78269420005381,93.78269420005381,0,1,[0.0012557001318782568],[0.3506030000280589],93.78269420005381,93.98268130002543,0.0,93.98268130002543,1,0.0,0,0,1000,num_4,1.2573949999641627,,33,12,2026-03-12_18h17.29.320,2026A_exp2,2022.2.4,59.90211988814813,
0,0,0.0,3.7,0,0,20,20,34,,,,,95.26729959994555,95.91821700008586,95.91821700008586,96.40261019999161,315,45,96.40261019999161,96.40261019999161,96.40261019999161,96.40261019999161,96.40261019999161,96.40261019999161,96.40261019999161,96.40261019999161,96.40261019999161,96.76901479996741,96.76901479996741,96.76901479996741,96.76901479996741,96.76901479996741,96.76901479996741,96.76901479996741,96.76901479996741,96.76901479996741,0,1,[0.0013456998858600855],[0.36727500008419156],96.76901479996741,96.96911210007966,3.7,96.96911210007966,0,3.7,1,0,1000,num_1,0.7260481000412256,,33,12,2026-03-12_18h17.29.320,2026A_exp2,2022.2.4,59.90211988814813,
1000,1,0.0,6.1,1,0,21,21,43,,,,,97.7198310000822,98.37263250001706,98.37263250001706,98.86033549997956,45,45,98.86033549997956,98.86033549997956,98.86033549997956,98.86033549997956,98.86033549997956,98.86033549997956,98.86033549997956,98.86033549997956,98.86033549997956,99.22150329989381,99.22150329989381,99.22150329989381,99.22150329989381,99.22150329989381,99.22150329989381,99.22150329989381,99.22150329989381,99.22150329989381,0,1,[0.002516200067475438],[0.36576239997521043],99.22150329989381,99.42164979991503,1000,99.43830189993605,1000,1000,1000,1000,1,num_2,0.49738009995780885,,33,12,2026-03-12_18h17.29.320,2026A_exp2,2022.2.4,59.90211988814813,
1000,1,0.0,4.9,0,0,22,22,26,,,,,99.95534870005213,100.60621339990757,100.60621339990757,101.10734619991854,45,315,101.10734619991854,101.10734619991854,101.10734619991854,101.10734619991854,101.10734619991854,101.10734619991854,101.10734619991854,101.10734619991854,101.10734619991854,101.47347830003127,101.47347830003127,101.47347830003127,101.47347830003127,101.47347830003127,101.47347830003127,101.47347830003127,101.47347830003127,101.47347830003127,0,1,[0.001223099883645773],[0.36673839995637536],101.47347830003127,101.67397210001945,1000,101.67397210001945,1000,1000,1000,1000,1,num_2,0.15784549992531538,,33,12,2026-03-12_18h17.29.320,2026A_exp2,2022.2.4,59.90211988814813,
1,0,6.1,0.0,0,0,23,23,47,,,,,101.85756170004606,102.50810269988142,102.50810269988142,102.99265859997831,45,45,102.99265859997831,102.99265859997831,102.99265859997831,102.99265859997831,102.99265859997831,102.99265859997831,102.99265859997831,102.99265859997831,102.99265859997831,103.35883649997413,103.35883649997413,103.35883649997413,103.35883649997413,103.35883649997413,103.35883649997413,103.35883649997413,103.35883649997413,103.35883649997413,0,1,[0.0016677998937666416],[0.3674267998430878],103.35883649997413,103.55913199996576,6.1,103.55913199996576,1,6.1,1,1,1000,num_4,0.5838725999929011,,33,12,2026-03-12_18h17.29.320,2026A_exp2,2022.2.4,59.90211988814813,
0,0,6.1,0.0,0,0,24,24,74,,,,,104.15964109986089,104.81043080007657,104.81043080007657,105.31138439988717,315,45,105.31138439988717,105.31138439988717,105.31138439988717,105.31138439988717,105.31138439988717,105.31138439988717,105.31138439988717,105.31138439988717,105.31138439988717,105.66117089986801,105.66117089986801,105.66117089986801,105.66117089986801,105.66117089986801,105.66117089986801,105.66117089986801,105.66117089986801,105.66117089986801,0,1,[0.0010332998353987932],[0.35054299980401993],105.66117089986801,105.87406220007688,0.0,105.87406220007688,0,0.0,0,1,1000,num_1,0.6529652001336217,,33,12,2026-03-12_18h17.29.320,2026A_exp2,2022.2.4,59.90211988814813,
1000,1,6.1,0.0,1,0,25,25,29,,,,,106.54529289994389,107.19604319985956,107.19604319985956,107.6964213999454,315,45,107.6964213999454,107.6964213999454,107.6964213999454,107.6964213999454,107.6964213999454,107.6964213999454,107.6964213999454,107.6964213999454,107.6964213999454,108.04706849996,108.04706849996,108.04706849996,108.04706849996,108.04706849996,108.04706849996,108.04706849996,108.04706849996,108.04706849996,0,1,[0.004429499851539731],[0.36583259981125593],108.04706849996,108.26310739992186,1000,108.26310739992186,1000,1000,1000,1000,0,num_3,0.16866829991340637,,33,12,2026-03-12_18h17.29.320,2026A_exp2,2022.2.4,59.90211988814813,
1000,1,0.0,0.0,0,0,26,26,5,,,,,108.44723220006563,109.0981538000051,109.0981538000051,109.59897410008125,315,315,109.59897410008125,109.59897410008125,109.59897410008125,109.59897410008125,109.59897410008125,109.59897410008125,109.59897410008125,109.59897410008125,109.59897410008125,109.96551909996197,109.96551909996197,109.96551909996197,109.96551909996197,109.96551909996197,109.96551909996197,109.96551909996197,109.96551909996197,109.96551909996197,0,1,[0.0012020999565720558],[0.3683921000920236],109.96551909996197,110.17956049996428,1000,110.17956049996428,1000,1000,1000,1000,0,num_3,0.49970599985681474,,33,12,2026-03-12_18h17.29.320,2026A_exp2,2022.2.4,59.90211988814813,
0,0,0.0,0.0,1,0,27,27,2,,,,,110.6995339000132,111.35032089985907,111.35032089985907,111.8513267999515,315,315,111.8513267999515,111.8513267999515,111.8513267999515,111.8513267999515,111.8513267999515,111.8513267999515,111.8513267999515,111.8513267999515,111.8513267999515,112.21775469998829,112.21775469998829,112.21775469998829,112.21775469998829,112.21775469998829,112.21775469998829,112.21775469998829,112.21775469998829,112.21775469998829,0,1,[0.0012811999768018723],[0.36721400008536875],112.21775469998829,112.41807050001808,0.0,112.41807050001808,1,0.0,0,0,1000,num_4,0.7579550999216735,,33,12,2026-03-12_18h17.29.320,2026A_exp2,2022.2.4,59.90211988814813,
1000,1,0.0,4.9,0,0,28,28,6,,,,,113.20210159989074,113.85274480003864,113.85274480003864,114.3373803999275,45,315,114.3373803999275,114.3373803999275,114.3373803999275,114.3373803999275,114.3373803999275,114.3373803999275,114.3373803999275,114.3373803999275,114.3373803999275,114.7035872999113,114.7035872999113,114.7035872999113,114.7035872999113,114.7035872999113,114.7035872999113,114.7035872999113,114.7035872999113,114.7035872999113,0,1,[0.001219100086018443],[0.3671715999953449],114.7035872999113,114.90568850003183,1000,114.90568850003183,1000,1000,1000,1000,1,num_2,0.3096663998439908,,33,12,2026-03-12_18h17.29.320,2026A_exp2,2022.2.4,59.90211988814813,
0,0,3.7,0.0,0,0,29,29,62,,,,,115.23728900006972,115.88810730003752,115.88810730003752,116.38924139994197,45,45,116.38924139994197,116.38924139994197,116.38924139994197,116.38924139994197,116.38924139994197,116.38924139994197,116.38924139994197,116.38924139994197,116.38924139994197,116.75558259990066,116.75558259990066,116.75558259990066,116.75558259990066,116.75558259990066,116.75558259990066,116.75558259990066,116.75558259990066,116.75558259990066,0,1,[0.0012024999596178532],[0.36709040007553995],116.75558259990066,116.95582779985853,0.0,116.95582779985853,0,0.0,0,1,1000,num_1,0.6197658001910895,,33,12,2026-03-12_18h17.29.320,2026A_exp2,2022.2.4,59.90211988814813,
1000,1,0.0,0.0,1,0,30,30,1,,,,,117.60641629993916,118.25715989992023,118.25715989992023,118.75799579988234,45,315,118.75799579988234,118.75799579988234,118.75799579988234,118.75799579988234,118.75799579988234,118.75799579988234,118.75799579988234,118.75799579988234,118.75799579988234,119.10799859999679,119.10799859999679,119.10799859999679,119.10799859999679,119.10799859999679,119.10799859999679,119.10799859999679,119.10799859999679,119.10799859999679,0,1,[0.0007414999417960644],[0.3512315999250859],119.10799859999679,119.3100240000058,1000,119.3100240000058,1000,1000,1000,1000,1,num_2,0.37710589985363185,,33,12,2026-03-12_18h17.29.320,2026A_exp2,2022.2.4,59.90211988814813,
1,0,6.1,0.0,0,0,31,31,21,,,,,119.7087165999692,120.35914719989523,120.35914719989523,120.86036809999496,45,315,120.86036809999496,120.86036809999496,120.86036809999496,120.86036809999496,120.86036809999496,120.86036809999496,120.86036809999496,120.86036809999496,120.86036809999496,121.22672909987159,121.22672909987159,121.22672909987159,121.22672909987159,121.22672909987159,121.22672909987159,121.22672909987159,121.22672909987159,121.22672909987159,0,1,[0.0012064001057296991],[0.3671806000638753],121.22672909987159,121.42690730001777,6.1,121.42690730001777,1,6.1,1,1,1000,num_4,0.6443780001718551,,33,12,2026-03-12_18h17.29.320,2026A_exp2,2022.2.4,59.90211988814813,
0,0,4.9,0.0,1,0,32,32,67,,,,,122.0944699998945,122.74499620008282,122.74499620008282,123.24600020004436,45,315,123.24600020004436,123.24600020004436,123.24600020004436,123.24600020004436,123.24600020004436,123.24600020004436,123.24600020004436,123.24600020004436,123.24600020004436,123.59583949996158,123.59583949996158,123.59583949996158,123.59583949996158,123.59583949996158,123.59583949996158,123.59583949996158,123.59583949996158,123.59583949996158,18,2,"[0.06679449998773634, 0.2669009999372065]","[0.08355330000631511, 0.3169769998639822]",123.59583949996158,123.7960890000686,4.9,123.81274050008506,1,4.9,1,1,1000,num_4,0.5631325000431389,,33,12,2026-03-12_18h17.29.320,2026A_exp2,2022.2.4,59.90211988814813,
1000,1,4.9,0.0,0,0,33,33,54,,,,,124.39652689988725,125.04713770002127,125.04713770002127,125.53162860008888,315,315,125.53162860008888,125.53162860008888,125.53162860008888,125.53162860008888,125.53162860008888,125.53162860008888,125.53162860008888,125.53162860008888,125.53162860008888,125.8981727999635,125.8981727999635,125.8981727999635,125.8981727999635,125.8981727999635,125.8981727999635,125.8981727999635,125.8981727999635,125.8981727999635,0,1,[0.0010700998827815056],[0.3672225000336766],125.8981727999635,126.09986900002696,1000,126.09986900002696,1000,1000,1000,1000,0,num_3,0.44421839993447065,,33,12,2026-03-12_18h17.29.320,2026A_exp2,2022.2.4,59.90211988814813,
1000,1,3.7,3.7,0,0,34,34,72,,,,,126.5653993000742,127.21594089991413,127.21594089991413,127.71694880002178,315,45,127.71694880002178,127.71694880002178,127.71694880002178,127.71694880002178,127.71694880002178,127.71694880002178,127.71694880002178,127.71694880002178,127.71694880002178,128.0836515999399,128.0836515999399,128.0836515999399,128.0836515999399,128.0836515999399,128.0836515999399,128.0836515999399,128.0836515999399,128.0836515999399,6,3,"[0.0012481999583542347, 0.050117899896577, 0.1669524998869747]","[0.017076400108635426, 0.10033720009960234, 0.36734819994308054]",128.0836515999399,128.28484229999594,1000,128.28484229999594,1000,1000,1000,1000,1,num_2,0.3622968001291156,,33,12,2026-03-12_18h17.29.320,2026A_exp2,2022.2.4,59.90211988814813,
1000,1,0.0,0.0,0,0,35,35,86,,,,,128.66744769993238,129.31816129991785,129.31816129991785,129.81927699991502,45,45,129.81927699991502,129.81927699991502,129.81927699991502,129.81927699991502,129.81927699991502,129.81927699991502,129.81927699991502,129.81927699991502,129.81927699991502,130.18557549989782,130.18557549989782,130.18557549989782,130.18557549989782,130.18557549989782,130.18557549989782,130.18557549989782,130.18557549989782,130.18557549989782,0,1,[0.001297699986025691],[0.3672313999850303],130.18557549989782,130.38620220008306,1000,130.38620220008306,1000,1000,1000,1000,1,num_2,0.5251191998831928,,33,12,2026-03-12_18h17.29.320,2026A_exp2,2022.2.4,59.90211988814813,
1,0,3.7,6.1,0,0,36,36,52,,,,,130.93636350007728,131.58698010002263,131.58698010002263,132.1003632999491,315,315,132.1003632999491,132.1003632999491,132.1003632999491,132.1003632999491,132.1003632999491,132.1003632999491,132.1003632999491,132.1003632999491,132.1003632999491,132.45448359986767,132.45448359986767,132.45448359986767,132.45448359986767,132.45448359986767,132.45448359986767,132.45448359986767,132.45448359986767,132.45448359986767,0,1,[0.0038065998815000057],[0.36402429989539087],132.45448359986767,132.65490349987522,3.7,132.65490349987522,0,3.7,1,0,1000,num_1,0.6329105000477284,,33,12,2026-03-12_18h17.29.320,2026A_exp2,2022.2.4,59.90211988814813,
1000,1,0.0,6.1,1,0,37,37,71,,,,,133.30577800003812,133.9394698999822,133.9394698999822,134.4405546998605,45,315,134.4405546998605,134.4405546998605,134.4405546998605,134.4405546998605,134.4405546998605,134.4405546998605,134.4405546998605,134.4405546998605,134.4405546998605,134.80690760002472,134.80690760002472,134.80690760002472,134.80690760002472,134.80690760002472,134.80690760002472,134.80690760002472,134.80690760002472,134.80690760002472,0,1,[0.001281399978324771],[0.3671277998946607],134.80690760002472,135.00888970005326,1000,135.00888970005326,1000,1000,1000,1000,1,num_2,0.2950658998452127,,33,12,2026-03-12_18h17.29.320,2026A_exp2,2022.2.4,59.90211988814813,
1,0,6.1,3.7,1,0,38,38,51,,,,,135.32434500008821,135.9747560999822,135.9747560999822,136.47587600001134,45,315,136.47587600001134,136.47587600001134,136.47587600001134,136.47587600001134,136.47587600001134,136.47587600001134,136.47587600001134,136.47587600001134,136.47587600001134,136.84227099991404,136.84227099991404,136.84227099991404,136.84227099991404,136.84227099991404,136.84227099991404,136.84227099991404,136.84227099991404,136.84227099991404,0,1,[0.0012258000206202269],[0.3671887998934835],136.84227099991404,137.04268840001896,3.7,137.04268840001896,0,3.7,1,0,1000,num_1,0.5737918000668287,,33,12,2026-03-12_18h17.29.320,2026A_exp2,2022.2.4,59.90211988814813,
1000,1,0.0,0.0,0,0,39,39,15,,,,,137.6431102999486,138.29386219987646,138.29386219987646,138.79498880007304,45,315,138.79498880007304,138.79498880007304,138.79498880007304,138.79498880007304,138.79498880007304,138.79498880007304,138.79498880007304,138.79498880007304,138.79498880007304,139.14475079998374,139.14475079998374,139.14475079998374,139.14475079998374,139.14475079998374,139.14475079998374,139.14475079998374,139.14475079998374,139.14475079998374,0,1,[0.00073640001937747],[0.35083790007047355],139.14475079998374,139.34689759998582,1000,139.34689759998582,1000,1000,1000,1000,0,num_3,0.4202600000426173,,33,12,2026-03-12_18h17.29.320,2026A_exp2,2022.2.4,59.90211988814813,
0,0,0.0,0.0,0,0,40,40,59,,,,,139.7952620999422,140.44604349997826,140.44604349997826,140.9471630998887,45,45,140.9471630998887,140.9471630998887,140.9471630998887,140.9471630998887,140.9471630998887,140.9471630998887,140.9471630998887,140.9471630998887,140.9471630998887,141.31353399995714,141.31353399995714,141.31353399995714,141.31353399995714,141.31353399995714,141.31353399995714,141.31353399995714,141.31353399995714,141.31353399995714,0,1,[0.0011142999865114689],[0.36730149993672967],141.31353399995714,141.51336240000091,0.0,141.51336240000091,1,0.0,0,0,1000,num_4,0.7430434999987483,,33,12,2026-03-12_18h17.29.320,2026A_exp2,2022.2.4,59.90211988814813,
1,0,0.0,6.1,0,0,41,41,0,,,,,142.28105819993652,142.93166440003552,142.93166440003552,143.41628740006126,45,45,143.41628740006126,143.41628740006126,143.41628740006126,143.41628740006126,143.41628740006126,143.41628740006126,143.41628740006126,143.41628740006126,143.41628740006126,143.7827469999902,143.7827469999902,143.7827469999902,143.7827469999902,143.7827469999902,143.7827469999902,143.7827469999902,143.7827469999902,143.7827469999902,0,1,[0.0013033999130129814],[0.366894599981606],143.7827469999902,143.9828401999548,0.0,143.9828401999548,0,0.0,0,1,1000,num_1,0.5682264000643045,,33,12,2026-03-12_18h17.29.320,2026A_exp2,2022.2.4,59.90211988814813,
1,0,0.0,0.0,1,0,42,42,49,,,,,144.56664810003713,145.22888029995374,145.22888029995374,145.7186847999692,45,315,145.7186847999692,145.7186847999692,145.7186847999692,145.7186847999692,145.7186847999692,145.7186847999692,145.7186847999692,145.7186847999692,145.7186847999692,146.06815769989043,146.06815769989043,146.06815769989043,146.06815769989043,146.06815769989043,146.06815769989043,146.06815769989043,146.06815769989043,146.06815769989043,0,1,[0.0008561001159250736],[0.3511419000569731],146.06815769989043,146.26840980001725,0.0,146.26840980001725,1,0.0,0,0,1000,num_4,0.7470676000230014,,33,12,2026-03-12_18h17.29.320,2026A_exp2,2022.2.4,59.90211988814813,
1000,1,0.0,3.7,1,0,43,43,13,,,,,147.03583270008676,147.6962748998776,147.6962748998776,148.18764550006017,315,315,148.18764550006017,148.18764550006017,148.18764550006017,148.18764550006017,148.18764550006017,148.18764550006017,148.18764550006017,148.18764550006017,148.18764550006017,148.55412529991008,148.55412529991008,148.55412529991008,148.55412529991008,148.55412529991008,148.55412529991008,148.55412529991008,148.55412529991008,148.55412529991008,0,1,[0.0012688999995589256],[0.3669730999972671],148.55412529991008,148.75635530008003,1000,148.75635530008003,1000,1000,1000,1000,1,num_2,0.1466407000552863,,33,12,2026-03-12_18h17.29.320,2026A_exp2,2022.2.4,59.90211988814813,
1,0,6.1,4.9,1,0,44,44,11,,,,,148.92101070005447,149.58291559992358,149.58291559992358,150.0729175999295,315,45,150.0729175999295,150.0729175999295,150.0729175999295,150.0729175999295,150.0729175999295,150.0729175999295,150.0729175999295,150.0729175999295,150.0729175999295,150.43920750007965,150.43920750007965,150.43920750007965,150.43920750007965,150.43920750007965,150.43920750007965,150.43920750007965,150.43920750007965,150.43920750007965,0,1,[0.002133200177922845],[0.36638420005328953],150.43920750007965,150.6394879000727,4.9,150.6394879000727,0,4.9,1,0,1000,num_1,0.536389600019902,,33,12,2026-03-12_18h17.29.320,2026A_exp2,2022.2.4,59.90211988814813,
1000,1,3.7,3.7,0,0,45,45,63,,,,,151.20693699992262,151.8409992000088,151.8409992000088,152.3418807000853,315,45,152.3418807000853,152.3418807000853,152.3418807000853,152.3418807000853,152.3418807000853,152.3418807000853,152.3418807000853,152.3418807000853,152.3418807000853,152.70827020006254,152.70827020006254,152.70827020006254,152.70827020006254,152.70827020006254,152.70827020006254,152.70827020006254,152.70827020006254,152.70827020006254,0,1,[0.0012134998105466366],[0.3673137999139726],152.70827020006254,152.91044949996285,1000,152.91044949996285,1000,1000,1000,1000,1,num_2,0.226061400026083,,33,12,2026-03-12_18h17.29.320,2026A_exp2,2022.2.4,59.90211988814813,
1000,1,3.7,0.0,0,0,46,46,76,,,,,153.15858489996754,153.8184638998937,153.8184638998937,154.3104024999775,315,45,154.3104024999775,154.3104024999775,154.3104024999775,154.3104024999775,154.3104024999775,154.3104024999775,154.3104024999775,154.3104024999775,154.3104024999775,154.67683509993367,154.67683509993367,154.67683509993367,154.67683509993367,154.67683509993367,154.67683509993367,154.67683509993367,154.67683509993367,154.67683509993367,0,1,[0.0012032000813633204],[0.3672511000186205],154.67683509993367,154.87903549987823,1000,154.87903549987823,1000,1000,1000,1000,0,num_3,0.32090170006267726,,33,12,2026-03-12_18h17.29.320,2026A_exp2,2022.2.4,59.90211988814813,
1,0,0.0,0.0,1,0,47,47,69,,,,,155.22751870006323,155.8780787999276,155.8780787999276,156.3844121999573,45,45,156.3844121999573,156.3844121999573,156.3844121999573,156.3844121999573,156.3844121999573,156.3844121999573,156.3844121999573,156.3844121999573,156.3844121999573,156.7456384000834,156.7456384000834,156.7456384000834,156.7456384000834,156.7456384000834,156.7456384000834,156.7456384000834,156.7456384000834,156.7456384000834,0,1,[0.002486899960786104],[0.3661687998101115],156.7456384000834,156.94573309994303,0.0,156.94573309994303,1,0.0,0,0,1000,num_4,0.694709800183773,,33,12,2026-03-12_18h17.29.320,2026A_exp2,2022.2.4,59.90211988814813,
1000,1,6.1,3.7,0,0,48,48,75,,,,,157.66311730002053,158.31385999987833,158.31385999987833,158.79807189991698,45,45,158.79807189991698,158.79807189991698,158.79807189991698,158.79807189991698,158.79807189991698,158.79807189991698,158.79807189991698,158.79807189991698,158.79807189991698,159.16465119994245,159.16465119994245,159.16465119994245,159.16465119994245,159.16465119994245,159.16465119994245,159.16465119994245,159.16465119994245,159.16465119994245,0,1,[0.0012932000681757927],[0.36717300000600517],159.16465119994245,159.36652430007234,1000,159.36652430007234,1000,1000,1000,1000,0,num_3,0.2733996999450028,,33,12,2026-03-12_18h17.29.320,2026A_exp2,2022.2.4,59.90211988814813,
1,0,6.1,0.0,1,0,49,49,89,,,,,159.6650600999128,160.31592709990218,160.31592709990218,160.81698410003446,315,315,160.81698410003446,160.81698410003446,160.81698410003446,160.81698410003446,160.81698410003446,160.81698410003446,160.81698410003446,160.81698410003446,160.81698410003446,161.18328329990618,161.18328329990618,161.18328329990618,161.18328329990618,161.18328329990618,161.18328329990618,161.18328329990618,161.18328329990618,161.18328329990618,10,1,[0.167193999979645],[0.3672738999594003],161.18328329990618,161.38341069989838,0.0,161.38341069989838,0,0.0,0,1,1000,num_1,0.6084119998849928,,33,12,2026-03-12_18h17.29.320,2026A_exp2,2022.2.4,59.90211988814813,
1,0,0.0,0.0,0,0,50,50,79,,,,,162.01755140000023,162.6515830999706,162.6515830999706,163.15266499994323,315,315,163.15266499994323,163.15266499994323,163.15266499994323,163.15266499994323,163.15266499994323,163.15266499994323,163.15266499994323,163.15266499994323,163.15266499994323,163.51900390000083,163.51900390000083,163.51900390000083,163.51900390000083,163.51900390000083,163.51900390000083,163.51900390000083,163.51900390000083,163.51900390000083,0,1,[0.0013403999619185925],[0.3673562000039965],163.51900390000083,163.71926470007747,0.0,163.71926470007747,0,0.0,0,1,1000,num_1,0.5837507001124322,,33,12,2026-03-12_18h17.29.320,2026A_exp2,2022.2.4,59.90211988814813,
1000,1,6.1,6.1,1,0,51,51,8,,,,,164.3198235000018,164.9705171000678,164.9705171000678,165.4547846999485,315,45,165.4547846999485,165.4547846999485,165.4547846999485,165.4547846999485,165.4547846999485,165.4547846999485,165.4547846999485,165.4547846999485,165.4547846999485,165.821580799995,165.821580799995,165.821580799995,165.821580799995,165.821580799995,165.821580799995,165.821580799995,165.821580799995,165.821580799995,0,1,[0.0015821000561118126],[0.36658570007421076],165.821580799995,166.03794960002415,1000,166.03794960002415,1000,1000,1000,1000,0,num_3,0.28148690005764365,,33,12,2026-03-12_18h17.29.320,2026A_exp2,2022.2.4,59.90211988814813,
1000,1,4.9,0.0,1,0,52,52,77,,,,,166.3383134000469,166.98919419990852,166.98919419990852,167.490162699949,45,45,167.490162699949,167.490162699949,167.490162699949,167.490162699949,167.490162699949,167.490162699949,167.490162699949,167.490162699949,167.490162699949,167.8567343999166,167.8567343999166,167.8567343999166,167.8567343999166,167.8567343999166,167.8567343999166,167.8567343999166,167.8567343999166,167.8567343999166,0,1,[0.0012500998564064503],[0.3682738000061363],167.8567343999166,168.0588086999487,1000,168.0588086999487,1000,1000,1000,1000,0,num_3,0.2928259999025613,,33,12,2026-03-12_18h17.29.320,2026A_exp2,2022.2.4,59.90211988814813,
1,0,6.1,0.0,1,0,53,53,70,,,,,168.37381749995984,169.02452429989353,169.02452429989353,169.52568940003403,45,45,169.52568940003403,169.52568940003403,169.52568940003403,169.52568940003403,169.52568940003403,169.52568940003403,169.52568940003403,169.52568940003403,169.52568940003403,169.89197200001217,169.89197200001217,169.89197200001217,169.89197200001217,169.89197200001217,169.89197200001217,169.89197200001217,169.89197200001217,169.89197200001217,9,3,"[0.0012443999294191599, 0.15030670003034174, 0.2332055999431759]","[0.0335033000446856, 0.20027099992148578, 0.36702900007367134]",169.89197200001217,170.10477239987813,0.0,170.10477239987813,0,0.0,0,1,1000,num_1,0.5664854999631643,,33,12,2026-03-12_18h17.29.320,2026A_exp2,2022.2.4,59.90211988814813,
1,0,0.0,4.9,0,0,54,54,3,,,,,170.69267180003226,171.34342589997686,171.34342589997686,171.84488589991815,315,45,171.84488589991815,171.84488589991815,171.84488589991815,171.84488589991815,171.84488589991815,171.84488589991815,171.84488589991815,171.84488589991815,171.84488589991815,172.19444360001944,172.19444360001944,172.19444360001944,172.19444360001944,172.19444360001944,172.19444360001944,172.19444360001944,172.19444360001944,172.19444360001944,0,1,[0.0007571999449282885],[0.35079749999567866],172.19444360001944,172.39454400003888,0.0,172.39454400003888,0,0.0,0,1,1000,num_1,0.5494843998458236,,33,12,2026-03-12_18h17.29.320,2026A_exp2,2022.2.4,59.90211988814813,
1000,1,3.7,0.0,1,0,55,55,19,,,,,172.9616377998609,173.61249809991568,173.61249809991568,174.1126329000108,45,315,174.1126329000108,174.1126329000108,174.1126329000108,174.1126329000108,174.1126329000108,174.1126329000108,174.1126329000108,174.1126329000108,174.1126329000108,174.46328999986872,174.46328999986872,174.46328999986872,174.46328999986872,174.46328999986872,174.46328999986872,174.46328999986872,174.46328999986872,174.46328999986872,0,1,[0.0045016000512987375],[0.36400020006112754],174.46328999986872,174.66522069997154,1000,174.66522069997154,1000,1000,1000,1000,0,num_3,0.34273200016468763,,33,12,2026-03-12_18h17.29.320,2026A_exp2,2022.2.4,59.90211988814813,
1,0,0.0,3.7,1,0,56,56,35,,,,,175.0306082998868,175.68124569999054,175.68124569999054,176.18240040005185,45,45,176.18240040005185,176.18240040005185,176.18240040005185,176.18240040005185,176.18240040005185,176.18240040005185,176.18240040005185,176.18240040005185,176.18240040005185,176.54871129989624,176.54871129989624,176.54871129989624,176.54871129989624,176.54871129989624,176.54871129989624,176.54871129989624,176.54871129989624,176.54871129989624,8,4,"[0.0012485000770539045, 0.20028250012546778, 0.23321190010756254, 0.3669126001186669]","[0.1668756001163274, 0.2164666000753641, 0.2833374999463558, 0.3669161000289023]",176.54871129989624,176.74890249990858,3.7,176.74890249990858,1,3.7,1,1,1000,num_4,0.6272036998998374,,33,12,2026-03-12_18h17.29.320,2026A_exp2,2022.2.4,59.90211988814813,
1,0,6.1,6.1,1,0,57,57,23,,,,,177.4000407999847,178.0504409999121,178.0504409999121,178.55103989993222,45,315,178.55103989993222,178.55103989993222,178.55103989993222,178.55103989993222,178.55103989993222,178.55103989993222,178.55103989993222,178.55103989993222,178.55103989993222,178.9010399999097,178.9010399999097,178.9010399999097,178.9010399999097,178.9010399999097,178.9010399999097,178.9010399999097,178.9010399999097,178.9010399999097,0,1,[0.0007308998610824347],[0.3514648999553174],178.9010399999097,179.10123949986883,6.1,179.10123949986883,0,6.1,1,0,1000,num_1,0.7789911001455039,,33,12,2026-03-12_18h17.29.320,2026A_exp2,2022.2.4,59.90211988814813,
1,0,4.9,3.7,1,0,58,58,27,,,,,179.90185440005735,180.5528046998661,180.5528046998661,181.0372637999244,45,45,181.0372637999244,181.0372637999244,181.0372637999244,181.0372637999244,181.0372637999244,181.0372637999244,181.0372637999244,181.0372637999244,181.0372637999244,181.40366879990324,181.40366879990324,181.40366879990324,181.40366879990324,181.40366879990324,181.40366879990324,181.40366879990324,181.40366879990324,181.40366879990324,0,1,[0.0012775999493896961],[0.366981599945575],181.40366879990324,181.60372220003046,3.7,181.60372220003046,0,3.7,1,0,1000,num_1,0.6286642998456955,,33,12,2026-03-12_18h17.29.320,2026A_exp2,2022.2.4,59.90211988814813,
1000,1,3.7,0.0,0,0,59,59,56,,,,,182.25436090002768,182.90512860007584,182.90512860007584,183.38943700003438,315,315,183.38943700003438,183.38943700003438,183.38943700003438,183.38943700003438,183.38943700003438,183.38943700003438,183.38943700003438,183.38943700003438,183.38943700003438,183.7559617999941,183.7559617999941,183.7559617999941,183.7559617999941,183.7559617999941,183.7559617999941,183.7559617999941,183.7559617999941,183.7559617999941,2,1,[0.03353350004181266],[0.36722179991193116],183.7559617999941,183.95789489988238,1000,183.95789489988238,1000,1000,1000,1000,0,num_3,0.4905836000107229,,33,12,2026-03-12_18h17.29.320,2026A_exp2,2022.2.4,59.90211988814813,
0,0,6.1,4.9,0,0,60,60,22,,,,,184.47326590004377,185.12398519995622,185.12398519995622,185.62534300005063,45,315,185.62534300005063,185.62534300005063,185.62534300005063,185.62534300005063,185.62534300005063,185.62534300005063,185.62534300005063,185.62534300005063,185.62534300005063,185.97450160002336,185.97450160002336,185.97450160002336,185.97450160002336,185.97450160002336,185.97450160002336,185.97450160002336,185.97450160002336,185.97450160002336,0,1,[0.0012040999718010426],[0.3507656001020223],185.97450160002336,186.17499179998413,4.9,186.1916634000372,0,4.9,1,0,1000,num_1,0.5280090000014752,,33,12,2026-03-12_18h17.29.320,2026A_exp2,2022.2.4,59.90211988814813,
1000,1,0.0,0.0,1,0,61,61,85,,,,,186.74221850000322,187.3928123000078,187.3928123000078,187.89381469995715,315,315,187.89381469995715,187.89381469995715,187.89381469995715,187.89381469995715,187.89381469995715,187.89381469995715,187.89381469995715,187.89381469995715,187.89381469995715,188.24383189994842,188.24383189994842,188.24383189994842,188.24383189994842,188.24383189994842,188.24383189994842,188.24383189994842,188.24383189994842,188.24383189994842,0,1,[0.0012090997770428658],[0.35092759993858635],188.24383189994842,188.44395929994062,1000,188.46060219989158,1000,1000,1000,1000,1,num_2,0.8266910000238568,,33,12,2026-03-12_18h17.29.320,2026A_exp2,2022.2.4,59.90211988814813,
1000,1,3.7,6.1,1,0,62,62,48,,,,,189.31146189989522,189.9620514998678,189.9620514998678,190.46400909987278,315,315,190.46400909987278,190.46400909987278,190.46400909987278,190.46400909987278,190.46400909987278,190.46400909987278,190.46400909987278,190.46400909987278,190.46400909987278,190.82926480006427,190.82926480006427,190.82926480006427,190.82926480006427,190.82926480006427,190.82926480006427,190.82926480006427,190.82926480006427,190.82926480006427,6,2,"[0.049746699864044785, 0.11641929997131228]","[0.06640199990943074, 0.36582030006684363]",190.82926480006427,191.0296014000196,1000,191.0296014000196,1000,1000,1000,1000,1,num_2,0.3054082999005914,,33,12,2026-03-12_18h17.29.320,2026A_exp2,2022.2.4,59.90211988814813,
1000,1,0.0,4.9,1,0,63,63,66,,,,,191.3633258000482,191.99757130001672,191.99757130001672,192.49827279988676,45,315,192.49827279988676,192.49827279988676,192.49827279988676,192.49827279988676,192.49827279988676,192.49827279988676,192.49827279988676,192.49827279988676,192.49827279988676,192.8651062999852,192.8651062999852,192.8651062999852,192.8651062999852,192.8651062999852,192.8651062999852,192.8651062999852,192.8651062999852,192.8651062999852,2,3,"[0.0009723000694066286, 0.05025269999168813, 0.11733760009519756]","[0.03364869998767972, 0.10058289999142289, 0.3675723001360893]",192.8651062999852,193.06709769996814,1000,193.06709769996814,1000,1000,1000,1000,1,num_2,0.34808779996819794,,33,12,2026-03-12_18h17.29.320,2026A_exp2,2022.2.4,59.90211988814813,
1000,1,4.9,0.0,1,0,64,64,10,,,,,193.43239169986919,194.08288299990818,194.08288299990818,194.58414649986662,45,45,194.58414649986662,194.58414649986662,194.58414649986662,194.58414649986662,194.58414649986662,194.58414649986662,194.58414649986662,194.58414649986662,194.58414649986662,194.95052230008878,194.95052230008878,194.95052230008878,194.95052230008878,194.95052230008878,194.95052230008878,194.95052230008878,194.95052230008878,194.95052230008878,18,3,"[0.0015570998657494783, 0.2666128999553621, 0.3167159999720752]","[0.0496068000793457, 0.2834228998981416, 0.3333846000023186]",194.95052230008878,195.15240029990673,1000,195.15240029990673,1000,1000,1000,1000,0,num_3,0.3669199999421835,,33,12,2026-03-12_18h17.29.320,2026A_exp2,2022.2.4,59.90211988814813,
1,0,0.0,4.9,1,0,65,65,37,,,,,195.53442239994183,196.18515069992281,196.18515069992281,196.68617699993774,45,315,196.68617699993774,196.68617699993774,196.68617699993774,196.68617699993774,196.68617699993774,196.68617699993774,196.68617699993774,196.68617699993774,196.68617699993774,197.0526485000737,197.0526485000737,197.0526485000737,197.0526485000737,197.0526485000737,197.0526485000737,197.0526485000737,197.0526485000737,197.0526485000737,0,1,[0.0008199000731110573],[0.3675385001115501],197.0526485000737,197.25286690006033,4.9,197.25286690006033,0,4.9,1,0,1000,num_1,0.9554717000573874,,33,12,2026-03-12_18h17.29.320,2026A_exp2,2022.2.4,59.90211988814813,
1,0,0.0,6.1,1,0,66,66,31,,,,,198.2371846998576,198.8878808999434,198.8878808999434,199.37232559989206,45,45,199.37232559989206,199.37232559989206,199.37232559989206,199.37232559989206,199.37232559989206,199.37232559989206,199.37232559989206,199.37232559989206,199.37232559989206,199.73845730000176,199.73845730000176,199.73845730000176,199.73845730000176,199.73845730000176,199.73845730000176,199.73845730000176,199.73845730000176,199.73845730000176,7,3,"[0.04993309988640249, 0.11661550006829202, 0.3674246999435127]","[0.08350729988887906, 0.3339903000742197, 0.36742740008048713]",199.73845730000176,199.93892310000956,6.1,199.93892310000956,1,6.1,1,1,1000,num_4,0.6361134999897331,,33,12,2026-03-12_18h17.29.320,2026A_exp2,2022.2.4,59.90211988814813,
1000,1,0.0,0.0,0,0,67,67,17,,,,,200.60590510000475,201.2400239999406,201.2400239999406,201.74114699987695,45,315,201.74114699987695,201.74114699987695,201.74114699987695,201.74114699987695,201.74114699987695,201.74114699987695,201.74114699987695,201.74114699987695,201.74114699987695,202.10718729998916,202.10718729998916,202.10718729998916,202.10718729998916,202.10718729998916,202.10718729998916,202.10718729998916,202.10718729998916,202.10718729998916,15,3,"[0.0009055999107658863, 0.23323399992659688, 0.31653069984167814]","[0.017254799837246537, 0.2831359999254346, 0.36663289996795356]",202.10718729998916,202.30755919986404,1000,202.30755919986404,1000,1000,1000,1000,0,num_3,0.3635537999216467,,33,12,2026-03-12_18h17.29.320,2026A_exp2,2022.2.4,59.90211988814813,
1,0,0.0,6.1,1,0,68,68,33,,,,,202.69124069996178,203.34189540008083,203.34189540008083,203.82691100006923,315,315,203.82691100006923,203.82691100006923,203.82691100006923,203.82691100006923,203.82691100006923,203.82691100006923,203.82691100006923,203.82691100006923,203.82691100006923,204.1933132999111,204.1933132999111,204.1933132999111,204.1933132999111,204.1933132999111,204.1933132999111,204.1933132999111,204.1933132999111,204.1933132999111,15,3,"[0.017827600007876754, 0.11698889988474548, 0.20069579989649355]","[0.03395160008221865, 0.16736519988626242, 0.2845276000443846]",204.1933132999111,204.39316769992,6.1,204.39316769992,1,6.1,1,1,1000,num_4,0.5662882998585701,,33,12,2026-03-12_18h17.29.320,2026A_exp2,2022.2.4,59.90211988814813,
1000,1,6.1,6.1,0,0,69,69,16,,,,,204.97719440003857,205.62787319999188,205.62787319999188,206.1122192000039,315,315,206.1122192000039,206.1122192000039,206.1122192000039,206.1122192000039,206.1122192000039,206.1122192000039,206.1122192000039,206.1122192000039,206.1122192000039,206.47873139986768,206.47873139986768,206.47873139986768,206.47873139986768,206.47873139986768,206.47873139986768,206.47873139986768,206.47873139986768,206.47873139986768,0,1,[0.0012293001636862755],[0.3672824001405388],206.47873139986768,206.68708619987592,1000,206.68708619987592,1000,1000,1000,1000,0,num_3,0.1606013998389244,,33,12,2026-03-12_18h17.29.320,2026A_exp2,2022.2.4,59.90211988814813,
1,0,0.0,6.1,1,0,70,70,50,,,,,206.8624108999502,207.51301570003852,207.51301570003852,208.01438180007972,315,45,208.01438180007972,208.01438180007972,208.01438180007972,208.01438180007972,208.01438180007972,208.01438180007972,208.01438180007972,208.01438180007972,208.01438180007972,208.38061599992216,208.38061599992216,208.38061599992216,208.38061599992216,208.38061599992216,208.38061599992216,208.38061599992216,208.38061599992216,208.38061599992216,4,4,"[0.0011082999408245087, 0.06655930005945265, 0.11700740014202893, 0.2170534001197666]","[0.050185800064355135, 0.1002668000292033, 0.18368020001798868, 0.36731630004942417]",208.38061599992216,208.58086149999872,6.1,208.58086149999872,1,6.1,1,1,1000,num_4,0.634265200002119,,33,12,2026-03-12_18h17.29.320,2026A_exp2,2022.2.4,59.90211988814813,
1000,1,3.7,6.1,1,0,71,71,58,,,,,209.23137450008653,209.88205350004137,209.88205350004137,210.38316379999742,315,45,210.38316379999742,210.38316379999742,210.38316379999742,210.38316379999742,210.38316379999742,210.38316379999742,210.38316379999742,210.38316379999742,210.38316379999742,210.73299639998004,210.73299639998004,210.73299639998004,210.73299639998004,210.73299639998004,210.73299639998004,210.73299639998004,210.73299639998004,210.73299639998004,3,1,[0.05016890005208552],[0.3502975001465529],210.73299639998004,210.9351548999548,1000,210.9351548999548,1000,1000,1000,1000,1,num_2,0.6081705999094993,,33,12,2026-03-12_18h17.29.320,2026A_exp2,2022.2.4,59.90211988814813,
1000,1,6.1,0.0,1,0,72,72,25,,,,,211.5672263999004,212.21769819990732,212.21769819990732,212.71987610007636,45,315,212.71987610007636,212.71987610007636,212.71987610007636,212.71987610007636,212.71987610007636,212.71987610007636,212.71987610007636,212.71987610007636,212.71987610007636,213.08507580007426,213.08507580007426,213.08507580007426,213.08507580007426,213.08507580007426,213.08507580007426,213.08507580007426,213.08507580007426,213.08507580007426,5,3,"[0.0018619999755173922, 0.30033509992063046, 0.33252609986811876]","[0.26695779990404844, 0.3168356998357922, 0.3496303998399526]",213.08507580007426,213.2873535999097,1000,213.2873535999097,1000,1000,1000,1000,0,num_3,0.44794219988398254,,33,12,2026-03-12_18h17.29.320,2026A_exp2,2022.2.4,59.90211988814813,
1000,1,0.0,0.0,1,0,73,73,78,,,,,213.7527240999043,214.40329779987223,214.40329779987223,214.9044472000096,315,45,214.9044472000096,214.9044472000096,214.9044472000096,214.9044472000096,214.9044472000096,214.9044472000096,214.9044472000096,214.9044472000096,214.9044472000096,215.27087799995206,215.27087799995206,215.27087799995206,215.27087799995206,215.27087799995206,215.27087799995206,215.27087799995206,215.27087799995206,215.27087799995206,0,1,[0.0012173999566584826],[0.36681059980764985],215.27087799995206,215.47285840008408,1000,215.47285840008408,1000,1000,1000,1000,0,num_3,0.48754679993726313,,33,12,2026-03-12_18h17.29.320,2026A_exp2,2022.2.4,59.90211988814813,
1000,1,3.7,4.9,0,0,74,74,45,,,,,215.9882545999717,216.6388059000019,216.6388059000019,217.13982479996048,45,45,217.13982479996048,217.13982479996048,217.13982479996048,217.13982479996048,217.13982479996048,217.13982479996048,217.13982479996048,217.13982479996048,217.13982479996048,217.50640429998748,217.50640429998748,217.50640429998748,217.50640429998748,217.50640429998748,217.50640429998748,217.50640429998748,217.50640429998748,217.50640429998748,23,0,,,217.50640429998748,217.70838729990646,1000,217.70838729990646,1000,1000,1000,1000,1,num_2,0.38768220017664135,,33,12,2026-03-12_18h17.29.320,2026A_exp2,2022.2.4,59.90211988814813,
1000,1,6.1,0.0,1,0,75,75,57,,,,,218.12368900002912,218.77429559989832,218.77429559989832,219.25893529993482,315,45,219.25893529993482,219.25893529993482,219.25893529993482,219.25893529993482,219.25893529993482,219.25893529993482,219.25893529993482,219.25893529993482,219.25893529993482,219.6250396000687,219.6250396000687,219.6250396000687,219.6250396000687,219.6250396000687,219.6250396000687,219.6250396000687,219.6250396000687,219.6250396000687,9,2,"[0.1164557000156492, 0.30024709994904697]","[0.2667670000810176, 0.36695119994692504]",219.6250396000687,219.82705789990723,1000,219.82705789990723,1000,1000,1000,1000,0,num_3,0.33242929982952774,,33,12,2026-03-12_18h17.29.320,2026A_exp2,2022.2.4,59.90211988814813,
1,0,3.7,3.7,1,0,76,76,30,,,,,220.17571049998514,220.82658379990608,220.82658379990608,221.3275466999039,45,45,221.3275466999039,221.3275466999039,221.3275466999039,221.3275466999039,221.3275466999039,221.3275466999039,221.3275466999039,221.3275466999039,221.3275466999039,221.6937176999636,221.6937176999636,221.6937176999636,221.6937176999636,221.6937176999636,221.6937176999636,221.6937176999636,221.6937176999636,221.6937176999636,14,3,"[0.0008054000791162252, 0.1672549000941217, 0.2673112000338733]","[0.11721440008841455, 0.18443680019117892, 0.28412480000406504]",221.6937176999636,221.8940808000043,3.7,221.8940808000043,1,3.7,1,1,1000,num_4,0.8017565000336617,,33,12,2026-03-12_18h17.29.320,2026A_exp2,2022.2.4,59.90211988814813,
1000,1,0.0,3.7,1,0,77,77,84,,,,,222.72792809992097,223.3618135000579,223.3618135000579,223.8631245000288,45,315,223.8631245000288,223.8631245000288,223.8631245000288,223.8631245000288,223.8631245000288,223.8631245000288,223.8631245000288,223.8631245000288,223.8631245000288,224.22941419994459,224.22941419994459,224.22941419994459,224.22941419994459,224.22941419994459,224.22941419994459,224.22941419994459,224.22941419994459,224.22941419994459,0,1,[0.0007434999570250511],[0.3670838999096304],224.22941419994459,224.4298121999018,1000,224.4298121999018,1000,1000,1000,1000,1,num_2,0.633699500001967,,33,12,2026-03-12_18h17.29.320,2026A_exp2,2022.2.4,59.90211988814813,
1,0,0.0,0.0,1,0,78,78,39,,,,,225.08050929987803,225.7309006000869,225.7309006000869,226.23212519986555,315,45,226.23212519986555,226.23212519986555,226.23212519986555,226.23212519986555,226.23212519986555,226.23212519986555,226.23212519986555,226.23212519986555,226.23212519986555,226.58174789999612,226.58174789999612,226.58174789999612,226.58174789999612,226.58174789999612,226.58174789999612,226.58174789999612,226.58174789999612,226.58174789999612,18,3,"[0.0007310998626053333, 0.2502195998094976, 0.3504180999007076]","[0.03340379986912012, 0.2669408998917788, 0.3504206999205053]",226.58174789999612,226.7820800000336,0.0,226.79861920000985,1,0.0,0,0,1000,num_4,0.6968175999354571,,33,12,2026-03-12_18h17.29.320,2026A_exp2,2022.2.4,59.90211988814813,
1,0,3.7,0.0,0,0,79,79,87,,,,,227.51594229997136,228.15015950007364,228.15015950007364,228.65156059991568,315,45,228.65156059991568,228.65156059991568,228.65156059991568,228.65156059991568,228.65156059991568,228.65156059991568,228.65156059991568,228.65156059991568,228.65156059991568,229.01756449998356,229.01756449998356,229.01756449998356,229.01756449998356,229.01756449998356,229.01756449998356,229.01756449998356,229.01756449998356,229.01756449998356,19,3,"[0.15034379996359348, 0.28399739996530116, 0.3671434000134468]","[0.18397440016269684, 0.30069970013573766, 0.36714650015346706]",229.01756449998356,229.2178517000284,3.7,229.2178517000284,1,3.7,1,1,1000,num_4,0.525481500197202,,33,12,2026-03-12_18h17.29.320,2026A_exp2,2022.2.4,59.90211988814813,
1000,1,0.0,0.0,0,0,80,80,7,,,,,229.7683407999575,230.40259790001437,230.40259790001437,230.9034563000314,45,45,230.9034563000314,230.9034563000314,230.9034563000314,230.9034563000314,230.9034563000314,230.9034563000314,230.9034563000314,230.9034563000314,230.9034563000314,231.2697789000813,231.2697789000813,231.2697789000813,231.2697789000813,231.2697789000813,231.2697789000813,231.2697789000813,231.2697789000813,231.2697789000813,23,0,,,231.2697789000813,231.47023099986836,1000,231.47023099986836,1000,1000,1000,1000,0,num_3,0.5126690999604762,,33,12,2026-03-12_18h17.29.320,2026A_exp2,2022.2.4,59.90211988814813,
1,0,3.7,0.0,1,0,81,81,12,,,,,232.00400539999828,232.6548204999417,232.6548204999417,233.1391217999626,315,315,233.1391217999626,233.1391217999626,233.1391217999626,233.1391217999626,233.1391217999626,233.1391217999626,233.1391217999626,233.1391217999626,233.1391217999626,233.50528310006484,233.50528310006484,233.50528310006484,233.50528310006484,233.50528310006484,233.50528310006484,233.50528310006484,233.50528310006484,233.50528310006484,0,1,[0.0007088000420480967],[0.3668078000191599],233.50528310006484,233.70592490001582,0.0,233.70592490001582,0,0.0,0,1,1000,num_1,0.6139684000518173,,33,12,2026-03-12_18h17.29.320,2026A_exp2,2022.2.4,59.90211988814813,
1,0,0.0,0.0,0,0,82,82,88,,,,,234.3397840000689,234.99065559986047,234.99065559986047,235.4914824999869,315,315,235.4914824999869,235.4914824999869,235.4914824999869,235.4914824999869,235.4914824999869,235.4914824999869,235.4914824999869,235.4914824999869,235.4914824999869,235.84167720004916,235.84167720004916,235.84167720004916,235.84167720004916,235.84167720004916,235.84167720004916,235.84167720004916,235.84167720004916,235.84167720004916,2,2,"[0.0008385998662561178, 0.23396169999614358]","[0.2005557999946177, 0.3515082998201251]",235.84167720004916,236.04166659992188,0.0,236.04166659992188,0,0.0,0,1,1000,num_1,0.6542066999245435,,33,12,2026-03-12_18h17.29.320,2026A_exp2,2022.2.4,59.90211988814813,
1000,1,4.9,3.7,0,0,83,83,40,,,,,236.7251629999373,237.3591769998893,237.3591769998893,237.86057120002806,315,315,237.86057120002806,237.86057120002806,237.86057120002806,237.86057120002806,237.86057120002806,237.86057120002806,237.86057120002806,237.86057120002806,237.86057120002806,238.22673589992337,238.22673589992337,238.22673589992337,238.22673589992337,238.22673589992337,238.22673589992337,238.22673589992337,238.22673589992337,238.22673589992337,5,2,"[0.0007207000162452459, 0.2336771001573652]","[0.1499994001351297, 0.3670110001694411]",238.22673589992337,238.42787380004302,1000,238.42787380004302,1000,1000,1000,1000,0,num_3,0.10704879998229444,,33,12,2026-03-12_18h17.29.320,2026A_exp2,2022.2.4,59.90211988814813,
1,0,3.7,4.9,1,0,84,84,20,,,,,238.56067629996687,239.21119539998472,239.21119539998472,239.7123306998983,315,45,239.7123306998983,239.7123306998983,239.7123306998983,239.7123306998983,239.7123306998983,239.7123306998983,239.7123306998983,239.7123306998983,239.7123306998983,240.06191339995712,240.06191339995712,240.06191339995712,240.06191339995712,240.06191339995712,240.06191339995712,240.06191339995712,240.06191339995712,240.06191339995712,22,0,,,240.06191339995712,240.26208709995262,4.9,240.27866469998844,1,4.9,1,1,1000,num_4,0.6964684000704437,,33,12,2026-03-12_18h17.29.320,2026A_exp2,2022.2.4,59.90211988814813,
1000,1,4.9,4.9,1,0,85,85,68,,,,,240.9962083999999,241.64690809999593,241.64690809999593,242.14799079997465,45,45,242.14799079997465,242.14799079997465,242.14799079997465,242.14799079997465,242.14799079997465,242.14799079997465,242.14799079997465,242.14799079997465,242.14799079997465,242.49762500007637,242.49762500007637,242.49762500007637,242.49762500007637,242.49762500007637,242.49762500007637,242.49762500007637,242.49762500007637,242.49762500007637,22,0,,,242.49762500007637,242.69815200008452,1000,242.69815200008452,1000,1000,1000,1000,0,num_3,0.25275479978881776,,33,12,2026-03-12_18h17.29.320,2026A_exp2,2022.2.4,59.90211988814813,
1,0,0.0,0.0,0,0,86,86,24,,,,,242.98212229995988,243.63215720001608,243.63215720001608,244.1170447000768,45,45,244.1170447000768,244.1170447000768,244.1170447000768,244.1170447000768,244.1170447000768,244.1170447000768,244.1170447000768,244.1170447000768,244.1170447000768,244.48383669997565,244.48383669997565,244.48383669997565,244.48383669997565,244.48383669997565,244.48383669997565,244.48383669997565,244.48383669997565,244.48383669997565,21,1,[0.0007267999462783337],[0.033983000088483095],244.48383669997565,244.68333750008605,0.0,244.68333750008605,1,0.0,0,0,1000,num_4,0.6598892000038177,,33,12,2026-03-12_18h17.29.320,2026A_exp2,2022.2.4,59.90211988814813,
1000,1,0.0,4.9,0,0,87,87,61,,,,,245.36717929993756,246.01792960008606,246.01792960008606,246.5023703998886,45,45,246.5023703998886,246.5023703998886,246.5023703998886,246.5023703998886,246.5023703998886,246.5023703998886,246.5023703998886,246.5023703998886,246.5023703998886,246.86873620003462,246.86873620003462,246.86873620003462,246.86873620003462,246.86873620003462,246.86873620003462,246.86873620003462,246.86873620003462,246.86873620003462,23,0,,,246.86873620003462,247.0690238000825,1000,247.0690238000825,1000,1000,1000,1000,1,num_2,0.1787489999551326,,33,12,2026-03-12_18h17.29.320,2026A_exp2,2022.2.4,59.90211988814813,
1000,1,6.1,0.0,1,0,88,88,83,,,,,247.26926089986227,247.91992849996313,247.91992849996313,248.40447010006756,315,45,248.40447010006756,248.40447010006756,248.40447010006756,248.40447010006756,248.40447010006756,248.40447010006756,248.40447010006756,248.40447010006756,248.40447010006756,248.77074839989655,248.77074839989655,248.77074839989655,248.77074839989655,248.77074839989655,248.77074839989655,248.77074839989655,248.77074839989655,248.77074839989655,22,1,[0.25014769984409213],[0.2668418998364359],248.77074839989655,248.97117249993607,1000,248.97117249993607,1000,1000,1000,1000,0,num_3,0.14868480013683438,,33,12,2026-03-12_18h17.29.320,2026A_exp2,2022.2.4,59.90211988814813,
1,0,3.7,4.9,1,0,89,89,18,,,,,249.13775220001116,249.78843279997818,249.78843279997818,250.27279080008157,45,315,250.27279080008157,250.27279080008157,250.27279080008157,250.27279080008157,250.27279080008157,250.27279080008157,250.27279080008157,250.27279080008157,250.27279080008157,250.63937209988944,250.63937209988944,250.63937209988944,250.63937209988944,250.63937209988944,250.63937209988944,250.63937209988944,250.63937209988944,250.63937209988944,11,3,"[0.0007287999615073204, 0.19977549999020994, 0.36704109981656075]","[0.16657879995182157, 0.21650510001927614, 0.3670438998378813]",250.63937209988944,250.83942939992994,4.9,250.83942939992994,0,4.9,1,0,1000,num_1,0.5361710998695344,,33,12,2026-03-12_18h17.29.320,2026A_exp2,2022.2.4,59.90211988814813,
,,,,,,,,,,,,,,,,,,,,,,,,,,,,,,,,,,,,,,,,,,,,,,,,,,,,251.41052430006675,,,,,,,
