validity,detectorcomp,contrastCW,contrastCCW,precueCWorCCW,block_80trials.thisRepN,block_80trials.thisTrialN,block_80trials.thisN,block_80trials.thisIndex,etRecord.started,etRecord.stopped,text.started,text.stopped,text_4.started,text_4.stopped,text_6.started,text_6.stopped,oriCW,oriCCW,roi_2.started,grating_UR.started,grating_UL.started,grating_LR.started,grating_LL.started,noise_UR.started,noise_UL.started,noise_LR.started,noise_LL.started,roi_2.stopped,grating_UR.stopped,grating_UL.stopped,grating_LR.stopped,grating_LL.stopped,noise_UR.stopped,noise_UL.stopped,noise_LR.stopped,noise_LL.stopped,outframe,roi_2.numLooks,roi_2.timesOn,roi_2.timesOff,text_2.started,text_2.stopped,probedcontrast,key_resp.started,respdetect,relevantContrast,correctDetect,TorFdetect,respCWorCCW,key_resp.keys,key_resp.rt,feedback_display_.started,participantNo,blockNo,date,expName,psychopyVersion,frameRate,
1000,1,3.7,4.9,1,0,0,0,44,5.45999500900507e-05,5.45999500900507e-05,314.63067300012335,316.6337053999305,316.6337053999305,317.26698220008984,317.26698220008984,317.78598770010285,45,45,317.78598770010285,317.78598770010285,317.78598770010285,317.78598770010285,317.78598770010285,317.78598770010285,317.78598770010285,317.78598770010285,317.78598770010285,318.1346281999722,318.1346281999722,318.1346281999722,318.1346281999722,318.1346281999722,318.1346281999722,318.1346281999722,318.1346281999722,318.1346281999722,23,0,,,318.1346281999722,318.3424100000411,1000,318.3424100000411,1000,1000,1000,1000,1,num_2,0.6839534998871386,,37,10,2026-03-13_18h23.09.358,2026A_exp2,2022.2.4,59.886837834052635,
1000,1,3.7,4.9,1,0,1,1,46,,,,,319.0520536999684,319.70245219999924,319.70245219999924,320.2039996001404,315,45,320.2039996001404,320.2039996001404,320.2039996001404,320.2039996001404,320.2039996001404,320.2039996001404,320.2039996001404,320.2039996001404,320.2039996001404,320.57076749997213,320.57076749997213,320.57076749997213,320.57076749997213,320.57076749997213,320.57076749997213,320.57076749997213,320.57076749997213,320.57076749997213,23,0,,,320.57076749997213,320.77222790010273,1000,320.77222790010273,1000,1000,1000,1000,1,num_2,0.35855060000903904,,37,10,2026-03-13_18h23.09.358,2026A_exp2,2022.2.4,59.886837834052635,
1,0,3.7,0.0,1,0,2,2,50,,,,,321.1544729999732,321.8050184000749,321.8050184000749,322.28930120007135,45,315,322.28930120007135,322.28930120007135,322.28930120007135,322.28930120007135,322.28930120007135,322.28930120007135,322.28930120007135,322.28930120007135,322.28930120007135,322.6558171999641,322.6558171999641,322.6558171999641,322.6558171999641,322.6558171999641,322.6558171999641,322.6558171999641,322.6558171999641,322.6558171999641,23,0,,,322.6558171999641,322.8559034001082,0.0,322.8559034001082,0,0.0,0,1,1000,num_1,1.0742350998334587,,37,10,2026-03-13_18h23.09.358,2026A_exp2,2022.2.4,59.886837834052635,
1000,1,0.0,0.0,1,0,3,3,12,,,,,323.9570877000224,324.607763200067,324.607763200067,325.09225520002656,315,45,325.09225520002656,325.09225520002656,325.09225520002656,325.09225520002656,325.09225520002656,325.09225520002656,325.09225520002656,325.09225520002656,325.09225520002656,325.45852550002746,325.45852550002746,325.45852550002746,325.45852550002746,325.45852550002746,325.45852550002746,325.45852550002746,325.45852550002746,325.45852550002746,23,0,,,325.45852550002746,325.660494599957,1000,325.660494599957,1000,1000,1000,1000,0,num_3,0.39037419972009957,,37,10,2026-03-13_18h23.09.358,2026A_exp2,2022.2.4,59.886837834052635,
1,0,3.7,6.1,0,0,4,4,55,,,,,326.0759368999861,326.7265314999968,326.7265314999968,327.22769720014185,315,45,327.22769720014185,327.22769720014185,327.22769720014185,327.22769720014185,327.22769720014185,327.22769720014185,327.22769720014185,327.22769720014185,327.22769720014185,327.5941077999305,327.5941077999305,327.5941077999305,327.5941077999305,327.5941077999305,327.5941077999305,327.5941077999305,327.5941077999305,327.5941077999305,23,0,,,327.5941077999305,327.79419920011424,3.7,327.79419920011424,0,3.7,1,0,1000,num_1,0.9203411997295916,,37,10,2026-03-13_18h23.09.358,2026A_exp2,2022.2.4,59.886837834052635,
1000,1,3.7,0.0,0,0,5,5,45,,,,,328.7450069000479,329.3957921001129,329.3957921001129,329.8968742999714,315,315,329.8968742999714,329.8968742999714,329.8968742999714,329.8968742999714,329.8968742999714,329.8968742999714,329.8968742999714,329.8968742999714,329.8968742999714,330.2467485999223,330.2467485999223,330.2467485999223,330.2467485999223,330.2467485999223,330.2467485999223,330.2467485999223,330.2467485999223,330.2467485999223,22,0,,,330.2467485999223,330.4488387000747,1000,330.46363410004415,1000,1000,1000,1000,0,num_3,0.39539580000564456,,37,10,2026-03-13_18h23.09.358,2026A_exp2,2022.2.4,59.886837834052635,
1000,1,0.0,4.9,1,0,6,6,59,,,,,330.88047380000353,331.53128889994696,331.53128889994696,332.0325056000147,45,45,332.0325056000147,332.0325056000147,332.0325056000147,332.0325056000147,332.0325056000147,332.0325056000147,332.0325056000147,332.0325056000147,332.0325056000147,332.3988854000345,332.3988854000345,332.3988854000345,332.3988854000345,332.3988854000345,332.3988854000345,332.3988854000345,332.3988854000345,332.3988854000345,23,0,,,332.3988854000345,332.6012995999772,1000,332.6012995999772,1000,1000,1000,1000,1,num_2,0.2490369000006467,,37,10,2026-03-13_18h23.09.358,2026A_exp2,2022.2.4,59.886837834052635,
1000,1,0.0,0.0,0,0,7,7,15,,,,,332.86611320008524,333.5165653000586,333.5165653000586,334.0176904001273,315,45,334.0176904001273,334.0176904001273,334.0176904001273,334.0176904001273,334.0176904001273,334.0176904001273,334.0176904001273,334.0176904001273,334.0176904001273,334.38414070010185,334.38414070010185,334.38414070010185,334.38414070010185,334.38414070010185,334.38414070010185,334.38414070010185,334.38414070010185,334.38414070010185,23,0,,,334.38414070010185,334.5860599000007,1000,334.5860599000007,1000,1000,1000,1000,0,num_3,0.16067429981194437,,37,10,2026-03-13_18h23.09.358,2026A_exp2,2022.2.4,59.886837834052635,
1,0,0.0,6.1,0,0,8,8,60,,,,,334.7678672000766,335.4184286000673,335.4184286000673,335.91961079998873,45,315,335.91961079998873,335.91961079998873,335.91961079998873,335.91961079998873,335.91961079998873,335.91961079998873,335.91961079998873,335.91961079998873,335.91961079998873,336.2860801999923,336.2860801999923,336.2860801999923,336.2860801999923,336.2860801999923,336.2860801999923,336.2860801999923,336.2860801999923,336.2860801999923,23,0,,,336.2860801999923,336.4863575999625,0.0,336.4863575999625,0,0.0,0,1,1000,num_1,0.9317967998795211,,37,10,2026-03-13_18h23.09.358,2026A_exp2,2022.2.4,59.886837834052635,
1000,1,4.9,6.1,0,0,9,9,20,,,,,337.43700490007177,338.0879820000846,338.0879820000846,338.5800854000263,315,45,338.5800854000263,338.5800854000263,338.5800854000263,338.5800854000263,338.5800854000263,338.5800854000263,338.5800854000263,338.5800854000263,338.5800854000263,338.93878110009246,338.93878110009246,338.93878110009246,338.93878110009246,338.93878110009246,338.93878110009246,338.93878110009246,338.93878110009246,338.93878110009246,23,0,,,338.93878110009246,339.14115660008974,1000,339.14115660008974,1000,1000,1000,1000,1,num_2,0.5652622999623418,,37,10,2026-03-13_18h23.09.358,2026A_exp2,2022.2.4,59.886837834052635,
1000,1,0.0,0.0,0,0,10,10,64,,,,,339.72292260010727,340.3734478999395,340.3734478999395,340.8745136000216,45,45,340.8745136000216,340.8745136000216,340.8745136000216,340.8745136000216,340.8745136000216,340.8745136000216,340.8745136000216,340.8745136000216,340.8745136000216,341.2409093999304,341.2409093999304,341.2409093999304,341.2409093999304,341.2409093999304,341.2409093999304,341.2409093999304,341.2409093999304,341.2409093999304,23,0,,,341.2409093999304,341.4473844000604,1000,341.4473844000604,1000,1000,1000,1000,0,num_3,0.41881809988990426,,37,10,2026-03-13_18h23.09.358,2026A_exp2,2022.2.4,59.886837834052635,
1,0,3.7,0.0,0,0,11,11,65,,,,,341.8918926999904,342.54240050003864,342.54240050003864,343.043378100032,45,45,343.043378100032,343.043378100032,343.043378100032,343.043378100032,343.043378100032,343.043378100032,343.043378100032,343.043378100032,343.043378100032,343.4097379001323,343.4097379001323,343.4097379001323,343.4097379001323,343.4097379001323,343.4097379001323,343.4097379001323,343.4097379001323,343.4097379001323,23,0,,,343.4097379001323,343.61012959992513,3.7,343.61012959992513,1,3.7,1,1,1000,num_4,1.464018400060013,,37,10,2026-03-13_18h23.09.358,2026A_exp2,2022.2.4,59.886837834052635,
1000,1,0.0,0.0,1,0,12,12,33,,,,,345.0948958999943,345.7455593000632,345.7455593000632,346.24657459999435,315,315,346.24657459999435,346.24657459999435,346.24657459999435,346.24657459999435,346.24657459999435,346.24657459999435,346.24657459999435,346.24657459999435,346.24657459999435,346.59642620012164,346.59642620012164,346.59642620012164,346.59642620012164,346.59642620012164,346.59642620012164,346.59642620012164,346.59642620012164,346.59642620012164,22,0,,,346.59642620012164,346.7984273999464,1000,346.7984273999464,1000,1000,1000,1000,0,num_3,0.3795576998963952,,37,10,2026-03-13_18h23.09.358,2026A_exp2,2022.2.4,59.886837834052635,
1,0,6.1,0.0,0,0,13,13,70,,,,,347.1968871001154,347.8476325001102,347.8476325001102,348.34881160012446,315,45,348.34881160012446,348.34881160012446,348.34881160012446,348.34881160012446,348.34881160012446,348.34881160012446,348.34881160012446,348.34881160012446,348.34881160012446,348.7154014001135,348.7154014001135,348.7154014001135,348.7154014001135,348.7154014001135,348.7154014001135,348.7154014001135,348.7154014001135,348.7154014001135,23,0,,,348.7154014001135,348.9154209999833,6.1,348.9154209999833,1,6.1,1,1,1000,num_4,0.6956450999714434,,37,10,2026-03-13_18h23.09.358,2026A_exp2,2022.2.4,59.886837834052635,
1000,1,0.0,6.1,0,0,14,14,9,,,,,349.63264610012993,350.28359130001627,350.28359130001627,350.7679370001424,315,45,350.7679370001424,350.7679370001424,350.7679370001424,350.7679370001424,350.7679370001424,350.7679370001424,350.7679370001424,350.7679370001424,350.7679370001424,351.134054500144,351.134054500144,351.134054500144,351.134054500144,351.134054500144,351.134054500144,351.134054500144,351.134054500144,351.134054500144,23,0,,,351.134054500144,351.33673140010796,1000,351.33673140010796,1000,1000,1000,1000,1,num_2,0.37067429977469146,,37,10,2026-03-13_18h23.09.358,2026A_exp2,2022.2.4,59.886837834052635,
1,0,0.0,3.7,0,0,15,15,61,,,,,351.7346900999546,352.38548690010794,352.38548690010794,352.8865034999326,45,315,352.8865034999326,352.8865034999326,352.8865034999326,352.8865034999326,352.8865034999326,352.8865034999326,352.8865034999326,352.8865034999326,352.8865034999326,353.2530497999396,353.2530497999396,353.2530497999396,353.2530497999396,353.2530497999396,353.2530497999396,353.2530497999396,353.2530497999396,353.2530497999396,23,0,,,353.2530497999396,353.45319420006126,0.0,353.45319420006126,0,0.0,0,1,1000,num_1,0.6941141998395324,,37,10,2026-03-13_18h23.09.358,2026A_exp2,2022.2.4,59.886837834052635,
1000,1,0.0,6.1,1,0,16,16,62,,,,,354.1705388999544,354.8211614000611,354.8211614000611,355.3057232000865,45,315,355.3057232000865,355.3057232000865,355.3057232000865,355.3057232000865,355.3057232000865,355.3057232000865,355.3057232000865,355.3057232000865,355.3057232000865,355.67198679992,355.67198679992,355.67198679992,355.67198679992,355.67198679992,355.67198679992,355.67198679992,355.67198679992,355.67198679992,23,0,,,355.67198679992,355.8743346000556,1000,355.8743346000556,1000,1000,1000,1000,1,num_2,0.40005329973064363,,37,10,2026-03-13_18h23.09.358,2026A_exp2,2022.2.4,59.886837834052635,
1000,1,0.0,6.1,1,0,17,17,88,,,,,356.28947580000386,356.9400855000131,356.9400855000131,357.4410924001131,315,315,357.4410924001131,357.4410924001131,357.4410924001131,357.4410924001131,357.4410924001131,357.4410924001131,357.4410924001131,357.4410924001131,357.4410924001131,357.80755300004967,357.80755300004967,357.80755300004967,357.80755300004967,357.80755300004967,357.80755300004967,357.80755300004967,357.80755300004967,357.80755300004967,23,0,,,357.80755300004967,358.01027290010825,1000,358.01027290010825,1000,1000,1000,1000,1,num_2,0.2797549997922033,,37,10,2026-03-13_18h23.09.358,2026A_exp2,2022.2.4,59.886837834052635,
1000,1,6.1,0.0,1,0,18,18,68,,,,,358.3079699999653,358.95851849997416,358.95851849997416,359.4599018001463,315,315,359.4599018001463,359.4599018001463,359.4599018001463,359.4599018001463,359.4599018001463,359.4599018001463,359.4599018001463,359.4599018001463,359.4599018001463,359.8261719001457,359.8261719001457,359.8261719001457,359.8261719001457,359.8261719001457,359.8261719001457,359.8261719001457,359.8261719001457,359.8261719001457,23,0,,,359.8261719001457,360.0265091001056,1000,360.0265091001056,1000,1000,1000,1000,0,num_3,0.05668749986216426,,37,10,2026-03-13_18h23.09.358,2026A_exp2,2022.2.4,59.886837834052635,
1000,1,0.0,4.9,1,0,19,19,76,,,,,360.1100131000858,360.76063790009357,360.76063790009357,361.26161570008844,45,45,361.26161570008844,361.26161570008844,361.26161570008844,361.26161570008844,361.26161570008844,361.26161570008844,361.26161570008844,361.26161570008844,361.26161570008844,361.6114622000605,361.6114622000605,361.6114622000605,361.6114622000605,361.6114622000605,361.6114622000605,361.6114622000605,361.6114622000605,361.6114622000605,22,0,,,361.6114622000605,361.81379220006056,1000,361.81379220006056,1000,1000,1000,1000,1,num_2,0.5568415997549891,,37,10,2026-03-13_18h23.09.358,2026A_exp2,2022.2.4,59.886837834052635,
1,0,0.0,6.1,0,0,20,20,34,,,,,362.39553480013274,363.0460763000883,363.0460763000883,363.54714859998785,45,315,363.54714859998785,363.54714859998785,363.54714859998785,363.54714859998785,363.54714859998785,363.54714859998785,363.54714859998785,363.54714859998785,363.54714859998785,363.913749899948,363.913749899948,363.913749899948,363.913749899948,363.913749899948,363.913749899948,363.913749899948,363.913749899948,363.913749899948,23,0,,,363.913749899948,364.11395490006544,0.0,364.11395490006544,0,0.0,0,1,1000,num_1,0.848259299993515,,37,10,2026-03-13_18h23.09.358,2026A_exp2,2022.2.4,59.886837834052635,
1000,1,0.0,0.0,0,0,21,21,81,,,,,364.9813331000041,365.63197030010633,365.63197030010633,366.1163677999284,45,45,366.1163677999284,366.1163677999284,366.1163677999284,366.1163677999284,366.1163677999284,366.1163677999284,366.1163677999284,366.1163677999284,366.1163677999284,366.482975800056,366.482975800056,366.482975800056,366.482975800056,366.482975800056,366.482975800056,366.482975800056,366.482975800056,366.482975800056,23,0,,,366.482975800056,366.6830299999565,1000,366.6830299999565,1000,1000,1000,1000,0,num_3,0.29602709994651377,,37,10,2026-03-13_18h23.09.358,2026A_exp2,2022.2.4,59.886837834052635,
1000,1,0.0,3.7,1,0,22,22,47,,,,,367.0000482001342,367.6508536001202,367.6508536001202,368.151743600145,45,315,368.151743600145,368.151743600145,368.151743600145,368.151743600145,368.151743600145,368.151743600145,368.151743600145,368.151743600145,368.151743600145,368.5181621001102,368.5181621001102,368.5181621001102,368.5181621001102,368.5181621001102,368.5181621001102,368.5181621001102,368.5181621001102,368.5181621001102,23,0,,,368.5181621001102,368.71978659997694,1000,368.71978659997694,1000,1000,1000,1000,1,num_2,0.2675703000277281,,37,10,2026-03-13_18h23.09.358,2026A_exp2,2022.2.4,59.886837834052635,
1000,1,0.0,3.7,0,0,23,23,51,,,,,369.0189577001147,369.6696391000878,369.6696391000878,370.1725358001422,315,315,370.1725358001422,370.1725358001422,370.1725358001422,370.1725358001422,370.1725358001422,370.1725358001422,370.1725358001422,370.1725358001422,370.1725358001422,370.53704149997793,370.53704149997793,370.53704149997793,370.53704149997793,370.53704149997793,370.53704149997793,370.53704149997793,370.53704149997793,370.53704149997793,23,0,,,370.53704149997793,370.7389535000548,1000,370.7389535000548,1000,1000,1000,1000,1,num_2,0.2551000998355448,,37,10,2026-03-13_18h23.09.358,2026A_exp2,2022.2.4,59.886837834052635,
1000,1,0.0,0.0,0,0,24,24,85,,,,,371.0206464000512,371.67149100010283,371.67149100010283,372.17264740006067,315,45,372.17264740006067,372.17264740006067,372.17264740006067,372.17264740006067,372.17264740006067,372.17264740006067,372.17264740006067,372.17264740006067,372.17264740006067,372.5222269000951,372.5222269000951,372.5222269000951,372.5222269000951,372.5222269000951,372.5222269000951,372.5222269000951,372.5222269000951,372.5222269000951,22,0,,,372.5222269000951,372.7245805999264,1000,372.7392780999653,1000,1000,1000,1000,0,num_3,0.08802159992046654,,37,10,2026-03-13_18h23.09.358,2026A_exp2,2022.2.4,59.886837834052635,
1000,1,4.9,0.0,1,0,25,25,22,,,,,372.8559083000291,373.5063601001166,373.5063601001166,374.00963200000115,45,45,374.00963200000115,374.00963200000115,374.00963200000115,374.00963200000115,374.00963200000115,374.00963200000115,374.00963200000115,374.00963200000115,374.00963200000115,374.3575089001097,374.3575089001097,374.3575089001097,374.3575089001097,374.3575089001097,374.3575089001097,374.3575089001097,374.3575089001097,374.3575089001097,22,0,,,374.3575089001097,374.55957680009305,1000,374.57419249997474,1000,1000,1000,1000,0,num_3,0.3883243997115642,,37,10,2026-03-13_18h23.09.358,2026A_exp2,2022.2.4,59.886837834052635,
1000,1,4.9,6.1,1,0,26,26,28,,,,,374.9914621000644,375.62546840007417,375.62546840007417,376.126470600022,45,315,376.126470600022,376.126470600022,376.126470600022,376.126470600022,376.126470600022,376.126470600022,376.126470600022,376.126470600022,376.126470600022,376.49298220011406,376.49298220011406,376.49298220011406,376.49298220011406,376.49298220011406,376.49298220011406,376.49298220011406,376.49298220011406,376.49298220011406,23,0,,,376.49298220011406,376.69508710014634,1000,376.69508710014634,1000,1000,1000,1000,1,num_2,0.4590656999498606,,37,10,2026-03-13_18h23.09.358,2026A_exp2,2022.2.4,59.886837834052635,
1000,1,0.0,0.0,0,0,27,27,86,,,,,377.1770657999441,377.82771759992465,377.82771759992465,378.312033199938,45,315,378.312033199938,378.312033199938,378.312033199938,378.312033199938,378.312033199938,378.312033199938,378.312033199938,378.312033199938,378.312033199938,378.67849209997803,378.67849209997803,378.67849209997803,378.67849209997803,378.67849209997803,378.67849209997803,378.67849209997803,378.67849209997803,378.67849209997803,23,0,,,378.67849209997803,378.88078340003267,1000,378.88078340003267,1000,1000,1000,1000,0,num_3,0.25788330007344484,,37,10,2026-03-13_18h23.09.358,2026A_exp2,2022.2.4,59.886837834052635,
1,0,3.7,3.7,0,0,28,28,13,,,,,379.1621940000914,379.81288699992,379.81288699992,380.3140734999906,45,315,380.3140734999906,380.3140734999906,380.3140734999906,380.3140734999906,380.3140734999906,380.3140734999906,380.3140734999906,380.3140734999906,380.3140734999906,380.68051450001076,380.68051450001076,380.68051450001076,380.68051450001076,380.68051450001076,380.68051450001076,380.68051450001076,380.68051450001076,380.68051450001076,22,1,[0.3005725999828428],[0.31725009996443987],380.68051450001076,380.8807157999836,3.7,380.8807157999836,0,3.7,1,0,1000,num_1,2.2504677998367697,,37,10,2026-03-13_18h23.09.358,2026A_exp2,2022.2.4,59.886837834052635,
1,0,3.7,0.0,0,0,29,29,42,,,,,383.14943649992347,383.80011980002746,383.80011980002746,384.2847168999724,45,315,384.2847168999724,384.2847168999724,384.2847168999724,384.2847168999724,384.2847168999724,384.2847168999724,384.2847168999724,384.2847168999724,384.2847168999724,384.65096260001883,384.65096260001883,384.65096260001883,384.65096260001883,384.65096260001883,384.65096260001883,384.65096260001883,384.65096260001883,384.65096260001883,23,0,,,384.65096260001883,384.85128840012476,3.7,384.85128840012476,1,3.7,1,1,1000,num_4,0.8151245997287333,,37,10,2026-03-13_18h23.09.358,2026A_exp2,2022.2.4,59.886837834052635,
1000,1,3.7,6.1,0,0,30,30,84,,,,,385.6853633001447,386.33612750004977,386.33612750004977,386.83735810010694,45,315,386.83735810010694,386.83735810010694,386.83735810010694,386.83735810010694,386.83735810010694,386.83735810010694,386.83735810010694,386.83735810010694,386.83735810010694,387.18691980000585,387.18691980000585,387.18691980000585,387.18691980000585,387.18691980000585,387.18691980000585,387.18691980000585,387.18691980000585,387.18691980000585,19,2,"[0.16670780000276864, 0.21683160006068647]","[0.20014229998923838, 0.23369290004484355]",387.18691980000585,387.38719570008107,1000,387.38719570008107,1000,1000,1000,1000,1,num_2,0.8072145998012275,,37,10,2026-03-13_18h23.09.358,2026A_exp2,2022.2.4,59.886837834052635,
1000,1,0.0,0.0,0,0,31,31,83,,,,,388.2214838999789,388.87205399991944,388.87205399991944,389.3564639999531,315,45,389.3564639999531,389.3564639999531,389.3564639999531,389.3564639999531,389.3564639999531,389.3564639999531,389.3564639999531,389.3564639999531,389.3564639999531,389.72281700000167,389.72281700000167,389.72281700000167,389.72281700000167,389.72281700000167,389.72281700000167,389.72281700000167,389.72281700000167,389.72281700000167,23,0,,,389.72281700000167,389.9245500001125,1000,389.9245500001125,1000,1000,1000,1000,0,num_3,0.2864782998804003,,37,10,2026-03-13_18h23.09.358,2026A_exp2,2022.2.4,59.886837834052635,
1000,1,0.0,0.0,0,0,32,32,17,,,,,390.24013340007514,390.89067739993334,390.89067739993334,391.39169450011104,315,45,391.39169450011104,391.39169450011104,391.39169450011104,391.39169450011104,391.39169450011104,391.39169450011104,391.39169450011104,391.39169450011104,391.39169450011104,391.75813079997897,391.75813079997897,391.75813079997897,391.75813079997897,391.75813079997897,391.75813079997897,391.75813079997897,391.75813079997897,391.75813079997897,21,1,[0.28360229986719787],[0.31685449997894466],391.75813079997897,391.96039950009435,1000,391.96039950009435,1000,1000,1000,1000,0,num_3,0.24998449999839067,,37,10,2026-03-13_18h23.09.358,2026A_exp2,2022.2.4,59.886837834052635,
1,0,0.0,6.1,1,0,33,33,52,,,,,392.24207839998417,392.8927019999828,392.8927019999828,393.39371570013463,45,315,393.39371570013463,393.39371570013463,393.39371570013463,393.39371570013463,393.39371570013463,393.39371570013463,393.39371570013463,393.39371570013463,393.39371570013463,393.7602244000882,393.7602244000882,393.7602244000882,393.7602244000882,393.7602244000882,393.7602244000882,393.7602244000882,393.7602244000882,393.7602244000882,23,0,,,393.7602244000882,393.9602910000831,6.1,393.9602910000831,0,6.1,1,0,1000,num_1,0.8586664998438209,,37,10,2026-03-13_18h23.09.358,2026A_exp2,2022.2.4,59.886837834052635,
0,0,0.0,0.0,1,0,34,34,89,,,,,394.8446291999426,395.4953050999902,395.4953050999902,395.97966170008294,45,315,395.97966170008294,395.97966170008294,395.97966170008294,395.97966170008294,395.97966170008294,395.97966170008294,395.97966170008294,395.97966170008294,395.97966170008294,396.3460329999216,396.3460329999216,396.3460329999216,396.3460329999216,396.3460329999216,396.3460329999216,396.3460329999216,396.3460329999216,396.3460329999216,23,0,,,396.3460329999216,396.54630020004697,0.0,396.54630020004697,1,0.0,0,0,1000,num_4,1.0322657998185605,,37,10,2026-03-13_18h23.09.358,2026A_exp2,2022.2.4,59.886837834052635,
1000,1,0.0,6.1,0,0,35,35,37,,,,,397.597213299945,398.24787830002606,398.24787830002606,398.7324924999848,45,45,398.7324924999848,398.7324924999848,398.7324924999848,398.7324924999848,398.7324924999848,398.7324924999848,398.7324924999848,398.7324924999848,398.7324924999848,399.098811800126,399.098811800126,399.098811800126,399.098811800126,399.098811800126,399.098811800126,399.098811800126,399.098811800126,399.098811800126,23,0,,,399.098811800126,399.3011473000515,1000,399.3011473000515,1000,1000,1000,1000,1,num_2,0.36495159985497594,,37,10,2026-03-13_18h23.09.358,2026A_exp2,2022.2.4,59.886837834052635,
1000,1,3.7,4.9,1,0,36,36,43,,,,,399.68275690008886,400.33339200005867,400.33339200005867,400.83456620015204,45,315,400.83456620015204,400.83456620015204,400.83456620015204,400.83456620015204,400.83456620015204,400.83456620015204,400.83456620015204,400.83456620015204,400.83456620015204,401.20087649999186,401.20087649999186,401.20087649999186,401.20087649999186,401.20087649999186,401.20087649999186,401.20087649999186,401.20087649999186,401.20087649999186,23,0,,,401.20087649999186,401.40335289994255,1000,401.40335289994255,1000,1000,1000,1000,1,num_2,0.390920199919492,,37,10,2026-03-13_18h23.09.358,2026A_exp2,2022.2.4,59.886837834052635,
1000,1,4.9,3.7,0,0,37,37,32,,,,,401.8183871000074,402.4687638001051,402.4687638001051,402.96997909992933,315,45,402.96997909992933,402.96997909992933,402.96997909992933,402.96997909992933,402.96997909992933,402.96997909992933,402.96997909992933,402.96997909992933,402.96997909992933,403.3364278001245,403.3364278001245,403.3364278001245,403.3364278001245,403.3364278001245,403.3364278001245,403.3364278001245,403.3364278001245,403.3364278001245,23,0,,,403.3364278001245,403.538727800129,1000,403.538727800129,1000,1000,1000,1000,0,num_3,0.40846199984662235,,37,10,2026-03-13_18h23.09.358,2026A_exp2,2022.2.4,59.886837834052635,
1,0,0.0,3.7,1,0,38,38,41,,,,,403.9703017999418,404.6210976000875,404.6210976000875,405.12210469995625,315,315,405.12210469995625,405.12210469995625,405.12210469995625,405.12210469995625,405.12210469995625,405.12210469995625,405.12210469995625,405.12210469995625,405.12210469995625,405.4886229999829,405.4886229999829,405.4886229999829,405.4886229999829,405.4886229999829,405.4886229999829,405.4886229999829,405.4886229999829,405.4886229999829,23,0,,,405.4886229999829,405.68868299992755,3.7,405.68868299992755,1,3.7,1,1,1000,num_4,0.6894858998712152,,37,10,2026-03-13_18h23.09.358,2026A_exp2,2022.2.4,59.886837834052635,
1000,1,6.1,6.1,1,0,39,39,77,,,,,406.4061448001303,407.0581273001153,407.0581273001153,407.55800920003094,315,315,407.55800920003094,407.55800920003094,407.55800920003094,407.55800920003094,407.55800920003094,407.55800920003094,407.55800920003094,407.55800920003094,407.55800920003094,407.9243564000353,407.9243564000353,407.9243564000353,407.9243564000353,407.9243564000353,407.9243564000353,407.9243564000353,407.9243564000353,407.9243564000353,22,1,[0.3003740001004189],[0.3171425999607891],407.9243564000353,408.12618639995344,1000,408.12618639995344,1000,1000,1000,1000,1,num_2,0.8926075997296721,,37,10,2026-03-13_18h23.09.358,2026A_exp2,2022.2.4,59.886837834052635,
1,0,4.9,0.0,0,0,40,40,58,,,,,409.04220460006036,409.69273030012846,409.69273030012846,410.1938368999399,315,45,410.1938368999399,410.1938368999399,410.1938368999399,410.1938368999399,410.1938368999399,410.1938368999399,410.1938368999399,410.1938368999399,410.1938368999399,410.56030740006827,410.56030740006827,410.56030740006827,410.56030740006827,410.56030740006827,410.56030740006827,410.56030740006827,410.56030740006827,410.56030740006827,23,0,,,410.56030740006827,410.7603853000328,4.9,410.7603853000328,1,4.9,1,1,1000,num_4,0.7141010998748243,,37,10,2026-03-13_18h23.09.358,2026A_exp2,2022.2.4,59.886837834052635,
1000,1,3.7,0.0,0,0,41,41,2,,,,,411.4944824001286,412.1452842000872,412.1452842000872,412.64634219999425,45,315,412.64634219999425,412.64634219999425,412.64634219999425,412.64634219999425,412.64634219999425,412.64634219999425,412.64634219999425,412.64634219999425,412.64634219999425,412.9961574000772,412.9961574000772,412.9961574000772,412.9961574000772,412.9961574000772,412.9961574000772,412.9961574000772,412.9961574000772,412.9961574000772,22,0,,,412.9961574000772,413.19809500011615,1000,413.19809500011615,1000,1000,1000,1000,0,num_3,0.36400599987246096,,37,10,2026-03-13_18h23.09.358,2026A_exp2,2022.2.4,59.886837834052635,
1,0,6.1,4.9,0,0,42,42,24,,,,,413.57992139994167,414.23073559999466,414.23073559999466,414.7316813999787,315,315,414.7316813999787,414.7316813999787,414.7316813999787,414.7316813999787,414.7316813999787,414.7316813999787,414.7316813999787,414.7316813999787,414.7316813999787,415.09827010007575,415.09827010007575,415.09827010007575,415.09827010007575,415.09827010007575,415.09827010007575,415.09827010007575,415.09827010007575,415.09827010007575,23,0,,,415.09827010007575,415.2984841000289,6.1,415.2984841000289,1,6.1,1,1,1000,num_4,1.1124181998893619,,37,10,2026-03-13_18h23.09.358,2026A_exp2,2022.2.4,59.886837834052635,
1000,1,0.0,0.0,0,0,43,43,80,,,,,416.4327490001451,417.0833916000556,417.0833916000556,417.56798409996554,315,45,417.56798409996554,417.56798409996554,417.56798409996554,417.56798409996554,417.56798409996554,417.56798409996554,417.56798409996554,417.56798409996554,417.56798409996554,417.93443839997053,417.93443839997053,417.93443839997053,417.93443839997053,417.93443839997053,417.93443839997053,417.93443839997053,417.93443839997053,417.93443839997053,23,0,,,417.93443839997053,418.136649900116,1000,418.136649900116,1000,1000,1000,1000,0,num_3,0.43327979976311326,,37,10,2026-03-13_18h23.09.358,2026A_exp2,2022.2.4,59.886837834052635,
1,0,6.1,0.0,0,0,44,44,56,,,,,418.5850579000544,419.2355732000433,419.2355732000433,419.7367763000075,315,45,419.7367763000075,419.7367763000075,419.7367763000075,419.7367763000075,419.7367763000075,419.7367763000075,419.7367763000075,419.7367763000075,419.7367763000075,420.1027643000707,420.1027643000707,420.1027643000707,420.1027643000707,420.1027643000707,420.1027643000707,420.1027643000707,420.1027643000707,420.1027643000707,23,0,,,420.1027643000707,420.30334899993613,6.1,420.30334899993613,1,6.1,1,1,1000,num_4,0.7719829997513443,,37,10,2026-03-13_18h23.09.358,2026A_exp2,2022.2.4,59.886837834052635,
1,0,0.0,3.7,0,0,45,45,35,,,,,421.10410070000216,421.75482379994355,421.75482379994355,422.2392762999516,45,315,422.2392762999516,422.2392762999516,422.2392762999516,422.2392762999516,422.2392762999516,422.2392762999516,422.2392762999516,422.2392762999516,422.2392762999516,422.6056450000033,422.6056450000033,422.6056450000033,422.6056450000033,422.6056450000033,422.6056450000033,422.6056450000033,422.6056450000033,422.6056450000033,23,0,,,422.6056450000033,422.8058591999579,0.0,422.8058591999579,0,0.0,0,1,1000,num_1,1.7882487997412682,,37,10,2026-03-13_18h23.09.358,2026A_exp2,2022.2.4,59.886837834052635,
1,0,0.0,6.1,0,0,46,46,11,,,,,424.6243776001502,425.2750369999558,425.2750369999558,425.759736899985,45,45,425.759736899985,425.759736899985,425.759736899985,425.759736899985,425.759736899985,425.759736899985,425.759736899985,425.759736899985,425.759736899985,426.1259854999371,426.1259854999371,426.1259854999371,426.1259854999371,426.1259854999371,426.1259854999371,426.1259854999371,426.1259854999371,426.1259854999371,23,0,,,426.1259854999371,426.32609029999,0.0,426.32609029999,0,0.0,0,1,1000,num_1,0.987949599744752,,37,10,2026-03-13_18h23.09.358,2026A_exp2,2022.2.4,59.886837834052635,
1000,1,0.0,0.0,1,0,47,47,27,,,,,427.3436080000829,427.99441580008715,427.99441580008715,428.4787699000444,45,45,428.4787699000444,428.4787699000444,428.4787699000444,428.4787699000444,428.4787699000444,428.4787699000444,428.4787699000444,428.4787699000444,428.4787699000444,428.8453206999693,428.8453206999693,428.8453206999693,428.8453206999693,428.8453206999693,428.8453206999693,428.8453206999693,428.8453206999693,428.8453206999693,23,0,,,428.8453206999693,429.0476510999724,1000,429.0476510999724,1000,1000,1000,1000,0,num_3,0.37138739973306656,,37,10,2026-03-13_18h23.09.358,2026A_exp2,2022.2.4,59.886837834052635,
0,0,0.0,0.0,1,0,48,48,71,,,,,429.44580939994194,430.09648980014026,430.09648980014026,430.5974433000665,45,315,430.5974433000665,430.5974433000665,430.5974433000665,430.5974433000665,430.5974433000665,430.5974433000665,430.5974433000665,430.5974433000665,430.5974433000665,430.96417189994827,430.96417189994827,430.96417189994827,430.96417189994827,430.96417189994827,430.96417189994827,430.96417189994827,430.96417189994827,430.96417189994827,23,0,,,430.96417189994827,431.16436169994995,0.0,431.16436169994995,1,0.0,0,0,1000,num_4,1.0223927998449653,,37,10,2026-03-13_18h23.09.358,2026A_exp2,2022.2.4,59.886837834052635,
1,0,0.0,0.0,1,0,49,49,6,,,,,432.2152444999665,432.8658966999501,432.8658966999501,433.3670441999566,315,45,433.3670441999566,433.3670441999566,433.3670441999566,433.3670441999566,433.3670441999566,433.3670441999566,433.3670441999566,433.3670441999566,433.3670441999566,433.7168735000305,433.7168735000305,433.7168735000305,433.7168735000305,433.7168735000305,433.7168735000305,433.7168735000305,433.7168735000305,433.7168735000305,22,0,,,433.7168735000305,433.9169165000785,0.0,433.9169165000785,0,0.0,0,1,1000,num_1,0.9579402997624129,,37,10,2026-03-13_18h23.09.358,2026A_exp2,2022.2.4,59.886837834052635,
1,0,0.0,0.0,1,0,50,50,87,,,,,434.9009994000662,435.53568760002963,435.53568760002963,436.03631570003927,45,315,436.03631570003927,436.03631570003927,436.03631570003927,436.03631570003927,436.03631570003927,436.03631570003927,436.03631570003927,436.03631570003927,436.03631570003927,436.4029985999223,436.4029985999223,436.4029985999223,436.4029985999223,436.4029985999223,436.4029985999223,436.4029985999223,436.4029985999223,436.4029985999223,23,0,,,436.4029985999223,436.60308400006033,0.0,436.60308400006033,1,0.0,0,0,1000,num_4,1.2872211998328567,,37,10,2026-03-13_18h23.09.358,2026A_exp2,2022.2.4,59.886837834052635,
1000,1,4.9,0.0,0,0,51,51,54,,,,,437.9209004000295,438.57166399993,438.57166399993,439.0561573000159,315,45,439.0561573000159,439.0561573000159,439.0561573000159,439.0561573000159,439.0561573000159,439.0561573000159,439.0561573000159,439.0561573000159,439.0561573000159,439.4224000000395,439.4224000000395,439.4224000000395,439.4224000000395,439.4224000000395,439.4224000000395,439.4224000000395,439.4224000000395,439.4224000000395,23,0,,,439.4224000000395,439.6249218999874,1000,439.6249218999874,1000,1000,1000,1000,0,num_3,0.44137659994885325,,37,10,2026-03-13_18h23.09.358,2026A_exp2,2022.2.4,59.886837834052635,
1,0,0.0,3.7,1,0,52,52,66,,,,,440.0898124000523,440.74044249998406,440.74044249998406,441.2415704000741,45,45,441.2415704000741,441.2415704000741,441.2415704000741,441.2415704000741,441.2415704000741,441.2415704000741,441.2415704000741,441.2415704000741,441.2415704000741,441.60809929994866,441.60809929994866,441.60809929994866,441.60809929994866,441.60809929994866,441.60809929994866,441.60809929994866,441.60809929994866,441.60809929994866,23,0,,,441.60809929994866,441.80827299994417,3.7,441.80827299994417,1,3.7,1,1,1000,num_4,1.473897899966687,,37,10,2026-03-13_18h23.09.358,2026A_exp2,2022.2.4,59.886837834052635,
1000,1,0.0,0.0,1,0,53,53,23,,,,,443.309876000043,443.9605805000756,443.9605805000756,444.444915600121,315,45,444.444915600121,444.444915600121,444.444915600121,444.444915600121,444.444915600121,444.444915600121,444.444915600121,444.444915600121,444.444915600121,444.8112431000918,444.8112431000918,444.8112431000918,444.8112431000918,444.8112431000918,444.8112431000918,444.8112431000918,444.8112431000918,444.8112431000918,23,0,,,444.8112431000918,445.01304870005697,1000,445.01304870005697,1000,1000,1000,1000,0,num_3,0.38205070002004504,,37,10,2026-03-13_18h23.09.358,2026A_exp2,2022.2.4,59.886837834052635,
1,0,0.0,6.1,1,0,54,54,36,,,,,445.4119387001265,446.06252810009755,446.06252810009755,446.54692069999874,45,45,446.54692069999874,446.54692069999874,446.54692069999874,446.54692069999874,446.54692069999874,446.54692069999874,446.54692069999874,446.54692069999874,446.54692069999874,446.91337540000677,446.91337540000677,446.91337540000677,446.91337540000677,446.91337540000677,446.91337540000677,446.91337540000677,446.91337540000677,446.91337540000677,23,0,,,446.91337540000677,447.11355150002055,6.1,447.11355150002055,1,6.1,1,1,1000,num_4,0.6334818997420371,,37,10,2026-03-13_18h23.09.358,2026A_exp2,2022.2.4,59.886837834052635,
1,0,4.9,0.0,1,0,55,55,38,,,,,447.7641245999839,448.4148699999787,448.4148699999787,448.8991723000072,45,45,448.8991723000072,448.8991723000072,448.8991723000072,448.8991723000072,448.8991723000072,448.8991723000072,448.8991723000072,448.8991723000072,448.8991723000072,449.2656521999743,449.2656521999743,449.2656521999743,449.2656521999743,449.2656521999743,449.2656521999743,449.2656521999743,449.2656521999743,449.2656521999743,23,0,,,449.2656521999743,449.46571610006504,0.0,449.46571610006504,0,0.0,0,1,1000,num_1,0.8173090999480337,,37,10,2026-03-13_18h23.09.358,2026A_exp2,2022.2.4,59.886837834052635,
1,0,0.0,4.9,0,0,56,56,4,,,,,450.300095600076,450.9506381000392,450.9506381000392,451.4352401001379,45,45,451.4352401001379,451.4352401001379,451.4352401001379,451.4352401001379,451.4352401001379,451.4352401001379,451.4352401001379,451.4352401001379,451.4352401001379,451.8012516000308,451.8012516000308,451.8012516000308,451.8012516000308,451.8012516000308,451.8012516000308,451.8012516000308,451.8012516000308,451.8012516000308,23,0,,,451.8012516000308,452.00180530012585,0.0,452.00180530012585,0,0.0,0,1,1000,num_1,1.0732817996758968,,37,10,2026-03-13_18h23.09.358,2026A_exp2,2022.2.4,59.886837834052635,
1000,1,6.1,0.0,0,0,57,57,82,,,,,453.1027194999624,453.7536084000021,453.7536084000021,454.23801550013013,45,45,454.23801550013013,454.23801550013013,454.23801550013013,454.23801550013013,454.23801550013013,454.23801550013013,454.23801550013013,454.23801550013013,454.23801550013013,454.6043533999473,454.6043533999473,454.6043533999473,454.6043533999473,454.6043533999473,454.6043533999473,454.6043533999473,454.6043533999473,454.6043533999473,23,0,,,454.6043533999473,454.8066096000839,1000,454.8066096000839,1000,1000,1000,1000,0,num_3,0.49150199978612363,,37,10,2026-03-13_18h23.09.358,2026A_exp2,2022.2.4,59.886837834052635,
1000,1,0.0,3.7,0,0,58,58,78,,,,,455.32169599994086,455.97248849994503,455.97248849994503,456.47343429992907,45,315,456.47343429992907,456.47343429992907,456.47343429992907,456.47343429992907,456.47343429992907,456.47343429992907,456.47343429992907,456.47343429992907,456.47343429992907,456.83993600006215,456.83993600006215,456.83993600006215,456.83993600006215,456.83993600006215,456.83993600006215,456.83993600006215,456.83993600006215,456.83993600006215,23,0,,,456.83993600006215,457.0419695000164,1000,457.0419695000164,1000,1000,1000,1000,1,num_2,0.5137912000063807,,37,10,2026-03-13_18h23.09.358,2026A_exp2,2022.2.4,59.886837834052635,
1000,1,6.1,0.0,0,0,59,59,14,,,,,457.5764035999309,458.22460489999503,458.22460489999503,458.7257018000819,45,315,458.7257018000819,458.7257018000819,458.7257018000819,458.7257018000819,458.7257018000819,458.7257018000819,458.7257018000819,458.7257018000819,458.7257018000819,459.09211730002426,459.09211730002426,459.09211730002426,459.09211730002426,459.09211730002426,459.09211730002426,459.09211730002426,459.09211730002426,459.09211730002426,23,0,,,459.09211730002426,459.29414679994807,1000,459.29414679994807,1000,1000,1000,1000,0,num_3,0.6360732999164611,,37,10,2026-03-13_18h23.09.358,2026A_exp2,2022.2.4,59.886837834052635,
1000,1,4.9,0.0,1,0,60,60,5,,,,,459.9597450001165,460.61021750001237,460.61021750001237,461.11150390002877,45,315,461.11150390002877,461.11150390002877,461.11150390002877,461.11150390002877,461.11150390002877,461.11150390002877,461.11150390002877,461.11150390002877,461.11150390002877,461.46119770011865,461.46119770011865,461.46119770011865,461.46119770011865,461.46119770011865,461.46119770011865,461.46119770011865,461.46119770011865,461.46119770011865,22,0,,,461.46119770011865,461.6631873000879,1000,461.6631873000879,1000,1000,1000,1000,0,num_3,0.3635342998895794,,37,10,2026-03-13_18h23.09.358,2026A_exp2,2022.2.4,59.886837834052635,
1,0,0.0,4.9,1,0,61,61,53,,,,,462.0452114001382,462.6956694999244,462.6956694999244,463.19697619997896,315,315,463.19697619997896,463.19697619997896,463.19697619997896,463.19697619997896,463.19697619997896,463.19697619997896,463.19697619997896,463.19697619997896,463.19697619997896,463.5632845000364,463.5632845000364,463.5632845000364,463.5632845000364,463.5632845000364,463.5632845000364,463.5632845000364,463.5632845000364,463.5632845000364,23,0,,,463.5632845000364,463.7635024001356,4.9,463.7635024001356,1,4.9,1,1,1000,num_4,0.6797456999775022,,37,10,2026-03-13_18h23.09.358,2026A_exp2,2022.2.4,59.886837834052635,
1000,1,4.9,0.0,1,0,62,62,72,,,,,464.4642334000673,465.1149286001455,465.1149286001455,465.61606110003777,45,315,465.61606110003777,465.61606110003777,465.61606110003777,465.61606110003777,465.61606110003777,465.61606110003777,465.61606110003777,465.61606110003777,465.61606110003777,465.9824807001278,465.9824807001278,465.9824807001278,465.9824807001278,465.9824807001278,465.9824807001278,465.9824807001278,465.9824807001278,465.9824807001278,23,0,,,465.9824807001278,466.1846684999764,1000,466.1846684999764,1000,1000,1000,1000,0,num_3,0.21769489999860525,,37,10,2026-03-13_18h23.09.358,2026A_exp2,2022.2.4,59.886837834052635,
1,0,4.9,0.0,1,0,63,63,8,,,,,466.4328717000317,467.0835259000305,467.0835259000305,467.5944811999798,315,315,467.5944811999798,467.5944811999798,467.5944811999798,467.5944811999798,467.5944811999798,467.5944811999798,467.5944811999798,467.5944811999798,467.5944811999798,467.9510135001037,467.9510135001037,467.9510135001037,467.9510135001037,467.9510135001037,467.9510135001037,467.9510135001037,467.9510135001037,467.9510135001037,23,0,,,467.9510135001037,468.15118640009314,0.0,468.15118640009314,0,0.0,0,1,1000,num_1,0.9402574000414461,,37,10,2026-03-13_18h23.09.358,2026A_exp2,2022.2.4,59.886837834052635,
1,0,0.0,0.0,1,0,64,64,73,,,,,469.1187357001472,469.76958060008474,469.76958060008474,470.25389480008744,45,45,470.25389480008744,470.25389480008744,470.25389480008744,470.25389480008744,470.25389480008744,470.25389480008744,470.25389480008744,470.25389480008744,470.25389480008744,470.6203020999674,470.6203020999674,470.6203020999674,470.6203020999674,470.6203020999674,470.6203020999674,470.6203020999674,470.6203020999674,470.6203020999674,23,0,,,470.6203020999674,470.82056719996035,0.0,470.82056719996035,1,0.0,0,0,1000,num_4,1.701464399928227,,37,10,2026-03-13_18h23.09.358,2026A_exp2,2022.2.4,59.886837834052635,
1000,1,3.7,6.1,0,0,65,65,0,,,,,472.539036200149,473.1897018000018,473.1897018000018,473.67395450011827,315,315,473.67395450011827,473.67395450011827,473.67395450011827,473.67395450011827,473.67395450011827,473.67395450011827,473.67395450011827,473.67395450011827,473.67395450011827,474.0404092001263,474.0404092001263,474.0404092001263,474.0404092001263,474.0404092001263,474.0404092001263,474.0404092001263,474.0404092001263,474.0404092001263,23,0,,,474.0404092001263,474.2426094999537,1000,474.2426094999537,1000,1000,1000,1000,1,num_2,0.37647309992462397,,37,10,2026-03-13_18h23.09.358,2026A_exp2,2022.2.4,59.886837834052635,
1,0,0.0,0.0,0,0,66,66,29,,,,,474.64123370009474,475.2751694000326,475.2751694000326,475.7760568000376,315,315,475.7760568000376,475.7760568000376,475.7760568000376,475.7760568000376,475.7760568000376,475.7760568000376,475.7760568000376,475.7760568000376,475.7760568000376,476.14251050003804,476.14251050003804,476.14251050003804,476.14251050003804,476.14251050003804,476.14251050003804,476.14251050003804,476.14251050003804,476.14251050003804,23,0,,,476.14251050003804,476.34273179993033,0.0,476.34273179993033,1,0.0,0,0,1000,num_4,0.7235231997910887,,37,10,2026-03-13_18h23.09.358,2026A_exp2,2022.2.4,59.886837834052635,
1000,1,6.1,0.0,1,0,67,67,16,,,,,477.09351569996215,477.7443820000626,477.7443820000626,478.24889310006984,45,45,478.24889310006984,478.24889310006984,478.24889310006984,478.24889310006984,478.24889310006984,478.24889310006984,478.24889310006984,478.24889310006984,478.24889310006984,478.61162300012074,478.61162300012074,478.61162300012074,478.61162300012074,478.61162300012074,478.61162300012074,478.61162300012074,478.61162300012074,478.61162300012074,23,0,,,478.61162300012074,478.81369710015133,1000,478.81369710015133,1000,1000,1000,1000,0,num_3,0.22848609974607825,,37,10,2026-03-13_18h23.09.358,2026A_exp2,2022.2.4,59.886837834052635,
1000,1,6.1,0.0,1,0,68,68,30,,,,,479.0619357000105,479.7128663000185,479.7128663000185,480.21398800006136,315,45,480.21398800006136,480.21398800006136,480.21398800006136,480.21398800006136,480.21398800006136,480.21398800006136,480.21398800006136,480.21398800006136,480.21398800006136,480.5805144000333,480.5805144000333,480.5805144000333,480.5805144000333,480.5805144000333,480.5805144000333,480.5805144000333,480.5805144000333,480.5805144000333,23,0,,,480.5805144000333,480.7848737000022,1000,480.7848737000022,1000,1000,1000,1000,0,num_3,0.2979077997151762,,37,10,2026-03-13_18h23.09.358,2026A_exp2,2022.2.4,59.886837834052635,
1000,1,6.1,0.0,1,0,69,69,75,,,,,481.1142217000015,481.76485930010676,481.76485930010676,482.26605620002374,45,45,482.26605620002374,482.26605620002374,482.26605620002374,482.26605620002374,482.26605620002374,482.26605620002374,482.26605620002374,482.26605620002374,482.26605620002374,482.6321753000375,482.6321753000375,482.6321753000375,482.6321753000375,482.6321753000375,482.6321753000375,482.6321753000375,482.6321753000375,482.6321753000375,23,0,,,482.6321753000375,482.834736000048,1000,482.834736000048,1000,1000,1000,1000,0,num_3,0.12770349974744022,,37,10,2026-03-13_18h23.09.358,2026A_exp2,2022.2.4,59.886837834052635,
1000,1,0.0,4.9,1,0,70,70,79,,,,,482.98268650006503,483.63338180002756,483.63338180002756,484.1344308999833,315,45,484.1344308999833,484.1344308999833,484.1344308999833,484.1344308999833,484.1344308999833,484.1344308999833,484.1344308999833,484.1344308999833,484.1344308999833,484.500887400005,484.500887400005,484.500887400005,484.500887400005,484.500887400005,484.500887400005,484.500887400005,484.500887400005,484.500887400005,23,0,,,484.500887400005,484.7030420000665,1000,484.7030420000665,1000,1000,1000,1000,1,num_2,0.13124989974312484,,37,10,2026-03-13_18h23.09.358,2026A_exp2,2022.2.4,59.886837834052635,
0,0,0.0,6.1,0,0,71,71,7,,,,,484.8514733000193,485.50198070006445,485.50198070006445,486.00306240003556,315,45,486.00306240003556,486.00306240003556,486.00306240003556,486.00306240003556,486.00306240003556,486.00306240003556,486.00306240003556,486.00306240003556,486.00306240003556,486.35285959998146,486.35285959998146,486.35285959998146,486.35285959998146,486.35285959998146,486.35285959998146,486.35285959998146,486.35285959998146,486.35285959998146,22,0,,,486.35285959998146,486.5529416000936,6.1,486.5529416000936,1,6.1,1,1,1000,num_4,0.53795629972592,,37,10,2026-03-13_18h23.09.358,2026A_exp2,2022.2.4,59.886837834052635,
1,0,0.0,6.1,1,0,72,72,40,,,,,487.1201303000562,487.7709652001504,487.7709652001504,488.2553989000153,45,45,488.2553989000153,488.2553989000153,488.2553989000153,488.2553989000153,488.2553989000153,488.2553989000153,488.2553989000153,488.2553989000153,488.2553989000153,488.6215963999275,488.6215963999275,488.6215963999275,488.6215963999275,488.6215963999275,488.6215963999275,488.6215963999275,488.6215963999275,488.6215963999275,23,0,,,488.6215963999275,488.8217631999869,6.1,488.8386051999405,1,6.1,1,1,1000,num_4,0.5236209998838603,,37,10,2026-03-13_18h23.09.358,2026A_exp2,2022.2.4,59.886837834052635,
1,0,6.1,4.9,0,0,73,73,39,,,,,489.3891511000693,490.03966829995625,490.03966829995625,490.5408010999672,45,315,490.5408010999672,490.5408010999672,490.5408010999672,490.5408010999672,490.5408010999672,490.5408010999672,490.5408010999672,490.5408010999672,490.5408010999672,490.9071913000662,490.9071913000662,490.9071913000662,490.9071913000662,490.9071913000662,490.9071913000662,490.9071913000662,490.9071913000662,490.9071913000662,23,0,,,490.9071913000662,491.107559800148,6.1,491.107559800148,1,6.1,1,1,1000,num_4,1.2385175998788327,,37,10,2026-03-13_18h23.09.358,2026A_exp2,2022.2.4,59.886837834052635,
0,0,6.1,3.7,1,0,74,74,49,,,,,492.37540480005555,493.02619080012664,493.02619080012664,493.51051430008374,45,45,493.51051430008374,493.51051430008374,493.51051430008374,493.51051430008374,493.51051430008374,493.51051430008374,493.51051430008374,493.51051430008374,493.51051430008374,493.8770087000448,493.8770087000448,493.8770087000448,493.8770087000448,493.8770087000448,493.8770087000448,493.8770087000448,493.8770087000448,493.8770087000448,23,0,,,493.8770087000448,494.07722320011817,6.1,494.0937501001172,1,6.1,1,1,1000,num_4,0.5803023998159915,,37,10,2026-03-13_18h23.09.358,2026A_exp2,2022.2.4,59.886837834052635,
1,0,0.0,0.0,0,0,75,75,1,,,,,494.6941472000908,495.3284200001508,495.3284200001508,495.8434862999711,45,45,495.8434862999711,495.8434862999711,495.8434862999711,495.8434862999711,495.8434862999711,495.8434862999711,495.8434862999711,495.8434862999711,495.8434862999711,496.1961660999805,496.1961660999805,496.1961660999805,496.1961660999805,496.1961660999805,496.1961660999805,496.1961660999805,496.1961660999805,496.1961660999805,23,0,,,496.1961660999805,496.3961670999415,0.0,496.3961670999415,1,0.0,0,0,1000,num_4,1.3502260998357087,,37,10,2026-03-13_18h23.09.358,2026A_exp2,2022.2.4,59.886837834052635,
1000,1,4.9,0.0,0,0,76,76,26,,,,,497.76411470002495,498.41617000009865,498.41617000009865,498.90385430003516,45,45,498.90385430003516,498.90385430003516,498.90385430003516,498.90385430003516,498.90385430003516,498.90385430003516,498.90385430003516,498.90385430003516,498.90385430003516,499.2658224001061,499.2658224001061,499.2658224001061,499.2658224001061,499.2658224001061,499.2658224001061,499.2658224001061,499.2658224001061,499.2658224001061,23,0,,,499.2658224001061,499.4680326001253,1000,499.4680326001253,1000,1000,1000,1000,0,num_3,0.6861105998978019,,37,10,2026-03-13_18h23.09.358,2026A_exp2,2022.2.4,59.886837834052635,
1000,1,3.7,0.0,0,0,77,77,57,,,,,500.1834339001216,500.83399199997075,500.83399199997075,501.33494810014963,45,45,501.33494810014963,501.33494810014963,501.33494810014963,501.33494810014963,501.33494810014963,501.33494810014963,501.33494810014963,501.33494810014963,501.33494810014963,501.70147270010784,501.70147270010784,501.70147270010784,501.70147270010784,501.70147270010784,501.70147270010784,501.70147270010784,501.70147270010784,501.70147270010784,23,0,,,501.70147270010784,501.9037769001443,1000,501.9037769001443,1000,1000,1000,1000,0,num_3,0.13926309975795448,,37,10,2026-03-13_18h23.09.358,2026A_exp2,2022.2.4,59.886837834052635,
1,0,0.0,4.9,1,0,78,78,21,,,,,502.0685914000496,502.71919590001926,502.71919590001926,503.2201906000264,315,45,503.2201906000264,503.2201906000264,503.2201906000264,503.2201906000264,503.2201906000264,503.2201906000264,503.2201906000264,503.2201906000264,503.2201906000264,503.58676919993013,503.58676919993013,503.58676919993013,503.58676919993013,503.58676919993013,503.58676919993013,503.58676919993013,503.58676919993013,503.58676919993013,23,0,,,503.58676919993013,503.78680220013484,4.9,503.78680220013484,1,4.9,1,1,1000,num_4,0.7368185000959784,,37,10,2026-03-13_18h23.09.358,2026A_exp2,2022.2.4,59.886837834052635,
1000,1,3.7,0.0,1,0,79,79,48,,,,,504.55437050014734,505.20493340003304,505.20493340003304,505.68942840001546,315,45,505.68942840001546,505.68942840001546,505.68942840001546,505.68942840001546,505.68942840001546,505.68942840001546,505.68942840001546,505.68942840001546,505.68942840001546,506.0556818000041,506.0556818000041,506.0556818000041,506.0556818000041,506.0556818000041,506.0556818000041,506.0556818000041,506.0556818000041,506.0556818000041,23,0,,,506.0556818000041,506.2579602000769,1000,506.2579602000769,1000,1000,1000,1000,1,num_2,1.7120565997902304,,37,10,2026-03-13_18h23.09.358,2026A_exp2,2022.2.4,59.886837834052635,
0,0,0.0,3.7,1,0,80,80,10,,,,,507.9911060000304,508.6416921999771,508.6416921999771,509.14276610012166,45,45,509.14276610012166,509.14276610012166,509.14276610012166,509.14276610012166,509.14276610012166,509.14276610012166,509.14276610012166,509.14276610012166,509.14276610012166,509.5092559000477,509.5092559000477,509.5092559000477,509.5092559000477,509.5092559000477,509.5092559000477,509.5092559000477,509.5092559000477,509.5092559000477,23,0,,,509.5092559000477,509.7094173999503,0.0,509.7094173999503,0,0.0,0,1,1000,num_1,1.220528399804607,,37,10,2026-03-13_18h23.09.358,2026A_exp2,2022.2.4,59.886837834052635,
1000,1,0.0,0.0,1,0,81,81,67,,,,,510.9607716000173,511.61138279992156,511.61138279992156,512.0958652000409,45,45,512.0958652000409,512.0958652000409,512.0958652000409,512.0958652000409,512.0958652000409,512.0958652000409,512.0958652000409,512.0958652000409,512.0958652000409,512.4620890999213,512.4620890999213,512.4620890999213,512.4620890999213,512.4620890999213,512.4620890999213,512.4620890999213,512.4620890999213,512.4620890999213,23,0,,,512.4620890999213,512.6644983999431,1000,512.6644983999431,1000,1000,1000,1000,0,num_3,0.706733200000599,,37,10,2026-03-13_18h23.09.358,2026A_exp2,2022.2.4,59.886837834052635,
1,0,3.7,0.0,0,0,82,82,3,,,,,513.3965940999333,514.0471638001036,514.0471638001036,514.5316518000327,315,45,514.5316518000327,514.5316518000327,514.5316518000327,514.5316518000327,514.5316518000327,514.5316518000327,514.5316518000327,514.5316518000327,514.5316518000327,514.89798410004,514.89798410004,514.89798410004,514.89798410004,514.89798410004,514.89798410004,514.89798410004,514.89798410004,514.89798410004,23,0,,,514.89798410004,515.0981060999911,3.7,515.0981060999911,1,3.7,1,1,1000,num_4,1.424822699977085,,37,10,2026-03-13_18h23.09.358,2026A_exp2,2022.2.4,59.886837834052635,
1000,1,0.0,0.0,0,0,83,83,74,,,,,516.5496408001054,517.2003250999842,517.2003250999842,517.6847425999586,315,315,517.6847425999586,517.6847425999586,517.6847425999586,517.6847425999586,517.6847425999586,517.6847425999586,517.6847425999586,517.6847425999586,517.6847425999586,518.0514261999633,518.0514261999633,518.0514261999633,518.0514261999633,518.0514261999633,518.0514261999633,518.0514261999633,518.0514261999633,518.0514261999633,23,0,,,518.0514261999633,518.2625798999798,1000,518.2625798999798,1000,1000,1000,1000,0,num_3,0.475503999972716,,37,10,2026-03-13_18h23.09.358,2026A_exp2,2022.2.4,59.886837834052635,
1000,1,6.1,0.0,1,0,84,84,69,,,,,518.7518124999478,519.40254619997,519.40254619997,519.9035084999632,45,315,519.9035084999632,519.9035084999632,519.9035084999632,519.9035084999632,519.9035084999632,519.9035084999632,519.9035084999632,519.9035084999632,519.9035084999632,520.2700352999382,520.2700352999382,520.2700352999382,520.2700352999382,520.2700352999382,520.2700352999382,520.2700352999382,520.2700352999382,520.2700352999382,23,0,,,520.2700352999382,520.4723114001099,1000,520.4723114001099,1000,1000,1000,1000,0,num_3,0.26583269983530045,,37,10,2026-03-13_18h23.09.358,2026A_exp2,2022.2.4,59.886837834052635,
1,0,0.0,0.0,0,0,85,85,63,,,,,520.7539482000284,521.4047946999781,521.4047946999781,521.9056099001318,45,315,521.9056099001318,521.9056099001318,521.9056099001318,521.9056099001318,521.9056099001318,521.9056099001318,521.9056099001318,521.9056099001318,521.9056099001318,522.2720321000088,522.2720321000088,522.2720321000088,522.2720321000088,522.2720321000088,522.2720321000088,522.2720321000088,522.2720321000088,522.2720321000088,23,0,,,522.2720321000088,522.4722915999591,0.0,522.4722915999591,1,0.0,0,0,1000,num_4,0.8421668999362737,,37,10,2026-03-13_18h23.09.358,2026A_exp2,2022.2.4,59.886837834052635,
1000,1,0.0,0.0,0,0,86,86,18,,,,,523.3398068000097,523.9903762999456,523.9903762999456,524.4749316999223,315,45,524.4749316999223,524.4749316999223,524.4749316999223,524.4749316999223,524.4749316999223,524.4749316999223,524.4749316999223,524.4749316999223,524.4749316999223,524.8412927000318,524.8412927000318,524.8412927000318,524.8412927000318,524.8412927000318,524.8412927000318,524.8412927000318,524.8412927000318,524.8412927000318,23,0,,,524.8412927000318,525.0437829000875,1000,525.0437829000875,1000,1000,1000,1000,0,num_3,0.454460599925369,,37,10,2026-03-13_18h23.09.358,2026A_exp2,2022.2.4,59.886837834052635,
1000,1,0.0,4.9,1,0,87,87,31,,,,,525.5254907000344,526.1758996001445,526.1758996001445,526.660296899965,45,315,526.660296899965,526.660296899965,526.660296899965,526.660296899965,526.660296899965,526.660296899965,526.660296899965,526.660296899965,526.660296899965,527.0267708001193,527.0267708001193,527.0267708001193,527.0267708001193,527.0267708001193,527.0267708001193,527.0267708001193,527.0267708001193,527.0267708001193,23,0,,,527.0267708001193,527.2285055001266,1000,527.2285055001266,1000,1000,1000,1000,1,num_2,0.40562019986100495,,37,10,2026-03-13_18h23.09.358,2026A_exp2,2022.2.4,59.886837834052635,
1,0,3.7,0.0,1,0,88,88,19,,,,,527.6609209000599,528.3119548000395,528.3119548000395,528.8179939999245,315,45,528.8179939999245,528.8179939999245,528.8179939999245,528.8179939999245,528.8179939999245,528.8179939999245,528.8179939999245,528.8179939999245,528.8179939999245,529.1623505000025,529.1623505000025,529.1623505000025,529.1623505000025,529.1623505000025,529.1623505000025,529.1623505000025,529.1623505000025,529.1623505000025,22,0,,,529.1623505000025,529.3625106001273,0.0,529.3625106001273,0,0.0,0,1,1000,num_1,1.0395510997623205,,37,10,2026-03-13_18h23.09.358,2026A_exp2,2022.2.4,59.886837834052635,
0,0,4.9,0.0,1,0,89,89,25,,,,,530.430366500048,531.0641896000598,531.0641896000598,531.5651684999466,315,315,531.5651684999466,531.5651684999466,531.5651684999466,531.5651684999466,531.5651684999466,531.5651684999466,531.5651684999466,531.5651684999466,531.5651684999466,531.9317121999338,531.9317121999338,531.9317121999338,531.9317121999338,531.9317121999338,531.9317121999338,531.9317121999338,531.9317121999338,531.9317121999338,23,0,,,531.9317121999338,532.1319633999374,4.9,532.1319633999374,1,4.9,1,1,1000,num_4,0.6144300999585539,,37,10,2026-03-13_18h23.09.358,2026A_exp2,2022.2.4,59.886837834052635,
,,,,,,,,,,,,,,,,,,,,,,,,,,,,,,,,,,,,,,,,,,,,,,,,,,,,532.7737458001357,,,,,,,
