validity,detectorcomp,contrastCW,contrastCCW,precueCWorCCW,block_80trials.thisRepN,block_80trials.thisTrialN,block_80trials.thisN,block_80trials.thisIndex,etRecord.started,etRecord.stopped,text.started,text.stopped,text_4.started,text_4.stopped,text_6.started,text_6.stopped,oriCW,oriCCW,roi_2.started,grating_UR.started,grating_UL.started,grating_LR.started,grating_LL.started,noise_UR.started,noise_UL.started,noise_LR.started,noise_LL.started,roi_2.stopped,grating_UR.stopped,grating_UL.stopped,grating_LR.stopped,grating_LL.stopped,noise_UR.stopped,noise_UL.stopped,noise_LR.stopped,noise_LL.stopped,outframe,roi_2.numLooks,roi_2.timesOn,roi_2.timesOff,text_2.started,text_2.stopped,probedcontrast,key_resp.started,respdetect,relevantContrast,correctDetect,TorFdetect,respCWorCCW,key_resp.keys,key_resp.rt,feedback_display_.started,participantNo,blockNo,date,expName,psychopyVersion,frameRate,
1000,1,3.7,0.0,1,0,0,0,54,3.510015085339546e-05,3.510015085339546e-05,50.970811099978164,52.97457249998115,52.97457249998115,53.6075210000854,53.6075210000854,54.13157620001584,45,45,54.13157620001584,54.13157620001584,54.13157620001584,54.13157620001584,54.13157620001584,54.13157620001584,54.13157620001584,54.13157620001584,54.13157620001584,54.4753491000738,54.4753491000738,54.4753491000738,54.4753491000738,54.4753491000738,54.4753491000738,54.4753491000738,54.4753491000738,54.4753491000738,23,0,,,54.4753491000738,54.67720709997229,1000,54.67720709997229,1000,1000,1000,1000,0,num_3,0.9162214999087155,,30,9,2026-03-12_10h58.27.658,2026A_exp2,2022.2.4,59.97724461373291,
1,0,0.0,4.9,1,0,1,1,1,,,,,55.609901200048625,56.259942800039425,56.259942800039425,56.7612104001455,315,45,56.7612104001455,56.7612104001455,56.7612104001455,56.7612104001455,56.7612104001455,56.7612104001455,56.7612104001455,56.7612104001455,56.7612104001455,57.12781900004484,57.12781900004484,57.12781900004484,57.12781900004484,57.12781900004484,57.12781900004484,57.12781900004484,57.12781900004484,57.12781900004484,0,1,[0.0014122999273240566],[0.36694390000775456],57.12781900004484,57.32772579998709,4.9,57.32772579998709,1,4.9,1,1,1000,num_4,0.6658067000098526,,30,9,2026-03-12_10h58.27.658,2026A_exp2,2022.2.4,59.97724461373291,
0,0,6.1,6.1,0,0,2,2,42,,,,,58.01224540011026,58.66240060003474,58.66240060003474,59.16355900000781,315,45,59.16355900000781,59.16355900000781,59.16355900000781,59.16355900000781,59.16355900000781,59.16355900000781,59.16355900000781,59.16355900000781,59.16355900000781,59.51344439992681,59.51344439992681,59.51344439992681,59.51344439992681,59.51344439992681,59.51344439992681,59.51344439992681,59.51344439992681,59.51344439992681,0,1,[0.0007376000285148621],[0.35057729994878173],59.51344439992681,59.713765900116414,6.1,59.713765900116414,1,6.1,1,1,1000,num_4,0.8640656999778003,,30,9,2026-03-12_10h58.27.658,2026A_exp2,2022.2.4,59.97724461373291,
1000,1,0.0,6.1,1,0,3,3,62,,,,,60.597557000117376,61.248196500120685,61.248196500120685,61.73340020002797,45,315,61.73340020002797,61.73340020002797,61.73340020002797,61.73340020002797,61.73340020002797,61.73340020002797,61.73340020002797,61.73340020002797,61.73340020002797,62.09906899998896,62.09906899998896,62.09906899998896,62.09906899998896,62.09906899998896,62.09906899998896,62.09906899998896,62.09906899998896,62.09906899998896,0,1,[0.0007349001243710518],[0.36722170002758503],62.09906899998896,62.2995060000103,1000,62.2995060000103,1000,1000,1000,1000,1,num_2,0.5655526998452842,,30,9,2026-03-12_10h58.27.658,2026A_exp2,2022.2.4,59.97724461373291,
1000,1,4.9,0.0,0,0,4,4,50,,,,,62.883321800036356,63.53426320012659,63.53426320012659,64.01844669994898,45,45,64.01844669994898,64.01844669994898,64.01844669994898,64.01844669994898,64.01844669994898,64.01844669994898,64.01844669994898,64.01844669994898,64.01844669994898,64.38498620013706,64.38498620013706,64.38498620013706,64.38498620013706,64.38498620013706,64.38498620013706,64.38498620013706,64.38498620013706,64.38498620013706,0,1,[0.000811500009149313],[0.3672267000656575],64.38498620013706,64.58508710004389,1000,64.58508710004389,1000,1000,1000,1000,0,num_3,0.3684786001686007,,30,9,2026-03-12_10h58.27.658,2026A_exp2,2022.2.4,59.97724461373291,
1000,1,0.0,4.9,0,0,5,5,53,,,,,64.96900589996949,65.6193858999759,65.6193858999759,66.12054269993678,45,45,66.12054269993678,66.12054269993678,66.12054269993678,66.12054269993678,66.12054269993678,66.12054269993678,66.12054269993678,66.12054269993678,66.12054269993678,66.48689489997923,66.48689489997923,66.48689489997923,66.48689489997923,66.48689489997923,66.48689489997923,66.48689489997923,66.48689489997923,66.48689489997923,0,1,[0.0009049999061971903],[0.3670562000479549],66.48689489997923,66.68756170012057,1000,66.68756170012057,1000,1000,1000,1000,1,num_2,0.4899728000164032,,30,9,2026-03-12_10h58.27.658,2026A_exp2,2022.2.4,59.97724461373291,
1000,1,0.0,0.0,1,0,6,6,23,,,,,67.20426900009625,67.85541409999132,67.85541409999132,68.33933650003746,45,45,68.33933650003746,68.33933650003746,68.33933650003746,68.33933650003746,68.33933650003746,68.33933650003746,68.33933650003746,68.33933650003746,68.33933650003746,68.70587870012969,68.70587870012969,68.70587870012969,68.70587870012969,68.70587870012969,68.70587870012969,68.70587870012969,68.70587870012969,68.70587870012969,0,1,[0.0008125999011099339],[0.367193799931556],68.70587870012969,68.90623309998773,1000,68.90623309998773,1000,1000,1000,1000,1,num_2,0.5824569000396878,,30,9,2026-03-12_10h58.27.658,2026A_exp2,2022.2.4,59.97724461373291,
1000,1,0.0,6.1,0,0,7,7,85,,,,,69.50697490014136,70.15904020005837,70.15904020005837,70.64167860010639,45,45,70.64167860010639,70.64167860010639,70.64167860010639,70.64167860010639,70.64167860010639,70.64167860010639,70.64167860010639,70.64167860010639,70.64167860010639,71.0081346000079,71.0081346000079,71.0081346000079,71.0081346000079,71.0081346000079,71.0081346000079,71.0081346000079,71.0081346000079,71.0081346000079,0,1,[0.0008224002085626125],[0.366726899985224],71.0081346000079,71.20832170010544,1000,71.20832170010544,1000,1000,1000,1000,1,num_2,0.368961300002411,,30,9,2026-03-12_10h58.27.658,2026A_exp2,2022.2.4,59.97724461373291,
1,0,3.7,6.1,1,0,8,8,77,,,,,71.60885310010053,72.2594147999771,72.2594147999771,72.74377080006525,315,45,72.74377080006525,72.74377080006525,72.74377080006525,72.74377080006525,72.74377080006525,72.74377080006525,72.74377080006525,72.74377080006525,72.74377080006525,73.11016020015813,73.11016020015813,73.11016020015813,73.11016020015813,73.11016020015813,73.11016020015813,73.11016020015813,73.11016020015813,73.11016020015813,0,1,[0.0008253001142293215],[0.3669354000594467],73.11016020015813,73.31056040013209,6.1,73.31056040013209,1,6.1,1,1,1000,num_4,0.7061453000642359,,30,9,2026-03-12_10h58.27.658,2026A_exp2,2022.2.4,59.97724461373291,
0,0,0.0,3.7,0,0,9,9,47,,,,,74.04474129993469,74.69502989994362,74.69502989994362,75.17955780006014,45,315,75.17955780006014,75.17955780006014,75.17955780006014,75.17955780006014,75.17955780006014,75.17955780006014,75.17955780006014,75.17955780006014,75.17955780006014,75.54597269999795,75.54597269999795,75.54597269999795,75.54597269999795,75.54597269999795,75.54597269999795,75.54597269999795,75.54597269999795,75.54597269999795,0,1,[0.0007366999052464962],[0.3673992999829352],75.54597269999795,75.74621509993449,3.7,75.74621509993449,1,3.7,1,1,1000,num_4,0.85521119995974,,30,9,2026-03-12_10h58.27.658,2026A_exp2,2022.2.4,59.97724461373291,
1000,1,0.0,0.0,0,0,10,10,45,,,,,76.63049320015125,77.28105550003238,77.28105550003238,77.76577159995213,315,45,77.76577159995213,77.76577159995213,77.76577159995213,77.76577159995213,77.76577159995213,77.76577159995213,77.76577159995213,77.76577159995213,77.76577159995213,78.13193210004829,78.13193210004829,78.13193210004829,78.13193210004829,78.13193210004829,78.13193210004829,78.13193210004829,78.13193210004829,78.13193210004829,0,1,[0.0009516999125480652],[0.3669185000471771],78.13193210004829,78.33209759998135,1000,78.33209759998135,1000,1000,1000,1000,1,num_2,0.5249306000769138,,30,9,2026-03-12_10h58.27.658,2026A_exp2,2022.2.4,59.97724461373291,
1000,1,0.0,6.1,1,0,11,11,69,,,,,78.88265929999761,79.53350530005991,79.53350530005991,80.03457499993965,45,45,80.03457499993965,80.03457499993965,80.03457499993965,80.03457499993965,80.03457499993965,80.03457499993965,80.03457499993965,80.03457499993965,80.03457499993965,80.38418660010211,80.38418660010211,80.38418660010211,80.38418660010211,80.38418660010211,80.38418660010211,80.38418660010211,80.38418660010211,80.38418660010211,0,1,[0.0009604000952094793],[0.35036309994757175],80.38418660010211,80.58434380008839,1000,80.58434380008839,1000,1000,1000,1000,1,num_2,0.5442967000417411,,30,9,2026-03-12_10h58.27.658,2026A_exp2,2022.2.4,59.97724461373291,
0,0,6.1,0.0,1,0,12,12,30,,,,,81.15212119999342,81.80236870003864,81.80236870003864,82.30330309993587,315,45,82.30330309993587,82.30330309993587,82.30330309993587,82.30330309993587,82.30330309993587,82.30330309993587,82.30330309993587,82.30330309993587,82.30330309993587,82.65322500001639,82.65322500001639,82.65322500001639,82.65322500001639,82.65322500001639,82.65322500001639,82.65322500001639,82.65322500001639,82.65322500001639,0,1,[0.0008978999685496092],[0.3500381000339985],82.65322500001639,82.85342300008051,6.1,82.85342300008051,1,6.1,1,1,1000,num_4,0.5799916000105441,,30,9,2026-03-12_10h58.27.658,2026A_exp2,2022.2.4,59.97724461373291,
1,0,0.0,3.7,0,0,13,13,61,,,,,83.45392880006693,84.08786580013111,84.08786580013111,84.58964310004376,45,315,84.58964310004376,84.58964310004376,84.58964310004376,84.58964310004376,84.58964310004376,84.58964310004376,84.58964310004376,84.58964310004376,84.58964310004376,84.95550110004842,84.95550110004842,84.95550110004842,84.95550110004842,84.95550110004842,84.95550110004842,84.95550110004842,84.95550110004842,84.95550110004842,7,1,[0.1173558000009507],[0.3673570998944342],84.95550110004842,85.15575830009766,0.0,85.15575830009766,0,0.0,0,1,1000,num_1,0.6612346000038087,,30,9,2026-03-12_10h58.27.658,2026A_exp2,2022.2.4,59.97724461373291,
1000,1,0.0,0.0,1,0,14,14,46,,,,,85.83988959994167,86.47418379993178,86.47418379993178,86.97479550004937,315,315,86.97479550004937,86.97479550004937,86.97479550004937,86.97479550004937,86.97479550004937,86.97479550004937,86.97479550004937,86.97479550004937,86.97479550004937,87.34123699995689,87.34123699995689,87.34123699995689,87.34123699995689,87.34123699995689,87.34123699995689,87.34123699995689,87.34123699995689,87.34123699995689,0,1,[0.0007506001275032759],[0.36706560011953115],87.34123699995689,87.54132710001431,1000,87.54132710001431,1000,1000,1000,1000,1,num_2,0.7234744001179934,,30,9,2026-03-12_10h58.27.658,2026A_exp2,2022.2.4,59.97724461373291,
1,0,6.1,3.7,0,0,15,15,31,,,,,88.2924138000235,88.94284659996629,88.94284659996629,89.4271533000283,45,45,89.4271533000283,89.4271533000283,89.4271533000283,89.4271533000283,89.4271533000283,89.4271533000283,89.4271533000283,89.4271533000283,89.4271533000283,89.79377979994752,89.79377979994752,89.79377979994752,89.79377979994752,89.79377979994752,89.79377979994752,89.79377979994752,89.79377979994752,89.79377979994752,0,1,[0.0009624999947845936],[0.3668515000026673],89.79377979994752,89.99379460001364,6.1,89.99379460001364,1,6.1,1,1,1000,num_4,0.463119899854064,,30,9,2026-03-12_10h58.27.658,2026A_exp2,2022.2.4,59.97724461373291,
1000,1,0.0,0.0,1,0,16,16,60,,,,,90.47751570004039,91.11157920002006,91.11157920002006,91.61326380004175,315,315,91.61326380004175,91.61326380004175,91.61326380004175,91.61326380004175,91.61326380004175,91.61326380004175,91.61326380004175,91.61326380004175,91.61326380004175,91.97896130010486,91.97896130010486,91.97896130010486,91.97896130010486,91.97896130010486,91.97896130010486,91.97896130010486,91.97896130010486,91.97896130010486,0,1,[0.000790199963375926],[0.3671701999846846],91.97896130010486,92.17933830013499,1000,92.17933830013499,1000,1000,1000,1000,1,num_2,0.10935580008663237,,30,9,2026-03-12_10h58.27.658,2026A_exp2,2022.2.4,59.97724461373291,
1,0,0.0,0.0,1,0,17,17,24,,,,,92.31282590003684,92.96334629994817,92.96334629994817,93.464408100117,315,45,93.464408100117,93.464408100117,93.464408100117,93.464408100117,93.464408100117,93.464408100117,93.464408100117,93.464408100117,93.464408100117,93.81421720003709,93.81421720003709,93.81421720003709,93.81421720003709,93.81421720003709,93.81421720003709,93.81421720003709,93.81421720003709,93.81421720003709,0,1,[0.0007755998522043228],[0.3510047998279333],93.81421720003709,94.01439619995654,0.0,94.01439619995654,1,0.0,0,0,1000,num_4,0.5545409000478685,,30,9,2026-03-12_10h58.27.658,2026A_exp2,2022.2.4,59.97724461373291,
0,0,3.7,6.1,0,0,18,18,73,,,,,94.59855880006216,95.23228719993494,95.23228719993494,95.73360930010676,45,45,95.73360930010676,95.73360930010676,95.73360930010676,95.73360930010676,95.73360930010676,95.73360930010676,95.73360930010676,95.73360930010676,95.73360930010676,96.09977830015123,96.09977830015123,96.09977830015123,96.09977830015123,96.09977830015123,96.09977830015123,96.09977830015123,96.09977830015123,96.09977830015123,7,1,[0.0007486999966204166],[0.2673591999337077],96.09977830015123,96.30014490010217,6.1,96.30014490010217,1,6.1,1,1,1000,num_4,0.7167288998607546,,30,9,2026-03-12_10h58.27.658,2026A_exp2,2022.2.4,59.97724461373291,
1,0,0.0,0.0,0,0,19,19,51,,,,,97.03397050010972,97.668503300054,97.668503300054,98.1690615999978,315,315,98.1690615999978,98.1690615999978,98.1690615999978,98.1690615999978,98.1690615999978,98.1690615999978,98.1690615999978,98.1690615999978,98.1690615999978,98.53568070009351,98.53568070009351,98.53568070009351,98.53568070009351,98.53568070009351,98.53568070009351,98.53568070009351,98.53568070009351,98.53568070009351,0,1,[0.00082949991337955],[0.3676014000084251],98.53568070009351,98.73621060000733,0.0,98.73621060000733,0,0.0,0,1,1000,num_1,0.36878779996186495,,30,9,2026-03-12_10h58.27.658,2026A_exp2,2022.2.4,59.97724461373291,
1000,1,3.7,4.9,1,0,20,20,20,,,,,99.13673930009827,99.78713820013218,99.78713820013218,100.27133370004594,315,315,100.27133370004594,100.27133370004594,100.27133370004594,100.27133370004594,100.27133370004594,100.27133370004594,100.27133370004594,100.27133370004594,100.27133370004594,100.63777020014822,100.63777020014822,100.63777020014822,100.63777020014822,100.63777020014822,100.63777020014822,100.63777020014822,100.63777020014822,100.63777020014822,0,1,[0.0007390999235212803],[0.3675558001268655],100.63777020014822,100.83799210004508,1000,100.83799210004508,1000,1000,1000,1000,1,num_2,0.47534339991398156,,30,9,2026-03-12_10h58.27.658,2026A_exp2,2022.2.4,59.97724461373291,
1,0,3.7,0.0,1,0,21,21,28,,,,,101.33855800004676,101.97273369994946,101.97273369994946,102.47351330006495,315,45,102.47351330006495,102.47351330006495,102.47351330006495,102.47351330006495,102.47351330006495,102.47351330006495,102.47351330006495,102.47351330006495,102.47351330006495,102.84004539996386,102.84004539996386,102.84004539996386,102.84004539996386,102.84004539996386,102.84004539996386,102.84004539996386,102.84004539996386,102.84004539996386,7,4,"[0.0008117998950183392, 0.11724879988469183, 0.2171414999756962, 0.2839927999302745]","[0.08346769982017577, 0.18386339978314936, 0.2669662998523563, 0.3336604998912662]",102.84004539996386,103.0401880000718,0.0,103.0401880000718,0,0.0,0,1,1000,num_1,0.5697435000911355,,30,9,2026-03-12_10h58.27.658,2026A_exp2,2022.2.4,59.97724461373291,
1,0,0.0,0.0,0,0,22,22,44,,,,,103.64097200008109,104.27473650011234,104.27473650011234,104.77577430009842,315,45,104.77577430009842,104.77577430009842,104.77577430009842,104.77577430009842,104.77577430009842,104.77577430009842,104.77577430009842,104.77577430009842,104.77577430009842,105.14218090008944,105.14218090008944,105.14218090008944,105.14218090008944,105.14218090008944,105.14218090008944,105.14218090008944,105.14218090008944,105.14218090008944,0,1,[0.0008974999655038118],[0.3675672998651862],105.14218090008944,105.34298499999568,0.0,105.34298499999568,0,0.0,0,1,1000,num_1,0.2905884999781847,,30,9,2026-03-12_10h58.27.658,2026A_exp2,2022.2.4,59.97724461373291,
1000,1,3.7,4.9,0,0,23,23,80,,,,,105.65957300015725,106.29356419993564,106.29356419993564,106.79469539993443,45,45,106.79469539993443,106.79469539993443,106.79469539993443,106.79469539993443,106.79469539993443,106.79469539993443,106.79469539993443,106.79469539993443,106.79469539993443,107.16082140011713,107.16082140011713,107.16082140011713,107.16082140011713,107.16082140011713,107.16082140011713,107.16082140011713,107.16082140011713,107.16082140011713,0,1,[0.0007818001322448254],[0.36717600002884865],107.16082140011713,107.36123119993135,1000,107.36123119993135,1000,1000,1000,1000,1,num_2,0.6315940998028964,,30,9,2026-03-12_10h58.27.658,2026A_exp2,2022.2.4,59.97724461373291,
1,0,3.7,4.9,1,0,24,24,71,,,,,108.01213359995745,108.66224460001104,108.66224460001104,109.14678340009414,45,45,109.14678340009414,109.14678340009414,109.14678340009414,109.14678340009414,109.14678340009414,109.14678340009414,109.14678340009414,109.14678340009414,109.14678340009414,109.51352740009315,109.51352740009315,109.51352740009315,109.51352740009315,109.51352740009315,109.51352740009315,109.51352740009315,109.51352740009315,109.51352740009315,0,1,[0.001101299887523055],[0.3660609999205917],109.51352740009315,109.713468400063,4.9,109.713468400063,0,4.9,1,0,1000,num_1,1.032285800203681,,30,9,2026-03-12_10h58.27.658,2026A_exp2,2022.2.4,59.97724461373291,
0,0,4.9,4.9,1,0,25,25,48,,,,,110.76474060001783,111.41523590008728,111.41523590008728,111.89977709995583,315,45,111.89977709995583,111.89977709995583,111.89977709995583,111.89977709995583,111.89977709995583,111.89977709995583,111.89977709995583,111.89977709995583,111.89977709995583,112.26708210003562,112.26708210003562,112.26708210003562,112.26708210003562,112.26708210003562,112.26708210003562,112.26708210003562,112.26708210003562,112.26708210003562,23,0,,,112.26708210003562,112.46622040006332,4.9,112.46622040006332,1,4.9,1,1,1000,num_4,0.8864690000191331,,30,9,2026-03-12_10h58.27.658,2026A_exp2,2022.2.4,59.97724461373291,
1,0,0.0,0.0,0,0,26,26,34,,,,,113.3837882000953,114.0177833000198,114.0177833000198,114.51870879996568,45,45,114.51870879996568,114.51870879996568,114.51870879996568,114.51870879996568,114.51870879996568,114.51870879996568,114.51870879996568,114.51870879996568,114.51870879996568,114.88525689998642,114.88525689998642,114.88525689998642,114.88525689998642,114.88525689998642,114.88525689998642,114.88525689998642,114.88525689998642,114.88525689998642,0,1,[0.0009416998364031315],[0.3675913999322802],114.88525689998642,115.08549540000968,0.0,115.08549540000968,0,0.0,0,1,1000,num_1,0.32403869996778667,,30,9,2026-03-12_10h58.27.658,2026A_exp2,2022.2.4,59.97724461373291,
1,0,3.7,3.7,1,0,27,27,86,,,,,115.43586289999075,116.06982910004444,116.06982910004444,116.5709397001192,315,315,116.5709397001192,116.5709397001192,116.5709397001192,116.5709397001192,116.5709397001192,116.5709397001192,116.5709397001192,116.5709397001192,116.5709397001192,116.9373528000433,116.9373528000433,116.9373528000433,116.9373528000433,116.9373528000433,116.9373528000433,116.9373528000433,116.9373528000433,116.9373528000433,0,1,[0.0009318999946117401],[0.36703929980285466],116.9373528000433,117.1377115000505,3.7,117.1377115000505,1,3.7,1,1,1000,num_4,0.7358719001058489,,30,9,2026-03-12_10h58.27.658,2026A_exp2,2022.2.4,59.97724461373291,
1,0,4.9,3.7,1,0,28,28,10,,,,,117.90520650008693,118.53931100014597,118.53931100014597,119.04021140001714,315,315,119.04021140001714,119.04021140001714,119.04021140001714,119.04021140001714,119.04021140001714,119.04021140001714,119.04021140001714,119.04021140001714,119.04021140001714,119.40763260005042,119.40763260005042,119.40763260005042,119.40763260005042,119.40763260005042,119.40763260005042,119.40763260005042,119.40763260005042,119.40763260005042,0,1,[0.0007501998916268349],[0.36770399985834956],119.40763260005042,,3.7,119.6233588999603,1,3.7,1,1,1000,num_4,0.44143310002982616,,30,9,2026-03-12_10h58.27.658,2026A_exp2,2022.2.4,59.97724461373291,
1,0,4.9,0.0,0,0,29,29,4,,,,,120.09056470007636,120.72466349997558,120.72466349997558,121.22599910013378,315,315,121.22599910013378,121.22599910013378,121.22599910013378,121.22599910013378,121.22599910013378,121.22599910013378,121.22599910013378,121.22599910013378,121.22599910013378,121.59204949997365,121.59204949997365,121.59204949997365,121.59204949997365,121.59204949997365,121.59204949997365,121.59204949997365,121.59204949997365,121.59204949997365,19,1,[0.0007526001427322626],[0.06704670004546642],121.59204949997365,121.7922925001476,4.9,121.7922925001476,1,4.9,1,1,1000,num_4,0.4251961999107152,,30,9,2026-03-12_10h58.27.658,2026A_exp2,2022.2.4,59.97724461373291,
1,0,0.0,0.0,1,0,30,30,41,,,,,122.24295500013977,122.87659649993293,122.87659649993293,123.37766240001656,45,315,123.37766240001656,123.37766240001656,123.37766240001656,123.37766240001656,123.37766240001656,123.37766240001656,123.37766240001656,123.37766240001656,123.37766240001656,123.74423500010744,123.74423500010744,123.74423500010744,123.74423500010744,123.74423500010744,123.74423500010744,123.74423500010744,123.74423500010744,123.74423500010744,7,1,[0.0007770999800413847],[0.26762189995497465],123.74423500010744,123.94434010004625,0.0,123.94434010004625,0,0.0,0,1,1000,num_1,0.25653329980559647,,30,9,2026-03-12_10h58.27.658,2026A_exp2,2022.2.4,59.97724461373291,
1,0,3.7,4.9,0,0,31,31,76,,,,,124.22813239996321,124.87861829996109,124.87861829996109,125.36318610003218,45,45,125.36318610003218,125.36318610003218,125.36318610003218,125.36318610003218,125.36318610003218,125.36318610003218,125.36318610003218,125.36318610003218,125.36318610003218,125.72938510007225,125.72938510007225,125.72938510007225,125.72938510007225,125.72938510007225,125.72938510007225,125.72938510007225,125.72938510007225,125.72938510007225,23,0,,,125.72938510007225,125.92966690007597,3.7,125.92966690007597,1,3.7,1,1,1000,num_4,1.1991098001599312,,30,9,2026-03-12_10h58.27.658,2026A_exp2,2022.2.4,59.97724461373291,
0,0,0.0,3.7,0,0,32,32,83,,,,,127.14742829999886,127.79797499999404,127.79797499999404,128.28318769996986,315,315,128.28318769996986,128.28318769996986,128.28318769996986,128.28318769996986,128.28318769996986,128.28318769996986,128.28318769996986,128.28318769996986,128.28318769996986,128.64905970008112,128.64905970008112,128.64905970008112,128.64905970008112,128.64905970008112,128.64905970008112,128.64905970008112,128.64905970008112,128.64905970008112,0,1,[0.001902200048789382],[0.3661518001463264],128.64905970008112,128.8494891000446,3.7,128.8494891000446,1,3.7,1,1,1000,num_4,0.351813199929893,,30,9,2026-03-12_10h58.27.658,2026A_exp2,2022.2.4,59.97724461373291,
1,0,0.0,6.1,0,0,33,33,82,,,,,129.2329929000698,129.88372069993056,129.88372069993056,130.3681083000265,45,45,130.3681083000265,130.3681083000265,130.3681083000265,130.3681083000265,130.3681083000265,130.3681083000265,130.3681083000265,130.3681083000265,130.3681083000265,130.73439870006405,130.73439870006405,130.73439870006405,130.73439870006405,130.73439870006405,130.73439870006405,130.73439870006405,130.73439870006405,130.73439870006405,23,0,,,130.73439870006405,130.9346016999334,0.0,130.9346016999334,0,0.0,0,1,1000,num_1,0.49011279991827905,,30,9,2026-03-12_10h58.27.658,2026A_exp2,2022.2.4,59.97724461373291,
1,0,3.7,0.0,1,0,34,34,11,,,,,131.45214119995944,132.10255820001476,132.10255820001476,132.58704300015233,45,315,132.58704300015233,132.58704300015233,132.58704300015233,132.58704300015233,132.58704300015233,132.58704300015233,132.58704300015233,132.58704300015233,132.58704300015233,132.95339430007152,132.95339430007152,132.95339430007152,132.95339430007152,132.95339430007152,132.95339430007152,132.95339430007152,132.95339430007152,132.95339430007152,23,0,,,132.95339430007152,133.15343519998714,0.0,133.15343519998714,0,0.0,0,1,1000,num_1,0.49582890002056956,,30,9,2026-03-12_10h58.27.658,2026A_exp2,2022.2.4,59.97724461373291,
1,0,4.9,4.9,0,0,35,35,39,,,,,133.67113890009932,134.30551300011575,134.30551300011575,134.80602749995887,45,315,134.80602749995887,134.80602749995887,134.80602749995887,134.80602749995887,134.80602749995887,134.80602749995887,134.80602749995887,134.80602749995887,134.80602749995887,135.17213960015215,135.17213960015215,135.17213960015215,135.17213960015215,135.17213960015215,135.17213960015215,135.17213960015215,135.17213960015215,135.17213960015215,23,0,,,135.17213960015215,135.3727403001394,4.9,135.3727403001394,0,4.9,1,0,1000,num_1,0.6599459999706596,,30,9,2026-03-12_10h58.27.658,2026A_exp2,2022.2.4,59.97724461373291,
1000,1,0.0,0.0,0,0,36,36,87,,,,,136.05655879992992,136.707180300029,136.707180300029,137.19232100015506,45,45,137.19232100015506,137.19232100015506,137.19232100015506,137.19232100015506,137.19232100015506,137.19232100015506,137.19232100015506,137.19232100015506,137.19232100015506,137.55805300013162,137.55805300013162,137.55805300013162,137.55805300013162,137.55805300013162,137.55805300013162,137.55805300013162,137.55805300013162,137.55805300013162,23,0,,,137.55805300013162,137.75784060009755,1000,137.75784060009755,1000,1000,1000,1000,1,num_2,0.6995441999752074,,30,9,2026-03-12_10h58.27.658,2026A_exp2,2022.2.4,59.97724461373291,
1,0,4.9,6.1,0,0,37,37,33,,,,,138.47560609993525,139.12642740015872,139.12642740015872,139.61079830001108,315,45,139.61079830001108,139.61079830001108,139.61079830001108,139.61079830001108,139.61079830001108,139.61079830001108,139.61079830001108,139.61079830001108,139.61079830001108,139.97725400002673,139.97725400002673,139.97725400002673,139.97725400002673,139.97725400002673,139.97725400002673,139.97725400002673,139.97725400002673,139.97725400002673,23,0,,,139.97725400002673,140.17719930014573,4.9,140.17719930014573,1,4.9,1,1,1000,num_4,1.0397026999853551,,30,9,2026-03-12_10h58.27.658,2026A_exp2,2022.2.4,59.97724461373291,
1000,1,0.0,3.7,1,0,38,38,65,,,,,141.24493460007943,141.87920930003747,141.87920930003747,142.38034250005148,45,315,142.38034250005148,142.38034250005148,142.38034250005148,142.38034250005148,142.38034250005148,142.38034250005148,142.38034250005148,142.38034250005148,142.38034250005148,142.74664760008454,142.74664760008454,142.74664760008454,142.74664760008454,142.74664760008454,142.74664760008454,142.74664760008454,142.74664760008454,142.74664760008454,23,0,,,142.74664760008454,142.9469407000579,1000,142.9469407000579,1000,1000,1000,1000,1,num_2,0.5905561000108719,,30,9,2026-03-12_10h58.27.658,2026A_exp2,2022.2.4,59.97724461373291,
1,0,4.9,3.7,0,0,39,39,63,,,,,143.5659737000242,144.2147643000353,144.2147643000353,144.71615120000206,315,45,144.71615120000206,144.71615120000206,144.71615120000206,144.71615120000206,144.71615120000206,144.71615120000206,144.71615120000206,144.71615120000206,144.71615120000206,145.08273100014776,145.08273100014776,145.08273100014776,145.08273100014776,145.08273100014776,145.08273100014776,145.08273100014776,145.08273100014776,145.08273100014776,23,0,,,145.08273100014776,145.28267490002327,4.9,145.28267490002327,1,4.9,1,1,1000,num_4,0.4859355001244694,,30,9,2026-03-12_10h58.27.658,2026A_exp2,2022.2.4,59.97724461373291,
1,0,3.7,0.0,0,0,40,40,8,,,,,145.79973020008765,146.43440539995208,146.43440539995208,146.93468880001456,45,315,146.93468880001456,146.93468880001456,146.93468880001456,146.93468880001456,146.93468880001456,146.93468880001456,146.93468880001456,146.93468880001456,146.93468880001456,147.30100450012833,147.30100450012833,147.30100450012833,147.30100450012833,147.30100450012833,147.30100450012833,147.30100450012833,147.30100450012833,147.30100450012833,23,0,,,147.30100450012833,147.5011966000311,3.7,147.5011966000311,1,3.7,1,1,1000,num_4,0.45983890001662076,,30,9,2026-03-12_10h58.27.658,2026A_exp2,2022.2.4,59.97724461373291,
1000,1,3.7,4.9,0,0,41,41,64,,,,,147.98504099994898,148.63539510010742,148.63539510010742,149.1371675999835,315,45,149.1371675999835,149.1371675999835,149.1371675999835,149.1371675999835,149.1371675999835,149.1371675999835,149.1371675999835,149.1371675999835,149.1371675999835,149.50314799998887,149.50314799998887,149.50314799998887,149.50314799998887,149.50314799998887,149.50314799998887,149.50314799998887,149.50314799998887,149.50314799998887,0,1,[0.0007195000071078539],[0.3671021000482142],149.50314799998887,149.70335460011847,1000,149.70335460011847,1000,1000,1000,1000,1,num_2,0.6175281000323594,,30,9,2026-03-12_10h58.27.658,2026A_exp2,2022.2.4,59.97724461373291,
1,0,0.0,6.1,0,0,42,42,43,,,,,150.33770629996434,150.98840790009126,150.98840790009126,151.48921509995125,315,45,151.48921509995125,151.48921509995125,151.48921509995125,151.48921509995125,151.48921509995125,151.48921509995125,151.48921509995125,151.48921509995125,151.48921509995125,151.8557860001456,151.8557860001456,151.8557860001456,151.8557860001456,151.8557860001456,151.8557860001456,151.8557860001456,151.8557860001456,151.8557860001456,0,1,[0.000829900149255991],[0.36766119999811053],151.8557860001456,152.05617829994299,0.0,152.05617829994299,0,0.0,0,1,1000,num_1,0.5448163999244571,,30,9,2026-03-12_10h58.27.658,2026A_exp2,2022.2.4,59.97724461373291,
1000,1,6.1,4.9,0,0,43,43,49,,,,,152.6235188001301,153.27371140010655,153.27371140010655,153.7747812999878,45,315,153.7747812999878,153.7747812999878,153.7747812999878,153.7747812999878,153.7747812999878,153.7747812999878,153.7747812999878,153.7747812999878,153.7747812999878,154.12461200007237,154.12461200007237,154.12461200007237,154.12461200007237,154.12461200007237,154.12461200007237,154.12461200007237,154.12461200007237,154.12461200007237,21,1,[0.0007889000698924065],[0.017396500101312995],154.12461200007237,154.32550389994867,1000,154.32550389994867,1000,1000,1000,1000,1,num_2,0.515176699962467,,30,9,2026-03-12_10h58.27.658,2026A_exp2,2022.2.4,59.97724461373291,
1000,1,0.0,0.0,0,0,44,44,37,,,,,154.8588855001144,155.50942349992692,155.50942349992692,155.9937215000391,45,315,155.9937215000391,155.9937215000391,155.9937215000391,155.9937215000391,155.9937215000391,155.9937215000391,155.9937215000391,155.9937215000391,155.9937215000391,156.36003919993527,156.36003919993527,156.36003919993527,156.36003919993527,156.36003919993527,156.36003919993527,156.36003919993527,156.36003919993527,156.36003919993527,23,0,,,156.36003919993527,156.56031400011852,1000,156.56031400011852,1000,1000,1000,1000,1,num_2,0.47238970012404025,,30,9,2026-03-12_10h58.27.658,2026A_exp2,2022.2.4,59.97724461373291,
1000,1,3.7,6.1,1,0,45,45,29,,,,,157.0609766000416,157.69498120015487,157.69498120015487,158.1961455999408,45,315,158.1961455999408,158.1961455999408,158.1961455999408,158.1961455999408,158.1961455999408,158.1961455999408,158.1961455999408,158.1961455999408,158.1961455999408,158.56215419992805,158.56215419992805,158.56215419992805,158.56215419992805,158.56215419992805,158.56215419992805,158.56215419992805,158.56215419992805,158.56215419992805,23,0,,,158.56215419992805,158.76334780012257,1000,158.76334780012257,1000,1000,1000,1000,1,num_2,0.5019384000916034,,30,9,2026-03-12_10h58.27.658,2026A_exp2,2022.2.4,59.97724461373291,
1,0,4.9,3.7,0,0,46,46,9,,,,,159.29646959993988,159.9471297999844,159.9471297999844,160.43165710009634,315,315,160.43165710009634,160.43165710009634,160.43165710009634,160.43165710009634,160.43165710009634,160.43165710009634,160.43165710009634,160.43165710009634,160.43165710009634,160.79784459993243,160.79784459993243,160.79784459993243,160.79784459993243,160.79784459993243,160.79784459993243,160.79784459993243,160.79784459993243,160.79784459993243,23,0,,,160.79784459993243,160.99812020012178,4.9,160.99812020012178,0,4.9,1,0,1000,num_1,0.651399599853903,,30,9,2026-03-12_10h58.27.658,2026A_exp2,2022.2.4,59.97724461373291,
1000,1,0.0,4.9,1,0,47,47,55,,,,,161.6656242001336,162.31617280002683,162.31617280002683,162.80139279994182,45,315,162.80139279994182,162.80139279994182,162.80139279994182,162.80139279994182,162.80139279994182,162.80139279994182,162.80139279994182,162.80139279994182,162.80139279994182,163.16704239998944,163.16704239998944,163.16704239998944,163.16704239998944,163.16704239998944,163.16704239998944,163.16704239998944,163.16704239998944,163.16704239998944,23,0,,,163.16704239998944,163.3672712999396,1000,163.3672712999396,1000,1000,1000,1000,1,num_2,0.38589010015130043,,30,9,2026-03-12_10h58.27.658,2026A_exp2,2022.2.4,59.97724461373291,
1000,1,0.0,6.1,1,0,48,48,3,,,,,163.78444820013829,164.4347745999694,164.4347745999694,164.91929100011475,45,45,164.91929100011475,164.91929100011475,164.91929100011475,164.91929100011475,164.91929100011475,164.91929100011475,164.91929100011475,164.91929100011475,164.91929100011475,165.28592950012535,165.28592950012535,165.28592950012535,165.28592950012535,165.28592950012535,165.28592950012535,165.28592950012535,165.28592950012535,165.28592950012535,0,1,[0.0007431998383253813],[0.3668958998750895],165.28592950012535,165.48628220008686,1000,165.48628220008686,1000,1000,1000,1000,1,num_2,0.5153367000166327,,30,9,2026-03-12_10h58.27.658,2026A_exp2,2022.2.4,59.97724461373291,
1000,1,0.0,6.1,0,0,49,49,58,,,,,166.02014930010773,166.65392170008272,166.65392170008272,167.15482289995998,45,45,167.15482289995998,167.15482289995998,167.15482289995998,167.15482289995998,167.15482289995998,167.15482289995998,167.15482289995998,167.15482289995998,167.15482289995998,167.52117349999025,167.52117349999025,167.52117349999025,167.52117349999025,167.52117349999025,167.52117349999025,167.52117349999025,167.52117349999025,167.52117349999025,23,0,,,167.52117349999025,167.72205400001258,1000,167.72205400001258,1000,1000,1000,1000,1,num_2,0.39134280011057854,,30,9,2026-03-12_10h58.27.658,2026A_exp2,2022.2.4,59.97724461373291,
1,0,0.0,0.0,1,0,50,50,21,,,,,168.13960210001096,168.78947370010428,168.78947370010428,169.29030660004355,45,45,169.29030660004355,169.29030660004355,169.29030660004355,169.29030660004355,169.29030660004355,169.29030660004355,169.29030660004355,169.29030660004355,169.29030660004355,169.64037539996207,169.64037539996207,169.64037539996207,169.64037539996207,169.64037539996207,169.64037539996207,169.64037539996207,169.64037539996207,169.64037539996207,22,0,,,169.64037539996207,169.8405373999849,0.0,169.8405373999849,0,0.0,0,1,1000,num_1,0.9444672998506576,,30,9,2026-03-12_10h58.27.658,2026A_exp2,2022.2.4,59.97724461373291,
0,0,0.0,0.0,0,0,51,51,22,,,,,170.80805730004795,171.44194300007075,171.44194300007075,171.94297820003703,315,315,171.94297820003703,171.94297820003703,171.94297820003703,171.94297820003703,171.94297820003703,171.94297820003703,171.94297820003703,171.94297820003703,171.94297820003703,172.30950199998915,172.30950199998915,172.30950199998915,172.30950199998915,172.30950199998915,172.30950199998915,172.30950199998915,172.30950199998915,172.30950199998915,0,1,[0.0009044001344591379],[0.367326500127092],172.30950199998915,172.51014339993708,0.0,172.51014339993708,0,0.0,0,1,1000,num_1,0.35537320002913475,,30,9,2026-03-12_10h58.27.658,2026A_exp2,2022.2.4,59.97724461373291,
1000,1,3.7,0.0,1,0,52,52,88,,,,,172.89355419995263,173.54394050012343,173.54394050012343,174.02841200004332,45,45,174.02841200004332,174.02841200004332,174.02841200004332,174.02841200004332,174.02841200004332,174.02841200004332,174.02841200004332,174.02841200004332,174.02841200004332,174.39457230013795,174.39457230013795,174.39457230013795,174.39457230013795,174.39457230013795,174.39457230013795,174.39457230013795,174.39457230013795,174.39457230013795,23,0,,,174.39457230013795,174.5951356999576,1000,174.5951356999576,1000,1000,1000,1000,0,num_3,0.7742798998951912,,30,9,2026-03-12_10h58.27.658,2026A_exp2,2022.2.4,59.97724461373291,
1,0,3.7,0.0,1,0,53,53,12,,,,,175.39590470003895,176.04660250013694,176.04660250013694,176.53082909993827,315,315,176.53082909993827,176.53082909993827,176.53082909993827,176.53082909993827,176.53082909993827,176.53082909993827,176.53082909993827,176.53082909993827,176.53082909993827,176.89760320005007,176.89760320005007,176.89760320005007,176.89760320005007,176.89760320005007,176.89760320005007,176.89760320005007,176.89760320005007,176.89760320005007,18,1,[0.0007515000179409981],[0.0837218000087887],176.89760320005007,177.09763980004936,0.0,177.09763980004936,0,0.0,0,1,1000,num_1,1.0798778000753373,,30,9,2026-03-12_10h58.27.658,2026A_exp2,2022.2.4,59.97724461373291,
1000,1,0.0,0.0,0,0,54,54,7,,,,,178.1983775999397,178.83236290002242,178.83236290002242,179.33359930012375,45,45,179.33359930012375,179.33359930012375,179.33359930012375,179.33359930012375,179.33359930012375,179.33359930012375,179.33359930012375,179.33359930012375,179.33359930012375,179.7000669001136,179.7000669001136,179.7000669001136,179.7000669001136,179.7000669001136,179.7000669001136,179.7000669001136,179.7000669001136,179.7000669001136,23,0,,,179.7000669001136,179.90033899992704,1000,179.90033899992704,1000,1000,1000,1000,1,num_2,0.3890339999925345,,30,9,2026-03-12_10h58.27.658,2026A_exp2,2022.2.4,59.97724461373291,
1000,1,0.0,4.9,1,0,55,55,78,,,,,180.3181356000714,180.9681641999632,180.9681641999632,181.4693438000977,315,45,181.4693438000977,181.4693438000977,181.4693438000977,181.4693438000977,181.4693438000977,181.4693438000977,181.4693438000977,181.4693438000977,181.4693438000977,181.81888010003604,181.81888010003604,181.81888010003604,181.81888010003604,181.81888010003604,181.81888010003604,181.81888010003604,181.81888010003604,181.81888010003604,0,1,[0.0007260001730173826],[0.3504979000426829],181.81888010003604,182.01897560013458,1000,182.03599390015006,1000,1000,1000,1000,1,num_2,0.557349800132215,,30,9,2026-03-12_10h58.27.658,2026A_exp2,2022.2.4,59.97724461373291,
1,0,6.1,6.1,0,0,56,56,27,,,,,182.61978049995378,183.25359680014662,183.25359680014662,183.7549916000571,315,315,183.7549916000571,183.7549916000571,183.7549916000571,183.7549916000571,183.7549916000571,183.7549916000571,183.7549916000571,183.7549916000571,183.7549916000571,184.12113910005428,184.12113910005428,184.12113910005428,184.12113910005428,184.12113910005428,184.12113910005428,184.12113910005428,184.12113910005428,184.12113910005428,6,1,[0.0007432000711560249],[0.28403960005380213],184.12113910005428,184.32145070005208,6.1,184.32145070005208,0,6.1,1,0,1000,num_1,0.5998696000315249,,30,9,2026-03-12_10h58.27.658,2026A_exp2,2022.2.4,59.97724461373291,
1000,1,6.1,3.7,0,0,57,57,18,,,,,184.93895620014518,185.57304350007325,185.57304350007325,186.07375760003924,45,315,186.07375760003924,186.07375760003924,186.07375760003924,186.07375760003924,186.07375760003924,186.07375760003924,186.07375760003924,186.07375760003924,186.07375760003924,186.44016450014897,186.44016450014897,186.44016450014897,186.44016450014897,186.44016450014897,186.44016450014897,186.44016450014897,186.44016450014897,186.44016450014897,22,1,[0.0007513000164180994],[0.017165200086310506],186.44016450014897,186.64047270012088,1000,186.64047270012088,1000,1000,1000,1000,1,num_2,0.8327871998772025,,30,9,2026-03-12_10h58.27.658,2026A_exp2,2022.2.4,59.97724461373291,
1000,1,0.0,0.0,0,0,58,58,6,,,,,187.49134050006978,188.14168870006688,188.14168870006688,188.6263097000774,315,45,188.6263097000774,188.6263097000774,188.6263097000774,188.6263097000774,188.6263097000774,188.6263097000774,188.6263097000774,188.6263097000774,188.6263097000774,188.9929725001566,188.9929725001566,188.9929725001566,188.9929725001566,188.9929725001566,188.9929725001566,188.9929725001566,188.9929725001566,188.9929725001566,1,1,[0.00092889997176826],[0.36735409987159073],188.9929725001566,189.19348390004598,1000,189.19348390004598,1000,1000,1000,1000,1,num_2,0.5832257000729442,,30,9,2026-03-12_10h58.27.658,2026A_exp2,2022.2.4,59.97724461373291,
1,0,4.9,4.9,0,0,59,59,84,,,,,189.7934852000326,190.4439141000621,190.4439141000621,190.92883870005608,315,45,190.92883870005608,190.92883870005608,190.92883870005608,190.92883870005608,190.92883870005608,190.92883870005608,190.92883870005608,190.92883870005608,190.92883870005608,191.2955841999501,191.2955841999501,191.2955841999501,191.2955841999501,191.2955841999501,191.2955841999501,191.2955841999501,191.2955841999501,191.2955841999501,23,0,,,191.2955841999501,191.49507510010153,4.9,191.49507510010153,1,4.9,1,1,1000,num_4,0.6180307001341134,,30,9,2026-03-12_10h58.27.658,2026A_exp2,2022.2.4,59.97724461373291,
1,0,3.7,0.0,1,0,60,60,13,,,,,192.12891860003583,192.76322060008533,192.76322060008533,193.26451240014285,315,45,193.26451240014285,193.26451240014285,193.26451240014285,193.26451240014285,193.26451240014285,193.26451240014285,193.26451240014285,193.26451240014285,193.26451240014285,193.63065230008215,193.63065230008215,193.63065230008215,193.63065230008215,193.63065230008215,193.63065230008215,193.63065230008215,193.63065230008215,193.63065230008215,23,0,,,193.63065230008215,193.83114110003226,0.0,193.83114110003226,0,0.0,0,1,1000,num_1,0.36215209984220564,,30,9,2026-03-12_10h58.27.658,2026A_exp2,2022.2.4,59.97724461373291,
1,0,4.9,3.7,1,0,61,61,26,,,,,194.214770300081,194.84874509996735,194.84874509996735,195.34975910000503,45,45,195.34975910000503,195.34975910000503,195.34975910000503,195.34975910000503,195.34975910000503,195.34975910000503,195.34975910000503,195.34975910000503,195.34975910000503,195.71580260014161,195.71580260014161,195.71580260014161,195.71580260014161,195.71580260014161,195.71580260014161,195.71580260014161,195.71580260014161,195.71580260014161,2,1,[0.0007327999919652939],[0.3505305000580847],195.71580260014161,195.91618499998003,3.7,195.91618499998003,0,3.7,1,0,1000,num_1,0.6048691000323743,,30,9,2026-03-12_10h58.27.658,2026A_exp2,2022.2.4,59.97724461373291,
1000,1,0.0,0.0,0,0,62,62,36,,,,,196.55049760011025,197.200737999985,197.200737999985,197.7018790000584,45,315,197.7018790000584,197.7018790000584,197.7018790000584,197.7018790000584,197.7018790000584,197.7018790000584,197.7018790000584,197.7018790000584,197.7018790000584,198.06863370002247,198.06863370002247,198.06863370002247,198.06863370002247,198.06863370002247,198.06863370002247,198.06863370002247,198.06863370002247,198.06863370002247,23,0,,,198.06863370002247,198.26874130009674,1000,198.26874130009674,1000,1000,1000,1000,1,num_2,0.5165303000248969,,30,9,2026-03-12_10h58.27.658,2026A_exp2,2022.2.4,59.97724461373291,
0,0,0.0,0.0,1,0,63,63,38,,,,,198.8024951000698,199.45354040013626,199.45354040013626,199.93777830014005,315,45,199.93777830014005,199.93777830014005,199.93777830014005,199.93777830014005,199.93777830014005,199.93777830014005,199.93777830014005,199.93777830014005,199.93777830014005,200.32051250012591,200.32051250012591,200.32051250012591,200.32051250012591,200.32051250012591,200.32051250012591,200.32051250012591,200.32051250012591,200.32051250012591,24,0,,,200.32051250012591,200.52092540008016,0.0,200.52092540008016,0,0.0,0,1,1000,num_1,0.40026789996773005,,30,9,2026-03-12_10h58.27.658,2026A_exp2,2022.2.4,59.97724461373291,
1000,1,0.0,4.9,0,0,64,64,74,,,,,200.9380612000823,201.58846190012991,201.58846190012991,202.07293050014414,315,315,202.07293050014414,202.07293050014414,202.07293050014414,202.07293050014414,202.07293050014414,202.07293050014414,202.07293050014414,202.07293050014414,202.07293050014414,202.43940529995598,202.43940529995598,202.43940529995598,202.43940529995598,202.43940529995598,202.43940529995598,202.43940529995598,202.43940529995598,202.43940529995598,16,1,[0.0007426999509334564],[0.11701330007053912],202.43940529995598,202.63971160002984,1000,202.63971160002984,1000,1000,1000,1000,1,num_2,0.5857468999456614,,30,9,2026-03-12_10h58.27.658,2026A_exp2,2022.2.4,59.97724461373291,
1000,1,0.0,6.1,0,0,65,65,2,,,,,203.25696630007587,203.90736560011283,203.90736560011283,204.39180750004016,45,315,204.39180750004016,204.39180750004016,204.39180750004016,204.39180750004016,204.39180750004016,204.39180750004016,204.39180750004016,204.39180750004016,204.39180750004016,204.7583447000943,204.7583447000943,204.7583447000943,204.7583447000943,204.7583447000943,204.7583447000943,204.7583447000943,204.7583447000943,204.7583447000943,23,0,,,204.7583447000943,204.95885389996693,1000,204.95885389996693,1000,1000,1000,1000,1,num_2,0.5298849001992494,,30,9,2026-03-12_10h58.27.658,2026A_exp2,2022.2.4,59.97724461373291,
1000,1,0.0,0.0,1,0,66,66,16,,,,,205.5091318001505,206.14337099995464,206.14337099995464,206.64416819997132,45,45,206.64416819997132,206.64416819997132,206.64416819997132,206.64416819997132,206.64416819997132,206.64416819997132,206.64416819997132,206.64416819997132,206.64416819997132,207.01078290003352,207.01078290003352,207.01078290003352,207.01078290003352,207.01078290003352,207.01078290003352,207.01078290003352,207.01078290003352,207.01078290003352,8,1,[0.0007886998355388641],[0.25055220001377165],207.01078290003352,207.2107788999565,1000,207.2107788999565,1000,1000,1000,1000,1,num_2,0.6388878999277949,,30,9,2026-03-12_10h58.27.658,2026A_exp2,2022.2.4,59.97724461373291,
1000,1,0.0,4.9,0,0,67,67,5,,,,,207.87821809994057,208.5289845999796,208.5289845999796,209.02986140013672,315,315,209.02986140013672,209.02986140013672,209.02986140013672,209.02986140013672,209.02986140013672,209.02986140013672,209.02986140013672,209.02986140013672,209.02986140013672,209.3802249999717,209.3802249999717,209.3802249999717,209.3802249999717,209.3802249999717,209.3802249999717,209.3802249999717,209.3802249999717,209.3802249999717,22,0,,,209.3802249999717,209.57979650003836,1000,209.5968911999371,1000,1000,1000,1000,1,num_2,0.49202510016039014,,30,9,2026-03-12_10h58.27.658,2026A_exp2,2022.2.4,59.97724461373291,
1000,1,0.0,0.0,1,0,68,68,56,,,,,210.11375560006127,210.7478120001033,210.7478120001033,211.2493559999857,315,315,211.2493559999857,211.2493559999857,211.2493559999857,211.2493559999857,211.2493559999857,211.2493559999857,211.2493559999857,211.2493559999857,211.2493559999857,211.61537090013735,211.61537090013735,211.61537090013735,211.61537090013735,211.61537090013735,211.61537090013735,211.61537090013735,211.61537090013735,211.61537090013735,23,0,,,211.61537090013735,211.81558890012093,1000,211.81558890012093,1000,1000,1000,1000,1,num_2,0.5058901000302285,,30,9,2026-03-12_10h58.27.658,2026A_exp2,2022.2.4,59.97724461373291,
1,0,6.1,4.9,0,0,69,69,81,,,,,212.34984729997814,212.98409130005166,212.98409130005166,213.48438489995897,45,315,213.48438489995897,213.48438489995897,213.48438489995897,213.48438489995897,213.48438489995897,213.48438489995897,213.48438489995897,213.48438489995897,213.48438489995897,213.85088280006312,213.85088280006312,213.85088280006312,213.85088280006312,213.85088280006312,213.85088280006312,213.85088280006312,213.85088280006312,213.85088280006312,23,0,,,213.85088280006312,214.05148100014776,6.1,214.05148100014776,1,6.1,1,1,1000,num_4,0.8139599000569433,,30,9,2026-03-12_10h58.27.658,2026A_exp2,2022.2.4,59.97724461373291,
1000,1,0.0,3.7,0,0,70,70,57,,,,,214.88511990010738,215.51946229999885,215.51946229999885,216.02065740013495,315,315,216.02065740013495,216.02065740013495,216.02065740013495,216.02065740013495,216.02065740013495,216.02065740013495,216.02065740013495,216.02065740013495,216.02065740013495,216.38679939997382,216.38679939997382,216.38679939997382,216.38679939997382,216.38679939997382,216.38679939997382,216.38679939997382,216.38679939997382,216.38679939997382,23,0,,,216.38679939997382,216.58707400015555,1000,216.58707400015555,1000,1000,1000,1000,1,num_2,0.41371849994175136,,30,9,2026-03-12_10h58.27.658,2026A_exp2,2022.2.4,59.97724461373291,
1000,1,3.7,0.0,0,0,71,71,32,,,,,217.02176870009862,217.67159210005775,217.67159210005775,218.17366060009226,315,45,218.17366060009226,218.17366060009226,218.17366060009226,218.17366060009226,218.17366060009226,218.17366060009226,218.17366060009226,218.17366060009226,218.17366060009226,218.5227427999489,218.5227427999489,218.5227427999489,218.5227427999489,218.5227427999489,218.5227427999489,218.5227427999489,218.5227427999489,218.5227427999489,22,0,,,218.5227427999489,218.72320910007693,1000,218.7393837000709,1000,1000,1000,1000,0,num_3,0.5902525000274181,,30,9,2026-03-12_10h58.27.658,2026A_exp2,2022.2.4,59.97724461373291,
1,0,0.0,3.7,1,0,72,72,0,,,,,219.35649210005067,220.0070529000368,220.0070529000368,220.50859869993292,315,315,220.50859869993292,220.50859869993292,220.50859869993292,220.50859869993292,220.50859869993292,220.50859869993292,220.50859869993292,220.50859869993292,220.50859869993292,220.87437480012886,220.87437480012886,220.87437480012886,220.87437480012886,220.87437480012886,220.87437480012886,220.87437480012886,220.87437480012886,220.87437480012886,23,0,,,220.87437480012886,221.0752485000994,3.7,221.0752485000994,1,3.7,1,1,1000,num_4,0.6936204999219626,,30,9,2026-03-12_10h58.27.658,2026A_exp2,2022.2.4,59.97724461373291,
1000,1,0.0,4.9,1,0,73,73,79,,,,,221.79235549992882,222.42685559997335,222.42685559997335,222.9276018999517,45,315,222.9276018999517,222.9276018999517,222.9276018999517,222.9276018999517,222.9276018999517,222.9276018999517,222.9276018999517,222.9276018999517,222.9276018999517,223.29344239993952,223.29344239993952,223.29344239993952,223.29344239993952,223.29344239993952,223.29344239993952,223.29344239993952,223.29344239993952,223.29344239993952,23,0,,,223.29344239993952,223.49379480001517,1000,223.49379480001517,1000,1000,1000,1000,1,num_2,0.3793456999119371,,30,9,2026-03-12_10h58.27.658,2026A_exp2,2022.2.4,59.97724461373291,
1000,1,0.0,0.0,1,0,74,74,40,,,,,223.8946102000773,224.54467940004542,224.54467940004542,225.0292758999858,45,315,225.0292758999858,225.0292758999858,225.0292758999858,225.0292758999858,225.0292758999858,225.0292758999858,225.0292758999858,225.0292758999858,225.0292758999858,225.39593230001628,225.39593230001628,225.39593230001628,225.39593230001628,225.39593230001628,225.39593230001628,225.39593230001628,225.39593230001628,225.39593230001628,1,1,[0.0007208001334220171],[0.36777140013873577],225.39593230001628,225.59703629999422,1000,225.59703629999422,1000,1000,1000,1000,1,num_2,0.4598217001184821,,30,9,2026-03-12_10h58.27.658,2026A_exp2,2022.2.4,59.97724461373291,
1,0,4.9,0.0,1,0,75,75,25,,,,,226.0796112001408,226.71371809998527,226.71371809998527,227.21503810002469,45,45,227.21503810002469,227.21503810002469,227.21503810002469,227.21503810002469,227.21503810002469,227.21503810002469,227.21503810002469,227.21503810002469,227.21503810002469,227.58134420006536,227.58134420006536,227.58134420006536,227.58134420006536,227.58134420006536,227.58134420006536,227.58134420006536,227.58134420006536,227.58134420006536,23,0,,,227.58134420006536,227.781466800021,0.0,227.781466800021,0,0.0,0,1,1000,num_1,0.81988409999758,,30,9,2026-03-12_10h58.27.658,2026A_exp2,2022.2.4,59.97724461373291,
1000,1,0.0,6.1,0,0,76,76,75,,,,,228.63305320008658,229.2666881000623,229.2666881000623,229.767269999953,315,45,229.767269999953,229.767269999953,229.767269999953,229.767269999953,229.767269999953,229.767269999953,229.767269999953,229.767269999953,229.767269999953,230.13424649997614,230.13424649997614,230.13424649997614,230.13424649997614,230.13424649997614,230.13424649997614,230.13424649997614,230.13424649997614,230.13424649997614,23,0,,,230.13424649997614,230.33468209998682,1000,230.33468209998682,1000,1000,1000,1000,1,num_2,0.4819916000124067,,30,9,2026-03-12_10h58.27.658,2026A_exp2,2022.2.4,59.97724461373291,
1000,1,6.1,0.0,0,0,77,77,59,,,,,230.83498420007527,231.48569030012004,231.48569030012004,231.97001589997672,45,315,231.97001589997672,231.97001589997672,231.97001589997672,231.97001589997672,231.97001589997672,231.97001589997672,231.97001589997672,231.97001589997672,231.97001589997672,232.33601790014654,232.33601790014654,232.33601790014654,232.33601790014654,232.33601790014654,232.33601790014654,232.33601790014654,232.33601790014654,232.33601790014654,22,1,[0.21727210003882647],[0.23401609994471073],232.33601790014654,232.53658710001037,1000,232.53658710001037,1000,1000,1000,1000,0,num_3,0.6248632001224905,,30,9,2026-03-12_10h58.27.658,2026A_exp2,2022.2.4,59.97724461373291,
1,0,0.0,0.0,0,0,78,78,17,,,,,233.18695989996195,233.82079020002857,233.82079020002857,234.32221950008534,315,45,234.32221950008534,234.32221950008534,234.32221950008534,234.32221950008534,234.32221950008534,234.32221950008534,234.32221950008534,234.32221950008534,234.32221950008534,234.68850530008785,234.68850530008785,234.68850530008785,234.68850530008785,234.68850530008785,234.68850530008785,234.68850530008785,234.68850530008785,234.68850530008785,21,1,[0.0007726999465376139],[0.034142799908295274],234.68850530008785,234.8886623000726,0.0,234.8886623000726,0,0.0,0,1,1000,num_1,0.6320620998740196,,30,9,2026-03-12_10h58.27.658,2026A_exp2,2022.2.4,59.97724461373291,
1000,1,0.0,6.1,0,0,79,79,35,,,,,235.5392783000134,236.1731529000681,236.1731529000681,236.6743962999899,45,45,236.6743962999899,236.6743962999899,236.6743962999899,236.6743962999899,236.6743962999899,236.6743962999899,236.6743962999899,236.6743962999899,236.6743962999899,237.04173940001056,237.04173940001056,237.04173940001056,237.04173940001056,237.04173940001056,237.04173940001056,237.04173940001056,237.04173940001056,237.04173940001056,23,0,,,237.04173940001056,237.24125359999016,1000,237.24125359999016,1000,1000,1000,1000,1,num_2,0.6715526999905705,,30,9,2026-03-12_10h58.27.658,2026A_exp2,2022.2.4,59.97724461373291,
1000,1,6.1,0.0,0,0,80,80,89,,,,,237.9427740999963,238.59220860013738,238.59220860013738,239.09387139999308,45,315,239.09387139999308,239.09387139999308,239.09387139999308,239.09387139999308,239.09387139999308,239.09387139999308,239.09387139999308,239.09387139999308,239.09387139999308,239.45987859996967,239.45987859996967,239.45987859996967,239.45987859996967,239.45987859996967,239.45987859996967,239.45987859996967,239.45987859996967,239.45987859996967,23,0,,,239.45987859996967,239.66014029993676,1000,239.66014029993676,1000,1000,1000,1000,0,num_3,0.7574479000177234,,30,9,2026-03-12_10h58.27.658,2026A_exp2,2022.2.4,59.97724461373291,
1000,1,0.0,0.0,0,0,81,81,15,,,,,240.4438155000098,241.09515950013883,241.09515950013883,241.59695910010487,45,45,241.59695910010487,241.59695910010487,241.59695910010487,241.59695910010487,241.59695910010487,241.59695910010487,241.59695910010487,241.59695910010487,241.59695910010487,241.9625349000562,241.9625349000562,241.9625349000562,241.9625349000562,241.9625349000562,241.9625349000562,241.9625349000562,241.9625349000562,241.9625349000562,23,0,,,241.9625349000562,242.1625254000537,1000,242.1625254000537,1000,1000,1000,1000,1,num_2,0.5423344001173973,,30,9,2026-03-12_10h58.27.658,2026A_exp2,2022.2.4,59.97724461373291,
1000,1,0.0,0.0,0,0,82,82,67,,,,,242.730617800029,243.3802078999579,243.3802078999579,243.88263470004313,45,45,243.88263470004313,243.88263470004313,243.88263470004313,243.88263470004313,243.88263470004313,243.88263470004313,243.88263470004313,243.88263470004313,243.88263470004313,244.24780809995718,244.24780809995718,244.24780809995718,244.24780809995718,244.24780809995718,244.24780809995718,244.24780809995718,244.24780809995718,244.24780809995718,23,0,,,244.24780809995718,244.44778970000334,1000,244.44778970000334,1000,1000,1000,1000,1,num_2,0.6488051998894662,,30,9,2026-03-12_10h58.27.658,2026A_exp2,2022.2.4,59.97724461373291,
1000,1,3.7,0.0,0,0,83,83,66,,,,,245.11542710009962,245.74929199996404,245.74929199996404,246.2505816000048,315,315,246.2505816000048,246.2505816000048,246.2505816000048,246.2505816000048,246.2505816000048,246.2505816000048,246.2505816000048,246.2505816000048,246.2505816000048,246.61681989999488,246.61681989999488,246.61681989999488,246.61681989999488,246.61681989999488,246.61681989999488,246.61681989999488,246.61681989999488,246.61681989999488,23,0,,,246.61681989999488,246.81726130004972,1000,246.81726130004972,1000,1000,1000,1000,0,num_3,1.0798936998471618,,30,9,2026-03-12_10h58.27.658,2026A_exp2,2022.2.4,59.97724461373291,
1000,1,0.0,6.1,1,0,84,84,19,,,,,247.91823430010118,248.568836200051,248.568836200051,249.05336889997125,315,45,249.05336889997125,249.05336889997125,249.05336889997125,249.05336889997125,249.05336889997125,249.05336889997125,249.05336889997125,249.05336889997125,249.05336889997125,249.4198648999445,249.4198648999445,249.4198648999445,249.4198648999445,249.4198648999445,249.4198648999445,249.4198648999445,249.4198648999445,249.4198648999445,23,0,,,249.4198648999445,249.6199797000736,1000,249.6199797000736,1000,1000,1000,1000,1,num_2,0.3728883001022041,,30,9,2026-03-12_10h58.27.658,2026A_exp2,2022.2.4,59.97724461373291,
1000,1,0.0,0.0,0,0,85,85,72,,,,,250.02051039994694,250.67083690012805,250.67083690012805,251.15607030014507,45,315,251.15607030014507,251.15607030014507,251.15607030014507,251.15607030014507,251.15607030014507,251.15607030014507,251.15607030014507,251.15607030014507,251.15607030014507,251.52328260010108,251.52328260010108,251.52328260010108,251.52328260010108,251.52328260010108,251.52328260010108,251.52328260010108,251.52328260010108,251.52328260010108,22,1,[0.0009672001469880342],[0.01683390000835061],251.52328260010108,251.73881190014072,1000,251.73881190014072,1000,1000,1000,1000,1,num_2,0.5417862001340836,,30,9,2026-03-12_10h58.27.658,2026A_exp2,2022.2.4,59.97724461373291,
1000,1,0.0,6.1,1,0,86,86,52,,,,,252.30626130010933,252.9565600999631,252.9565600999631,253.45780830015428,45,315,253.45780830015428,253.45780830015428,253.45780830015428,253.45780830015428,253.45780830015428,253.45780830015428,253.45780830015428,253.45780830015428,253.45780830015428,253.8073633001186,253.8073633001186,253.8073633001186,253.8073633001186,253.8073633001186,253.8073633001186,253.8073633001186,253.8073633001186,253.8073633001186,22,0,,,253.8073633001186,254.0077869000379,1000,254.0077869000379,1000,1000,1000,1000,1,num_2,0.39377930015325546,,30,9,2026-03-12_10h58.27.658,2026A_exp2,2022.2.4,59.97724461373291,
0,0,0.0,4.9,0,0,87,87,14,,,,,254.42484350013547,255.07523460010998,255.07523460010998,255.5600240000058,315,45,255.5600240000058,255.5600240000058,255.5600240000058,255.5600240000058,255.5600240000058,255.5600240000058,255.5600240000058,255.5600240000058,255.5600240000058,255.92616769997403,255.92616769997403,255.92616769997403,255.92616769997403,255.92616769997403,255.92616769997403,255.92616769997403,255.92616769997403,255.92616769997403,19,1,[0.2833376000635326],[0.3508187001571059],255.92616769997403,256.1269485000521,4.9,256.1269485000521,1,4.9,1,1,1000,num_4,0.697827500058338,,30,9,2026-03-12_10h58.27.658,2026A_exp2,2022.2.4,59.97724461373291,
1000,1,6.1,4.9,0,0,88,88,68,,,,,256.8438279000111,257.4777741001453,257.4777741001453,257.97885129996575,45,315,257.97885129996575,257.97885129996575,257.97885129996575,257.97885129996575,257.97885129996575,257.97885129996575,257.97885129996575,257.97885129996575,257.97885129996575,258.3451628999319,258.3451628999319,258.3451628999319,258.3451628999319,258.3451628999319,258.3451628999319,258.3451628999319,258.3451628999319,258.3451628999319,23,0,,,258.3451628999319,258.5458186001051,1000,258.5458186001051,1000,1000,1000,1000,1,num_2,0.8636519000865519,,30,9,2026-03-12_10h58.27.658,2026A_exp2,2022.2.4,59.97724461373291,
0,0,0.0,0.0,0,0,89,89,70,,,,,259.4298632000573,260.0635734000243,260.0635734000243,260.56471770000644,45,45,260.56471770000644,260.56471770000644,260.56471770000644,260.56471770000644,260.56471770000644,260.56471770000644,260.56471770000644,260.56471770000644,260.56471770000644,260.931057699956,260.931057699956,260.931057699956,260.931057699956,260.931057699956,260.931057699956,260.931057699956,260.931057699956,260.931057699956,23,0,,,260.931057699956,261.13154030009173,0.0,261.13154030009173,0,0.0,0,1,1000,num_1,0.34992050006985664,,30,9,2026-03-12_10h58.27.658,2026A_exp2,2022.2.4,59.97724461373291,
,,,,,,,,,,,,,,,,,,,,,,,,,,,,,,,,,,,,,,,,,,,,,,,,,,,,261.5063442999963,,,,,,,
