validity,detectorcomp,contrastCW,contrastCCW,precueCWorCCW,block_80trials.thisRepN,block_80trials.thisTrialN,block_80trials.thisN,block_80trials.thisIndex,etRecord.started,etRecord.stopped,text.started,text.stopped,text_4.started,text_4.stopped,text_6.started,text_6.stopped,oriCW,oriCCW,roi_2.started,grating_UR.started,grating_UL.started,grating_LR.started,grating_LL.started,noise_UR.started,noise_UL.started,noise_LR.started,noise_LL.started,roi_2.stopped,grating_UR.stopped,grating_UL.stopped,grating_LR.stopped,grating_LL.stopped,noise_UR.stopped,noise_UL.stopped,noise_LR.stopped,noise_LL.stopped,outframe,roi_2.numLooks,roi_2.timesOn,roi_2.timesOff,text_2.started,text_2.stopped,probedcontrast,key_resp.started,respdetect,relevantContrast,correctDetect,TorFdetect,respCWorCCW,key_resp.keys,key_resp.rt,feedback_display_.started,participantNo,blockNo,date,expName,psychopyVersion,frameRate,
1,0,3.7,3.7,1,0,0,0,64,3.1499890610575676e-05,3.1499890610575676e-05,47.87489199987613,49.87802299996838,49.87802299996838,50.511090099811554,50.511090099811554,51.042255899868906,45,315,51.042255899868906,51.042255899868906,51.042255899868906,51.042255899868906,51.042255899868906,51.042255899868906,51.042255899868906,51.042255899868906,51.042255899868906,51.37854209984653,51.37854209984653,51.37854209984653,51.37854209984653,51.37854209984653,51.37854209984653,51.37854209984653,51.37854209984653,51.37854209984653,0,1,[0.0012606000527739525],[0.3648594000842422],51.37854209984653,51.579210500000045,3.7,51.579210500000045,0,3.7,1,0,1000,num_1,0.6225623001810163,,30,16,2026-03-12_11h32.42.106,2026A_exp2,2022.2.4,60.00960146962524,
1000,1,4.9,4.9,1,0,1,1,60,,,,,52.22956389980391,52.86351029993966,52.86351029993966,53.364716599928215,315,315,53.364716599928215,53.364716599928215,53.364716599928215,53.364716599928215,53.364716599928215,53.364716599928215,53.364716599928215,53.364716599928215,53.364716599928215,53.73105839989148,53.73105839989148,53.73105839989148,53.73105839989148,53.73105839989148,53.73105839989148,53.73105839989148,53.73105839989148,53.73105839989148,0,1,[0.0007466000970453024],[0.3671913000289351],53.73105839989148,53.93129149987362,1000,53.93129149987362,1000,1000,1000,1000,1,num_2,1.2469997999724,,30,16,2026-03-12_11h32.42.106,2026A_exp2,2022.2.4,60.00960146962524,
1,0,0.0,3.7,0,0,2,2,22,,,,,55.199226799886674,55.849760099779814,55.849760099779814,56.334174799965695,315,315,56.334174799965695,56.334174799965695,56.334174799965695,56.334174799965695,56.334174799965695,56.334174799965695,56.334174799965695,56.334174799965695,56.334174799965695,56.70064099994488,56.70064099994488,56.70064099994488,56.70064099994488,56.70064099994488,56.70064099994488,56.70064099994488,56.70064099994488,56.70064099994488,0,1,[0.0007815000135451555],[0.36715689999982715],56.70064099994488,56.90122399991378,0.0,56.90122399991378,0,0.0,0,1,1000,num_1,0.6845617003273219,,30,16,2026-03-12_11h32.42.106,2026A_exp2,2022.2.4,60.00960146962524,
1000,1,6.1,3.7,0,0,3,3,61,,,,,57.60197969991714,58.252207999816164,58.252207999816164,58.73662149999291,315,45,58.73662149999291,58.73662149999291,58.73662149999291,58.73662149999291,58.73662149999291,58.73662149999291,58.73662149999291,58.73662149999291,58.73662149999291,59.10314539982937,59.10314539982937,59.10314539982937,59.10314539982937,59.10314539982937,59.10314539982937,59.10314539982937,59.10314539982937,59.10314539982937,1,2,"[0.0009504999034106731, 0.06726259994320571]","[0.05060379998758435, 0.3670896999537945]",59.10314539982937,59.30328519991599,1000,59.30328519991599,1000,1000,1000,1000,1,num_2,0.6114186001941562,,30,16,2026-03-12_11h32.42.106,2026A_exp2,2022.2.4,60.00960146962524,
1000,1,4.9,6.1,1,0,4,4,18,,,,,59.93709109979682,60.571277199778706,60.571277199778706,61.07239539991133,315,315,61.07239539991133,61.07239539991133,61.07239539991133,61.07239539991133,61.07239539991133,61.07239539991133,61.07239539991133,61.07239539991133,61.07239539991133,61.43868109979667,61.43868109979667,61.43868109979667,61.43868109979667,61.43868109979667,61.43868109979667,61.43868109979667,61.43868109979667,61.43868109979667,23,0,,,61.43868109979667,61.63911049999297,1000,61.63911049999297,1000,1000,1000,1000,1,num_2,0.5875429001171142,,30,16,2026-03-12_11h32.42.106,2026A_exp2,2022.2.4,60.00960146962524,
1000,1,6.1,6.1,0,0,5,5,56,,,,,62.256223999895155,62.890048999805,62.890048999805,63.39117159997113,45,45,63.39117159997113,63.39117159997113,63.39117159997113,63.39117159997113,63.39117159997113,63.39117159997113,63.39117159997113,63.39117159997113,63.39117159997113,63.757530599832535,63.757530599832535,63.757530599832535,63.757530599832535,63.757530599832535,63.757530599832535,63.757530599832535,63.757530599832535,63.757530599832535,0,1,[0.0011768999975174665],[0.36620860011316836],63.757530599832535,63.95797029999085,1000,63.95797029999085,1000,1000,1000,1000,1,num_2,1.06011370010674,,30,16,2026-03-12_11h32.42.106,2026A_exp2,2022.2.4,60.00960146962524,
1000,1,0.0,0.0,0,0,6,6,41,,,,,65.04243119992316,65.692925499985,65.692925499985,66.19396909978241,315,315,66.19396909978241,66.19396909978241,66.19396909978241,66.19396909978241,66.19396909978241,66.19396909978241,66.19396909978241,66.19396909978241,66.19396909978241,66.54372149985284,66.54372149985284,66.54372149985284,66.54372149985284,66.54372149985284,66.54372149985284,66.54372149985284,66.54372149985284,66.54372149985284,0,1,[0.0008622000459581614],[0.351005099946633],66.54372149985284,66.74426559987478,1000,66.76071359985508,1000,1000,1000,1000,1,num_2,0.6091158001217991,,30,16,2026-03-12_11h32.42.106,2026A_exp2,2022.2.4,60.00960146962524,
1000,1,0.0,0.0,0,0,7,7,47,,,,,67.39465709985234,68.04512849985622,68.04512849985622,68.52964439988136,45,315,68.52964439988136,68.52964439988136,68.52964439988136,68.52964439988136,68.52964439988136,68.52964439988136,68.52964439988136,68.52964439988136,68.52964439988136,68.89632759988308,68.89632759988308,68.89632759988308,68.89632759988308,68.89632759988308,68.89632759988308,68.89632759988308,68.89632759988308,68.89632759988308,7,3,"[0.0008292000275105238, 0.18332109996117651, 0.35030399984680116]","[0.1667227998841554, 0.26674899994395673, 0.366979599930346]",68.89632759988308,69.09663289994933,1000,69.09663289994933,1000,1000,1000,1000,1,num_2,0.9536198002751917,,30,16,2026-03-12_11h32.42.106,2026A_exp2,2022.2.4,60.00960146962524,
1000,1,0.0,0.0,1,0,8,8,71,,,,,70.08085459982976,70.71488449978642,70.71488449978642,71.2158762998879,315,315,71.2158762998879,71.2158762998879,71.2158762998879,71.2158762998879,71.2158762998879,71.2158762998879,71.2158762998879,71.2158762998879,71.2158762998879,71.58273089979775,71.58273089979775,71.58273089979775,71.58273089979775,71.58273089979775,71.58273089979775,71.58273089979775,71.58273089979775,71.58273089979775,0,1,[0.0009440998546779156],[0.36708069988526404],71.58273089979775,71.78261379990727,1000,71.78261379990727,1000,1000,1000,1000,1,num_2,0.49137140018865466,,30,16,2026-03-12_11h32.42.106,2026A_exp2,2022.2.4,60.00960146962524,
0,0,3.7,6.1,1,0,9,9,17,,,,,72.2996576000005,72.93359579984099,72.93359579984099,73.4345331999939,45,315,73.4345331999939,73.4345331999939,73.4345331999939,73.4345331999939,73.4345331999939,73.4345331999939,73.4345331999939,73.4345331999939,73.4345331999939,73.8009713999927,73.8009713999927,73.8009713999927,73.8009713999927,73.8009713999927,73.8009713999927,73.8009713999927,73.8009713999927,73.8009713999927,2,2,"[0.0007649001199752092, 0.1672736001200974]","[0.13373950007371604, 0.36737580015324056]",73.8009713999927,74.00115769985132,3.7,74.00115769985132,0,3.7,1,0,1000,num_1,0.7372225001454353,,30,16,2026-03-12_11h32.42.106,2026A_exp2,2022.2.4,60.00960146962524,
1000,1,6.1,0.0,0,0,10,10,8,,,,,74.76873369980603,75.40261929994449,75.40261929994449,75.90375589998439,315,315,75.90375589998439,75.90375589998439,75.90375589998439,75.90375589998439,75.90375589998439,75.90375589998439,75.90375589998439,75.90375589998439,75.90375589998439,76.27009239979088,76.27009239979088,76.27009239979088,76.27009239979088,76.27009239979088,76.27009239979088,76.27009239979088,76.27009239979088,76.27009239979088,23,0,,,76.27009239979088,76.47050449997187,1000,76.47050449997187,1000,1000,1000,1000,0,num_3,0.6036726001184434,,30,16,2026-03-12_11h32.42.106,2026A_exp2,2022.2.4,60.00960146962524,
1000,1,0.0,0.0,1,0,11,11,40,,,,,77.10442240000702,77.7552768997848,77.7552768997848,78.23954709991813,45,45,78.23954709991813,78.23954709991813,78.23954709991813,78.23954709991813,78.23954709991813,78.23954709991813,78.23954709991813,78.23954709991813,78.23954709991813,78.60578149999492,78.60578149999492,78.60578149999492,78.60578149999492,78.60578149999492,78.60578149999492,78.60578149999492,78.60578149999492,78.60578149999492,18,1,[0.0009186000097543001],[0.08325370005331933],78.60578149999492,78.80600310000591,1000,78.80600310000591,1000,1000,1000,1000,1,num_2,0.6202238001860678,,30,16,2026-03-12_11h32.42.106,2026A_exp2,2022.2.4,60.00960146962524,
1,0,0.0,3.7,1,0,12,12,12,,,,,79.45672989985906,80.10740859992802,80.10740859992802,80.59207789995708,315,45,80.59207789995708,80.59207789995708,80.59207789995708,80.59207789995708,80.59207789995708,80.59207789995708,80.59207789995708,80.59207789995708,80.59207789995708,80.95819009980187,80.95819009980187,80.95819009980187,80.95819009980187,80.95819009980187,80.95819009980187,80.95819009980187,80.95819009980187,80.95819009980187,8,3,"[0.0009144998621195555, 0.050206399988383055, 0.2671091998927295]","[0.03333889995701611, 0.25072519993409514, 0.28369169984944165]",80.95819009980187,81.1583849999588,3.7,81.1583849999588,0,3.7,1,0,1000,num_1,1.10024549998343,,30,16,2026-03-12_11h32.42.106,2026A_exp2,2022.2.4,60.00960146962524,
1000,1,4.9,4.9,1,0,13,13,85,,,,,82.27622409979813,82.91015559993684,82.91015559993684,83.41123729990795,45,45,83.41123729990795,83.41123729990795,83.41123729990795,83.41123729990795,83.41123729990795,83.41123729990795,83.41123729990795,83.41123729990795,83.41123729990795,83.7776973999571,83.7776973999571,83.7776973999571,83.7776973999571,83.7776973999571,83.7776973999571,83.7776973999571,83.7776973999571,83.7776973999571,23,0,,,83.7776973999571,83.9783815999981,1000,83.9783815999981,1000,1000,1000,1000,0,num_3,0.6235742000862956,,30,16,2026-03-12_11h32.42.106,2026A_exp2,2022.2.4,60.00960146962524,
1000,1,0.0,0.0,1,0,14,14,39,,,,,84.6285907998681,85.27976319985464,85.27976319985464,85.7641532998532,315,45,85.7641532998532,85.7641532998532,85.7641532998532,85.7641532998532,85.7641532998532,85.7641532998532,85.7641532998532,85.7641532998532,85.7641532998532,86.12999169994146,86.12999169994146,86.12999169994146,86.12999169994146,86.12999169994146,86.12999169994146,86.12999169994146,86.12999169994146,86.12999169994146,0,1,[0.0007734000682830811],[0.36730120005086064],86.12999169994146,86.3304557998199,1000,86.3304557998199,1000,1000,1000,1000,1,num_2,0.5117781001608819,,30,16,2026-03-12_11h32.42.106,2026A_exp2,2022.2.4,60.00960146962524,
1000,1,4.9,4.9,0,0,15,15,34,,,,,86.86446029995568,87.51493799989112,87.51493799989112,87.9992141998373,45,315,87.9992141998373,87.9992141998373,87.9992141998373,87.9992141998373,87.9992141998373,87.9992141998373,87.9992141998373,87.9992141998373,87.9992141998373,88.36559209995903,88.36559209995903,88.36559209995903,88.36559209995903,88.36559209995903,88.36559209995903,88.36559209995903,88.36559209995903,88.36559209995903,0,1,[0.000737000023946166],[0.36713250004686415],88.36559209995903,88.56594479992054,1000,88.56594479992054,1000,1000,1000,1000,0,num_3,0.508117200108245,,30,16,2026-03-12_11h32.42.106,2026A_exp2,2022.2.4,60.00960146962524,
1000,1,4.9,0.0,0,0,16,16,78,,,,,89.09969529998489,89.75046659982763,89.75046659982763,90.2348532998003,45,315,90.2348532998003,90.2348532998003,90.2348532998003,90.2348532998003,90.2348532998003,90.2348532998003,90.2348532998003,90.2348532998003,90.2348532998003,90.60122859990224,90.60122859990224,90.60122859990224,90.60122859990224,90.60122859990224,90.60122859990224,90.60122859990224,90.60122859990224,90.60122859990224,1,1,[0.0007608998566865921],[0.3674905998632312],90.60122859990224,90.80152689991519,1000,90.80152689991519,1000,1000,1000,1000,0,num_3,0.4570610001683235,,30,16,2026-03-12_11h32.42.106,2026A_exp2,2022.2.4,60.00960146962524,
1000,1,3.7,4.9,0,0,17,17,13,,,,,91.28527089999989,91.91926849982701,91.91926849982701,92.42051349999383,45,315,92.42051349999383,92.42051349999383,92.42051349999383,92.42051349999383,92.42051349999383,92.42051349999383,92.42051349999383,92.42051349999383,92.42051349999383,92.786675499985,92.786675499985,92.786675499985,92.786675499985,92.786675499985,92.786675499985,92.786675499985,92.786675499985,92.786675499985,0,1,[0.0007539000362157822],[0.3673294000327587],92.786675499985,92.98729159985669,1000,92.98729159985669,1000,1000,1000,1000,1,num_2,0.41541350027546287,,30,16,2026-03-12_11h32.42.106,2026A_exp2,2022.2.4,60.00960146962524,
1,0,3.7,6.1,1,0,18,18,6,,,,,93.42073269980028,94.05551899992861,94.05551899992861,94.55594619992189,315,45,94.55594619992189,94.55594619992189,94.55594619992189,94.55594619992189,94.55594619992189,94.55594619992189,94.55594619992189,94.55594619992189,94.55594619992189,94.92219139984809,94.92219139984809,94.92219139984809,94.92219139984809,94.92219139984809,94.92219139984809,94.92219139984809,94.92219139984809,94.92219139984809,0,1,[0.0008005001582205296],[0.36730200005695224],94.92219139984809,95.12277109990828,6.1,95.12277109990828,1,6.1,1,1,1000,num_4,0.5677041001617908,,30,16,2026-03-12_11h32.42.106,2026A_exp2,2022.2.4,60.00960146962524,
1000,1,6.1,6.1,0,0,19,19,74,,,,,95.70629309979267,96.35692409984767,96.35692409984767,96.84145459998399,45,315,96.84145459998399,96.84145459998399,96.84145459998399,96.84145459998399,96.84145459998399,96.84145459998399,96.84145459998399,96.84145459998399,96.84145459998399,97.2077856999822,97.2077856999822,97.2077856999822,97.2077856999822,97.2077856999822,97.2077856999822,97.2077856999822,97.2077856999822,97.2077856999822,0,1,[0.0007966000121086836],[0.36714329989627004],97.2077856999822,97.40815329994075,1000,97.40815329994075,1000,1000,1000,1000,1,num_2,0.48241470009088516,,30,16,2026-03-12_11h32.42.106,2026A_exp2,2022.2.4,60.00960146962524,
1,0,4.9,0.0,0,0,20,20,23,,,,,97.9087215999607,98.55897189979441,98.55897189979441,99.04377299989574,315,45,99.04377299989574,99.04377299989574,99.04377299989574,99.04377299989574,99.04377299989574,99.04377299989574,99.04377299989574,99.04377299989574,99.04377299989574,99.40984099986963,99.40984099986963,99.40984099986963,99.40984099986963,99.40984099986963,99.40984099986963,99.40984099986963,99.40984099986963,99.40984099986963,0,1,[0.0007915000896900892],[0.36707579996436834],99.40984099986963,99.6100874999538,4.9,99.6100874999538,1,4.9,1,1,1000,num_4,0.6883517000824213,,30,16,2026-03-12_11h32.42.106,2026A_exp2,2022.2.4,60.00960146962524,
0,0,0.0,0.0,0,0,21,21,67,,,,,100.32788879983127,100.9617164998781,100.9617164998781,101.46304079983383,315,45,101.46304079983383,101.46304079983383,101.46304079983383,101.46304079983383,101.46304079983383,101.46304079983383,101.46304079983383,101.46304079983383,101.46304079983383,101.82939599989913,101.82939599989913,101.82939599989913,101.82939599989913,101.82939599989913,101.82939599989913,101.82939599989913,101.82939599989913,101.82939599989913,0,1,[0.0013186000287532806],[0.36721890000626445],101.82939599989913,102.02970449998975,0.0,102.02970449998975,0,0.0,0,1,1000,num_1,0.5810525000561029,,30,16,2026-03-12_11h32.42.106,2026A_exp2,2022.2.4,60.00960146962524,
1000,1,6.1,0.0,0,0,22,22,68,,,,,102.63001489988528,103.28091179998592,103.28091179998592,103.76514289993793,45,315,103.76514289993793,103.76514289993793,103.76514289993793,103.76514289993793,103.76514289993793,103.76514289993793,103.76514289993793,103.76514289993793,103.76514289993793,104.13187409983948,104.13187409983948,104.13187409983948,104.13187409983948,104.13187409983948,104.13187409983948,104.13187409983948,104.13187409983948,104.13187409983948,0,1,[0.000762399984523654],[0.36753279995173216],104.13187409983948,104.33392939995974,1000,104.33392939995974,1000,1000,1000,1000,0,num_3,1.1729109000880271,,30,16,2026-03-12_11h32.42.106,2026A_exp2,2022.2.4,60.00960146962524,
1,0,6.1,0.0,1,0,23,23,38,,,,,105.53335199994035,106.18367429985665,106.18367429985665,106.68478149990551,315,315,106.68478149990551,106.68478149990551,106.68478149990551,106.68478149990551,106.68478149990551,106.68478149990551,106.68478149990551,106.68478149990551,106.68478149990551,107.05122279981151,107.05122279981151,107.05122279981151,107.05122279981151,107.05122279981151,107.05122279981151,107.05122279981151,107.05122279981151,107.05122279981151,2,2,"[0.0012234998866915703, 0.23439219989813864]","[0.2004155998583883, 0.36715899989940226]",107.05122279981151,107.25152309983969,0.0,107.25152309983969,0,0.0,0,1,1000,num_1,0.5833656000904739,,30,16,2026-03-12_11h32.42.106,2026A_exp2,2022.2.4,60.00960146962524,
1,0,0.0,0.0,1,0,24,24,53,,,,,107.85411959979683,108.50475239986554,108.50475239986554,109.00381779996678,315,45,109.00381779996678,109.00381779996678,109.00381779996678,109.00381779996678,109.00381779996678,109.00381779996678,109.00381779996678,109.00381779996678,109.00381779996678,109.37028979999013,109.37028979999013,109.37028979999013,109.37028979999013,109.37028979999013,109.37028979999013,109.37028979999013,109.37028979999013,109.37028979999013,5,4,"[0.0012620000634342432, 0.05020759999752045, 0.30050150002352893, 0.3504772000014782]","[0.03354669990949333, 0.28376849996857345, 0.3170429999008775, 0.36716159991919994]",109.37028979999013,109.5703840998467,0.0,109.5703840998467,0,0.0,0,1,1000,num_1,0.3036982000339776,,30,16,2026-03-12_11h32.42.106,2026A_exp2,2022.2.4,60.00960146962524,
1,0,6.1,6.1,0,0,25,25,51,,,,,109.90400039986707,110.55480279983021,110.55480279983021,111.03919629985467,315,45,111.03919629985467,111.03919629985467,111.03919629985467,111.03919629985467,111.03919629985467,111.03919629985467,111.03919629985467,111.03919629985467,111.03919629985467,111.40554929990321,111.40554929990321,111.40554929990321,111.40554929990321,111.40554929990321,111.40554929990321,111.40554929990321,111.40554929990321,111.40554929990321,23,0,,,111.40554929990321,111.60587739991024,6.1,111.60587739991024,1,6.1,1,1,1000,num_4,0.773184800054878,,30,16,2026-03-12_11h32.42.106,2026A_exp2,2022.2.4,60.00960146962524,
1000,1,0.0,0.0,1,0,26,26,42,,,,,112.40646039997227,113.05734879989177,113.05734879989177,113.54167219996452,315,315,113.54167219996452,113.54167219996452,113.54167219996452,113.54167219996452,113.54167219996452,113.54167219996452,113.54167219996452,113.54167219996452,113.54167219996452,113.9081533998251,113.9081533998251,113.9081533998251,113.9081533998251,113.9081533998251,113.9081533998251,113.9081533998251,113.9081533998251,113.9081533998251,23,0,,,113.9081533998251,114.11025189980865,1000,114.11025189980865,1000,1000,1000,1000,1,num_2,0.5963872000575066,,30,16,2026-03-12_11h32.42.106,2026A_exp2,2022.2.4,60.00960146962524,
1000,1,0.0,0.0,1,0,27,27,62,,,,,114.72546839993447,115.37621629983187,115.37621629983187,115.87729199999012,315,45,115.87729199999012,115.87729199999012,115.87729199999012,115.87729199999012,115.87729199999012,115.87729199999012,115.87729199999012,115.87729199999012,115.87729199999012,116.24382309988141,116.24382309988141,116.24382309988141,116.24382309988141,116.24382309988141,116.24382309988141,116.24382309988141,116.24382309988141,116.24382309988141,23,0,,,116.24382309988141,116.4463105998002,1000,116.4463105998002,1000,1000,1000,1000,1,num_2,1.0117424000054598,,30,16,2026-03-12_11h32.42.106,2026A_exp2,2022.2.4,60.00960146962524,
1,0,0.0,6.1,0,0,28,28,57,,,,,117.47809039987624,118.12920619989745,118.12920619989745,118.63004469987936,45,315,118.63004469987936,118.63004469987936,118.63004469987936,118.63004469987936,118.63004469987936,118.63004469987936,118.63004469987936,118.63004469987936,118.63004469987936,118.9962742999196,118.9962742999196,118.9962742999196,118.9962742999196,118.9962742999196,118.9962742999196,118.9962742999196,118.9962742999196,118.9962742999196,21,1,[0.10030309995636344],[0.13365920004434884],118.9962742999196,119.19676019996405,0.0,119.19676019996405,0,0.0,0,1,1000,num_1,0.8302613999694586,,30,16,2026-03-12_11h32.42.106,2026A_exp2,2022.2.4,60.00960146962524,
1,0,6.1,0.0,1,0,29,29,54,,,,,120.047475699801,120.69831299991347,120.69831299991347,121.1825898999814,45,315,121.1825898999814,121.1825898999814,121.1825898999814,121.1825898999814,121.1825898999814,121.1825898999814,121.1825898999814,121.1825898999814,121.1825898999814,121.54937879997306,121.54937879997306,121.54937879997306,121.54937879997306,121.54937879997306,121.54937879997306,121.54937879997306,121.54937879997306,121.54937879997306,23,0,,,121.54937879997306,121.74935900000855,0.0,121.74935900000855,0,0.0,0,1,1000,num_1,0.62099300022237,,30,16,2026-03-12_11h32.42.106,2026A_exp2,2022.2.4,60.00960146962524,
1000,1,6.1,4.9,1,0,30,30,76,,,,,122.40005329996347,123.05304209981114,123.05304209981114,123.55174949998036,45,45,123.55174949998036,123.55174949998036,123.55174949998036,123.55174949998036,123.55174949998036,123.55174949998036,123.55174949998036,123.55174949998036,123.55174949998036,123.91812329995446,123.91812329995446,123.91812329995446,123.91812329995446,123.91812329995446,123.91812329995446,123.91812329995446,123.91812329995446,123.91812329995446,6,1,[0.001549899810925126],[0.2835893000010401],123.91812329995446,124.120135899866,1000,124.120135899866,1000,1000,1000,1000,1,num_2,1.218070400180295,,30,16,2026-03-12_11h32.42.106,2026A_exp2,2022.2.4,60.00960146962524,
1000,1,0.0,0.0,1,0,31,31,70,,,,,125.3699048999697,126.02011939999647,126.02011939999647,126.52140039997175,315,45,126.52140039997175,126.52140039997175,126.52140039997175,126.52140039997175,126.52140039997175,126.52140039997175,126.52140039997175,126.52140039997175,126.52140039997175,126.87112279981375,126.87112279981375,126.87112279981375,126.87112279981375,126.87112279981375,126.87112279981375,126.87112279981375,126.87112279981375,126.87112279981375,22,0,,,126.87112279981375,127.0735622998327,1000,127.08801739988849,1000,1000,1000,1000,1,num_2,0.5458521998953074,,30,16,2026-03-12_11h32.42.106,2026A_exp2,2022.2.4,60.00960146962524,
1000,1,6.1,3.7,1,0,32,32,45,,,,,127.65509219979867,128.3059197999537,128.3059197999537,128.80685079982504,45,45,128.80685079982504,128.80685079982504,128.80685079982504,128.80685079982504,128.80685079982504,128.80685079982504,128.80685079982504,128.80685079982504,128.80685079982504,129.15674629993737,129.15674629993737,129.15674629993737,129.15674629993737,129.15674629993737,129.15674629993737,129.15674629993737,129.15674629993737,129.15674629993737,19,1,[0.0012170001864433289],[0.05024300003424287],129.15674629993737,129.35932849999517,1000,129.35932849999517,1000,1000,1000,1000,0,num_3,0.4917157001327723,,30,16,2026-03-12_11h32.42.106,2026A_exp2,2022.2.4,60.00960146962524,
1000,1,0.0,4.9,0,0,33,33,27,,,,,129.87381509994157,130.5247688998934,130.5247688998934,131.02575499983504,45,45,131.02575499983504,131.02575499983504,131.02575499983504,131.02575499983504,131.02575499983504,131.02575499983504,131.02575499983504,131.02575499983504,131.02575499983504,131.39230039995164,131.39230039995164,131.39230039995164,131.39230039995164,131.39230039995164,131.39230039995164,131.39230039995164,131.39230039995164,131.39230039995164,21,2,"[0.0013059999328106642, 0.350348399952054]","[0.01736739999614656, 0.3670269998256117]",131.39230039995164,131.5942771998234,1000,131.5942771998234,1000,1000,1000,1000,1,num_2,0.3996447001118213,,30,16,2026-03-12_11h32.42.106,2026A_exp2,2022.2.4,60.00960146962524,
1000,1,0.0,0.0,0,0,34,34,5,,,,,132.0094222999178,132.6602883997839,132.6602883997839,133.1613825999666,315,45,133.1613825999666,133.1613825999666,133.1613825999666,133.1613825999666,133.1613825999666,133.1613825999666,133.1613825999666,133.1613825999666,133.1613825999666,133.52763499994762,133.52763499994762,133.52763499994762,133.52763499994762,133.52763499994762,133.52763499994762,133.52763499994762,133.52763499994762,133.52763499994762,17,1,[0.0012598000466823578],[0.10003720014356077],133.52763499994762,133.73031729995273,1000,133.73031729995273,1000,1000,1000,1000,1,num_2,0.4570087001193315,,30,16,2026-03-12_11h32.42.106,2026A_exp2,2022.2.4,60.00960146962524,
1,0,4.9,0.0,1,0,35,35,15,,,,,134.21205519977957,134.86244549998082,134.86244549998082,135.3468732999172,315,45,135.3468732999172,135.3468732999172,135.3468732999172,135.3468732999172,135.3468732999172,135.3468732999172,135.3468732999172,135.3468732999172,135.3468732999172,135.7132747999858,135.7132747999858,135.7132747999858,135.7132747999858,135.7132747999858,135.7132747999858,135.7132747999858,135.7132747999858,135.7132747999858,19,1,[0.0012201000936329365],[0.06679619988426566],135.7132747999858,135.9133736998774,0.0,135.9133736998774,0,0.0,0,1,1000,num_1,0.7295470000244677,,30,16,2026-03-12_11h32.42.106,2026A_exp2,2022.2.4,60.00960146962524,
1,0,6.1,6.1,1,0,36,36,89,,,,,136.66394169977866,137.31495369994082,137.31495369994082,137.79927999991924,315,45,137.79927999991924,137.79927999991924,137.79927999991924,137.79927999991924,137.79927999991924,137.79927999991924,137.79927999991924,137.79927999991924,137.79927999991924,138.1658075999003,138.1658075999003,138.1658075999003,138.1658075999003,138.1658075999003,138.1658075999003,138.1658075999003,138.1658075999003,138.1658075999003,21,1,[0.001120300032198429],[0.033336800057440996],138.1658075999003,138.36588749988005,6.1,138.36588749988005,1,6.1,1,1,1000,num_4,0.6047895001247525,,30,16,2026-03-12_11h32.42.106,2026A_exp2,2022.2.4,60.00960146962524,
1,0,0.0,0.0,0,0,37,37,66,,,,,138.9996475998778,139.63385519990698,139.63385519990698,140.13504359987564,45,315,140.13504359987564,140.13504359987564,140.13504359987564,140.13504359987564,140.13504359987564,140.13504359987564,140.13504359987564,140.13504359987564,140.13504359987564,140.50136699993163,140.50136699993163,140.50136699993163,140.50136699993163,140.50136699993163,140.50136699993163,140.50136699993163,140.50136699993163,140.50136699993163,0,1,[0.001218099845573306],[0.3671539998613298],140.50136699993163,140.70162809989415,0.0,140.70162809989415,0,0.0,0,1,1000,num_1,0.2772779001388699,,30,16,2026-03-12_11h32.42.106,2026A_exp2,2022.2.4,60.00960146962524,
1,0,0.0,3.7,1,0,38,38,25,,,,,141.00171320000663,141.65245429985225,141.65245429985225,142.13691509980708,315,315,142.13691509980708,142.13691509980708,142.13691509980708,142.13691509980708,142.13691509980708,142.13691509980708,142.13691509980708,142.13691509980708,142.13691509980708,142.50331779988483,142.50331779988483,142.50331779988483,142.50331779988483,142.50331779988483,142.50331779988483,142.50331779988483,142.50331779988483,142.50331779988483,0,1,[0.0012468001805245876],[0.36715360009111464],142.50331779988483,142.7035750998184,3.7,142.7035750998184,0,3.7,1,0,1000,num_1,1.0182928999420255,,30,16,2026-03-12_11h32.42.106,2026A_exp2,2022.2.4,60.00960146962524,
1000,1,3.7,6.1,0,0,39,39,81,,,,,143.7545501999557,144.3885307998862,144.3885307998862,144.88979429984465,315,315,144.88979429984465,144.88979429984465,144.88979429984465,144.88979429984465,144.88979429984465,144.88979429984465,144.88979429984465,144.88979429984465,144.88979429984465,145.2561847998295,145.2561847998295,145.2561847998295,145.2561847998295,145.2561847998295,145.2561847998295,145.2561847998295,145.2561847998295,145.2561847998295,21,2,"[0.31708110007457435, 0.3671819001901895]","[0.3337457000743598, 0.3671874001156539]",145.2561847998295,145.4587638999801,1000,145.4587638999801,1000,1000,1000,1000,1,num_2,0.5679586001206189,,30,16,2026-03-12_11h32.42.106,2026A_exp2,2022.2.4,60.00960146962524,
1000,1,3.7,0.0,1,0,40,40,21,,,,,146.05693699978292,146.70762139977887,146.70762139977887,147.20867039985023,45,45,147.20867039985023,147.20867039985023,147.20867039985023,147.20867039985023,147.20867039985023,147.20867039985023,147.20867039985023,147.20867039985023,147.20867039985023,147.5584539999254,147.5584539999254,147.5584539999254,147.5584539999254,147.5584539999254,147.5584539999254,147.5584539999254,147.5584539999254,147.5584539999254,0,1,[0.001297099981456995],[0.3504121999721974],147.5584539999254,147.76097109983675,1000,147.76097109983675,1000,1000,1000,1000,0,num_3,0.36100900010205805,,30,16,2026-03-12_11h32.42.106,2026A_exp2,2022.2.4,60.00960146962524,
1000,1,6.1,0.0,1,0,41,41,79,,,,,148.142448999919,148.79302919982,148.79302919982,149.29410769999959,45,45,149.29410769999959,149.29410769999959,149.29410769999959,149.29410769999959,149.29410769999959,149.29410769999959,149.29410769999959,149.29410769999959,149.29410769999959,149.66052279993892,149.66052279993892,149.66052279993892,149.66052279993892,149.66052279993892,149.66052279993892,149.66052279993892,149.66052279993892,149.66052279993892,22,1,[0.18375819991342723],[0.20064739999361336],149.66052279993892,149.86291679996066,1000,149.86291679996066,1000,1000,1000,1000,0,num_3,0.43545590015128255,,30,16,2026-03-12_11h32.42.106,2026A_exp2,2022.2.4,60.00960146962524,
1000,1,0.0,4.9,1,0,42,42,73,,,,,150.32776059978642,150.9784787998069,150.9784787998069,151.46286029997282,45,45,151.46286029997282,151.46286029997282,151.46286029997282,151.46286029997282,151.46286029997282,151.46286029997282,151.46286029997282,151.46286029997282,151.46286029997282,151.84572779992595,151.84572779992595,151.84572779992595,151.84572779992595,151.84572779992595,151.84572779992595,151.84572779992595,151.84572779992595,151.84572779992595,0,1,[0.001326099969446659],[0.383194699883461],151.84572779992595,152.04850969999097,1000,152.04850969999097,1000,1000,1000,1000,1,num_2,0.24192080018110573,,30,16,2026-03-12_11h32.42.106,2026A_exp2,2022.2.4,60.00960146962524,
1,0,4.9,0.0,1,0,43,43,48,,,,,152.3131014998071,152.96389939985238,152.96389939985238,153.4650128998328,45,315,153.4650128998328,153.4650128998328,153.4650128998328,153.4650128998328,153.4650128998328,153.4650128998328,153.4650128998328,153.4650128998328,153.4650128998328,153.83143189991824,153.83143189991824,153.83143189991824,153.83143189991824,153.83143189991824,153.83143189991824,153.83143189991824,153.83143189991824,153.83143189991824,0,1,[0.0012749999295920134],[0.3670726998243481],153.83143189991824,154.03148629982024,0.0,154.03148629982024,0,0.0,0,1,1000,num_1,1.1624875999987125,,30,16,2026-03-12_11h32.42.106,2026A_exp2,2022.2.4,60.00960146962524,
1000,1,4.9,0.0,1,0,44,44,28,,,,,155.21593439998105,155.8667861998547,155.8667861998547,156.35116369999014,45,45,156.35116369999014,156.35116369999014,156.35116369999014,156.35116369999014,156.35116369999014,156.35116369999014,156.35116369999014,156.35116369999014,156.35116369999014,156.71763169998303,156.71763169998303,156.71763169998303,156.71763169998303,156.71763169998303,156.71763169998303,156.71763169998303,156.71763169998303,156.71763169998303,0,1,[0.0008113998919725418],[0.36739479983225465],156.71763169998303,156.92020399984904,1000,156.92020399984904,1000,1000,1000,1000,0,num_3,0.4344008001498878,,30,16,2026-03-12_11h32.42.106,2026A_exp2,2022.2.4,60.00960146962524,
1000,1,4.9,0.0,1,0,45,45,7,,,,,157.3848219998181,158.03561009978876,158.03561009978876,158.53658909979276,45,315,158.53658909979276,158.53658909979276,158.53658909979276,158.53658909979276,158.53658909979276,158.53658909979276,158.53658909979276,158.53658909979276,158.53658909979276,158.90296979993582,158.90296979993582,158.90296979993582,158.90296979993582,158.90296979993582,158.90296979993582,158.90296979993582,158.90296979993582,158.90296979993582,0,1,[0.0012219001073390245],[0.3672660000156611],158.90296979993582,159.1053702000063,1000,159.1053702000063,1000,1000,1000,1000,0,num_3,0.4098752001300454,,30,16,2026-03-12_11h32.42.106,2026A_exp2,2022.2.4,60.00960146962524,
1,0,0.0,0.0,0,0,46,46,29,,,,,159.53702129982412,160.18799409992062,160.18799409992062,160.68881289986894,45,45,160.68881289986894,160.68881289986894,160.68881289986894,160.68881289986894,160.68881289986894,160.68881289986894,160.68881289986894,160.68881289986894,160.68881289986894,161.0386373999063,161.0386373999063,161.0386373999063,161.0386373999063,161.0386373999063,161.0386373999063,161.0386373999063,161.0386373999063,161.0386373999063,0,1,[0.0012372001074254513],[0.3506249999627471],161.0386373999063,161.23881509993225,0.0,161.25553449988365,0,0.0,0,1,1000,num_1,0.3068347000516951,,30,16,2026-03-12_11h32.42.106,2026A_exp2,2022.2.4,60.00960146962524,
1000,1,3.7,3.7,0,0,47,47,16,,,,,161.58898319979198,162.2399947999511,162.2399947999511,162.72427099989727,315,45,162.72427099989727,162.72427099989727,162.72427099989727,162.72427099989727,162.72427099989727,162.72427099989727,162.72427099989727,162.72427099989727,162.72427099989727,163.09051959984936,163.09051959984936,163.09051959984936,163.09051959984936,163.09051959984936,163.09051959984936,163.09051959984936,163.09051959984936,163.09051959984936,2,3,"[0.0011134000960737467, 0.05033230013214052, 0.21730520017445087]","[0.033705800073221326, 0.20065060001797974, 0.3675436000339687]",163.09051959984936,163.2932408999186,1000,163.2932408999186,1000,1000,1000,1000,1,num_2,0.5089642000384629,,30,16,2026-03-12_11h32.42.106,2026A_exp2,2022.2.4,60.00960146962524,
0,0,0.0,0.0,0,0,48,48,69,,,,,163.82481519994326,164.4753513999749,164.4753513999749,164.9819087998476,45,45,164.9819087998476,164.9819087998476,164.9819087998476,164.9819087998476,164.9819087998476,164.9819087998476,164.9819087998476,164.9819087998476,164.9819087998476,165.3428963997867,165.3428963997867,165.3428963997867,165.3428963997867,165.3428963997867,165.3428963997867,165.3428963997867,165.3428963997867,165.3428963997867,10,2,"[0.1666975999251008, 0.20018029981292784]","[0.1832692997995764, 0.3670446998439729]",165.3428963997867,165.5470863999799,0.0,165.5470863999799,0,0.0,0,1,1000,num_1,0.2952418001368642,,30,16,2026-03-12_11h32.42.106,2026A_exp2,2022.2.4,60.00960146962524,
1,0,0.0,4.9,1,0,49,49,65,,,,,165.85993369994685,166.5106752999127,166.5106752999127,167.01179349981248,45,315,167.01179349981248,167.01179349981248,167.01179349981248,167.01179349981248,167.01179349981248,167.01179349981248,167.01179349981248,167.01179349981248,167.01179349981248,167.3781147999689,167.3781147999689,167.3781147999689,167.3781147999689,167.3781147999689,167.3781147999689,167.3781147999689,167.3781147999689,167.3781147999689,0,1,[0.0012209000997245312],[0.3672003000974655],167.3781147999689,167.57827800000086,4.9,167.57827800000086,0,4.9,1,0,1000,num_1,1.1844933002721518,,30,16,2026-03-12_11h32.42.106,2026A_exp2,2022.2.4,60.00960146962524,
1,0,3.7,4.9,0,0,50,50,84,,,,,168.77970089996234,169.4136427999474,169.4136427999474,169.91478419979103,45,315,169.91478419979103,169.91478419979103,169.91478419979103,169.91478419979103,169.91478419979103,169.91478419979103,169.91478419979103,169.91478419979103,169.91478419979103,170.2810475998558,170.2810475998558,170.2810475998558,170.2810475998558,170.2810475998558,170.2810475998558,170.2810475998558,170.2810475998558,170.2810475998558,16,1,[0.0012467000633478165],[0.11694209999404848],170.2810475998558,170.48126909998246,3.7,170.48126909998246,1,3.7,1,1,1000,num_4,0.6887247001286596,,30,16,2026-03-12_11h32.42.106,2026A_exp2,2022.2.4,60.00960146962524,
1000,1,3.7,0.0,1,0,51,51,33,,,,,171.19871359993704,171.84925799979828,171.84925799979828,172.33387039997615,45,45,172.33387039997615,172.33387039997615,172.33387039997615,172.33387039997615,172.33387039997615,172.33387039997615,172.33387039997615,172.33387039997615,172.33387039997615,172.699862399837,172.699862399837,172.699862399837,172.699862399837,172.699862399837,172.699862399837,172.699862399837,172.699862399837,172.699862399837,9,4,"[0.01743560004979372, 0.11700810003094375, 0.26699479995295405, 0.31699720001779497]","[0.08343939995393157, 0.2335326001048088, 0.28382440004497766, 0.35052919993177056]",172.699862399837,172.90043059992604,1000,172.90043059992604,1000,1000,1000,1000,0,num_3,0.5818574002478272,,30,16,2026-03-12_11h32.42.106,2026A_exp2,2022.2.4,60.00960146962524,
1,0,3.7,0.0,1,0,52,52,59,,,,,173.5008430997841,174.1516000998672,174.1516000998672,174.65274169994518,315,315,174.65274169994518,174.65274169994518,174.65274169994518,174.65274169994518,174.65274169994518,174.65274169994518,174.65274169994518,174.65274169994518,174.65274169994518,175.01923789991997,175.01923789991997,175.01923789991997,175.01923789991997,175.01923789991997,175.01923789991997,175.01923789991997,175.01923789991997,175.01923789991997,12,2,"[0.166905099991709, 0.26725169993005693]","[0.23383629997260869, 0.36630699993111193]",175.01923789991997,175.2194032999687,0.0,175.2194032999687,0,0.0,0,1,1000,num_1,0.8554430999793112,,30,16,2026-03-12_11h32.42.106,2026A_exp2,2022.2.4,60.00960146962524,
1000,1,4.9,4.9,1,0,53,53,26,,,,,176.1034740000032,176.7543426998891,176.7543426998891,177.23876129998825,315,45,177.23876129998825,177.23876129998825,177.23876129998825,177.23876129998825,177.23876129998825,177.23876129998825,177.23876129998825,177.23876129998825,177.23876129998825,177.60517539991997,177.60517539991997,177.60517539991997,177.60517539991997,177.60517539991997,177.60517539991997,177.60517539991997,177.60517539991997,177.60517539991997,0,1,[0.001216100063174963],[0.36748669994995],177.60517539991997,177.80715529993176,1000,177.80715529993176,1000,1000,1000,1000,1,num_2,0.4434838001616299,,30,16,2026-03-12_11h32.42.106,2026A_exp2,2022.2.4,60.00960146962524,
1000,1,0.0,6.1,1,0,54,54,3,,,,,178.27236699988134,178.92307159979828,178.92307159979828,179.42416699999012,315,45,179.42416699999012,179.42416699999012,179.42416699999012,179.42416699999012,179.42416699999012,179.42416699999012,179.42416699999012,179.42416699999012,179.42416699999012,179.7739338998217,179.7739338998217,179.7739338998217,179.7739338998217,179.7739338998217,179.7739338998217,179.7739338998217,179.7739338998217,179.7739338998217,19,2,"[0.0011279000900685787, 0.11686540022492409]","[0.03355380007997155, 0.13363769999705255]",179.7739338998217,179.976110199932,1000,179.99078839994036,1000,1000,1000,1000,1,num_2,0.4515296001918614,,30,16,2026-03-12_11h32.42.106,2026A_exp2,2022.2.4,60.00960146962524,
1,0,3.7,6.1,0,0,55,55,55,,,,,180.45796229992993,181.1083025999833,181.1083025999833,181.60976219992153,45,315,181.60976219992153,181.60976219992153,181.60976219992153,181.60976219992153,181.60976219992153,181.60976219992153,181.60976219992153,181.60976219992153,181.60976219992153,181.9592978998553,181.9592978998553,181.9592978998553,181.9592978998553,181.9592978998553,181.9592978998553,181.9592978998553,181.9592978998553,181.9592978998553,1,2,"[0.0009889998473227024, 0.20073859998956323]","[0.18376209982670844, 0.3507943998556584]",181.9592978998553,182.159688499989,3.7,182.159688499989,1,3.7,1,1,1000,num_4,0.9302574000321329,,30,16,2026-03-12_11h32.42.106,2026A_exp2,2022.2.4,60.00960146962524,
1000,1,6.1,0.0,0,0,56,56,58,,,,,183.1104975999333,183.76333799981512,183.76333799981512,184.2456722999923,45,315,184.2456722999923,184.2456722999923,184.2456722999923,184.2456722999923,184.2456722999923,184.2456722999923,184.2456722999923,184.2456722999923,184.2456722999923,184.61221249983646,184.61221249983646,184.61221249983646,184.61221249983646,184.61221249983646,184.61221249983646,184.61221249983646,184.61221249983646,184.61221249983646,8,1,[0.13325020018965006],[0.36664820020087063],184.61221249983646,184.81243309983984,1000,184.81243309983984,1000,1000,1000,1000,0,num_3,0.5736185002606362,,30,16,2026-03-12_11h32.42.106,2026A_exp2,2022.2.4,60.00960146962524,
1,0,0.0,4.9,1,0,57,57,36,,,,,185.41283649997786,186.06355209997855,186.06355209997855,186.56463619996794,315,315,186.56463619996794,186.56463619996794,186.56463619996794,186.56463619996794,186.56463619996794,186.56463619996794,186.56463619996794,186.56463619996794,186.56463619996794,186.93117469991557,186.93117469991557,186.93117469991557,186.93117469991557,186.93117469991557,186.93117469991557,186.93117469991557,186.93117469991557,186.93117469991557,23,0,,,186.93117469991557,187.13138589984737,4.9,187.13138589984737,1,4.9,1,1,1000,num_4,1.3111870002467185,,30,16,2026-03-12_11h32.42.106,2026A_exp2,2022.2.4,60.00960146962524,
1000,1,0.0,3.7,1,0,58,58,75,,,,,188.46589469979517,189.1166632999666,189.1166632999666,189.60116309998557,315,45,189.60116309998557,189.60116309998557,189.60116309998557,189.60116309998557,189.60116309998557,189.60116309998557,189.60116309998557,189.60116309998557,189.60116309998557,189.96757099987008,189.96757099987008,189.96757099987008,189.96757099987008,189.96757099987008,189.96757099987008,189.96757099987008,189.96757099987008,189.96757099987008,23,0,,,189.96757099987008,190.17020729999058,1000,190.17020729999058,1000,1000,1000,1000,1,num_2,0.5998845000285655,,30,16,2026-03-12_11h32.42.106,2026A_exp2,2022.2.4,60.00960146962524,
1,0,0.0,3.7,1,0,59,59,10,,,,,190.80171069991775,191.4523021997884,191.4523021997884,191.9535091998987,45,45,191.9535091998987,191.9535091998987,191.9535091998987,191.9535091998987,191.9535091998987,191.9535091998987,191.9535091998987,191.9535091998987,191.9535091998987,192.3032194999978,192.3032194999978,192.3032194999978,192.3032194999978,192.3032194999978,192.3032194999978,192.3032194999978,192.3032194999978,192.3032194999978,5,2,"[0.03347119991667569, 0.2670491000171751]","[0.2504482998047024, 0.3338530999608338]",192.3032194999978,192.5032637999393,3.7,192.5032637999393,1,3.7,1,1,1000,num_4,0.7955547999590635,,30,16,2026-03-12_11h32.42.106,2026A_exp2,2022.2.4,60.00960146962524,
1,0,0.0,6.1,0,0,60,60,72,,,,,193.32067799987271,193.97144079999998,193.97144079999998,194.4560091998428,315,45,194.4560091998428,194.4560091998428,194.4560091998428,194.4560091998428,194.4560091998428,194.4560091998428,194.4560091998428,194.4560091998428,194.4560091998428,194.82238649995998,194.82238649995998,194.82238649995998,194.82238649995998,194.82238649995998,194.82238649995998,194.82238649995998,194.82238649995998,194.82238649995998,11,2,"[0.00121779995970428, 0.1670051000546664]","[0.15030560013838112, 0.21706370008178055]",194.82238649995998,195.0226516998373,0.0,195.0226516998373,0,0.0,0,1,1000,num_1,0.5078867000993341,,30,16,2026-03-12_11h32.42.106,2026A_exp2,2022.2.4,60.00960146962524,
1000,1,6.1,0.0,1,0,61,61,52,,,,,195.55637219990604,196.20714650000446,196.20714650000446,196.69140189979225,45,45,196.69140189979225,196.69140189979225,196.69140189979225,196.69140189979225,196.69140189979225,196.69140189979225,196.69140189979225,196.69140189979225,196.69140189979225,197.05797799979337,197.05797799979337,197.05797799979337,197.05797799979337,197.05797799979337,197.05797799979337,197.05797799979337,197.05797799979337,197.05797799979337,17,4,"[0.23360609984956682, 0.26707979990169406, 0.3172021000646055, 0.3504397999495268]","[0.25029850006103516, 0.30035110004246235, 0.33382000005804, 0.36724579986184835]",197.05797799979337,197.26055679982528,1000,197.26055679982528,1000,1000,1000,1000,0,num_3,0.49339420022442937,,30,16,2026-03-12_11h32.42.106,2026A_exp2,2022.2.4,60.00960146962524,
1000,1,0.0,4.9,0,0,62,62,9,,,,,197.77535939984955,198.42595529998653,198.42595529998653,198.92712069978006,45,45,198.92712069978006,198.92712069978006,198.92712069978006,198.92712069978006,198.92712069978006,198.92712069978006,198.92712069978006,198.92712069978006,198.92712069978006,199.29349989979528,199.29349989979528,199.29349989979528,199.29349989979528,199.29349989979528,199.29349989979528,199.29349989979528,199.29349989979528,199.29349989979528,20,2,"[0.0012575997970998287, 0.050053499871864915]","[0.03338639996945858, 0.06668209983035922]",199.29349989979528,199.49390159989707,1000,199.49390159989707,1000,1000,1000,1000,1,num_2,0.7169203001540154,,30,16,2026-03-12_11h32.42.106,2026A_exp2,2022.2.4,60.00960146962524,
1,0,0.0,0.0,1,0,63,63,82,,,,,200.22767869988456,200.87836609990336,200.87836609990336,201.3794766999781,315,315,201.3794766999781,201.3794766999781,201.3794766999781,201.3794766999781,201.3794766999781,201.3794766999781,201.3794766999781,201.3794766999781,201.3794766999781,201.74605789990164,201.74605789990164,201.74605789990164,201.74605789990164,201.74605789990164,201.74605789990164,201.74605789990164,201.74605789990164,201.74605789990164,10,3,"[0.05028310022316873, 0.13368130009621382, 0.21702010021544993]","[0.10028390004299581, 0.1502893001306802, 0.3504603002220392]",201.74605789990164,201.94609189988114,0.0,201.94609189988114,0,0.0,0,1,1000,num_1,0.6878594001755118,,30,16,2026-03-12_11h32.42.106,2026A_exp2,2022.2.4,60.00960146962524,
1,0,4.9,0.0,0,0,64,64,87,,,,,202.66348849982023,203.31444290000945,203.31444290000945,203.79859929997474,315,45,203.79859929997474,203.79859929997474,203.79859929997474,203.79859929997474,203.79859929997474,203.79859929997474,203.79859929997474,203.79859929997474,203.79859929997474,204.16491319984198,204.16491319984198,204.16491319984198,204.16491319984198,204.16491319984198,204.16491319984198,204.16491319984198,204.16491319984198,204.16491319984198,23,0,,,204.16491319984198,204.36518409987912,4.9,204.36518409987912,1,4.9,1,1,1000,num_4,0.8054204003419727,,30,16,2026-03-12_11h32.42.106,2026A_exp2,2022.2.4,60.00960146962524,
1000,1,3.7,0.0,1,0,65,65,44,,,,,205.1992357999552,205.8499381998554,205.8499381998554,206.34441369981505,45,45,206.34441369981505,206.34441369981505,206.34441369981505,206.34441369981505,206.34441369981505,206.34441369981505,206.34441369981505,206.34441369981505,206.34441369981505,206.7009229999967,206.7009229999967,206.7009229999967,206.7009229999967,206.7009229999967,206.7009229999967,206.7009229999967,206.7009229999967,206.7009229999967,18,1,[0.0042363000102341175],[0.08065679995343089],206.7009229999967,206.90342329978012,1000,206.90342329978012,1000,1000,1000,1000,0,num_3,0.6758251001592726,,30,16,2026-03-12_11h32.42.106,2026A_exp2,2022.2.4,60.00960146962524,
1,0,0.0,0.0,0,0,66,66,19,,,,,207.6017153998837,208.2523041998502,208.2523041998502,208.75355959986337,315,45,208.75355959986337,208.75355959986337,208.75355959986337,208.75355959986337,208.75355959986337,208.75355959986337,208.75355959986337,208.75355959986337,208.75355959986337,209.12003709981218,209.12003709981218,209.12003709981218,209.12003709981218,209.12003709981218,209.12003709981218,209.12003709981218,209.12003709981218,209.12003709981218,1,2,"[0.0012969998642802238, 0.0500324999447912]","[0.033502299804240465, 0.3670502998866141]",209.12003709981218,209.32002509990707,0.0,209.32002509990707,0,0.0,0,1,1000,num_1,0.32328090025112033,,30,16,2026-03-12_11h32.42.106,2026A_exp2,2022.2.4,60.00960146962524,
1000,1,6.1,0.0,0,0,67,67,80,,,,,209.67049799999222,210.3044235999696,210.3044235999696,210.8055023998022,45,315,210.8055023998022,210.8055023998022,210.8055023998022,210.8055023998022,210.8055023998022,210.8055023998022,210.8055023998022,210.8055023998022,210.8055023998022,211.17206129990518,211.17206129990518,211.17206129990518,211.17206129990518,211.17206129990518,211.17206129990518,211.17206129990518,211.17206129990518,211.17206129990518,14,6,"[0.0012231001164764166, 0.06707129999995232, 0.11704599997028708, 0.20053109992295504, 0.2673609000630677, 0.3507290999405086]","[0.05059970007278025, 0.08380319993011653, 0.13371620001271367, 0.21726780012249947, 0.28391489991918206, 0.3674204999115318]",211.17206129990518,211.3742503998801,1000,211.3742503998801,1000,1000,1000,1000,0,num_3,0.5248675001785159,,30,16,2026-03-12_11h32.42.106,2026A_exp2,2022.2.4,60.00960146962524,
1,0,0.0,0.0,0,0,68,68,49,,,,,211.92284589982592,212.5733534998726,212.5733534998726,213.0579083999619,315,45,213.0579083999619,213.0579083999619,213.0579083999619,213.0579083999619,213.0579083999619,213.0579083999619,213.0579083999619,213.0579083999619,213.0579083999619,213.424330299953,213.424330299953,213.424330299953,213.424330299953,213.424330299953,213.424330299953,213.424330299953,213.424330299953,213.424330299953,19,3,"[0.0336092000361532, 0.11684819986112416, 0.35030519985593855]","[0.06699849991127849, 0.13358219992369413, 0.3671933999285102]",213.424330299953,213.62454909994267,0.0,213.62454909994267,0,0.0,0,1,1000,num_1,0.5214221000205725,,30,16,2026-03-12_11h32.42.106,2026A_exp2,2022.2.4,60.00960146962524,
1,0,0.0,4.9,0,0,69,69,35,,,,,214.17490449990146,214.82557179988362,214.82557179988362,215.3100570999086,315,315,215.3100570999086,215.3100570999086,215.3100570999086,215.3100570999086,215.3100570999086,215.3100570999086,215.3100570999086,215.3100570999086,215.3100570999086,215.67666799994186,215.67666799994186,215.67666799994186,215.67666799994186,215.67666799994186,215.67666799994186,215.67666799994186,215.67666799994186,215.67666799994186,0,1,[0.0009755000937730074],[0.36734170001000166],215.67666799994186,215.87670969986357,0.0,215.87670969986357,0,0.0,0,1,1000,num_1,0.6371450000442564,,30,16,2026-03-12_11h32.42.106,2026A_exp2,2022.2.4,60.00960146962524,
1,0,6.1,4.9,0,0,70,70,30,,,,,216.5439285999164,217.19485049997456,217.19485049997456,217.67923789983615,315,315,217.67923789983615,217.67923789983615,217.67923789983615,217.67923789983615,217.67923789983615,217.67923789983615,217.67923789983615,217.67923789983615,217.67923789983615,218.04560599988326,218.04560599988326,218.04560599988326,218.04560599988326,218.04560599988326,218.04560599988326,218.04560599988326,218.04560599988326,218.04560599988326,2,2,"[0.0012199000921100378, 0.10012340010143816]","[0.06678600003942847, 0.36700660013593733]",218.04560599988326,218.24583019991405,6.1,218.24583019991405,1,6.1,1,1,1000,num_4,1.3330911002121866,,30,16,2026-03-12_11h32.42.106,2026A_exp2,2022.2.4,60.00960146962524,
1,0,0.0,0.0,0,0,71,71,0,,,,,219.59705099998973,220.23112419992685,220.23112419992685,220.73247639997862,45,315,220.73247639997862,220.73247639997862,220.73247639997862,220.73247639997862,220.73247639997862,220.73247639997862,220.73247639997862,220.73247639997862,220.73247639997862,221.09857039991766,221.09857039991766,221.09857039991766,221.09857039991766,221.09857039991766,221.09857039991766,221.09857039991766,221.09857039991766,221.09857039991766,21,1,[0.001235299976542592],[0.03362350002862513],221.09857039991766,221.2986748998519,0.0,221.2986748998519,0,0.0,0,1,1000,num_1,0.3606090999674052,,30,16,2026-03-12_11h32.42.106,2026A_exp2,2022.2.4,60.00960146962524,
1000,1,0.0,3.7,0,0,72,72,32,,,,,221.68245329987258,222.33337649982423,222.33337649982423,222.81751349987462,45,315,222.81751349987462,222.81751349987462,222.81751349987462,222.81751349987462,222.81751349987462,222.81751349987462,222.81751349987462,222.81751349987462,222.81751349987462,223.18389629991725,223.18389629991725,223.18389629991725,223.18389629991725,223.18389629991725,223.18389629991725,223.18389629991725,223.18389629991725,223.18389629991725,22,1,[0.2839182000607252],[0.3005469001363963],223.18389629991725,223.38641479983926,1000,223.38641479983926,1000,1000,1000,1000,0,num_3,0.6801651001442224,,30,16,2026-03-12_11h32.42.106,2026A_exp2,2022.2.4,60.00960146962524,
1000,1,0.0,3.7,1,0,73,73,43,,,,,224.08495179982856,224.73564749979414,224.73564749979414,225.2366348998621,315,45,225.2366348998621,225.2366348998621,225.2366348998621,225.2366348998621,225.2366348998621,225.2366348998621,225.2366348998621,225.2366348998621,225.2366348998621,225.60310089983977,225.60310089983977,225.60310089983977,225.60310089983977,225.60310089983977,225.60310089983977,225.60310089983977,225.60310089983977,225.60310089983977,23,0,,,225.60310089983977,225.80574549990706,1000,225.80574549990706,1000,1000,1000,1000,1,num_2,0.5402415001299232,,30,16,2026-03-12_11h32.42.106,2026A_exp2,2022.2.4,60.00960146962524,
0,0,0.0,0.0,0,0,74,74,4,,,,,226.3705399997998,227.0213290997781,227.0213290997781,227.52228009980172,45,45,227.52228009980172,227.52228009980172,227.52228009980172,227.52228009980172,227.52228009980172,227.52228009980172,227.52228009980172,227.52228009980172,227.52228009980172,227.87212089984678,227.87212089984678,227.87212089984678,227.87212089984678,227.87212089984678,227.87212089984678,227.87212089984678,227.87212089984678,227.87212089984678,5,2,"[0.06695799995213747, 0.3339245000388473]","[0.3173144001048058, 0.35077890008687973]",227.87212089984678,228.07227499992587,0.0,228.0890015999321,0,0.0,0,1,1000,num_1,0.3138849001843482,,30,16,2026-03-12_11h32.42.106,2026A_exp2,2022.2.4,60.00960146962524,
1000,1,0.0,6.1,0,0,75,75,83,,,,,228.42245539999567,229.07332779979333,229.07332779979333,229.5576035999693,315,315,229.5576035999693,229.5576035999693,229.5576035999693,229.5576035999693,229.5576035999693,229.5576035999693,229.5576035999693,229.5576035999693,229.5576035999693,229.92418149998412,229.92418149998412,229.92418149998412,229.92418149998412,229.92418149998412,229.92418149998412,229.92418149998412,229.92418149998412,229.92418149998412,19,1,[0.30031069996766746],[0.36700369999744],229.92418149998412,230.12668799981475,1000,230.12668799981475,1000,1000,1000,1000,1,num_2,0.6596998001914471,,30,16,2026-03-12_11h32.42.106,2026A_exp2,2022.2.4,60.00960146962524,
1000,1,4.9,0.0,0,0,76,76,20,,,,,230.80824449984357,231.4421096998267,231.4421096998267,231.9434552998282,315,45,231.9434552998282,231.9434552998282,231.9434552998282,231.9434552998282,231.9434552998282,231.9434552998282,231.9434552998282,231.9434552998282,231.9434552998282,232.30983369983733,232.30983369983733,232.30983369983733,232.30983369983733,232.30983369983733,232.30983369983733,232.30983369983733,232.30983369983733,232.30983369983733,23,0,,,232.30983369983733,232.51234149979427,1000,232.51234149979427,1000,1000,1000,1000,0,num_3,0.474941200343892,,30,16,2026-03-12_11h32.42.106,2026A_exp2,2022.2.4,60.00960146962524,
1000,1,6.1,4.9,0,0,77,77,77,,,,,233.01048979978077,233.66107189981267,233.66107189981267,234.16236169985496,315,315,234.16236169985496,234.16236169985496,234.16236169985496,234.16236169985496,234.16236169985496,234.16236169985496,234.16236169985496,234.16236169985496,234.16236169985496,234.51209469977766,234.51209469977766,234.51209469977766,234.51209469977766,234.51209469977766,234.51209469977766,234.51209469977766,234.51209469977766,234.51209469977766,22,0,,,234.51209469977766,234.7145223999396,1000,234.7145223999396,1000,1000,1000,1000,0,num_3,0.5595357001293451,,30,16,2026-03-12_11h32.42.106,2026A_exp2,2022.2.4,60.00960146962524,
1000,1,4.9,3.7,1,0,78,78,14,,,,,235.29627479985356,235.95811359980144,235.95811359980144,236.43104799999855,45,45,236.43104799999855,236.43104799999855,236.43104799999855,236.43104799999855,236.43104799999855,236.43104799999855,236.43104799999855,236.43104799999855,236.43104799999855,236.79770929994993,236.79770929994993,236.79770929994993,236.79770929994993,236.79770929994993,236.79770929994993,236.79770929994993,236.79770929994993,236.79770929994993,23,0,,,236.79770929994993,237.00073239998892,1000,237.00073239998892,1000,1000,1000,1000,0,num_3,0.3705754999537021,,30,16,2026-03-12_11h32.42.106,2026A_exp2,2022.2.4,60.00960146962524,
0,0,3.7,3.7,0,0,79,79,63,,,,,237.39813799993135,238.04888669983484,238.04888669983484,238.55004889983684,45,45,238.55004889983684,238.55004889983684,238.55004889983684,238.55004889983684,238.55004889983684,238.55004889983684,238.55004889983684,238.55004889983684,238.55004889983684,238.9164940000046,238.9164940000046,238.9164940000046,238.9164940000046,238.9164940000046,238.9164940000046,238.9164940000046,238.9164940000046,238.9164940000046,23,0,,,238.9164940000046,239.11647119978443,3.7,239.11647119978443,0,3.7,1,0,1000,num_1,1.1018944003153592,,30,16,2026-03-12_11h32.42.106,2026A_exp2,2022.2.4,60.00960146962524,
1000,1,6.1,6.1,0,0,80,80,50,,,,,240.2347642998211,240.88478919980116,240.88478919980116,241.3695415998809,315,45,241.3695415998809,241.3695415998809,241.3695415998809,241.3695415998809,241.3695415998809,241.3695415998809,241.3695415998809,241.3695415998809,241.3695415998809,241.73597069992684,241.73597069992684,241.73597069992684,241.73597069992684,241.73597069992684,241.73597069992684,241.73597069992684,241.73597069992684,241.73597069992684,1,2,"[0.0012608000542968512, 0.16696560010313988]","[0.1502950000576675, 0.3670990001410246]",241.73597069992684,241.93794979993254,1000,241.93794979993254,1000,1000,1000,1000,1,num_2,0.43193520000204444,,30,16,2026-03-12_11h32.42.106,2026A_exp2,2022.2.4,60.00960146962524,
1000,1,3.7,3.7,1,0,81,81,88,,,,,242.3865222998429,243.03731589997187,243.03731589997187,243.5383387999609,315,315,243.5383387999609,243.5383387999609,243.5383387999609,243.5383387999609,243.5383387999609,243.5383387999609,243.5383387999609,243.5383387999609,243.5383387999609,243.90467809978873,243.90467809978873,243.90467809978873,243.90467809978873,243.90467809978873,243.90467809978873,243.90467809978873,243.90467809978873,243.90467809978873,2,1,[0.03346910001710057],[0.36722489981912076],243.90467809978873,244.1069453000091,1000,244.1069453000091,1000,1000,1000,1000,1,num_2,0.7601384001318365,,30,16,2026-03-12_11h32.42.106,2026A_exp2,2022.2.4,60.00960146962524,
1,0,6.1,0.0,0,0,82,82,24,,,,,244.88892509997822,245.5396738999989,245.5396738999989,246.04077879991382,45,45,246.04077879991382,246.04077879991382,246.04077879991382,246.04077879991382,246.04077879991382,246.04077879991382,246.04077879991382,246.04077879991382,246.04077879991382,246.4073024999816,246.4073024999816,246.4073024999816,246.4073024999816,246.4073024999816,246.4073024999816,246.4073024999816,246.4073024999816,246.4073024999816,0,1,[0.0010697001125663519],[0.3672907999716699],246.4073024999816,246.607374999905,6.1,246.607374999905,1,6.1,1,1,1000,num_4,0.7234358000569046,,30,16,2026-03-12_11h32.42.106,2026A_exp2,2022.2.4,60.00960146962524,
1000,1,3.7,0.0,0,0,83,83,37,,,,,247.35822219983675,248.00881379982457,248.00881379982457,248.4932080998551,315,315,248.4932080998551,248.4932080998551,248.4932080998551,248.4932080998551,248.4932080998551,248.4932080998551,248.4932080998551,248.4932080998551,248.4932080998551,248.85972409998067,248.85972409998067,248.85972409998067,248.85972409998067,248.85972409998067,248.85972409998067,248.85972409998067,248.85972409998067,248.85972409998067,1,2,"[0.0013180999085307121, 0.18337509990669787]","[0.16681599989533424, 0.3669665998313576]",248.85972409998067,249.06259419978596,1000,249.06259419978596,1000,1000,1000,1000,1,num_2,0.3796462002210319,,30,16,2026-03-12_11h32.42.106,2026A_exp2,2022.2.4,60.00960146962524,
1,0,3.7,4.9,0,0,84,84,31,,,,,249.4601801999379,250.1111303998623,250.1111303998623,250.59538249997422,315,315,250.59538249997422,250.59538249997422,250.59538249997422,250.59538249997422,250.59538249997422,250.59538249997422,250.59538249997422,250.59538249997422,250.59538249997422,250.96151989977807,250.96151989977807,250.96151989977807,250.96151989977807,250.96151989977807,250.96151989977807,250.96151989977807,250.96151989977807,250.96151989977807,23,0,,,250.96151989977807,251.16306189983152,3.7,251.16306189983152,0,3.7,1,0,1000,num_1,0.9515012002084404,,30,16,2026-03-12_11h32.42.106,2026A_exp2,2022.2.4,60.00960146962524,
1,0,6.1,6.1,0,0,85,85,11,,,,,252.14636329980567,252.79702989989892,252.79702989989892,253.28149009984918,315,315,253.28149009984918,253.28149009984918,253.28149009984918,253.28149009984918,253.28149009984918,253.28149009984918,253.28149009984918,253.28149009984918,253.28149009984918,253.64779289998114,253.64779289998114,253.64779289998114,253.64779289998114,253.64779289998114,253.64779289998114,253.64779289998114,253.64779289998114,253.64779289998114,23,0,,,253.64779289998114,253.8480993998237,6.1,253.8480993998237,1,6.1,1,1,1000,num_4,0.6497247002553195,,30,16,2026-03-12_11h32.42.106,2026A_exp2,2022.2.4,60.00960146962524,
1000,1,3.7,3.7,1,0,86,86,46,,,,,254.51530479989015,255.1660574998241,255.1660574998241,255.65052519994788,45,45,255.65052519994788,255.65052519994788,255.65052519994788,255.65052519994788,255.65052519994788,255.65052519994788,255.65052519994788,255.65052519994788,255.65052519994788,256.01701179984957,256.01701179984957,256.01701179984957,256.01701179984957,256.01701179984957,256.01701179984957,256.01701179984957,256.01701179984957,256.01701179984957,11,4,"[0.001281099859625101, 0.0835593999363482, 0.2504514998290688, 0.3336807999294251]","[0.04983669985085726, 0.15017049992457032, 0.31708740000613034, 0.3670720998197794]",256.01701179984957,256.21783009986393,1000,256.21783009986393,1000,1000,1000,1000,1,num_2,0.5680975001305342,,30,16,2026-03-12_11h32.42.106,2026A_exp2,2022.2.4,60.00960146962524,
1,0,0.0,3.7,0,0,87,87,1,,,,,256.8009289999027,257.4516910999082,257.4516910999082,257.9528056997806,315,315,257.9528056997806,257.9528056997806,257.9528056997806,257.9528056997806,257.9528056997806,257.9528056997806,257.9528056997806,257.9528056997806,257.9528056997806,258.3025956999045,258.3025956999045,258.3025956999045,258.3025956999045,258.3025956999045,258.3025956999045,258.3025956999045,258.3025956999045,258.3025956999045,0,1,[0.0012222998775541782],[0.35072029987350106],258.3025956999045,258.5026032999158,0.0,258.51946969982237,0,0.0,0,1,1000,num_1,0.27538130013272166,,30,16,2026-03-12_11h32.42.106,2026A_exp2,2022.2.4,60.00960146962524,
1,0,6.1,3.7,0,0,88,88,86,,,,,258.81955119990744,259.470194599824,259.470194599824,259.9547665999271,315,315,259.9547665999271,259.9547665999271,259.9547665999271,259.9547665999271,259.9547665999271,259.9547665999271,259.9547665999271,259.9547665999271,259.9547665999271,260.321196799865,260.321196799865,260.321196799865,260.321196799865,260.321196799865,260.321196799865,260.321196799865,260.321196799865,260.321196799865,0,1,[0.0010049999691545963],[0.3671303999144584],260.321196799865,260.5213292997796,6.1,260.5213292997796,1,6.1,1,1,1000,num_4,0.44088280014693737,,30,16,2026-03-12_11h32.42.106,2026A_exp2,2022.2.4,60.00960146962524,
1,0,0.0,3.7,0,0,89,89,2,,,,,260.9884516999591,261.6390960998833,261.6390960998833,262.1236345998477,315,45,262.1236345998477,262.1236345998477,262.1236345998477,262.1236345998477,262.1236345998477,262.1236345998477,262.1236345998477,262.1236345998477,262.1236345998477,262.4899536999874,262.4899536999874,262.4899536999874,262.4899536999874,262.4899536999874,262.4899536999874,262.4899536999874,262.4899536999874,262.4899536999874,23,0,,,262.4899536999874,262.69020559987985,0.0,262.69020559987985,0,0.0,0,1,1000,num_1,0.8481870999094099,,30,16,2026-03-12_11h32.42.106,2026A_exp2,2022.2.4,60.00960146962524,
,,,,,,,,,,,,,,,,,,,,,,,,,,,,,,,,,,,,,,,,,,,,,,,,,,,,263.56797989993356,,,,,,,
