validity,detectorcomp,contrastCW,contrastCCW,precueCWorCCW,block_80trials.thisRepN,block_80trials.thisTrialN,block_80trials.thisN,block_80trials.thisIndex,etRecord.started,etRecord.stopped,text.started,text.stopped,text_4.started,text_4.stopped,text_6.started,text_6.stopped,oriCW,oriCCW,roi_2.started,grating_UR.started,grating_UL.started,grating_LR.started,grating_LL.started,noise_UR.started,noise_UL.started,noise_LR.started,noise_LL.started,roi_2.stopped,grating_UR.stopped,grating_UL.stopped,grating_LR.stopped,grating_LL.stopped,noise_UR.stopped,noise_UL.stopped,noise_LR.stopped,noise_LL.stopped,outframe,roi_2.numLooks,roi_2.timesOn,roi_2.timesOff,text_2.started,text_2.stopped,probedcontrast,key_resp.started,respdetect,relevantContrast,correctDetect,TorFdetect,respCWorCCW,key_resp.keys,key_resp.rt,feedback_display_.started,participantNo,blockNo,date,expName,psychopyVersion,frameRate,
1000,1,0.0,4.9,1,0,0,0,51,5.21000474691391e-05,5.21000474691391e-05,47.067482699872926,49.07913399999961,49.07913399999961,49.71655289991759,49.71655289991759,50.22260749991983,45,45,50.22260749991983,50.22260749991983,50.22260749991983,50.22260749991983,50.22260749991983,50.22260749991983,50.22260749991983,50.22260749991983,50.22260749991983,50.571316899964586,50.571316899964586,50.571316899964586,50.571316899964586,50.571316899964586,50.571316899964586,50.571316899964586,50.571316899964586,50.571316899964586,0,1,[0.0009510000236332417],[0.36738709989003837],50.571316899964586,50.77843689988367,1000,50.77843689988367,1000,1000,1000,1000,1,num_2,0.569914200110361,,34,6,2026-03-13_10h37.05.618,2026A_exp2,2022.2.4,59.85751520079933,
1,0,3.7,0.0,1,0,1,1,73,,,,,51.37220790004358,52.022812800016254,52.022812800016254,52.50721980002709,315,315,52.50721980002709,52.50721980002709,52.50721980002709,52.50721980002709,52.50721980002709,52.50721980002709,52.50721980002709,52.50721980002709,52.50721980002709,52.873514899984,52.873514899984,52.873514899984,52.873514899984,52.873514899984,52.873514899984,52.873514899984,52.873514899984,52.873514899984,0,1,[0.0012696997728198767],[0.3672578998375684],52.873514899984,53.073714499827474,0.0,53.073714499827474,0,0.0,0,1,1000,num_1,0.4982746001332998,,34,6,2026-03-13_10h37.05.618,2026A_exp2,2022.2.4,59.85751520079933,
1000,1,3.7,0.0,1,0,2,2,54,,,,,53.59102059993893,54.24166199984029,54.24166199984029,54.72594869998284,315,315,54.72594869998284,54.72594869998284,54.72594869998284,54.72594869998284,54.72594869998284,54.72594869998284,54.72594869998284,54.72594869998284,54.72594869998284,55.09241020004265,55.09241020004265,55.09241020004265,55.09241020004265,55.09241020004265,55.09241020004265,55.09241020004265,55.09241020004265,55.09241020004265,0,1,[0.0012097000144422054],[0.36700380011461675],55.09241020004265,55.294227099977434,1000,55.294227099977434,1000,1000,1000,1000,0,num_3,0.5978162998799235,,34,6,2026-03-13_10h37.05.618,2026A_exp2,2022.2.4,59.85751520079933,
1000,1,0.0,3.7,1,0,3,3,81,,,,,55.90996169997379,56.560280999867246,56.560280999867246,57.06175889982842,315,45,57.06175889982842,57.06175889982842,57.06175889982842,57.06175889982842,57.06175889982842,57.06175889982842,57.06175889982842,57.06175889982842,57.06175889982842,57.42806569999084,57.42806569999084,57.42806569999084,57.42806569999084,57.42806569999084,57.42806569999084,57.42806569999084,57.42806569999084,57.42806569999084,0,1,[0.0012397998943924904],[0.36720209987834096],57.42806569999084,57.62837029993534,1000,57.62837029993534,1000,1000,1000,1000,1,num_2,0.4406737999524921,,34,6,2026-03-13_10h37.05.618,2026A_exp2,2022.2.4,59.85751520079933,
1000,1,3.7,0.0,0,0,4,4,28,,,,,58.09555359999649,58.74614299996756,58.74614299996756,59.24727139994502,45,45,59.24727139994502,59.24727139994502,59.24727139994502,59.24727139994502,59.24727139994502,59.24727139994502,59.24727139994502,59.24727139994502,59.24727139994502,59.597063299966976,59.597063299966976,59.597063299966976,59.597063299966976,59.597063299966976,59.597063299966976,59.597063299966976,59.597063299966976,59.597063299966976,0,1,[0.0012439999263733625],[0.3507040999829769],59.597063299966976,59.79736900003627,1000,59.79736900003627,1000,1000,1000,1000,0,num_3,0.6075356998480856,,34,6,2026-03-13_10h37.05.618,2026A_exp2,2022.2.4,59.85751520079933,
1000,1,4.9,3.7,0,0,5,5,26,,,,,60.4311210999731,61.08179509988986,61.08179509988986,61.582933799829334,315,45,61.582933799829334,61.582933799829334,61.582933799829334,61.582933799829334,61.582933799829334,61.582933799829334,61.582933799829334,61.582933799829334,61.582933799829334,61.94887740002014,61.94887740002014,61.94887740002014,61.94887740002014,61.94887740002014,61.94887740002014,61.94887740002014,61.94887740002014,61.94887740002014,0,1,[0.0012495999690145254],[0.366298999870196],61.94887740002014,62.14932409999892,1000,62.14932409999892,1000,1000,1000,1000,1,num_2,0.45530140004120767,,34,6,2026-03-13_10h37.05.618,2026A_exp2,2022.2.4,59.85751520079933,
1000,1,4.9,3.7,1,0,6,6,46,,,,,62.633441200014204,63.28381719999015,63.28381719999015,63.76844589994289,45,315,63.76844589994289,63.76844589994289,63.76844589994289,63.76844589994289,63.76844589994289,63.76844589994289,63.76844589994289,63.76844589994289,63.76844589994289,64.13481749990024,64.13481749990024,64.13481749990024,64.13481749990024,64.13481749990024,64.13481749990024,64.13481749990024,64.13481749990024,64.13481749990024,0,1,[0.0012854000087827444],[0.3672277999576181],64.13481749990024,64.33736569993198,1000,64.33736569993198,1000,1000,1000,1000,1,num_2,0.7543216999620199,,34,6,2026-03-13_10h37.05.618,2026A_exp2,2022.2.4,59.85751520079933,
1,0,4.9,4.9,1,0,7,7,32,,,,,65.11906579998322,65.76986139989458,65.76986139989458,66.27078819996677,45,315,66.27078819996677,66.27078819996677,66.27078819996677,66.27078819996677,66.27078819996677,66.27078819996677,66.27078819996677,66.27078819996677,66.27078819996677,66.63726309989579,66.63726309989579,66.63726309989579,66.63726309989579,66.63726309989579,66.63726309989579,66.63726309989579,66.63726309989579,66.63726309989579,0,1,[0.0012654000893235207],[0.36713979998603463],66.63726309989579,66.83740910002962,4.9,66.83740910002962,1,4.9,1,1,1000,num_4,0.6305282998364419,,34,6,2026-03-13_10h37.05.618,2026A_exp2,2022.2.4,59.85751520079933,
1,0,0.0,3.7,1,0,8,8,83,,,,,67.48806889983825,68.13890799996443,68.13890799996443,68.62322009983473,315,315,68.62322009983473,68.62322009983473,68.62322009983473,68.62322009983473,68.62322009983473,68.62322009983473,68.62322009983473,68.62322009983473,68.62322009983473,68.98968799994327,68.98968799994327,68.98968799994327,68.98968799994327,68.98968799994327,68.98968799994327,68.98968799994327,68.98968799994327,68.98968799994327,0,1,[0.001199499936774373],[0.36733029992319643],68.98968799994327,69.1898822998628,3.7,69.1898822998628,0,3.7,1,0,1000,num_1,0.5425543000455946,,34,6,2026-03-13_10h37.05.618,2026A_exp2,2022.2.4,59.85751520079933,
1,0,6.1,0.0,0,0,9,9,58,,,,,69.75713869999163,70.40765299997292,70.40765299997292,70.89222709997557,45,45,70.89222709997557,70.89222709997557,70.89222709997557,70.89222709997557,70.89222709997557,70.89222709997557,70.89222709997557,70.89222709997557,70.89222709997557,71.2585328000132,71.2585328000132,71.2585328000132,71.2585328000132,71.2585328000132,71.2585328000132,71.2585328000132,71.2585328000132,71.2585328000132,0,1,[0.0012344999704509974],[0.36727849999442697],71.2585328000132,71.45877619995736,6.1,71.45877619995736,1,6.1,1,1,1000,num_4,0.6579837000463158,,34,6,2026-03-13_10h37.05.618,2026A_exp2,2022.2.4,59.85751520079933,
0,0,0.0,6.1,0,0,10,10,30,,,,,72.14282700000331,72.78318879986182,72.78318879986182,73.28265960002318,45,45,73.28265960002318,73.28265960002318,73.28265960002318,73.28265960002318,73.28265960002318,73.28265960002318,73.28265960002318,73.28265960002318,73.28265960002318,73.64442300004885,73.64442300004885,73.64442300004885,73.64442300004885,73.64442300004885,73.64442300004885,73.64442300004885,73.64442300004885,73.64442300004885,0,1,[0.0025857998989522457],[0.366177000105381],73.64442300004885,73.8444280999247,6.1,73.8444280999247,1,6.1,1,1,1000,num_4,0.6640431999694556,,34,6,2026-03-13_10h37.05.618,2026A_exp2,2022.2.4,59.85751520079933,
1000,1,0.0,6.1,0,0,11,11,85,,,,,74.52963759982958,75.17920729983598,75.17920729983598,75.68016189988703,45,315,75.68016189988703,75.68016189988703,75.68016189988703,75.68016189988703,75.68016189988703,75.68016189988703,75.68016189988703,75.68016189988703,75.68016189988703,76.04678620002232,76.04678620002232,76.04678620002232,76.04678620002232,76.04678620002232,76.04678620002232,76.04678620002232,76.04678620002232,76.04678620002232,0,1,[0.0012159000616520643],[0.36712009995244443],76.04678620002232,76.24900970002636,1000,76.24900970002636,1000,1000,1000,1000,1,num_2,0.49190709996037185,,34,6,2026-03-13_10h37.05.618,2026A_exp2,2022.2.4,59.85751520079933,
1000,1,0.0,0.0,1,0,12,12,37,,,,,76.76405490003526,77.41480569983833,77.41480569983833,77.91583399986848,45,45,77.91583399986848,77.91583399986848,77.91583399986848,77.91583399986848,77.91583399986848,77.91583399986848,77.91583399986848,77.91583399986848,77.91583399986848,78.2822227999568,78.2822227999568,78.2822227999568,78.2822227999568,78.2822227999568,78.2822227999568,78.2822227999568,78.2822227999568,78.2822227999568,0,1,[0.0012085000053048134],[0.3671250999905169],78.2822227999568,78.51050539989956,1000,78.51050539989956,1000,1000,1000,1000,1,num_2,0.5737861997913569,,34,6,2026-03-13_10h37.05.618,2026A_exp2,2022.2.4,59.85751520079933,
0,0,3.7,0.0,1,0,13,13,0,,,,,79.09985219989903,79.75045839999802,79.75045839999802,80.25114019983448,315,45,80.25114019983448,80.25114019983448,80.25114019983448,80.25114019983448,80.25114019983448,80.25114019983448,80.25114019983448,80.25114019983448,80.25114019983448,80.60125349997543,80.60125349997543,80.60125349997543,80.60125349997543,80.60125349997543,80.60125349997543,80.60125349997543,80.60125349997543,80.60125349997543,0,1,[0.0012372999917715788],[0.3531098000239581],80.60125349997543,80.80236149998382,3.7,80.80236149998382,0,3.7,1,0,1000,num_1,0.6502465000376105,,34,6,2026-03-13_10h37.05.618,2026A_exp2,2022.2.4,59.85751520079933,
1000,1,0.0,0.0,1,0,14,14,63,,,,,81.4687147999648,82.11942019988783,82.11942019988783,82.62062029982917,45,315,82.62062029982917,82.62062029982917,82.62062029982917,82.62062029982917,82.62062029982917,82.62062029982917,82.62062029982917,82.62062029982917,82.62062029982917,82.9869888999965,82.9869888999965,82.9869888999965,82.9869888999965,82.9869888999965,82.9869888999965,82.9869888999965,82.9869888999965,82.9869888999965,0,1,[0.0012274000328034163],[0.3669120001140982],82.9869888999965,83.18920330004767,1000,83.18920330004767,1000,1000,1000,1000,0,num_3,0.9916585998144001,,34,6,2026-03-13_10h37.05.618,2026A_exp2,2022.2.4,59.85751520079933,
0,0,4.9,3.7,1,0,15,15,13,,,,,84.20485670003109,84.85560570005327,84.85560570005327,85.35668969992548,315,315,85.35668969992548,85.35668969992548,85.35668969992548,85.35668969992548,85.35668969992548,85.35668969992548,85.35668969992548,85.35668969992548,85.35668969992548,85.72309589991346,85.72309589991346,85.72309589991346,85.72309589991346,85.72309589991346,85.72309589991346,85.72309589991346,85.72309589991346,85.72309589991346,0,1,[0.001239999895915389],[0.3673302000388503],85.72309589991346,85.92336559994146,4.9,85.92336559994146,0,4.9,1,0,1000,num_1,0.5123586000408977,,34,6,2026-03-13_10h37.05.618,2026A_exp2,2022.2.4,59.85751520079933,
1,0,0.0,0.0,1,0,16,16,68,,,,,86.45745550002903,87.10785599984229,87.10785599984229,87.59226759988815,45,315,87.59226759988815,87.59226759988815,87.59226759988815,87.59226759988815,87.59226759988815,87.59226759988815,87.59226759988815,87.59226759988815,87.59226759988815,87.9586086999625,87.9586086999625,87.9586086999625,87.9586086999625,87.9586086999625,87.9586086999625,87.9586086999625,87.9586086999625,87.9586086999625,0,1,[0.001242100028321147],[0.3672061001416296],87.9586086999625,88.15880950004794,0.0,88.15880950004794,0,0.0,0,1,1000,num_1,0.4377729999832809,,34,6,2026-03-13_10h37.05.618,2026A_exp2,2022.2.4,59.85751520079933,
1000,1,0.0,6.1,0,0,17,17,5,,,,,88.62583879986778,89.27652919990942,89.27652919990942,89.76116989995353,45,45,89.76116989995353,89.76116989995353,89.76116989995353,89.76116989995353,89.76116989995353,89.76116989995353,89.76116989995353,89.76116989995353,89.76116989995353,90.12754000001587,90.12754000001587,90.12754000001587,90.12754000001587,90.12754000001587,90.12754000001587,90.12754000001587,90.12754000001587,90.12754000001587,0,1,[0.0007137998472899199],[0.36755249998532236],90.12754000001587,90.32989059993997,1000,90.32989059993997,1000,1000,1000,1000,1,num_2,0.6017306998837739,,34,6,2026-03-13_10h37.05.618,2026A_exp2,2022.2.4,59.85751520079933,
1,0,0.0,4.9,0,0,18,18,9,,,,,90.96156529989094,91.6123515998479,91.6123515998479,92.09670519991778,315,45,92.09670519991778,92.09670519991778,92.09670519991778,92.09670519991778,92.09670519991778,92.09670519991778,92.09670519991778,92.09670519991778,92.09670519991778,92.46303689992055,92.46303689992055,92.46303689992055,92.46303689992055,92.46303689992055,92.46303689992055,92.46303689992055,92.46303689992055,92.46303689992055,0,1,[0.0008983002044260502],[0.36702510016039014],92.46303689992055,92.66320329997689,0.0,92.66320329997689,0,0.0,0,1,1000,num_1,0.4845581001136452,,34,6,2026-03-13_10h37.05.618,2026A_exp2,2022.2.4,59.85751520079933,
1,0,4.9,3.7,0,0,19,19,89,,,,,93.16375579987653,93.81456149998121,93.81456149998121,94.29897059989162,45,45,94.29897059989162,94.29897059989162,94.29897059989162,94.29897059989162,94.29897059989162,94.29897059989162,94.29897059989162,94.29897059989162,94.29897059989162,94.66650699987076,94.66650699987076,94.66650699987076,94.66650699987076,94.66650699987076,94.66650699987076,94.66650699987076,94.66650699987076,94.66650699987076,0,1,[0.0012368999887257814],[0.3668742999434471],94.66650699987076,94.88201729999855,4.9,94.88201729999855,1,4.9,1,1,1000,num_4,1.001707199960947,,34,6,2026-03-13_10h37.05.618,2026A_exp2,2022.2.4,59.85751520079933,
1000,1,4.9,6.1,0,0,20,20,35,,,,,95.89984819991514,96.55055489996448,96.55055489996448,97.03508519986644,315,315,97.03508519986644,97.03508519986644,97.03508519986644,97.03508519986644,97.03508519986644,97.03508519986644,97.03508519986644,97.03508519986644,97.03508519986644,97.40139689994976,97.40139689994976,97.40139689994976,97.40139689994976,97.40139689994976,97.40139689994976,97.40139689994976,97.40139689994976,97.40139689994976,0,1,[0.0009206000249832869],[0.36746510001830757],97.40139689994976,97.60386669985019,1000,97.60386669985019,1000,1000,1000,1000,1,num_2,0.7125283998902887,,34,6,2026-03-13_10h37.05.618,2026A_exp2,2022.2.4,59.85751520079933,
1000,1,0.0,0.0,1,0,21,21,72,,,,,98.33573969989084,98.98645580001175,98.98645580001175,99.47080580005422,45,45,99.47080580005422,99.47080580005422,99.47080580005422,99.47080580005422,99.47080580005422,99.47080580005422,99.47080580005422,99.47080580005422,99.47080580005422,99.83720929990523,99.83720929990523,99.83720929990523,99.83720929990523,99.83720929990523,99.83720929990523,99.83720929990523,99.83720929990523,99.83720929990523,0,1,[0.0012479000724852085],[0.36704610008746386],99.83720929990523,100.03982089995407,1000,100.03982089995407,1000,1000,1000,1000,0,num_3,0.5411775000393391,,34,6,2026-03-13_10h37.05.618,2026A_exp2,2022.2.4,59.85751520079933,
0,0,0.0,0.0,0,0,22,22,20,,,,,100.60448149987496,101.25536229996942,101.25536229996942,101.75636420003138,315,45,101.75636420003138,101.75636420003138,101.75636420003138,101.75636420003138,101.75636420003138,101.75636420003138,101.75636420003138,101.75636420003138,101.75636420003138,102.12286899983883,102.12286899983883,102.12286899983883,102.12286899983883,102.12286899983883,102.12286899983883,102.12286899983883,102.12286899983883,102.12286899983883,0,1,[0.001252699876204133],[0.3672328998800367],102.12286899983883,102.32303450000472,0.0,102.32303450000472,0,0.0,0,1,1000,num_1,0.5288885999470949,,34,6,2026-03-13_10h37.05.618,2026A_exp2,2022.2.4,59.85751520079933,
1,0,0.0,3.7,0,0,23,23,34,,,,,102.873591999989,103.52429039985873,103.52429039985873,104.0085883999709,45,315,104.0085883999709,104.0085883999709,104.0085883999709,104.0085883999709,104.0085883999709,104.0085883999709,104.0085883999709,104.0085883999709,104.0085883999709,104.37507559987716,104.37507559987716,104.37507559987716,104.37507559987716,104.37507559987716,104.37507559987716,104.37507559987716,104.37507559987716,104.37507559987716,23,0,,,104.37507559987716,104.57525039999746,0.0,104.57525039999746,0,0.0,0,1,1000,num_1,0.565443699946627,,34,6,2026-03-13_10h37.05.618,2026A_exp2,2022.2.4,59.85751520079933,
1,0,0.0,0.0,1,0,24,24,66,,,,,105.1590304998681,105.80968239996582,105.80968239996582,106.31090459995903,45,45,106.31090459995903,106.31090459995903,106.31090459995903,106.31090459995903,106.31090459995903,106.31090459995903,106.31090459995903,106.31090459995903,106.31090459995903,106.66072069993243,106.66072069993243,106.66072069993243,106.66072069993243,106.66072069993243,106.66072069993243,106.66072069993243,106.66072069993243,106.66072069993243,2,2,"[0.0012161999475210905, 0.3505788000766188]","[0.31720510008744895, 0.35058420011773705]",106.66072069993243,106.86091299983673,0.0,106.86091299983673,0,0.0,0,1,1000,num_1,0.6075375999789685,,34,6,2026-03-13_10h37.05.618,2026A_exp2,2022.2.4,59.85751520079933,
1,0,6.1,0.0,1,0,25,25,41,,,,,107.49471979984082,108.1455818999093,108.1455818999093,108.62988569983281,45,45,108.62988569983281,108.62988569983281,108.62988569983281,108.62988569983281,108.62988569983281,108.62988569983281,108.62988569983281,108.62988569983281,108.62988569983281,108.99631979991682,108.99631979991682,108.99631979991682,108.99631979991682,108.99631979991682,108.99631979991682,108.99631979991682,108.99631979991682,108.99631979991682,0,1,[0.0012304999399930239],[0.3671281000133604],108.99631979991682,109.19651299994439,0.0,109.19651299994439,1,0.0,0,0,1000,num_4,1.1192121000494808,,34,6,2026-03-13_10h37.05.618,2026A_exp2,2022.2.4,59.85751520079933,
1,0,0.0,0.0,1,0,26,26,42,,,,,110.34780139988288,110.99835669994354,110.99835669994354,111.4827141999267,315,45,111.4827141999267,111.4827141999267,111.4827141999267,111.4827141999267,111.4827141999267,111.4827141999267,111.4827141999267,111.4827141999267,111.4827141999267,111.84920930000953,111.84920930000953,111.84920930000953,111.84920930000953,111.84920930000953,111.84920930000953,111.84920930000953,111.84920930000953,111.84920930000953,0,1,[0.0012296000495553017],[0.36718029994517565],111.84920930000953,112.04933169996366,0.0,112.04933169996366,0,0.0,0,1,1000,num_1,0.6269014000426978,,34,6,2026-03-13_10h37.05.618,2026A_exp2,2022.2.4,59.85751520079933,
1,0,0.0,4.9,0,0,27,27,48,,,,,112.70024589984678,113.33406629995443,113.33406629995443,113.83509900001809,45,315,113.83509900001809,113.83509900001809,113.83509900001809,113.83509900001809,113.83509900001809,113.83509900001809,113.83509900001809,113.83509900001809,113.83509900001809,114.2015479998663,114.2015479998663,114.2015479998663,114.2015479998663,114.2015479998663,114.2015479998663,114.2015479998663,114.2015479998663,114.2015479998663,0,1,[0.0013522999361157417],[0.36701099993661046],114.2015479998663,114.40170009993017,0.0,114.40170009993017,0,0.0,0,1,1000,num_1,0.7390547001268715,,34,6,2026-03-13_10h37.05.618,2026A_exp2,2022.2.4,59.85751520079933,
1,0,0.0,0.0,0,0,28,28,31,,,,,115.16905219992623,115.81987680005841,115.81987680005841,116.30414819996804,315,315,116.30414819996804,116.30414819996804,116.30414819996804,116.30414819996804,116.30414819996804,116.30414819996804,116.30414819996804,116.30414819996804,116.30414819996804,116.68741420004517,116.68741420004517,116.68741420004517,116.68741420004517,116.68741420004517,116.68741420004517,116.68741420004517,116.68741420004517,116.68741420004517,3,1,[0.04948840010911226],[0.38359729992225766],116.68741420004517,116.88754729996435,0.0,116.88754729996435,0,0.0,0,1,1000,num_1,0.5488293999806046,,34,6,2026-03-13_10h37.05.618,2026A_exp2,2022.2.4,59.85751520079933,
1000,1,4.9,0.0,0,0,29,29,82,,,,,117.45468789990991,118.1124853999354,118.1124853999354,118.58977549988776,315,315,118.58977549988776,118.58977549988776,118.58977549988776,118.58977549988776,118.58977549988776,118.58977549988776,118.58977549988776,118.58977549988776,118.58977549988776,118.95625999988988,118.95625999988988,118.95625999988988,118.95625999988988,118.95625999988988,118.95625999988988,118.95625999988988,118.95625999988988,118.95625999988988,0,1,[0.0012013998348265886],[0.36700959992595017],118.95625999988988,119.15821529994719,1000,119.15821529994719,1000,1000,1000,1000,0,num_3,0.518108099931851,,34,6,2026-03-13_10h37.05.618,2026A_exp2,2022.2.4,59.85751520079933,
1000,1,0.0,4.9,0,0,30,30,50,,,,,119.70704280002974,120.35772969992831,120.35772969992831,120.85889029991813,315,315,120.85889029991813,120.85889029991813,120.85889029991813,120.85889029991813,120.85889029991813,120.85889029991813,120.85889029991813,120.85889029991813,120.85889029991813,121.22527999989688,121.22527999989688,121.22527999989688,121.22527999989688,121.22527999989688,121.22527999989688,121.22527999989688,121.22527999989688,121.22527999989688,0,1,[0.0012874000240117311],[0.367122899973765],121.22527999989688,121.42746039992198,1000,121.42746039992198,1000,1000,1000,1000,1,num_2,0.9445509999059141,,34,6,2026-03-13_10h37.05.618,2026A_exp2,2022.2.4,59.85751520079933,
1000,1,0.0,0.0,1,0,31,31,80,,,,,122.393080299953,123.04371219989844,123.04371219989844,123.52811970002949,45,45,123.52811970002949,123.52811970002949,123.52811970002949,123.52811970002949,123.52811970002949,123.52811970002949,123.52811970002949,123.52811970002949,123.52811970002949,123.89462479995564,123.89462479995564,123.89462479995564,123.89462479995564,123.89462479995564,123.89462479995564,123.89462479995564,123.89462479995564,123.89462479995564,0,1,[0.0012414997909218073],[0.36710059992037714],123.89462479995564,124.10080350004137,1000,124.10080350004137,1000,1000,1000,1000,0,num_3,0.5113186000380665,,34,6,2026-03-13_10h37.05.618,2026A_exp2,2022.2.4,59.85751520079933,
1,0,0.0,6.1,1,0,32,32,17,,,,,124.62859029998071,125.27918630000204,125.27918630000204,125.78033940005116,315,315,125.78033940005116,125.78033940005116,125.78033940005116,125.78033940005116,125.78033940005116,125.78033940005116,125.78033940005116,125.78033940005116,125.78033940005116,126.14689980004914,126.14689980004914,126.14689980004914,126.14689980004914,126.14689980004914,126.14689980004914,126.14689980004914,126.14689980004914,126.14689980004914,0,1,[0.0012071998789906502],[0.36686219996772707],126.14689980004914,126.34701969986781,6.1,126.34701969986781,0,6.1,1,0,1000,num_1,0.5688537999521941,,34,6,2026-03-13_10h37.05.618,2026A_exp2,2022.2.4,59.85751520079933,
1000,1,6.1,3.7,0,0,33,33,43,,,,,126.94757279986516,127.5984006000217,127.5984006000217,128.08231989992782,315,45,128.08231989992782,128.08231989992782,128.08231989992782,128.08231989992782,128.08231989992782,128.08231989992782,128.08231989992782,128.08231989992782,128.08231989992782,128.44902119995095,128.44902119995095,128.44902119995095,128.44902119995095,128.44902119995095,128.44902119995095,128.44902119995095,128.44902119995095,128.44902119995095,0,1,[0.0011858001817017794],[0.3673086001072079],128.44902119995095,128.64942519995384,1000,128.64942519995384,1000,1000,1000,1000,0,num_3,0.538854300044477,,34,6,2026-03-13_10h37.05.618,2026A_exp2,2022.2.4,59.85751520079933,
1,0,0.0,0.0,1,0,34,34,24,,,,,129.21653810003772,129.86725459992886,129.86725459992886,130.36823059991002,45,45,130.36823059991002,130.36823059991002,130.36823059991002,130.36823059991002,130.36823059991002,130.36823059991002,130.36823059991002,130.36823059991002,130.36823059991002,130.73476759996265,130.73476759996265,130.73476759996265,130.73476759996265,130.73476759996265,130.73476759996265,130.73476759996265,130.73476759996265,130.73476759996265,23,0,,,130.73476759996265,130.934827900026,0.0,130.934827900026,1,0.0,0,0,1000,num_4,0.581711599836126,,34,6,2026-03-13_10h37.05.618,2026A_exp2,2022.2.4,59.85751520079933,
1000,1,0.0,3.7,1,0,35,35,7,,,,,131.53534929989837,132.18623909982853,132.18623909982853,132.67064669984393,315,315,132.67064669984393,132.67064669984393,132.67064669984393,132.67064669984393,132.67064669984393,132.67064669984393,132.67064669984393,132.67064669984393,132.67064669984393,133.03705419995822,133.03705419995822,133.03705419995822,133.03705419995822,133.03705419995822,133.03705419995822,133.03705419995822,133.03705419995822,133.03705419995822,0,1,[0.0012293001636862755],[0.3672671001404524],133.03705419995822,133.23902749991976,1000,133.23902749991976,1000,1000,1000,1000,0,num_3,0.8454458001069725,,34,6,2026-03-13_10h37.05.618,2026A_exp2,2022.2.4,59.85751520079933,
1,0,0.0,0.0,0,0,36,36,87,,,,,134.1046569000464,134.7555074999109,134.7555074999109,135.25660529988818,45,315,135.25660529988818,135.25660529988818,135.25660529988818,135.25660529988818,135.25660529988818,135.25660529988818,135.25660529988818,135.25660529988818,135.25660529988818,135.62300659995526,135.62300659995526,135.62300659995526,135.62300659995526,135.62300659995526,135.62300659995526,135.62300659995526,135.62300659995526,135.62300659995526,0,1,[0.001120199915021658],[0.3669850998558104],135.62300659995526,135.8231462999247,0.0,135.8231462999247,0,0.0,0,1,1000,num_1,0.5578261001501232,,34,6,2026-03-13_10h37.05.618,2026A_exp2,2022.2.4,59.85751520079933,
1000,1,0.0,0.0,1,0,37,37,8,,,,,136.40704960003495,137.05771089997143,137.05771089997143,137.54228319996037,45,45,137.54228319996037,137.54228319996037,137.54228319996037,137.54228319996037,137.54228319996037,137.54228319996037,137.54228319996037,137.54228319996037,137.54228319996037,137.90846819989383,137.90846819989383,137.90846819989383,137.90846819989383,137.90846819989383,137.90846819989383,137.90846819989383,137.90846819989383,137.90846819989383,23,0,,,137.90846819989383,138.1106187000405,1000,138.1106187000405,1000,1000,1000,1000,0,num_3,0.5177139998413622,,34,6,2026-03-13_10h37.05.618,2026A_exp2,2022.2.4,59.85751520079933,
1,0,0.0,6.1,1,0,38,38,39,,,,,138.65921529987827,139.30993449990638,139.30993449990638,139.81114370003343,315,315,139.81114370003343,139.81114370003343,139.81114370003343,139.81114370003343,139.81114370003343,139.81114370003343,139.81114370003343,139.81114370003343,139.81114370003343,140.17747909994796,140.17747909994796,140.17747909994796,140.17747909994796,140.17747909994796,140.17747909994796,140.17747909994796,140.17747909994796,140.17747909994796,4,3,"[0.001267499988898635, 0.317114100093022, 0.3505514001008123]","[0.2672455001156777, 0.3338516999501735, 0.3671897000167519]",140.17747909994796,140.37779830000363,6.1,140.37779830000363,0,6.1,1,0,1000,num_1,0.7309461000841111,,34,6,2026-03-13_10h37.05.618,2026A_exp2,2022.2.4,59.85751520079933,
1,0,0.0,0.0,1,0,39,39,77,,,,,141.12838619994,141.77911100001074,141.77911100001074,142.28020030003972,315,315,142.28020030003972,142.28020030003972,142.28020030003972,142.28020030003972,142.28020030003972,142.28020030003972,142.28020030003972,142.28020030003972,142.28020030003972,142.63000939995982,142.63000939995982,142.63000939995982,142.63000939995982,142.63000939995982,142.63000939995982,142.63000939995982,142.63000939995982,142.63000939995982,0,1,[0.0012918999418616295],[0.3504827998112887],142.63000939995982,142.83030839986168,0.0,142.83030839986168,1,0.0,0,0,1000,num_4,0.8380489000119269,,34,6,2026-03-13_10h37.05.618,2026A_exp2,2022.2.4,59.85751520079933,
1,0,4.9,0.0,0,0,40,40,19,,,,,143.69762709992938,144.3482737999875,144.3482737999875,144.8327716998756,315,315,144.8327716998756,144.8327716998756,144.8327716998756,144.8327716998756,144.8327716998756,144.8327716998756,144.8327716998756,144.8327716998756,144.8327716998756,145.19925349997357,145.19925349997357,145.19925349997357,145.19925349997357,145.19925349997357,145.19925349997357,145.19925349997357,145.19925349997357,145.19925349997357,0,1,[0.001065900083631277],[0.36713879997842014],145.19925349997357,145.39929670002311,4.9,145.39929670002311,1,4.9,1,1,1000,num_4,0.7734836000017822,,34,6,2026-03-13_10h37.05.618,2026A_exp2,2022.2.4,59.85751520079933,
1000,1,0.0,3.7,0,0,41,41,18,,,,,146.2000837000087,146.85065739997663,146.85065739997663,147.33529049996287,315,315,147.33529049996287,147.33529049996287,147.33529049996287,147.33529049996287,147.33529049996287,147.33529049996287,147.33529049996287,147.33529049996287,147.33529049996287,147.70173099986278,147.70173099986278,147.70173099986278,147.70173099986278,147.70173099986278,147.70173099986278,147.70173099986278,147.70173099986278,147.70173099986278,0,1,[0.0012133000418543816],[0.3671057000756264],147.70173099986278,147.90373609983362,1000,147.90373609983362,1000,1000,1000,1000,1,num_2,0.6678468999452889,,34,6,2026-03-13_10h37.05.618,2026A_exp2,2022.2.4,59.85751520079933,
1000,1,4.9,4.9,1,0,42,42,67,,,,,148.6025401998777,149.2531907998491,149.2531907998491,149.7542914999649,45,315,149.7542914999649,149.7542914999649,149.7542914999649,149.7542914999649,149.7542914999649,149.7542914999649,149.7542914999649,149.7542914999649,149.7542914999649,150.10410439991392,150.10410439991392,150.10410439991392,150.10410439991392,150.10410439991392,150.10410439991392,150.10410439991392,150.10410439991392,150.10410439991392,0,1,[0.0012433999218046665],[0.3505168000701815],150.10410439991392,150.30645080003887,1000,150.30645080003887,1000,1000,1000,1000,1,num_2,0.4585424999240786,,34,6,2026-03-13_10h37.05.618,2026A_exp2,2022.2.4,59.85751520079933,
1,0,6.1,3.7,0,0,43,43,79,,,,,150.78802979993634,151.43884179997258,151.43884179997258,151.93971599987708,315,45,151.93971599987708,151.93971599987708,151.93971599987708,151.93971599987708,151.93971599987708,151.93971599987708,151.93971599987708,151.93971599987708,151.93971599987708,152.3066763000097,152.3066763000097,152.3066763000097,152.3066763000097,152.3066763000097,152.3066763000097,152.3066763000097,152.3066763000097,152.3066763000097,0,1,[0.0007307000923901796],[0.36780419992282987],152.3066763000097,152.50657969992608,6.1,152.50657969992608,1,6.1,1,1,1000,num_4,0.7854675000999123,,34,6,2026-03-13_10h37.05.618,2026A_exp2,2022.2.4,59.85751520079933,
1,0,6.1,0.0,1,0,44,44,53,,,,,153.32411070005037,153.95790299982764,153.95790299982764,154.4589734999463,315,315,154.4589734999463,154.4589734999463,154.4589734999463,154.4589734999463,154.4589734999463,154.4589734999463,154.4589734999463,154.4589734999463,154.4589734999463,154.82543159998022,154.82543159998022,154.82543159998022,154.82543159998022,154.82543159998022,154.82543159998022,154.82543159998022,154.82543159998022,154.82543159998022,0,1,[0.001245700055733323],[0.36717989994212985],154.82543159998022,155.02568509988487,0.0,155.02568509988487,0,0.0,0,1,1000,num_1,0.5632369001396,,34,6,2026-03-13_10h37.05.618,2026A_exp2,2022.2.4,59.85751520079933,
1000,1,6.1,0.0,1,0,45,45,71,,,,,155.60945590003394,156.26022779988125,156.26022779988125,156.76139909983613,45,45,156.76139909983613,156.76139909983613,156.76139909983613,156.76139909983613,156.76139909983613,156.76139909983613,156.76139909983613,156.76139909983613,156.76139909983613,157.12779249995947,157.12779249995947,157.12779249995947,157.12779249995947,157.12779249995947,157.12779249995947,157.12779249995947,157.12779249995947,157.12779249995947,0,1,[0.0012057998683303595],[0.36738820001482964],157.12779249995947,157.3301442998927,1000,157.3301442998927,1000,1000,1000,1000,0,num_3,0.40250209998339415,,34,6,2026-03-13_10h37.05.618,2026A_exp2,2022.2.4,59.85751520079933,
1000,1,0.0,6.1,1,0,46,46,40,,,,,157.7617220999673,158.41250399989076,158.41250399989076,158.91348219988868,315,315,158.91348219988868,158.91348219988868,158.91348219988868,158.91348219988868,158.91348219988868,158.91348219988868,158.91348219988868,158.91348219988868,158.91348219988868,159.2805451999884,159.2805451999884,159.2805451999884,159.2805451999884,159.2805451999884,159.2805451999884,159.2805451999884,159.2805451999884,159.2805451999884,0,1,[0.0007261000573635101],[0.3675649999640882],159.2805451999884,159.48220440000296,1000,159.48220440000296,1000,1000,1000,1000,1,num_2,0.45885729999281466,,34,6,2026-03-13_10h37.05.618,2026A_exp2,2022.2.4,59.85751520079933,
1000,1,4.9,4.9,0,0,47,47,6,,,,,159.96399129997008,160.6146537999157,160.6146537999157,161.11564769991674,315,45,161.11564769991674,161.11564769991674,161.11564769991674,161.11564769991674,161.11564769991674,161.11564769991674,161.11564769991674,161.11564769991674,161.11564769991674,161.48217029985972,161.48217029985972,161.48217029985972,161.48217029985972,161.48217029985972,161.48217029985972,161.48217029985972,161.48217029985972,161.48217029985972,0,1,[0.0012004999443888664],[0.3674107000697404],161.48217029985972,161.68421719991602,1000,161.68421719991602,1000,1000,1000,1000,0,num_3,0.4247775999829173,,34,6,2026-03-13_10h37.05.618,2026A_exp2,2022.2.4,59.85751520079933,
0,0,0.0,6.1,1,0,48,48,84,,,,,162.13280180003494,162.78348649991676,162.78348649991676,163.2846190999262,45,315,163.2846190999262,163.2846190999262,163.2846190999262,163.2846190999262,163.2846190999262,163.2846190999262,163.2846190999262,163.2846190999262,163.2846190999262,163.63417720003054,163.63417720003054,163.63417720003054,163.63417720003054,163.63417720003054,163.63417720003054,163.63417720003054,163.63417720003054,163.63417720003054,0,1,[0.0012649998534470797],[0.35050880000926554],163.63417720003054,163.834490200039,0.0,163.834490200039,0,0.0,0,1,1000,num_1,0.513150499900803,,34,6,2026-03-13_10h37.05.618,2026A_exp2,2022.2.4,59.85751520079933,
1,0,6.1,0.0,1,0,49,49,23,,,,,164.3687767998781,165.01900919992477,165.01900919992477,165.5034655998461,45,315,165.5034655998461,165.5034655998461,165.5034655998461,165.5034655998461,165.5034655998461,165.5034655998461,165.5034655998461,165.5034655998461,165.5034655998461,165.86975259985775,165.86975259985775,165.86975259985775,165.86975259985775,165.86975259985775,165.86975259985775,165.86975259985775,165.86975259985775,165.86975259985775,0,1,[0.0012864000163972378],[0.3672227000351995],165.86975259985775,166.06983699998818,0.0,166.06983699998818,0,0.0,0,1,1000,num_1,0.5589759999420494,,34,6,2026-03-13_10h37.05.618,2026A_exp2,2022.2.4,59.85751520079933,
1000,1,4.9,4.9,0,0,50,50,36,,,,,166.65378309995867,167.30472290003672,167.30472290003672,167.78909879992716,45,315,167.78909879992716,167.78909879992716,167.78909879992716,167.78909879992716,167.78909879992716,167.78909879992716,167.78909879992716,167.78909879992716,167.78909879992716,168.1553654000163,168.1553654000163,168.1553654000163,168.1553654000163,168.1553654000163,168.1553654000163,168.1553654000163,168.1553654000163,168.1553654000163,0,1,[0.001121200155466795],[0.36725260014645755],168.1553654000163,168.35725019988604,1000,168.35725019988604,1000,1000,1000,1000,1,num_2,0.47864330001175404,,34,6,2026-03-13_10h37.05.618,2026A_exp2,2022.2.4,59.85751520079933,
1,0,0.0,4.9,1,0,51,51,2,,,,,168.85614819987677,169.50670949998312,169.50670949998312,170.00801029987633,45,45,170.00801029987633,170.00801029987633,170.00801029987633,170.00801029987633,170.00801029987633,170.00801029987633,170.00801029987633,170.00801029987633,170.00801029987633,170.37442789995112,170.37442789995112,170.37442789995112,170.37442789995112,170.37442789995112,170.37442789995112,170.37442789995112,170.37442789995112,170.37442789995112,0,1,[0.0012153999414294958],[0.36725850007496774],170.37442789995112,170.5746092000045,4.9,170.5746092000045,1,4.9,1,1,1000,num_4,0.6936653999146074,,34,6,2026-03-13_10h37.05.618,2026A_exp2,2022.2.4,59.85751520079933,
1000,1,0.0,3.7,1,0,52,52,86,,,,,171.2919930999633,171.94260249985382,171.94260249985382,172.42690739990212,315,315,172.42690739990212,172.42690739990212,172.42690739990212,172.42690739990212,172.42690739990212,172.42690739990212,172.42690739990212,172.42690739990212,172.42690739990212,172.793535299832,172.793535299832,172.793535299832,172.793535299832,172.793535299832,172.793535299832,172.793535299832,172.793535299832,172.793535299832,0,1,[0.0012421999126672745],[0.367090999847278],172.793535299832,172.99552370002493,1000,172.99552370002493,1000,1000,1000,1000,1,num_2,0.6485772000160068,,34,6,2026-03-13_10h37.05.618,2026A_exp2,2022.2.4,59.85751520079933,
1,0,0.0,0.0,0,0,53,53,75,,,,,173.66100319987163,174.31173479999416,174.31173479999416,174.81286949990317,45,45,174.81286949990317,174.81286949990317,174.81286949990317,174.81286949990317,174.81286949990317,174.81286949990317,174.81286949990317,174.81286949990317,174.81286949990317,175.17924129986204,175.17924129986204,175.17924129986204,175.17924129986204,175.17924129986204,175.17924129986204,175.17924129986204,175.17924129986204,175.17924129986204,0,1,[0.0012018000707030296],[0.36725670006126165],175.17924129986204,175.37935689999722,0.0,175.37935689999722,0,0.0,0,1,1000,num_1,0.5456541001331061,,34,6,2026-03-13_10h37.05.618,2026A_exp2,2022.2.4,59.85751520079933,
1,0,6.1,0.0,0,0,54,54,22,,,,,175.94667329988442,176.59699629992247,176.59699629992247,177.08182980003767,45,315,177.08182980003767,177.08182980003767,177.08182980003767,177.08182980003767,177.08182980003767,177.08182980003767,177.08182980003767,177.08182980003767,177.08182980003767,177.4481966998428,177.4481966998428,177.4481966998428,177.4481966998428,177.4481966998428,177.4481966998428,177.4481966998428,177.4481966998428,177.4481966998428,0,1,[0.0012285998091101646],[0.36747499997727573],177.4481966998428,177.64823900000192,6.1,177.64823900000192,1,6.1,1,1,1000,num_4,0.6206765999086201,,34,6,2026-03-13_10h37.05.618,2026A_exp2,2022.2.4,59.85751520079933,
1,0,3.7,0.0,0,0,55,55,15,,,,,178.29890509997495,178.9495720998384,178.9495720998384,179.4340319999028,315,45,179.4340319999028,179.4340319999028,179.4340319999028,179.4340319999028,179.4340319999028,179.4340319999028,179.4340319999028,179.4340319999028,179.4340319999028,179.8004805999808,179.8004805999808,179.8004805999808,179.8004805999808,179.8004805999808,179.8004805999808,179.8004805999808,179.8004805999808,179.8004805999808,0,1,[0.000952600035816431],[0.36730340006761253],179.8004805999808,180.00053309998475,3.7,180.00053309998475,0,3.7,1,0,1000,num_1,0.6444874000735581,,34,6,2026-03-13_10h37.05.618,2026A_exp2,2022.2.4,59.85751520079933,
1,0,0.0,4.9,1,0,56,56,44,,,,,180.66915789991617,181.3246428000275,181.3246428000275,181.82496610004455,45,315,181.82496610004455,181.82496610004455,181.82496610004455,181.82496610004455,181.82496610004455,181.82496610004455,181.82496610004455,181.82496610004455,181.82496610004455,182.18587839999236,182.18587839999236,182.18587839999236,182.18587839999236,182.18587839999236,182.18587839999236,182.18587839999236,182.18587839999236,182.18587839999236,0,1,[0.0024429000914096832],[0.365375499939546],182.18587839999236,182.38637829991058,4.9,182.38637829991058,1,4.9,1,1,1000,num_4,0.7059388998895884,,34,6,2026-03-13_10h37.05.618,2026A_exp2,2022.2.4,59.85751520079933,
1000,1,4.9,6.1,1,0,57,57,4,,,,,183.12035960005596,183.77109489985742,183.77109489985742,184.2554815998301,45,45,184.2554815998301,184.2554815998301,184.2554815998301,184.2554815998301,184.2554815998301,184.2554815998301,184.2554815998301,184.2554815998301,184.2554815998301,184.62194689991884,184.62194689991884,184.62194689991884,184.62194689991884,184.62194689991884,184.62194689991884,184.62194689991884,184.62194689991884,184.62194689991884,0,1,[0.0010621000546962023],[0.367409200174734],184.62194689991884,184.82425830001011,1000,184.82425830001011,1000,1000,1000,1000,1,num_2,0.7241507999133319,,34,6,2026-03-13_10h37.05.618,2026A_exp2,2022.2.4,59.85751520079933,
1,0,4.9,0.0,0,0,58,58,47,,,,,185.57290289993398,186.22337719984353,186.22337719984353,186.72472279984504,45,45,186.72472279984504,186.72472279984504,186.72472279984504,186.72472279984504,186.72472279984504,186.72472279984504,186.72472279984504,186.72472279984504,186.72472279984504,187.09107570000924,187.09107570000924,187.09107570000924,187.09107570000924,187.09107570000924,187.09107570000924,187.09107570000924,187.09107570000924,187.09107570000924,0,1,[0.0012002999428659678],[0.3672562998253852],187.09107570000924,187.29131169989705,4.9,187.29131169989705,1,4.9,1,1,1000,num_4,0.6492027000058442,,34,6,2026-03-13_10h37.05.618,2026A_exp2,2022.2.4,59.85751520079933,
0,0,3.7,0.0,0,0,59,59,16,,,,,187.95850449986756,188.6093679999467,188.6093679999467,189.0935531000141,45,315,189.0935531000141,189.0935531000141,189.0935531000141,189.0935531000141,189.0935531000141,189.0935531000141,189.0935531000141,189.0935531000141,189.0935531000141,189.46014870004728,189.46014870004728,189.46014870004728,189.46014870004728,189.46014870004728,189.46014870004728,189.46014870004728,189.46014870004728,189.46014870004728,0,1,[0.0011941001284867525],[0.36723740003071725],189.46014870004728,189.6602793999482,0.0,189.6602793999482,1,0.0,0,0,1000,num_4,0.6875891999807209,,34,6,2026-03-13_10h37.05.618,2026A_exp2,2022.2.4,59.85751520079933,
1000,1,0.0,0.0,1,0,60,60,27,,,,,190.37817689985968,191.02846469986252,191.02846469986252,191.51280430005863,315,45,191.51280430005863,191.51280430005863,191.51280430005863,191.51280430005863,191.51280430005863,191.51280430005863,191.51280430005863,191.51280430005863,191.51280430005863,191.87912629987113,191.87912629987113,191.87912629987113,191.87912629987113,191.87912629987113,191.87912629987113,191.87912629987113,191.87912629987113,191.87912629987113,23,0,,,191.87912629987113,192.0814047998283,1000,192.0814047998283,1000,1000,1000,1000,0,num_3,0.48300290014594793,,34,6,2026-03-13_10h37.05.618,2026A_exp2,2022.2.4,59.85751520079933,
1,0,3.7,4.9,0,0,61,61,70,,,,,192.5799022000283,193.23063399991952,193.23063399991952,193.73157519986853,45,315,193.73157519986853,193.73157519986853,193.73157519986853,193.73157519986853,193.73157519986853,193.73157519986853,193.73157519986853,193.73157519986853,193.73157519986853,194.09799399995245,194.09799399995245,194.09799399995245,194.09799399995245,194.09799399995245,194.09799399995245,194.09799399995245,194.09799399995245,194.09799399995245,16,2,"[0.25008460017852485, 0.3505105001386255]","[0.3338113999925554, 0.3671202000696212]",194.09799399995245,194.29818389983848,3.7,194.29818389983848,0,3.7,1,0,1000,num_1,0.5145724001340568,,34,6,2026-03-13_10h37.05.618,2026A_exp2,2022.2.4,59.85751520079933,
1,0,3.7,6.1,0,0,62,62,74,,,,,194.83203839999624,195.48278529988602,195.48278529988602,195.96711710002273,45,315,195.96711710002273,195.96711710002273,195.96711710002273,195.96711710002273,195.96711710002273,195.96711710002273,195.96711710002273,195.96711710002273,195.96711710002273,196.33376049995422,196.33376049995422,196.33376049995422,196.33376049995422,196.33376049995422,196.33376049995422,196.33376049995422,196.33376049995422,196.33376049995422,0,1,[0.0016688001342117786],[0.36707719997502863],196.33376049995422,196.53400109987706,3.7,196.53400109987706,0,3.7,1,0,1000,num_1,0.4938401998952031,,34,6,2026-03-13_10h37.05.618,2026A_exp2,2022.2.4,59.85751520079933,
1000,1,4.9,6.1,0,0,63,63,59,,,,,197.05096989986487,197.70165579998866,197.70165579998866,198.1860735998489,315,45,198.1860735998489,198.1860735998489,198.1860735998489,198.1860735998489,198.1860735998489,198.1860735998489,198.1860735998489,198.1860735998489,198.1860735998489,198.55250300001353,198.55250300001353,198.55250300001353,198.55250300001353,198.55250300001353,198.55250300001353,198.55250300001353,198.55250300001353,198.55250300001353,0,1,[0.001231699949130416],[0.3671413001138717],198.55250300001353,198.7527703999076,1000,198.7527703999076,1000,1000,1000,1000,1,num_2,0.5548598999157548,,34,6,2026-03-13_10h37.05.618,2026A_exp2,2022.2.4,59.85751520079933,
1,0,6.1,0.0,1,0,64,64,29,,,,,199.3364957999438,199.98731729993597,199.98731729993597,200.48835700005293,315,45,200.48835700005293,200.48835700005293,200.48835700005293,200.48835700005293,200.48835700005293,200.48835700005293,200.48835700005293,200.48835700005293,200.48835700005293,200.85501499986276,200.85501499986276,200.85501499986276,200.85501499986276,200.85501499986276,200.85501499986276,200.85501499986276,200.85501499986276,200.85501499986276,0,1,[0.0012054000981152058],[0.3672285000793636],200.85501499986276,201.0551479998976,0.0,201.0551479998976,0,0.0,0,1,1000,num_1,0.5891284998506308,,34,6,2026-03-13_10h37.05.618,2026A_exp2,2022.2.4,59.85751520079933,
1000,1,0.0,0.0,1,0,65,65,78,,,,,201.67220529983751,202.3230232000351,202.3230232000351,202.8075816000346,315,45,202.8075816000346,202.8075816000346,202.8075816000346,202.8075816000346,202.8075816000346,202.8075816000346,202.8075816000346,202.8075816000346,202.8075816000346,203.1738801000174,203.1738801000174,203.1738801000174,203.1738801000174,203.1738801000174,203.1738801000174,203.1738801000174,203.1738801000174,203.1738801000174,0,1,[0.0008344999514520168],[0.3676826001610607],203.1738801000174,203.37597779999487,1000,203.37597779999487,1000,1000,1000,1000,1,num_2,0.6363754998892546,,34,6,2026-03-13_10h37.05.618,2026A_exp2,2022.2.4,59.85751520079933,
0,0,0.0,0.0,0,0,66,66,10,,,,,204.0412798000034,204.69205629988573,204.69205629988573,205.1932583998423,45,45,205.1932583998423,205.1932583998423,205.1932583998423,205.1932583998423,205.1932583998423,205.1932583998423,205.1932583998423,205.1932583998423,205.1932583998423,205.559260699898,205.559260699898,205.559260699898,205.559260699898,205.559260699898,205.559260699898,205.559260699898,205.559260699898,205.559260699898,0,1,[0.0011428999714553356],[0.36755610001273453],205.559260699898,205.75984389986843,0.0,205.75984389986843,1,0.0,0,0,1000,num_4,0.6521099000237882,,34,6,2026-03-13_10h37.05.618,2026A_exp2,2022.2.4,59.85751520079933,
1,0,0.0,6.1,0,0,67,67,3,,,,,206.4440736998804,207.09450659994036,207.09450659994036,207.5789520998951,45,45,207.5789520998951,207.5789520998951,207.5789520998951,207.5789520998951,207.5789520998951,207.5789520998951,207.5789520998951,207.5789520998951,207.5789520998951,207.94513039989397,207.94513039989397,207.94513039989397,207.94513039989397,207.94513039989397,207.94513039989397,207.94513039989397,207.94513039989397,207.94513039989397,0,1,[0.0014041999820619822],[0.36680849990807474],207.94513039989397,208.1455629998818,0.0,208.1455629998818,0,0.0,0,1,1000,num_1,0.5141151000279933,,34,6,2026-03-13_10h37.05.618,2026A_exp2,2022.2.4,59.85751520079933,
1,0,4.9,0.0,1,0,68,68,52,,,,,208.67923729983158,209.32993989996612,209.32993989996612,209.81451719999313,45,315,209.81451719999313,209.81451719999313,209.81451719999313,209.81451719999313,209.81451719999313,209.81451719999313,209.81451719999313,209.81451719999313,209.81451719999313,210.18086800002493,210.18086800002493,210.18086800002493,210.18086800002493,210.18086800002493,210.18086800002493,210.18086800002493,210.18086800002493,210.18086800002493,0,1,[0.001233499962836504],[0.3671691999770701],210.18086800002493,210.38104190002196,0.0,210.38104190002196,0,0.0,0,1,1000,num_1,0.663775899913162,,34,6,2026-03-13_10h37.05.618,2026A_exp2,2022.2.4,59.85751520079933,
1,0,4.9,0.0,0,0,69,69,57,,,,,211.0650394000113,211.71577479992993,211.71577479992993,212.21701200003736,45,315,212.21701200003736,212.21701200003736,212.21701200003736,212.21701200003736,212.21701200003736,212.21701200003736,212.21701200003736,212.21701200003736,212.21701200003736,212.56640939996578,212.56640939996578,212.56640939996578,212.56640939996578,212.56640939996578,212.56640939996578,212.56640939996578,212.56640939996578,212.56640939996578,0,1,[0.000853799981996417],[0.35103649995289743],212.56640939996578,212.77985159982927,4.9,212.77985159982927,1,4.9,1,1,1000,num_4,0.7363315999973565,,34,6,2026-03-13_10h37.05.618,2026A_exp2,2022.2.4,59.85751520079933,
1,0,0.0,0.0,1,0,70,70,56,,,,,213.53411499992944,214.18488559988327,214.18488559988327,214.6692677999381,315,315,214.6692677999381,214.6692677999381,214.6692677999381,214.6692677999381,214.6692677999381,214.6692677999381,214.6692677999381,214.6692677999381,214.6692677999381,215.03575769998133,215.03575769998133,215.03575769998133,215.03575769998133,215.03575769998133,215.03575769998133,215.03575769998133,215.03575769998133,215.03575769998133,21,1,[0.033504199935123324],[0.06699980003759265],215.03575769998133,215.23573610000312,0.0,215.25234319991432,0,0.0,0,1,1000,num_1,0.49670340004377067,,34,6,2026-03-13_10h37.05.618,2026A_exp2,2022.2.4,59.85751520079933,
0,0,0.0,6.1,0,0,71,71,12,,,,,215.76970089995302,216.42044929997064,216.42044929997064,216.90483039990067,45,315,216.90483039990067,216.90483039990067,216.90483039990067,216.90483039990067,216.90483039990067,216.90483039990067,216.90483039990067,216.90483039990067,216.90483039990067,217.27119629993103,217.27119629993103,217.27119629993103,217.27119629993103,217.27119629993103,217.27119629993103,217.27119629993103,217.27119629993103,217.27119629993103,0,1,[0.0012561001349240541],[0.3672535000368953],217.27119629993103,217.4713935998734,6.1,217.4713935998734,1,6.1,1,1,1000,num_4,0.5883088000118732,,34,6,2026-03-13_10h37.05.618,2026A_exp2,2022.2.4,59.85751520079933,
0,0,4.9,4.9,0,0,72,72,88,,,,,218.08873399998993,218.7393996999599,218.7393996999599,219.22373139997944,45,315,219.22373139997944,219.22373139997944,219.22373139997944,219.22373139997944,219.22373139997944,219.22373139997944,219.22373139997944,219.22373139997944,219.22373139997944,219.59023889992386,219.59023889992386,219.59023889992386,219.59023889992386,219.59023889992386,219.59023889992386,219.59023889992386,219.59023889992386,219.59023889992386,0,1,[0.0011966999154537916],[0.3671267000027001],219.59023889992386,219.79050959995948,4.9,219.79050959995948,0,4.9,1,0,1000,num_1,0.6135680000297725,,34,6,2026-03-13_10h37.05.618,2026A_exp2,2022.2.4,59.85751520079933,
1000,1,6.1,0.0,1,0,73,73,61,,,,,220.42433159984648,221.07501129992306,221.07501129992306,221.55955919995904,315,45,221.55955919995904,221.55955919995904,221.55955919995904,221.55955919995904,221.55955919995904,221.55955919995904,221.55955919995904,221.55955919995904,221.55955919995904,221.92599039990455,221.92599039990455,221.92599039990455,221.92599039990455,221.92599039990455,221.92599039990455,221.92599039990455,221.92599039990455,221.92599039990455,23,0,,,221.92599039990455,222.1285228000488,1000,222.1285228000488,1000,1000,1000,1000,0,num_3,0.49903739988803864,,34,6,2026-03-13_10h37.05.618,2026A_exp2,2022.2.4,59.85751520079933,
0,0,6.1,0.0,0,0,74,74,65,,,,,222.64330039988272,223.2938645000104,223.2938645000104,223.7950404000003,45,315,223.7950404000003,223.7950404000003,223.7950404000003,223.7950404000003,223.7950404000003,223.7950404000003,223.7950404000003,223.7950404000003,223.7950404000003,224.16151249990799,224.16151249990799,224.16151249990799,224.16151249990799,224.16151249990799,224.16151249990799,224.16151249990799,224.16151249990799,224.16151249990799,23,0,,,224.16151249990799,224.36172819999047,0.0,224.36172819999047,0,0.0,0,1,1000,num_1,0.8503974000923336,,34,6,2026-03-13_10h37.05.618,2026A_exp2,2022.2.4,59.85751520079933,
1000,1,4.9,6.1,0,0,75,75,49,,,,,225.22932309983298,225.87994359992445,225.87994359992445,226.36436240002513,45,45,226.36436240002513,226.36436240002513,226.36436240002513,226.36436240002513,226.36436240002513,226.36436240002513,226.36436240002513,226.36436240002513,226.36436240002513,226.73078759992495,226.73078759992495,226.73078759992495,226.73078759992495,226.73078759992495,226.73078759992495,226.73078759992495,226.73078759992495,226.73078759992495,23,0,,,226.73078759992495,226.93256719992496,1000,226.93256719992496,1000,1000,1000,1000,1,num_2,1.1837573999073356,,34,6,2026-03-13_10h37.05.618,2026A_exp2,2022.2.4,59.85751520079933,
1,0,3.7,3.7,0,0,76,76,69,,,,,228.13231069990434,228.7828493998386,228.7828493998386,229.28395610000007,315,45,229.28395610000007,229.28395610000007,229.28395610000007,229.28395610000007,229.28395610000007,229.28395610000007,229.28395610000007,229.28395610000007,229.28395610000007,229.63365089986473,229.63365089986473,229.63365089986473,229.63365089986473,229.63365089986473,229.63365089986473,229.63365089986473,229.63365089986473,229.63365089986473,22,0,,,229.63365089986473,229.83369709993713,3.7,229.83369709993713,0,3.7,1,0,1000,num_1,0.5631734000053257,,34,6,2026-03-13_10h37.05.618,2026A_exp2,2022.2.4,59.85751520079933,
1000,1,0.0,0.0,0,0,77,77,33,,,,,230.4176113998983,231.06833309982903,231.06833309982903,231.55274820001796,315,315,231.55274820001796,231.55274820001796,231.55274820001796,231.55274820001796,231.55274820001796,231.55274820001796,231.55274820001796,231.55274820001796,231.55274820001796,231.91925519984215,231.91925519984215,231.91925519984215,231.91925519984215,231.91925519984215,231.91925519984215,231.91925519984215,231.91925519984215,231.91925519984215,23,0,,,231.91925519984215,232.12140099983662,1000,232.12140099983662,1000,1000,1000,1000,1,num_2,0.6345871000085026,,34,6,2026-03-13_10h37.05.618,2026A_exp2,2022.2.4,59.85751520079933,
0,0,4.9,6.1,0,0,78,78,1,,,,,232.78687189985067,233.43749519996345,233.43749519996345,233.93849279987626,45,45,233.93849279987626,233.93849279987626,233.93849279987626,233.93849279987626,233.93849279987626,233.93849279987626,233.93849279987626,233.93849279987626,233.93849279987626,234.30501069989987,234.30501069989987,234.30501069989987,234.30501069989987,234.30501069989987,234.30501069989987,234.30501069989987,234.30501069989987,234.30501069989987,23,0,,,234.30501069989987,234.50512779993005,6.1,234.50512779993005,1,6.1,1,1,1000,num_4,0.6191808001603931,,34,6,2026-03-13_10h37.05.618,2026A_exp2,2022.2.4,59.85751520079933,
1,0,0.0,0.0,1,0,79,79,60,,,,,235.15571710001677,235.80656749987975,235.80656749987975,236.29102279990911,315,45,236.29102279990911,236.29102279990911,236.29102279990911,236.29102279990911,236.29102279990911,236.29102279990911,236.29102279990911,236.29102279990911,236.29102279990911,236.67367509985343,236.67367509985343,236.67367509985343,236.67367509985343,236.67367509985343,236.67367509985343,236.67367509985343,236.67367509985343,236.67367509985343,24,0,,,236.67367509985343,236.87412219983526,0.0,236.87412219983526,0,0.0,0,1,1000,num_1,0.5535866001155227,,34,6,2026-03-13_10h37.05.618,2026A_exp2,2022.2.4,59.85751520079933,
1,0,0.0,0.0,0,0,80,80,64,,,,,237.4580254999455,238.10897619999014,238.10897619999014,238.59312839992344,45,45,238.59312839992344,238.59312839992344,238.59312839992344,238.59312839992344,238.59312839992344,238.59312839992344,238.59312839992344,238.59312839992344,238.59312839992344,238.95967320003547,238.95967320003547,238.95967320003547,238.95967320003547,238.95967320003547,238.95967320003547,238.95967320003547,238.95967320003547,238.95967320003547,17,2,"[0.001205099979415536, 0.10040370002388954]","[0.06694960012100637, 0.1337919000070542]",238.95967320003547,239.15985649987124,0.0,239.15985649987124,0,0.0,0,1,1000,num_1,0.5001318999566138,,34,6,2026-03-13_10h37.05.618,2026A_exp2,2022.2.4,59.85751520079933,
1,0,6.1,3.7,1,0,81,81,45,,,,,239.67705899989232,240.3109648998361,240.3109648998361,240.81215239991434,45,45,240.81215239991434,240.81215239991434,240.81215239991434,240.81215239991434,240.81215239991434,240.81215239991434,240.81215239991434,240.81215239991434,240.81215239991434,241.17877139989287,241.17877139989287,241.17877139989287,241.17877139989287,241.17877139989287,241.17877139989287,241.17877139989287,241.17877139989287,241.17877139989287,23,0,,,241.17877139989287,241.37866110005416,3.7,241.37866110005416,1,3.7,1,1,1000,num_4,0.6493975000921637,,34,6,2026-03-13_10h37.05.618,2026A_exp2,2022.2.4,59.85751520079933,
1,0,6.1,4.9,1,0,82,82,38,,,,,242.04595669987611,242.67994189984165,242.67994189984165,243.18103079986759,45,315,243.18103079986759,243.18103079986759,243.18103079986759,243.18103079986759,243.18103079986759,243.18103079986759,243.18103079986759,243.18103079986759,243.18103079986759,243.54745049984194,243.54745049984194,243.54745049984194,243.54745049984194,243.54745049984194,243.54745049984194,243.54745049984194,243.54745049984194,243.54745049984194,23,0,,,243.54745049984194,243.74765359982848,4.9,243.74765359982848,0,4.9,1,0,1000,num_1,0.609330500010401,,34,6,2026-03-13_10h37.05.618,2026A_exp2,2022.2.4,59.85751520079933,
1000,1,3.7,3.7,0,0,83,83,76,,,,,244.38184779998846,245.03225259995088,245.03225259995088,245.5166267999448,45,45,245.5166267999448,245.5166267999448,245.5166267999448,245.5166267999448,245.5166267999448,245.5166267999448,245.5166267999448,245.5166267999448,245.5166267999448,245.88335639983416,245.88335639983416,245.88335639983416,245.88335639983416,245.88335639983416,245.88335639983416,245.88335639983416,245.88335639983416,245.88335639983416,23,0,,,245.88335639983416,246.0854745998513,1000,246.0854745998513,1000,1000,1000,1000,1,num_2,0.9826308998744935,,34,6,2026-03-13_10h37.05.618,2026A_exp2,2022.2.4,59.85751520079933,
1,0,4.9,6.1,1,0,84,84,62,,,,,247.0843849000521,247.7351239998825,247.7351239998825,248.2361575998366,45,45,248.2361575998366,248.2361575998366,248.2361575998366,248.2361575998366,248.2361575998366,248.2361575998366,248.2361575998366,248.2361575998366,248.2361575998366,248.60256479983218,248.60256479983218,248.60256479983218,248.60256479983218,248.60256479983218,248.60256479983218,248.60256479983218,248.60256479983218,248.60256479983218,23,0,,,248.60256479983218,248.80271089985035,6.1,248.80271089985035,0,6.1,1,0,1000,num_1,0.7694409999530762,,34,6,2026-03-13_10h37.05.618,2026A_exp2,2022.2.4,59.85751520079933,
1,0,4.9,0.0,0,0,85,85,14,,,,,249.6034808999393,250.23762669996358,250.23762669996358,250.7387832000386,45,315,250.7387832000386,250.7387832000386,250.7387832000386,250.7387832000386,250.7387832000386,250.7387832000386,250.7387832000386,250.7387832000386,250.7387832000386,251.10512520000339,251.10512520000339,251.10512520000339,251.10512520000339,251.10512520000339,251.10512520000339,251.10512520000339,251.10512520000339,251.10512520000339,23,0,,,251.10512520000339,251.30536550004035,4.9,251.30536550004035,1,4.9,1,1,1000,num_4,0.6756967999972403,,34,6,2026-03-13_10h37.05.618,2026A_exp2,2022.2.4,59.85751520079933,
1000,1,0.0,3.7,0,0,86,86,21,,,,,252.00586279993877,252.65668120002374,252.65668120002374,253.14098119991831,315,315,253.14098119991831,253.14098119991831,253.14098119991831,253.14098119991831,253.14098119991831,253.14098119991831,253.14098119991831,253.14098119991831,253.14098119991831,253.50751299993135,253.50751299993135,253.50751299993135,253.50751299993135,253.50751299993135,253.50751299993135,253.50751299993135,253.50751299993135,253.50751299993135,2,2,"[0.0012303998228162527, 0.33381769992411137]","[0.3004217999987304, 0.36707929987460375]",253.50751299993135,253.7088236999698,1000,253.7088236999698,1000,1000,1000,1000,1,num_2,0.5427246000617743,,34,6,2026-03-13_10h37.05.618,2026A_exp2,2022.2.4,59.85751520079933,
1000,1,3.7,3.7,1,0,87,87,25,,,,,254.2749248999171,254.9254590999335,254.9254590999335,255.4267814999912,315,315,255.4267814999912,255.4267814999912,255.4267814999912,255.4267814999912,255.4267814999912,255.4267814999912,255.4267814999912,255.4267814999912,255.4267814999912,255.79326089983806,255.79326089983806,255.79326089983806,255.79326089983806,255.79326089983806,255.79326089983806,255.79326089983806,255.79326089983806,255.79326089983806,0,1,[0.0012231001164764166],[0.3669719002209604],255.79326089983806,255.99910099990666,1000,255.99910099990666,1000,1000,1000,1000,0,num_3,0.49302920000627637,,34,6,2026-03-13_10h37.05.618,2026A_exp2,2022.2.4,59.85751520079933,
1,0,3.7,3.7,1,0,88,88,11,,,,,256.51043969998136,257.16124120005406,257.16124120005406,257.6621620999649,45,45,257.6621620999649,257.6621620999649,257.6621620999649,257.6621620999649,257.6621620999649,257.6621620999649,257.6621620999649,257.6621620999649,257.6621620999649,258.02876809984446,258.02876809984446,258.02876809984446,258.02876809984446,258.02876809984446,258.02876809984446,258.02876809984446,258.02876809984446,258.02876809984446,23,0,,,258.02876809984446,258.2288489998318,3.7,258.2288489998318,1,3.7,1,1,1000,num_4,0.44767570006661117,,34,6,2026-03-13_10h37.05.618,2026A_exp2,2022.2.4,59.85751520079933,
1,0,3.7,0.0,1,0,89,89,55,,,,,258.69603760004975,259.3467087999452,259.3467087999452,259.8477765999269,45,45,259.8477765999269,259.8477765999269,259.8477765999269,259.8477765999269,259.8477765999269,259.8477765999269,259.8477765999269,259.8477765999269,259.8477765999269,260.2140458000358,260.2140458000358,260.2140458000358,260.2140458000358,260.2140458000358,260.2140458000358,260.2140458000358,260.2140458000358,260.2140458000358,1,2,"[0.0007203998975455761, 0.23418119992129505]","[0.2173530999571085, 0.3676243999507278]",260.2140458000358,260.41440749983303,0.0,260.41440749983303,0,0.0,0,1,1000,num_1,0.4544794000685215,,34,6,2026-03-13_10h37.05.618,2026A_exp2,2022.2.4,59.85751520079933,
,,,,,,,,,,,,,,,,,,,,,,,,,,,,,,,,,,,,,,,,,,,,,,,,,,,,260.8997603999451,,,,,,,
