validity,detectorcomp,contrastCW,contrastCCW,precueCWorCCW,block_80trials.thisRepN,block_80trials.thisTrialN,block_80trials.thisN,block_80trials.thisIndex,etRecord.started,etRecord.stopped,text.started,text.stopped,text_4.started,text_4.stopped,text_6.started,text_6.stopped,oriCW,oriCCW,roi_2.started,grating_UR.started,grating_UL.started,grating_LR.started,grating_LL.started,noise_UR.started,noise_UL.started,noise_LR.started,noise_LL.started,roi_2.stopped,grating_UR.stopped,grating_UL.stopped,grating_LR.stopped,grating_LL.stopped,noise_UR.stopped,noise_UL.stopped,noise_LR.stopped,noise_LL.stopped,outframe,roi_2.numLooks,roi_2.timesOn,roi_2.timesOff,text_2.started,text_2.stopped,probedcontrast,key_resp.started,respdetect,relevantContrast,correctDetect,TorFdetect,respCWorCCW,key_resp.keys,key_resp.rt,feedback_display_.started,participantNo,blockNo,date,expName,psychopyVersion,frameRate,
1000,1,4.9,4.9,1,0,0,0,85,3.739999374374747e-05,3.739999374374747e-05,50.736650600039866,52.74046270002145,52.74046270002145,53.374229300010484,53.374229300010484,53.89550040004542,315,315,53.89550040004542,53.89550040004542,53.89550040004542,53.89550040004542,53.89550040004542,53.89550040004542,53.89550040004542,53.89550040004542,53.89550040004542,54.24202200002037,54.24202200002037,54.24202200002037,54.24202200002037,54.24202200002037,54.24202200002037,54.24202200002037,54.24202200002037,54.24202200002037,0,1,[0.000923600047826767],[0.3681217000121251],54.24202200002037,54.44881690002512,1000,54.44881690002512,1000,1000,1000,1000,0,num_3,0.697499500005506,,27,16,2026-03-05_14h24.04.381,2026A_exp2,2022.2.4,59.91076889788343,
1,0,3.7,0.0,1,0,1,1,59,,,,,55.17624000000069,55.826859200024046,55.826859200024046,56.32788340002298,315,45,56.32788340002298,56.32788340002298,56.32788340002298,56.32788340002298,56.32788340002298,56.32788340002298,56.32788340002298,56.32788340002298,56.32788340002298,56.694426400004886,56.694426400004886,56.694426400004886,56.694426400004886,56.694426400004886,56.694426400004886,56.694426400004886,56.694426400004886,56.694426400004886,23,0,,,56.694426400004886,56.89477270003408,0.0,56.89477270003408,0,0.0,0,1,1000,num_1,0.4755872000241652,,27,16,2026-03-05_14h24.04.381,2026A_exp2,2022.2.4,59.91076889788343,
1,0,0.0,0.0,0,0,2,2,29,,,,,57.39522190002026,58.045765099988785,58.045765099988785,58.53026600001613,315,45,58.53026600001613,58.53026600001613,58.53026600001613,58.53026600001613,58.53026600001613,58.53026600001613,58.53026600001613,58.53026600001613,58.53026600001613,58.896566800016444,58.896566800016444,58.896566800016444,58.896566800016444,58.896566800016444,58.896566800016444,58.896566800016444,58.896566800016444,58.896566800016444,23,0,,,58.896566800016444,59.09678960003657,0.0,59.09678960003657,1,0.0,0,0,1000,num_4,0.6415483999880962,,27,16,2026-03-05_14h24.04.381,2026A_exp2,2022.2.4,59.91076889788343,
1,0,0.0,3.7,0,0,3,3,1,,,,,59.76473980001174,60.41579310002271,60.41579310002271,60.91981350001879,45,315,60.91981350001879,60.91981350001879,60.91981350001879,60.91981350001879,60.91981350001879,60.91981350001879,60.91981350001879,60.91981350001879,60.91981350001879,61.282330900023226,61.282330900023226,61.282330900023226,61.282330900023226,61.282330900023226,61.282330900023226,61.282330900023226,61.282330900023226,61.282330900023226,23,0,,,61.282330900023226,61.48261000000639,0.0,61.48261000000639,0,0.0,0,1,1000,num_1,0.5600005000014789,,27,16,2026-03-05_14h24.04.381,2026A_exp2,2022.2.4,59.91076889788343,
1000,1,0.0,0.0,0,0,4,4,47,,,,,62.06653890002053,62.71717030002037,62.71717030002037,63.20157890004339,315,315,63.20157890004339,63.20157890004339,63.20157890004339,63.20157890004339,63.20157890004339,63.20157890004339,63.20157890004339,63.20157890004339,63.20157890004339,63.56793140002992,63.56793140002992,63.56793140002992,63.56793140002992,63.56793140002992,63.56793140002992,63.56793140002992,63.56793140002992,63.56793140002992,23,0,,,63.56793140002992,63.768003800010774,1000,63.768003800010774,1000,1000,1000,1000,1,num_2,0.8100012000068091,,27,16,2026-03-05_14h24.04.381,2026A_exp2,2022.2.4,59.91076889788343,
1000,1,6.1,0.0,0,0,5,5,80,,,,,64.60245559999021,65.25297570001567,65.25297570001567,65.75420810002834,315,315,65.75420810002834,65.75420810002834,65.75420810002834,65.75420810002834,65.75420810002834,65.75420810002834,65.75420810002834,65.75420810002834,65.75420810002834,66.12052799999947,66.12052799999947,66.12052799999947,66.12052799999947,66.12052799999947,66.12052799999947,66.12052799999947,66.12052799999947,66.12052799999947,23,0,,,66.12052799999947,66.32270050002262,1000,66.32270050002262,1000,1000,1000,1000,0,num_3,0.4956778999767266,,27,16,2026-03-05_14h24.04.381,2026A_exp2,2022.2.4,59.91076889788343,
1000,1,6.1,0.0,0,0,6,6,58,,,,,66.8377543000388,67.48857530002715,67.48857530002715,67.98984230001224,315,315,67.98984230001224,67.98984230001224,67.98984230001224,67.98984230001224,67.98984230001224,67.98984230001224,67.98984230001224,67.98984230001224,67.98984230001224,68.35603010002524,68.35603010002524,68.35603010002524,68.35603010002524,68.35603010002524,68.35603010002524,68.35603010002524,68.35603010002524,68.35603010002524,23,0,,,68.35603010002524,68.55852040002355,1000,68.55852040002355,1000,1000,1000,1000,0,num_3,0.37891500000841916,,27,16,2026-03-05_14h24.04.381,2026A_exp2,2022.2.4,59.91076889788343,
1000,1,0.0,4.9,0,0,7,7,9,,,,,68.95653600001242,69.60738430003403,69.60738430003403,70.10848749999423,45,315,70.10848749999423,70.10848749999423,70.10848749999423,70.10848749999423,70.10848749999423,70.10848749999423,70.10848749999423,70.10848749999423,70.10848749999423,70.47489559999667,70.47489559999667,70.47489559999667,70.47489559999667,70.47489559999667,70.47489559999667,70.47489559999667,70.47489559999667,70.47489559999667,23,0,,,70.47489559999667,70.67724839999573,1000,70.67724839999573,1000,1000,1000,1000,1,num_2,0.3323666999931447,,27,16,2026-03-05_14h24.04.381,2026A_exp2,2022.2.4,59.91076889788343,
1,0,0.0,6.1,0,0,8,8,57,,,,,71.02531719999388,71.67609910003375,71.67609910003375,72.1771732000052,315,45,72.1771732000052,72.1771732000052,72.1771732000052,72.1771732000052,72.1771732000052,72.1771732000052,72.1771732000052,72.1771732000052,72.1771732000052,72.54359419998946,72.54359419998946,72.54359419998946,72.54359419998946,72.54359419998946,72.54359419998946,72.54359419998946,72.54359419998946,72.54359419998946,20,4,"[0.0012320000096224248, 0.10018980002496392, 0.16698710003402084, 0.2504777000285685]","[0.017454000015277416, 0.11702330003026873, 0.1837665000348352, 0.2672054000431672]",72.54359419998946,72.74386750004487,0.0,72.74386750004487,0,0.0,0,1,1000,num_1,0.5461828999686986,,27,16,2026-03-05_14h24.04.381,2026A_exp2,2022.2.4,59.91076889788343,
1,0,0.0,3.7,0,0,9,9,2,,,,,73.31086289999075,73.96169800002826,73.96169800002826,74.44614810001804,45,315,74.44614810001804,74.44614810001804,74.44614810001804,74.44614810001804,74.44614810001804,74.44614810001804,74.44614810001804,74.44614810001804,74.44614810001804,74.81250870000804,74.81250870000804,74.81250870000804,74.81250870000804,74.81250870000804,74.81250870000804,74.81250870000804,74.81250870000804,74.81250870000804,23,0,,,74.81250870000804,75.01269589998992,0.0,75.01269589998992,0,0.0,0,1,1000,num_1,0.46195019996957853,,27,16,2026-03-05_14h24.04.381,2026A_exp2,2022.2.4,59.91076889788343,
1000,1,4.9,0.0,0,0,10,10,20,,,,,75.49638940003933,76.14948140003253,76.14948140003253,76.63150840002345,45,45,76.63150840002345,76.63150840002345,76.63150840002345,76.63150840002345,76.63150840002345,76.63150840002345,76.63150840002345,76.63150840002345,76.63150840002345,76.99810100003378,76.99810100003378,76.99810100003378,76.99810100003378,76.99810100003378,76.99810100003378,76.99810100003378,76.99810100003378,76.99810100003378,23,0,,,76.99810100003378,77.19873980002012,1000,77.19873980002012,1000,1000,1000,1000,0,num_3,0.47528670000610873,,27,16,2026-03-05_14h24.04.381,2026A_exp2,2022.2.4,59.91076889788343,
1,0,0.0,0.0,0,0,11,11,49,,,,,77.6986651000334,78.34927360003348,78.34927360003348,78.85053360002348,315,45,78.85053360002348,78.85053360002348,78.85053360002348,78.85053360002348,78.85053360002348,78.85053360002348,78.85053360002348,78.85053360002348,78.85053360002348,79.21652459999314,79.21652459999314,79.21652459999314,79.21652459999314,79.21652459999314,79.21652459999314,79.21652459999314,79.21652459999314,79.21652459999314,0,1,[0.0012427999754436314],[0.36728930001845583],79.21652459999314,79.43152780004311,0.0,79.43152780004311,0,0.0,0,1,1000,num_1,0.5380775000085123,,27,16,2026-03-05_14h24.04.381,2026A_exp2,2022.2.4,59.91076889788343,
1,0,6.1,3.7,0,0,12,12,86,,,,,80.00094050000189,80.65172630001325,80.65172630001325,81.13615979999304,45,315,81.13615979999304,81.13615979999304,81.13615979999304,81.13615979999304,81.13615979999304,81.13615979999304,81.13615979999304,81.13615979999304,81.13615979999304,81.50264080002671,81.50264080002671,81.50264080002671,81.50264080002671,81.50264080002671,81.50264080002671,81.50264080002671,81.50264080002671,81.50264080002671,23,0,,,81.50264080002671,81.70283500000369,6.1,81.70283500000369,1,6.1,1,1,1000,num_4,0.7791897999704815,,27,16,2026-03-05_14h24.04.381,2026A_exp2,2022.2.4,59.91076889788343,
1000,1,3.7,4.9,0,0,13,13,13,,,,,82.50340000004508,83.15423780004494,83.15423780004494,83.63866689999122,45,45,83.63866689999122,83.63866689999122,83.63866689999122,83.63866689999122,83.63866689999122,83.63866689999122,83.63866689999122,83.63866689999122,83.63866689999122,84.00510609999765,84.00510609999765,84.00510609999765,84.00510609999765,84.00510609999765,84.00510609999765,84.00510609999765,84.00510609999765,84.00510609999765,23,0,,,84.00510609999765,84.20710739999777,1000,84.20710739999777,1000,1000,1000,1000,1,num_2,0.43531130003975704,,27,16,2026-03-05_14h24.04.381,2026A_exp2,2022.2.4,59.91076889788343,
1000,1,4.9,0.0,1,0,14,14,28,,,,,84.67238950001774,85.3230717999977,85.3230717999977,85.82407780003268,45,315,85.82407780003268,85.82407780003268,85.82407780003268,85.82407780003268,85.82407780003268,85.82407780003268,85.82407780003268,85.82407780003268,85.82407780003268,86.19062569999369,86.19062569999369,86.19062569999369,86.19062569999369,86.19062569999369,86.19062569999369,86.19062569999369,86.19062569999369,86.19062569999369,21,1,[0.3338209999492392],[0.3671135999611579],86.19062569999369,86.39263250003569,1000,86.39263250003569,1000,1000,1000,1000,0,num_3,0.4735899000079371,,27,16,2026-03-05_14h24.04.381,2026A_exp2,2022.2.4,59.91076889788343,
1,0,3.7,4.9,0,0,15,15,84,,,,,86.89111630001571,87.54190390004078,87.54190390004078,88.04297539999243,315,315,88.04297539999243,88.04297539999243,88.04297539999243,88.04297539999243,88.04297539999243,88.04297539999243,88.04297539999243,88.04297539999243,88.04297539999243,88.40964359999634,88.40964359999634,88.40964359999634,88.40964359999634,88.40964359999634,88.40964359999634,88.40964359999634,88.40964359999634,88.40964359999634,23,0,,,88.40964359999634,88.60944950004341,3.7,88.60944950004341,0,3.7,1,0,1000,num_1,0.6399864999693818,,27,16,2026-03-05_14h24.04.381,2026A_exp2,2022.2.4,59.91076889788343,
1,0,6.1,0.0,0,0,16,16,24,,,,,89.27692710002884,89.92772470001364,89.92772470001364,90.42897450004239,315,315,90.42897450004239,90.42897450004239,90.42897450004239,90.42897450004239,90.42897450004239,90.42897450004239,90.42897450004239,90.42897450004239,90.42897450004239,90.79488570004469,90.79488570004469,90.79488570004469,90.79488570004469,90.79488570004469,90.79488570004469,90.79488570004469,90.79488570004469,90.79488570004469,23,0,,,90.79488570004469,90.99509040004341,6.1,90.99509040004341,1,6.1,1,1,1000,num_4,0.7349261000053957,,27,16,2026-03-05_14h24.04.381,2026A_exp2,2022.2.4,59.91076889788343,
1000,1,6.1,6.1,0,0,17,17,74,,,,,91.74616030004108,92.39669870003127,92.39669870003127,92.88125140004558,315,45,92.88125140004558,92.88125140004558,92.88125140004558,92.88125140004558,92.88125140004558,92.88125140004558,92.88125140004558,92.88125140004558,92.88125140004558,93.24765690002823,93.24765690002823,93.24765690002823,93.24765690002823,93.24765690002823,93.24765690002823,93.24765690002823,93.24765690002823,93.24765690002823,3,3,"[0.0012051999801769853, 0.20035419997293502, 0.30061239999486133]","[0.1670103999786079, 0.2837662000092678, 0.3672977999667637]",93.24765690002823,93.46832149999682,1000,93.46832149999682,1000,1000,1000,1000,1,num_2,0.44593650003662333,,27,16,2026-03-05_14h24.04.381,2026A_exp2,2022.2.4,59.91076889788343,
1000,1,3.7,0.0,0,0,18,18,37,,,,,93.93180810002377,94.58426860003965,94.58426860003965,95.08063470001798,45,315,95.08063470001798,95.08063470001798,95.08063470001798,95.08063470001798,95.08063470001798,95.08063470001798,95.08063470001798,95.08063470001798,95.08063470001798,95.43333630001871,95.43333630001871,95.43333630001871,95.43333630001871,95.43333630001871,95.43333630001871,95.43333630001871,95.43333630001871,95.43333630001871,23,0,,,95.43333630001871,95.63497579999967,1000,95.63497579999967,1000,1000,1000,1000,0,num_3,0.471359700022731,,27,16,2026-03-05_14h24.04.381,2026A_exp2,2022.2.4,59.91076889788343,
1000,1,6.1,6.1,0,0,19,19,50,,,,,96.13375209999504,96.7845365999965,96.7845365999965,97.29086880001705,45,45,97.29086880001705,97.29086880001705,97.29086880001705,97.29086880001705,97.29086880001705,97.29086880001705,97.29086880001705,97.29086880001705,97.29086880001705,97.65194760001032,97.65194760001032,97.65194760001032,97.65194760001032,97.65194760001032,97.65194760001032,97.65194760001032,97.65194760001032,97.65194760001032,23,0,,,97.65194760001032,97.85391000000527,1000,97.85391000000527,1000,1000,1000,1000,0,num_3,0.5153325999854133,,27,16,2026-03-05_14h24.04.381,2026A_exp2,2022.2.4,59.91076889788343,
1,0,0.0,4.9,0,0,20,20,35,,,,,98.38609030004591,99.03685670002596,99.03685670002596,99.53794160002144,315,45,99.53794160002144,99.53794160002144,99.53794160002144,99.53794160002144,99.53794160002144,99.53794160002144,99.53794160002144,99.53794160002144,99.53794160002144,99.90420480002649,99.90420480002649,99.90420480002649,99.90420480002649,99.90420480002649,99.90420480002649,99.90420480002649,99.90420480002649,99.90420480002649,23,0,,,99.90420480002649,100.10446589998901,0.0,100.10446589998901,0,0.0,0,1,1000,num_1,0.5216631999937817,,27,16,2026-03-05_14h24.04.381,2026A_exp2,2022.2.4,59.91076889788343,
1000,1,6.1,0.0,0,0,21,21,8,,,,,100.65495220001321,101.30585619999329,101.30585619999329,101.79014290001942,45,45,101.79014290001942,101.79014290001942,101.79014290001942,101.79014290001942,101.79014290001942,101.79014290001942,101.79014290001942,101.79014290001942,101.79014290001942,102.15649610001128,102.15649610001128,102.15649610001128,102.15649610001128,102.15649610001128,102.15649610001128,102.15649610001128,102.15649610001128,102.15649610001128,23,0,,,102.15649610001128,102.3587295000325,1000,102.3587295000325,1000,1000,1000,1000,0,num_3,0.43485330004477873,,27,16,2026-03-05_14h24.04.381,2026A_exp2,2022.2.4,59.91076889788343,
1000,1,0.0,0.0,1,0,22,22,42,,,,,102.82382460002555,103.47471540002152,103.47471540002152,103.9754293000442,315,45,103.9754293000442,103.9754293000442,103.9754293000442,103.9754293000442,103.9754293000442,103.9754293000442,103.9754293000442,103.9754293000442,103.9754293000442,104.34194660000503,104.34194660000503,104.34194660000503,104.34194660000503,104.34194660000503,104.34194660000503,104.34194660000503,104.34194660000503,104.34194660000503,23,0,,,104.34194660000503,104.54435089998879,1000,104.54435089998879,1000,1000,1000,1000,0,num_3,0.5295902999932878,,27,16,2026-03-05_14h24.04.381,2026A_exp2,2022.2.4,59.91076889788343,
1,0,0.0,0.0,1,0,23,23,82,,,,,105.09278690000065,105.74365880002733,105.74365880002733,106.24462770001264,45,315,106.24462770001264,106.24462770001264,106.24462770001264,106.24462770001264,106.24462770001264,106.24462770001264,106.24462770001264,106.24462770001264,106.24462770001264,106.59426859999076,106.59426859999076,106.59426859999076,106.59426859999076,106.59426859999076,106.59426859999076,106.59426859999076,106.59426859999076,106.59426859999076,22,0,,,106.59426859999076,106.7944892999949,0.0,106.7944892999949,1,0.0,0,0,1000,num_4,0.5760275999782607,,27,16,2026-03-05_14h24.04.381,2026A_exp2,2022.2.4,59.91076889788343,
1000,1,6.1,6.1,0,0,24,24,56,,,,,107.39528350002365,108.03838690003613,108.03838690003613,108.52986890001921,45,45,108.52986890001921,108.52986890001921,108.52986890001921,108.52986890001921,108.52986890001921,108.52986890001921,108.52986890001921,108.52986890001921,108.52986890001921,108.89659010001924,108.89659010001924,108.89659010001924,108.89659010001924,108.89659010001924,108.89659010001924,108.89659010001924,108.89659010001924,108.89659010001924,23,0,,,108.89659010001924,109.09850690001622,1000,109.09850690001622,1000,1000,1000,1000,0,num_3,0.4400857000146061,,27,16,2026-03-05_14h24.04.381,2026A_exp2,2022.2.4,59.91076889788343,
1000,1,6.1,0.0,1,0,25,25,52,,,,,109.5639160000137,110.21462580002844,110.21462580002844,110.6989639000385,315,45,110.6989639000385,110.6989639000385,110.6989639000385,110.6989639000385,110.6989639000385,110.6989639000385,110.6989639000385,110.6989639000385,110.6989639000385,111.06546489999164,111.06546489999164,111.06546489999164,111.06546489999164,111.06546489999164,111.06546489999164,111.06546489999164,111.06546489999164,111.06546489999164,11,4,"[0.0012221999932080507, 0.050216800009366125, 0.21700539998710155, 0.35043480002786964]","[0.03348580002784729, 0.06673399999272078, 0.33378390001598746, 0.36701570003060624]",111.06546489999164,111.26729290001094,1000,111.26729290001094,1000,1000,1000,1000,0,num_3,0.382940299983602,,27,16,2026-03-05_14h24.04.381,2026A_exp2,2022.2.4,59.91076889788343,
1,0,4.9,0.0,1,0,26,26,15,,,,,111.66866780002601,112.31674050004221,112.31674050004221,112.81784989999142,315,45,112.81784989999142,112.81784989999142,112.81784989999142,112.81784989999142,112.81784989999142,112.81784989999142,112.81784989999142,112.81784989999142,112.81784989999142,113.18417349999072,113.18417349999072,113.18417349999072,113.18417349999072,113.18417349999072,113.18417349999072,113.18417349999072,113.18417349999072,113.18417349999072,0,1,[0.0011743999784812331],[0.36693179997382686],113.18417349999072,113.38448770000832,0.0,113.38448770000832,0,0.0,0,1,1000,num_1,0.5129868999938481,,27,16,2026-03-05_14h24.04.381,2026A_exp2,2022.2.4,59.91076889788343,
1,0,3.7,4.9,0,0,27,27,31,,,,,113.91834490001202,114.55219740001485,114.55219740001485,115.05336270004045,45,45,115.05336270004045,115.05336270004045,115.05336270004045,115.05336270004045,115.05336270004045,115.05336270004045,115.05336270004045,115.05336270004045,115.05336270004045,115.41980790003436,115.41980790003436,115.41980790003436,115.41980790003436,115.41980790003436,115.41980790003436,115.41980790003436,115.41980790003436,115.41980790003436,23,0,,,115.41980790003436,115.62011020001955,3.7,115.62011020001955,0,3.7,1,0,1000,num_1,0.629808800003957,,27,16,2026-03-05_14h24.04.381,2026A_exp2,2022.2.4,59.91076889788343,
1000,1,0.0,0.0,1,0,28,28,71,,,,,116.27040310000302,116.92133320000721,116.92133320000721,117.4057574000326,45,315,117.4057574000326,117.4057574000326,117.4057574000326,117.4057574000326,117.4057574000326,117.4057574000326,117.4057574000326,117.4057574000326,117.4057574000326,117.7721100000199,117.7721100000199,117.7721100000199,117.7721100000199,117.7721100000199,117.7721100000199,117.7721100000199,117.7721100000199,117.7721100000199,23,0,,,117.7721100000199,118.00006610003766,1000,118.00006610003766,1000,1000,1000,1000,0,num_3,0.46586589998332784,,27,16,2026-03-05_14h24.04.381,2026A_exp2,2022.2.4,59.91076889788343,
1000,1,0.0,0.0,1,0,29,29,39,,,,,118.48936370003503,119.13998380000703,119.13998380000703,119.64128280000295,45,315,119.64128280000295,119.64128280000295,119.64128280000295,119.64128280000295,119.64128280000295,119.64128280000295,119.64128280000295,119.64128280000295,119.64128280000295,120.00777750002453,120.00777750002453,120.00777750002453,120.00777750002453,120.00777750002453,120.00777750002453,120.00777750002453,120.00777750002453,120.00777750002453,23,0,,,120.00777750002453,120.20992550003575,1000,120.20992550003575,1000,1000,1000,1000,1,num_2,0.5044569000019692,,27,16,2026-03-05_14h24.04.381,2026A_exp2,2022.2.4,59.91076889788343,
1000,1,4.9,4.9,1,0,30,30,26,,,,,120.74172779999208,121.39249070000369,121.39249070000369,121.89364480000222,45,315,121.89364480000222,121.89364480000222,121.89364480000222,121.89364480000222,121.89364480000222,121.89364480000222,121.89364480000222,121.89364480000222,121.89364480000222,122.25991349999094,122.25991349999094,122.25991349999094,122.25991349999094,122.25991349999094,122.25991349999094,122.25991349999094,122.25991349999094,122.25991349999094,23,0,,,122.25991349999094,122.46198140003253,1000,122.46198140003253,1000,1000,1000,1000,1,num_2,0.45195520005654544,,27,16,2026-03-05_14h24.04.381,2026A_exp2,2022.2.4,59.91076889788343,
1000,1,0.0,0.0,1,0,31,31,62,,,,,122.94394520000787,123.59463870001491,123.59463870001491,124.09536690003006,315,45,124.09536690003006,124.09536690003006,124.09536690003006,124.09536690003006,124.09536690003006,124.09536690003006,124.09536690003006,124.09536690003006,124.09536690003006,124.44565230002627,124.44565230002627,124.44565230002627,124.44565230002627,124.44565230002627,124.44565230002627,124.44565230002627,124.44565230002627,124.44565230002627,22,0,,,124.44565230002627,124.64732779999031,1000,124.66234270000132,1000,1000,1000,1000,1,num_2,0.5878642000025138,,27,16,2026-03-05_14h24.04.381,2026A_exp2,2022.2.4,59.91076889788343,
1,0,4.9,0.0,0,0,32,32,23,,,,,125.27948960004142,125.93028940004297,125.93028940004297,126.43147210002644,45,315,126.43147210002644,126.43147210002644,126.43147210002644,126.43147210002644,126.43147210002644,126.43147210002644,126.43147210002644,126.43147210002644,126.43147210002644,126.79782979999436,126.79782979999436,126.79782979999436,126.79782979999436,126.79782979999436,126.79782979999436,126.79782979999436,126.79782979999436,126.79782979999436,23,0,,,126.79782979999436,126.99799370003166,4.9,126.99799370003166,1,4.9,1,1,1000,num_4,0.628701200010255,,27,16,2026-03-05_14h24.04.381,2026A_exp2,2022.2.4,59.91076889788343,
1,0,0.0,4.9,1,0,33,33,36,,,,,127.64853950001998,128.2994214000064,128.2994214000064,128.78395710000768,45,45,128.78395710000768,128.78395710000768,128.78395710000768,128.78395710000768,128.78395710000768,128.78395710000768,128.78395710000768,128.78395710000768,128.78395710000768,129.15014909999445,129.15014909999445,129.15014909999445,129.15014909999445,129.15014909999445,129.15014909999445,129.15014909999445,129.15014909999445,129.15014909999445,23,0,,,129.15014909999445,129.35038680001162,4.9,129.35038680001162,1,4.9,1,1,1000,num_4,0.571927200013306,,27,16,2026-03-05_14h24.04.381,2026A_exp2,2022.2.4,59.91076889788343,
1000,1,3.7,0.0,1,0,34,34,33,,,,,129.95104840002023,130.60161980002886,130.60161980002886,131.10277009999845,315,45,131.10277009999845,131.10277009999845,131.10277009999845,131.10277009999845,131.10277009999845,131.10277009999845,131.10277009999845,131.10277009999845,131.10277009999845,131.46922960004304,131.46922960004304,131.46922960004304,131.46922960004304,131.46922960004304,131.46922960004304,131.46922960004304,131.46922960004304,131.46922960004304,23,0,,,131.46922960004304,131.67153650004184,1000,131.67153650004184,1000,1000,1000,1000,0,num_3,0.3946048999787308,,27,16,2026-03-05_14h24.04.381,2026A_exp2,2022.2.4,59.91076889788343,
1000,1,0.0,3.7,1,0,35,35,75,,,,,132.08645330002764,132.73715749999974,132.73715749999974,133.23812270001508,315,315,133.23812270001508,133.23812270001508,133.23812270001508,133.23812270001508,133.23812270001508,133.23812270001508,133.23812270001508,133.23812270001508,133.23812270001508,133.58796710002935,133.58796710002935,133.58796710002935,133.58796710002935,133.58796710002935,133.58796710002935,133.58796710002935,133.58796710002935,133.58796710002935,14,2,"[0.08350420003989711, 0.16690850001759827]","[0.13364720001118258, 0.250338300014846]",133.58796710002935,133.7900096999947,1000,133.7900096999947,1000,1000,1000,1000,1,num_2,0.45215900003677234,,27,16,2026-03-05_14h24.04.381,2026A_exp2,2022.2.4,59.91076889788343,
1,0,3.7,6.1,1,0,36,36,6,,,,,134.2727950999979,134.9239513000357,134.9239513000357,135.4237989000394,315,45,135.4237989000394,135.4237989000394,135.4237989000394,135.4237989000394,135.4237989000394,135.4237989000394,135.4237989000394,135.4237989000394,135.4237989000394,135.79015400004573,135.79015400004573,135.79015400004573,135.79015400004573,135.79015400004573,135.79015400004573,135.79015400004573,135.79015400004573,135.79015400004573,0,1,[0.0013046999811194837],[0.3671922999783419],135.79015400004573,135.99042770004598,6.1,135.99042770004598,0,6.1,1,0,1000,num_1,0.5314440000220202,,27,16,2026-03-05_14h24.04.381,2026A_exp2,2022.2.4,59.91076889788343,
1,0,0.0,0.0,0,0,37,37,66,,,,,136.54070650000358,137.19870970002376,137.19870970002376,137.68073850002838,315,315,137.68073850002838,137.68073850002838,137.68073850002838,137.68073850002838,137.68073850002838,137.68073850002838,137.68073850002838,137.68073850002838,137.68073850002838,138.0424001000356,138.0424001000356,138.0424001000356,138.0424001000356,138.0424001000356,138.0424001000356,138.0424001000356,138.0424001000356,138.0424001000356,23,0,,,138.0424001000356,138.242664600024,0.0,138.242664600024,1,0.0,0,0,1000,num_4,0.8078631000244059,,27,16,2026-03-05_14h24.04.381,2026A_exp2,2022.2.4,59.91076889788343,
1000,1,0.0,3.7,1,0,38,38,43,,,,,139.07665300002554,139.7274150000303,139.7274150000303,140.21173159999307,315,315,140.21173159999307,140.21173159999307,140.21173159999307,140.21173159999307,140.21173159999307,140.21173159999307,140.21173159999307,140.21173159999307,140.21173159999307,140.5783167000045,140.5783167000045,140.5783167000045,140.5783167000045,140.5783167000045,140.5783167000045,140.5783167000045,140.5783167000045,140.5783167000045,4,3,"[0.033289399987552315, 0.06674440001370385, 0.16676520003238693]","[0.0501704000052996, 0.15018430002965033, 0.3668724999879487]",140.5783167000045,140.78030400001444,1000,140.78030400001444,1000,1000,1000,1000,1,num_2,0.40557130001252517,,27,16,2026-03-05_14h24.04.381,2026A_exp2,2022.2.4,59.91076889788343,
1000,1,4.9,4.9,0,0,39,39,34,,,,,141.21213480003644,141.86283679999178,141.86283679999178,142.36406250001164,45,315,142.36406250001164,142.36406250001164,142.36406250001164,142.36406250001164,142.36406250001164,142.36406250001164,142.36406250001164,142.36406250001164,142.36406250001164,142.7304486000212,142.7304486000212,142.7304486000212,142.7304486000212,142.7304486000212,142.7304486000212,142.7304486000212,142.7304486000212,142.7304486000212,23,0,,,142.7304486000212,142.93271940003615,1000,142.93271940003615,1000,1000,1000,1000,1,num_2,0.5100203999900259,,27,16,2026-03-05_14h24.04.381,2026A_exp2,2022.2.4,59.91076889788343,
1,0,6.1,6.1,0,0,40,40,51,,,,,143.4644197000307,144.11517510004342,144.11517510004342,144.61630470003,45,315,144.61630470003,144.61630470003,144.61630470003,144.61630470003,144.61630470003,144.61630470003,144.61630470003,144.61630470003,144.61630470003,144.96593910001684,144.96593910001684,144.96593910001684,144.96593910001684,144.96593910001684,144.96593910001684,144.96593910001684,144.96593910001684,144.96593910001684,22,0,,,144.96593910001684,145.1784262000001,6.1,145.1784262000001,0,6.1,1,0,1000,num_1,0.6630131999845617,,27,16,2026-03-05_14h24.04.381,2026A_exp2,2022.2.4,59.91076889788343,
1000,1,3.7,6.1,0,0,41,41,81,,,,,145.8667878000415,146.5175828000065,146.5175828000065,147.00200310000218,315,315,147.00200310000218,147.00200310000218,147.00200310000218,147.00200310000218,147.00200310000218,147.00200310000218,147.00200310000218,147.00200310000218,147.00200310000218,147.36845770000946,147.36845770000946,147.36845770000946,147.36845770000946,147.36845770000946,147.36845770000946,147.36845770000946,147.36845770000946,147.36845770000946,23,0,,,147.36845770000946,147.5701881000423,1000,147.5701881000423,1000,1000,1000,1000,1,num_2,0.36030640004901215,,27,16,2026-03-05_14h24.04.381,2026A_exp2,2022.2.4,59.91076889788343,
0,0,0.0,0.0,0,0,42,42,4,,,,,147.95214900001884,148.60289500001818,148.60289500001818,149.10400550003396,45,315,149.10400550003396,149.10400550003396,149.10400550003396,149.10400550003396,149.10400550003396,149.10400550003396,149.10400550003396,149.10400550003396,149.10400550003396,149.45374500000617,149.45374500000617,149.45374500000617,149.45374500000617,149.45374500000617,149.45374500000617,149.45374500000617,149.45374500000617,149.45374500000617,22,0,,,149.45374500000617,149.6541023000027,0.0,149.6541023000027,1,0.0,0,0,1000,num_4,0.6689357999712229,,27,16,2026-03-05_14h24.04.381,2026A_exp2,2022.2.4,59.91076889788343,
1,0,3.7,3.7,1,0,43,43,64,,,,,150.3545495000435,151.00506049999967,151.00506049999967,151.48997390002478,315,45,151.48997390002478,151.48997390002478,151.48997390002478,151.48997390002478,151.48997390002478,151.48997390002478,151.48997390002478,151.48997390002478,151.48997390002478,151.85623259999556,151.85623259999556,151.85623259999556,151.85623259999556,151.85623259999556,151.85623259999556,151.85623259999556,151.85623259999556,151.85623259999556,23,0,,,151.85623259999556,152.0564127000398,3.7,152.0564127000398,0,3.7,1,0,1000,num_1,0.6254659999976866,,27,16,2026-03-05_14h24.04.381,2026A_exp2,2022.2.4,59.91076889788343,
1,0,6.1,4.9,0,0,44,44,30,,,,,152.70694629999343,153.35777750000125,153.35777750000125,153.84221329999855,45,45,153.84221329999855,153.84221329999855,153.84221329999855,153.84221329999855,153.84221329999855,153.84221329999855,153.84221329999855,153.84221329999855,153.84221329999855,154.2085624000174,154.2085624000174,154.2085624000174,154.2085624000174,154.2085624000174,154.2085624000174,154.2085624000174,154.2085624000174,154.2085624000174,0,1,[0.0012305999989621341],[0.3669625999755226],154.2085624000174,154.4086718999897,6.1,154.4086718999897,1,6.1,1,1,1000,num_4,0.5935264999861829,,27,16,2026-03-05_14h24.04.381,2026A_exp2,2022.2.4,59.91076889788343,
1000,1,6.1,3.7,0,0,45,45,61,,,,,155.0258315000101,155.67676810000557,155.67676810000557,156.16116680001142,45,45,156.16116680001142,156.16116680001142,156.16116680001142,156.16116680001142,156.16116680001142,156.16116680001142,156.16116680001142,156.16116680001142,156.16116680001142,156.527547100035,156.527547100035,156.527547100035,156.527547100035,156.527547100035,156.527547100035,156.527547100035,156.527547100035,156.527547100035,20,2,"[0.0012105999630875885, 0.05030079995049164]","[0.017366999993100762, 0.08347509999293834]",156.527547100035,156.72858350002207,1000,156.72858350002207,1000,1000,1000,1000,0,num_3,0.48953200003597885,,27,16,2026-03-05_14h24.04.381,2026A_exp2,2022.2.4,59.91076889788343,
1000,1,0.0,4.9,0,0,46,46,27,,,,,157.24720000004163,157.89560440002242,157.89560440002242,158.3966497000074,45,315,158.3966497000074,158.3966497000074,158.3966497000074,158.3966497000074,158.3966497000074,158.3966497000074,158.3966497000074,158.3966497000074,158.3966497000074,158.7632167999982,158.7632167999982,158.7632167999982,158.7632167999982,158.7632167999982,158.7632167999982,158.7632167999982,158.7632167999982,158.7632167999982,2,3,"[0.0011978000402450562, 0.033439200022257864, 0.2838128000148572]","[0.01728900003945455, 0.2669902000343427, 0.3670686000259593]",158.7632167999982,158.96342189999996,1000,158.96342189999996,1000,1000,1000,1000,1,num_2,0.39011849998496473,,27,16,2026-03-05_14h24.04.381,2026A_exp2,2022.2.4,59.91076889788343,
1,0,0.0,0.0,1,0,47,47,53,,,,,159.3803176000365,160.0310609000153,160.0310609000153,160.53223080001771,315,315,160.53223080001771,160.53223080001771,160.53223080001771,160.53223080001771,160.53223080001771,160.53223080001771,160.53223080001771,160.53223080001771,160.53223080001771,160.89873700001044,160.89873700001044,160.89873700001044,160.89873700001044,160.89873700001044,160.89873700001044,160.89873700001044,160.89873700001044,160.89873700001044,23,0,,,160.89873700001044,161.09885090001626,0.0,161.09885090001626,0,0.0,0,1,1000,num_1,0.5911210000049323,,27,16,2026-03-05_14h24.04.381,2026A_exp2,2022.2.4,59.91076889788343,
1000,1,0.0,3.7,0,0,48,48,32,,,,,161.71606720000273,162.36662210000213,162.36662210000213,162.85117050004192,45,45,162.85117050004192,162.85117050004192,162.85117050004192,162.85117050004192,162.85117050004192,162.85117050004192,162.85117050004192,162.85117050004192,162.85117050004192,163.21766150003532,163.21766150003532,163.21766150003532,163.21766150003532,163.21766150003532,163.21766150003532,163.21766150003532,163.21766150003532,163.21766150003532,18,1,[0.0011941000120714307],[0.08355330000631511],163.21766150003532,163.41851190000307,1000,163.41851190000307,1000,1000,1000,1000,1,num_2,0.4396997999865562,,27,16,2026-03-05_14h24.04.381,2026A_exp2,2022.2.4,59.91076889788343,
1,0,0.0,3.7,1,0,49,49,12,,,,,163.884766400035,164.53554030001396,164.53554030001396,165.03671650000615,315,45,165.03671650000615,165.03671650000615,165.03671650000615,165.03671650000615,165.03671650000615,165.03671650000615,165.03671650000615,165.03671650000615,165.03671650000615,165.40310980001232,165.40310980001232,165.40310980001232,165.40310980001232,165.40310980001232,165.40310980001232,165.40310980001232,165.40310980001232,165.40310980001232,2,2,"[0.017270300013478845, 0.06682850001379848]","[0.0501835000468418, 0.36733870004536584]",165.40310980001232,165.60335330001544,3.7,165.60335330001544,1,3.7,1,1,1000,num_4,0.5425424999557436,,27,16,2026-03-05_14h24.04.381,2026A_exp2,2022.2.4,59.91076889788343,
1,0,0.0,3.7,1,0,50,50,25,,,,,166.17041459999746,166.82116670004325,166.82116670004325,167.30551600002218,45,315,167.30551600002218,167.30551600002218,167.30551600002218,167.30551600002218,167.30551600002218,167.30551600002218,167.30551600002218,167.30551600002218,167.30551600002218,167.67202080000425,167.67202080000425,167.67202080000425,167.67202080000425,167.67202080000425,167.67202080000425,167.67202080000425,167.67202080000425,167.67202080000425,18,2,"[0.2507289999630302, 0.3511720999958925]","[0.3009390999795869, 0.3678478999645449]",167.67202080000425,167.87223670003004,3.7,167.87223670003004,1,3.7,1,1,1000,num_4,0.5224305000156164,,27,16,2026-03-05_14h24.04.381,2026A_exp2,2022.2.4,59.91076889788343,
1,0,4.9,0.0,1,0,51,51,48,,,,,168.42266780004138,169.0736154000042,169.0736154000042,169.55799770000158,45,315,169.55799770000158,169.55799770000158,169.55799770000158,169.55799770000158,169.55799770000158,169.55799770000158,169.55799770000158,169.55799770000158,169.55799770000158,169.92431620002026,169.92431620002026,169.92431620002026,169.92431620002026,169.92431620002026,169.92431620002026,169.92431620002026,169.92431620002026,169.92431620002026,8,4,"[0.000985699996817857, 0.06692509999265894, 0.11700450000353158, 0.2007836999837309]","[0.03353580000111833, 0.10039099998539314, 0.13368819997413084, 0.3673053999664262]",169.92431620002026,170.12446120003005,0.0,170.12446120003005,0,0.0,0,1,1000,num_1,0.45291599998017773,,27,16,2026-03-05_14h24.04.381,2026A_exp2,2022.2.4,59.91076889788343,
1000,1,6.1,4.9,0,0,52,52,77,,,,,170.60823440004606,171.2589165000245,171.2589165000245,171.75908320001327,315,45,171.75908320001327,171.75908320001327,171.75908320001327,171.75908320001327,171.75908320001327,171.75908320001327,171.75908320001327,171.75908320001327,171.75908320001327,172.1098229000345,172.1098229000345,172.1098229000345,172.1098229000345,172.1098229000345,172.1098229000345,172.1098229000345,172.1098229000345,172.1098229000345,16,3,"[0.0048940000124275684, 0.097957200021483, 0.16462709999177605]","[0.08137720002559945, 0.11478140001418069, 0.18062709999503568]",172.1098229000345,172.31188670004485,1000,172.31188670004485,1000,1000,1000,1000,0,num_3,0.5455827999976464,,27,16,2026-03-05_14h24.04.381,2026A_exp2,2022.2.4,59.91076889788343,
1000,1,4.9,4.9,1,0,53,53,60,,,,,172.8770975000225,173.52778689999832,173.52778689999832,174.04212540003937,315,315,174.04212540003937,174.04212540003937,174.04212540003937,174.04212540003937,174.04212540003937,174.04212540003937,174.04212540003937,174.04212540003937,174.04212540003937,174.39563690003706,174.39563690003706,174.39563690003706,174.39563690003706,174.39563690003706,174.39563690003706,174.39563690003706,174.39563690003706,174.39563690003706,23,0,,,174.39563690003706,174.60893340001348,1000,174.60893340001348,1000,1000,1000,1000,1,num_2,0.47277469997061417,,27,16,2026-03-05_14h24.04.381,2026A_exp2,2022.2.4,59.91076889788343,
1,0,6.1,0.0,1,0,54,54,38,,,,,175.11270540003898,175.7739216000191,175.7739216000191,176.26995019998867,315,315,176.26995019998867,176.26995019998867,176.26995019998867,176.26995019998867,176.26995019998867,176.26995019998867,176.26995019998867,176.26995019998867,176.26995019998867,176.6143435999984,176.6143435999984,176.6143435999984,176.6143435999984,176.6143435999984,176.6143435999984,176.6143435999984,176.6143435999984,176.6143435999984,22,0,,,176.6143435999984,176.81810189998941,0.0,176.81810189998941,0,0.0,0,1,1000,num_1,0.4872985999681987,,27,16,2026-03-05_14h24.04.381,2026A_exp2,2022.2.4,59.91076889788343,
1,0,0.0,0.0,0,0,55,55,0,,,,,177.33164889999898,177.9822092000395,177.9822092000395,178.48540970002068,315,45,178.48540970002068,178.48540970002068,178.48540970002068,178.48540970002068,178.48540970002068,178.48540970002068,178.48540970002068,178.48540970002068,178.48540970002068,178.83331600000383,178.83331600000383,178.83331600000383,178.83331600000383,178.83331600000383,178.83331600000383,178.83331600000383,178.83331600000383,178.83331600000383,22,0,,,178.83331600000383,179.03327110002283,0.0,179.03327110002283,1,0.0,0,0,1000,num_4,0.8885313000064343,,27,16,2026-03-05_14h24.04.381,2026A_exp2,2022.2.4,59.91076889788343,
1000,1,0.0,6.1,0,0,56,56,83,,,,,179.95095720002428,180.60163380001904,180.60163380001904,181.10298120003426,315,315,181.10298120003426,181.10298120003426,181.10298120003426,181.10298120003426,181.10298120003426,181.10298120003426,181.10298120003426,181.10298120003426,181.10298120003426,181.46912660001544,181.46912660001544,181.46912660001544,181.46912660001544,181.46912660001544,181.46912660001544,181.46912660001544,181.46912660001544,181.46912660001544,0,1,[0.0013401999603956938],[0.3670778999803588],181.46912660001544,181.67126430000644,1000,181.67126430000644,1000,1000,1000,1000,1,num_2,0.40209290001075715,,27,16,2026-03-05_14h24.04.381,2026A_exp2,2022.2.4,59.91076889788343,
1000,1,0.0,0.0,1,0,57,57,70,,,,,182.10323950002203,182.75383800000418,182.75383800000418,183.25482620002003,315,315,183.25482620002003,183.25482620002003,183.25482620002003,183.25482620002003,183.25482620002003,183.25482620002003,183.25482620002003,183.25482620002003,183.25482620002003,183.60458760004258,183.60458760004258,183.60458760004258,183.60458760004258,183.60458760004258,183.60458760004258,183.60458760004258,183.60458760004258,183.60458760004258,0,1,[0.0013560000224970281],[0.3504568000207655],183.60458760004258,183.80670240003383,1000,183.80670240003383,1000,1000,1000,1000,1,num_2,0.4673739999998361,,27,16,2026-03-05_14h24.04.381,2026A_exp2,2022.2.4,59.91076889788343,
1000,1,3.7,3.7,1,0,58,58,88,,,,,184.2886964000063,184.94853689998854,184.94853689998854,185.44048540003132,315,45,185.44048540003132,185.44048540003132,185.44048540003132,185.44048540003132,185.44048540003132,185.44048540003132,185.44048540003132,185.44048540003132,185.44048540003132,185.8067858000286,185.8067858000286,185.8067858000286,185.8067858000286,185.8067858000286,185.8067858000286,185.8067858000286,185.8067858000286,185.8067858000286,2,1,[0.03340320003917441],[0.3672647000057623],185.8067858000286,186.00717769999756,1000,186.00717769999756,1000,1000,1000,1000,1,num_2,0.49037690000841394,,27,16,2026-03-05_14h24.04.381,2026A_exp2,2022.2.4,59.91076889788343,
1,0,6.1,0.0,1,0,59,59,54,,,,,186.5241050000186,187.17510819999734,187.17510819999734,187.6759463000344,45,45,187.6759463000344,187.6759463000344,187.6759463000344,187.6759463000344,187.6759463000344,187.6759463000344,187.6759463000344,187.6759463000344,187.6759463000344,188.04229150002357,188.04229150002357,188.04229150002357,188.04229150002357,188.04229150002357,188.04229150002357,188.04229150002357,188.04229150002357,188.04229150002357,17,4,"[0.0012408000184223056, 0.10017320001497865, 0.1668261000304483, 0.3171439000288956]","[0.0502072999952361, 0.11679420003201813, 0.183523400046397, 0.33386190002784133]",188.04229150002357,188.2425376000465,0.0,188.2425376000465,0,0.0,0,1,1000,num_1,0.4638449000194669,,27,16,2026-03-05_14h24.04.381,2026A_exp2,2022.2.4,59.91076889788343,
0,0,3.7,3.7,0,0,60,60,63,,,,,188.72626379999565,189.37706020002952,189.37706020002952,189.8782509000157,45,45,189.8782509000157,189.8782509000157,189.8782509000157,189.8782509000157,189.8782509000157,189.8782509000157,189.8782509000157,189.8782509000157,189.8782509000157,190.2279433000367,190.2279433000367,190.2279433000367,190.2279433000367,190.2279433000367,190.2279433000367,190.2279433000367,190.2279433000367,190.2279433000367,21,1,[0.05033040000125766],[0.06683460000203922],190.2279433000367,190.4279921000125,3.7,190.4279921000125,1,3.7,1,1,1000,num_4,0.765276999969501,,27,16,2026-03-05_14h24.04.381,2026A_exp2,2022.2.4,59.91076889788343,
1000,1,0.0,6.1,1,0,61,61,3,,,,,191.21202969999285,191.8629663999891,191.8629663999891,192.34736469999189,45,315,192.34736469999189,192.34736469999189,192.34736469999189,192.34736469999189,192.34736469999189,192.34736469999189,192.34736469999189,192.34736469999189,192.34736469999189,192.71380690002115,192.71380690002115,192.71380690002115,192.71380690002115,192.71380690002115,192.71380690002115,192.71380690002115,192.71380690002115,192.71380690002115,17,2,"[0.0012253999593667686, 0.36710849998053163]","[0.08344449999276549, 0.36711409996496513]",192.71380690002115,192.91558080003597,1000,192.91558080003597,1000,1000,1000,1000,1,num_2,0.4867563999723643,,27,16,2026-03-05_14h24.04.381,2026A_exp2,2022.2.4,59.91076889788343,
1000,1,0.0,0.0,0,0,62,62,41,,,,,193.43111090001184,194.08173590002116,194.08173590002116,194.5828812000109,45,315,194.5828812000109,194.5828812000109,194.5828812000109,194.5828812000109,194.5828812000109,194.5828812000109,194.5828812000109,194.5828812000109,194.5828812000109,194.93266109999968,194.93266109999968,194.93266109999968,194.93266109999968,194.93266109999968,194.93266109999968,194.93266109999968,194.93266109999968,194.93266109999968,13,1,[0.001250099972821772],[0.15012629999546334],194.93266109999968,195.13472780003212,1000,195.1494920999976,1000,1000,1000,1000,1,num_2,0.40497610002057627,,27,16,2026-03-05_14h24.04.381,2026A_exp2,2022.2.4,59.91076889788343,
1000,1,0.0,4.9,1,0,63,63,73,,,,,195.5832964000292,196.23389060003683,196.23389060003683,196.72732360003283,45,45,196.72732360003283,196.72732360003283,196.72732360003283,196.72732360003283,196.72732360003283,196.72732360003283,196.72732360003283,196.72732360003283,196.72732360003283,197.1015630000038,197.1015630000038,197.1015630000038,197.1015630000038,197.1015630000038,197.1015630000038,197.1015630000038,197.1015630000038,197.1015630000038,24,0,,,197.1015630000038,197.3059012000449,1000,197.3059012000449,1000,1000,1000,1000,1,num_2,0.43189370003528893,,27,16,2026-03-05_14h24.04.381,2026A_exp2,2022.2.4,59.91076889788343,
1000,1,0.0,0.0,0,0,64,64,5,,,,,197.76887830003398,198.41928190004546,198.41928190004546,198.92040599999018,315,315,198.92040599999018,198.92040599999018,198.92040599999018,198.92040599999018,198.92040599999018,198.92040599999018,198.92040599999018,198.92040599999018,198.92040599999018,199.2704270000104,199.2704270000104,199.2704270000104,199.2704270000104,199.2704270000104,199.2704270000104,199.2704270000104,199.2704270000104,199.2704270000104,22,0,,,199.2704270000104,199.47260020003887,1000,199.4871348000015,1000,1000,1000,1000,1,num_2,0.49831180000910535,,27,16,2026-03-05_14h24.04.381,2026A_exp2,2022.2.4,59.91076889788343,
1000,1,6.1,4.9,1,0,65,65,76,,,,,200.00431620003656,200.6549934000359,200.6549934000359,201.15613170003053,45,315,201.15613170003053,201.15613170003053,201.15613170003053,201.15613170003053,201.15613170003053,201.15613170003053,201.15613170003053,201.15613170003053,201.15613170003053,201.5239789999905,201.5239789999905,201.5239789999905,201.5239789999905,201.5239789999905,201.5239789999905,201.5239789999905,201.5239789999905,201.5239789999905,23,0,,,201.5239789999905,,1000,201.7405260000378,1000,1000,1000,1000,0,num_3,0.990104699973017,,27,16,2026-03-05_14h24.04.381,2026A_exp2,2022.2.4,59.91076889788343,
1000,1,6.1,0.0,0,0,66,66,68,,,,,202.76132849999703,203.40808070002822,203.40808070002822,203.9088893000153,45,45,203.9088893000153,203.9088893000153,203.9088893000153,203.9088893000153,203.9088893000153,203.9088893000153,203.9088893000153,203.9088893000153,203.9088893000153,204.27533440000843,204.27533440000843,204.27533440000843,204.27533440000843,204.27533440000843,204.27533440000843,204.27533440000843,204.27533440000843,204.27533440000843,23,0,,,204.27533440000843,204.47717010002816,1000,204.47717010002816,1000,1000,1000,1000,0,num_3,0.35625239997170866,,27,16,2026-03-05_14h24.04.381,2026A_exp2,2022.2.4,59.91076889788343,
1000,1,4.9,0.0,0,0,67,67,78,,,,,204.85932150000008,205.50981330004288,205.50981330004288,206.01091529999394,315,315,206.01091529999394,206.01091529999394,206.01091529999394,206.01091529999394,206.01091529999394,206.01091529999394,206.01091529999394,206.01091529999394,206.01091529999394,206.36057820002316,206.36057820002316,206.36057820002316,206.36057820002316,206.36057820002316,206.36057820002316,206.36057820002316,206.36057820002316,206.36057820002316,19,1,[0.0012288999860174954],[0.04996719997143373],206.36057820002316,206.56261429999722,1000,206.56261429999722,1000,1000,1000,1000,0,num_3,0.3349780000280589,,27,16,2026-03-05_14h24.04.381,2026A_exp2,2022.2.4,59.91076889788343,
0,0,0.0,0.0,0,0,68,68,69,,,,,206.9279688000097,207.58135610003956,207.58135610003956,208.08518320001895,315,45,208.08518320001895,208.08518320001895,208.08518320001895,208.08518320001895,208.08518320001895,208.08518320001895,208.08518320001895,208.08518320001895,208.08518320001895,208.4296510000131,208.4296510000131,208.4296510000131,208.4296510000131,208.4296510000131,208.4296510000131,208.4296510000131,208.4296510000131,208.4296510000131,0,1,[0.0025470000109635293],[0.3504873000201769],208.4296510000131,208.63381369999843,0.0,208.63381369999843,0,0.0,0,1,1000,num_1,0.7281661999877542,,27,16,2026-03-05_14h24.04.381,2026A_exp2,2022.2.4,59.91076889788343,
1000,1,6.1,0.0,1,0,69,69,79,,,,,209.3804863000405,210.01438639999833,210.01438639999833,210.5154431000119,45,45,210.5154431000119,210.5154431000119,210.5154431000119,210.5154431000119,210.5154431000119,210.5154431000119,210.5154431000119,210.5154431000119,210.5154431000119,210.88195670000277,210.88195670000277,210.88195670000277,210.88195670000277,210.88195670000277,210.88195670000277,210.88195670000277,210.88195670000277,210.88195670000277,20,2,"[0.20049570000264794, 0.3172787000075914]","[0.23392889997921884, 0.33397490001516417]",210.88195670000277,211.08213870000327,1000,211.08213870000327,1000,1000,1000,1000,0,num_3,0.3753084000200033,,27,16,2026-03-05_14h24.04.381,2026A_exp2,2022.2.4,59.91076889788343,
1000,1,3.7,0.0,1,0,70,70,21,,,,,211.48235110001406,212.133143700019,212.133143700019,212.63433910004096,315,315,212.63433910004096,212.63433910004096,212.63433910004096,212.63433910004096,212.63433910004096,212.63433910004096,212.63433910004096,212.63433910004096,212.63433910004096,213.0007356000133,213.0007356000133,213.0007356000133,213.0007356000133,213.0007356000133,213.0007356000133,213.0007356000133,213.0007356000133,213.0007356000133,23,0,,,213.0007356000133,213.22524830000475,1000,213.22524830000475,1000,1000,1000,1000,0,num_3,0.31218720000470057,,27,16,2026-03-05_14h24.04.381,2026A_exp2,2022.2.4,59.91076889788343,
1,0,6.1,6.1,0,0,71,71,11,,,,,213.56768500001635,214.2184969999944,214.2184969999944,214.71971500001382,45,45,214.71971500001382,214.71971500001382,214.71971500001382,214.71971500001382,214.71971500001382,214.71971500001382,214.71971500001382,214.71971500001382,214.71971500001382,215.0695929999929,215.0695929999929,215.0695929999929,215.0695929999929,215.0695929999929,215.0695929999929,215.0695929999929,215.0695929999929,215.0695929999929,22,0,,,215.0695929999929,215.28086769999936,6.1,215.28086769999936,1,6.1,1,1,1000,num_4,0.9930451000109315,,27,16,2026-03-05_14h24.04.381,2026A_exp2,2022.2.4,59.91076889788343,
1000,1,4.9,6.1,1,0,72,72,18,,,,,216.30396640003892,216.9548119000392,216.9548119000392,217.44392500002868,45,45,217.44392500002868,217.44392500002868,217.44392500002868,217.44392500002868,217.44392500002868,217.44392500002868,217.44392500002868,217.44392500002868,217.44392500002868,217.8056073000189,217.8056073000189,217.8056073000189,217.8056073000189,217.8056073000189,217.8056073000189,217.8056073000189,217.8056073000189,217.8056073000189,23,0,,,217.8056073000189,218.00829279999016,1000,218.00829279999016,1000,1000,1000,1000,0,num_3,0.5929747000336647,,27,16,2026-03-05_14h24.04.381,2026A_exp2,2022.2.4,59.91076889788343,
1,0,4.9,0.0,0,0,73,73,87,,,,,218.6227426000405,219.2737790000392,219.2737790000392,219.77480529999593,315,315,219.77480529999593,219.77480529999593,219.77480529999593,219.77480529999593,219.77480529999593,219.77480529999593,219.77480529999593,219.77480529999593,219.77480529999593,220.141031200008,220.141031200008,220.141031200008,220.141031200008,220.141031200008,220.141031200008,220.141031200008,220.141031200008,220.141031200008,0,1,[0.0012984999921172857],[0.36708259995793924],220.141031200008,220.34137090004515,4.9,220.34137090004515,1,4.9,1,1,1000,num_4,0.5969141999958083,,27,16,2026-03-05_14h24.04.381,2026A_exp2,2022.2.4,59.91076889788343,
1000,1,3.7,0.0,1,0,74,74,44,,,,,220.95846059999894,221.61743980000028,221.61743980000028,222.09379290003562,45,315,222.09379290003562,222.09379290003562,222.09379290003562,222.09379290003562,222.09379290003562,222.09379290003562,222.09379290003562,222.09379290003562,222.09379290003562,222.46016930002952,222.46016930002952,222.46016930002952,222.46016930002952,222.46016930002952,222.46016930002952,222.46016930002952,222.46016930002952,222.46016930002952,5,3,"[0.050126600021030754, 0.13366320001659915, 0.3672651000088081]","[0.11701370001537725, 0.35041549999732524, 0.36727039999095723]",222.46016930002952,222.66273490001913,1000,222.66273490001913,1000,1000,1000,1000,0,num_3,0.5399836000287905,,27,16,2026-03-05_14h24.04.381,2026A_exp2,2022.2.4,59.91076889788343,
1,0,6.1,6.1,1,0,75,75,89,,,,,223.22746359999292,223.88876470003743,223.88876470003743,224.37943440000527,315,315,224.37943440000527,224.37943440000527,224.37943440000527,224.37943440000527,224.37943440000527,224.37943440000527,224.37943440000527,224.37943440000527,224.37943440000527,224.74576290004188,224.74576290004188,224.74576290004188,224.74576290004188,224.74576290004188,224.74576290004188,224.74576290004188,224.74576290004188,224.74576290004188,22,1,[0.0011837999918498099],[0.017532199970446527],224.74576290004188,224.94586650002748,6.1,224.94586650002748,1,6.1,1,1,1000,num_4,0.8155342999962159,,27,16,2026-03-05_14h24.04.381,2026A_exp2,2022.2.4,59.91076889788343,
1000,1,3.7,3.7,1,0,76,76,46,,,,,225.77997700002743,226.43079469999066,226.43079469999066,226.91528479999397,45,45,226.91528479999397,226.91528479999397,226.91528479999397,226.91528479999397,226.91528479999397,226.91528479999397,226.91528479999397,226.91528479999397,226.91528479999397,227.28149510000367,227.28149510000367,227.28149510000367,227.28149510000367,227.28149510000367,227.28149510000367,227.28149510000367,227.28149510000367,227.28149510000367,23,0,,,227.28149510000367,227.48193770000944,1000,227.48193770000944,1000,1000,1000,1000,0,num_3,0.5518635000335053,,27,16,2026-03-05_14h24.04.381,2026A_exp2,2022.2.4,59.91076889788343,
1,0,0.0,4.9,1,0,77,77,65,,,,,228.0491469000117,228.69980310002575,228.69980310002575,229.20078010001453,315,315,229.20078010001453,229.20078010001453,229.20078010001453,229.20078010001453,229.20078010001453,229.20078010001453,229.20078010001453,229.20078010001453,229.20078010001453,229.56718850001926,229.56718850001926,229.56718850001926,229.56718850001926,229.56718850001926,229.56718850001926,229.56718850001926,229.56718850001926,229.56718850001926,22,2,"[0.33387480000965297, 0.3673520000302233]","[0.35053250001510605, 0.36735670000780374]",229.56718850001926,229.77883070003008,4.9,229.77883070003008,1,4.9,1,1,1000,num_4,0.5278628999949433,,27,16,2026-03-05_14h24.04.381,2026A_exp2,2022.2.4,59.91076889788343,
1,0,0.0,6.1,0,0,78,78,72,,,,,230.3344858000055,230.98536970000714,230.98536970000714,231.4698488000431,45,45,231.4698488000431,231.4698488000431,231.4698488000431,231.4698488000431,231.4698488000431,231.4698488000431,231.4698488000431,231.4698488000431,231.4698488000431,231.83634660003008,231.83634660003008,231.83634660003008,231.83634660003008,231.83634660003008,231.83634660003008,231.83634660003008,231.83634660003008,231.83634660003008,2,1,[0.033501300029456615],[0.3684147000312805],231.83634660003008,232.04030769999372,0.0,232.04030769999372,0,0.0,0,1,1000,num_1,0.9131294999970123,,27,16,2026-03-05_14h24.04.381,2026A_exp2,2022.2.4,59.91076889788343,
0,0,3.7,6.1,1,0,79,79,17,,,,,232.97055830003228,233.62112289998913,233.62112289998913,234.1210143000353,45,45,234.1210143000353,234.1210143000353,234.1210143000353,234.1210143000353,234.1210143000353,234.1210143000353,234.1210143000353,234.1210143000353,234.1210143000353,234.4720552000217,234.4720552000217,234.4720552000217,234.4720552000217,234.4720552000217,234.4720552000217,234.4720552000217,234.4720552000217,234.4720552000217,20,3,"[0.003971699974499643, 0.055205499986186624, 0.09851779998280108]","[0.030984999961219728, 0.08132339996518567, 0.11496869998518378]",234.4720552000217,234.67226140003186,3.7,234.67226140003186,0,3.7,1,0,1000,num_1,0.5533928000368178,,27,16,2026-03-05_14h24.04.381,2026A_exp2,2022.2.4,59.91076889788343,
0,0,0.0,0.0,0,0,80,80,67,,,,,235.2564793000347,235.90683200000785,235.90683200000785,236.39136270002928,315,315,236.39136270002928,236.39136270002928,236.39136270002928,236.39136270002928,236.39136270002928,236.39136270002928,236.39136270002928,236.39136270002928,236.39136270002928,236.75784350000322,236.75784350000322,236.75784350000322,236.75784350000322,236.75784350000322,236.75784350000322,236.75784350000322,236.75784350000322,236.75784350000322,0,1,[0.0012118000304326415],[0.3672487000003457],236.75784350000322,236.95793690002756,0.0,236.95793690002756,0,0.0,0,1,1000,num_1,0.48329510004259646,,27,16,2026-03-05_14h24.04.381,2026A_exp2,2022.2.4,59.91076889788343,
1000,1,3.7,3.7,0,0,81,81,16,,,,,237.4583156000008,238.11162060004426,238.11162060004426,238.59354800003348,315,315,238.59354800003348,238.59354800003348,238.59354800003348,238.59354800003348,238.59354800003348,238.59354800003348,238.59354800003348,238.59354800003348,238.59354800003348,238.9599647000432,238.9599647000432,238.9599647000432,238.9599647000432,238.9599647000432,238.9599647000432,238.9599647000432,238.9599647000432,238.9599647000432,23,0,,,238.9599647000432,239.1721242000349,1000,239.1721242000349,1000,1000,1000,1000,1,num_2,0.47728940000524744,,27,16,2026-03-05_14h24.04.381,2026A_exp2,2022.2.4,59.91076889788343,
1000,1,0.0,0.0,1,0,82,82,40,,,,,239.67727939999895,240.32801880000625,240.32801880000625,240.82910030003404,45,45,240.82910030003404,240.82910030003404,240.82910030003404,240.82910030003404,240.82910030003404,240.82910030003404,240.82910030003404,240.82910030003404,240.82910030003404,241.1954509000061,241.1954509000061,241.1954509000061,241.1954509000061,241.1954509000061,241.1954509000061,241.1954509000061,241.1954509000061,241.1954509000061,23,0,,,241.1954509000061,241.39777899999171,1000,241.39777899999171,1000,1000,1000,1000,1,num_2,0.6202487000264227,,27,16,2026-03-05_14h24.04.381,2026A_exp2,2022.2.4,59.91076889788343,
1,0,0.0,0.0,0,0,83,83,19,,,,,242.04633060004562,242.69711960002314,242.69711960002314,243.1981277000159,315,315,243.1981277000159,243.1981277000159,243.1981277000159,243.1981277000159,243.1981277000159,243.1981277000159,243.1981277000159,243.1981277000159,243.1981277000159,243.56445430003805,243.56445430003805,243.56445430003805,243.56445430003805,243.56445430003805,243.56445430003805,243.56445430003805,243.56445430003805,243.56445430003805,23,0,,,243.56445430003805,243.7648135999916,0.0,243.7648135999916,0,0.0,0,1,1000,num_1,0.8290689999703318,,27,16,2026-03-05_14h24.04.381,2026A_exp2,2022.2.4,59.91076889788343,
1,0,3.7,6.1,0,0,84,84,55,,,,,244.61534350004513,245.2663823000039,245.2663823000039,245.76619039999787,45,315,245.76619039999787,245.76619039999787,245.76619039999787,245.76619039999787,245.76619039999787,245.76619039999787,245.76619039999787,245.76619039999787,245.76619039999787,246.11726110003656,246.11726110003656,246.11726110003656,246.11726110003656,246.11726110003656,246.11726110003656,246.11726110003656,246.11726110003656,246.11726110003656,23,0,,,246.11726110003656,246.31731020001462,3.7,246.31731020001462,0,3.7,1,0,1000,num_1,0.5573269999586046,,27,16,2026-03-05_14h24.04.381,2026A_exp2,2022.2.4,59.91076889788343,
1000,1,6.1,3.7,1,0,85,85,45,,,,,246.90100569999777,247.55200240004342,247.55200240004342,248.03639339999063,45,45,248.03639339999063,248.03639339999063,248.03639339999063,248.03639339999063,248.03639339999063,248.03639339999063,248.03639339999063,248.03639339999063,248.03639339999063,248.40284070000052,248.40284070000052,248.40284070000052,248.40284070000052,248.40284070000052,248.40284070000052,248.40284070000052,248.40284070000052,248.40284070000052,6,3,"[0.017493800027295947, 0.167053000011947, 0.20035350002581254]","[0.10047629999462515, 0.18353150004986674, 0.36707070004194975]",248.40284070000052,248.60450280003715,1000,248.60450280003715,1000,1000,1000,1000,0,num_3,0.5416044999728911,,27,16,2026-03-05_14h24.04.381,2026A_exp2,2022.2.4,59.91076889788343,
1000,1,4.9,0.0,1,0,86,86,7,,,,,249.1702401000075,249.8209280000301,249.8209280000301,250.3218439000193,45,45,250.3218439000193,250.3218439000193,250.3218439000193,250.3218439000193,250.3218439000193,250.3218439000193,250.3218439000193,250.3218439000193,250.3218439000193,250.67165930004558,250.67165930004558,250.67165930004558,250.67165930004558,250.67165930004558,250.67165930004558,250.67165930004558,250.67165930004558,250.67165930004558,7,5,"[0.0008184000034816563, 0.0838899000082165, 0.15054339997004718, 0.23398369998903945, 0.35117179999360815]","[0.06714449997525662, 0.11725220002699643, 0.20071419997839257, 0.3176517999963835, 0.35117779998108745]",250.67165930004558,250.87354190001497,1000,250.8885513000423,1000,1000,1000,1000,0,num_3,0.632748999982141,,27,16,2026-03-05_14h24.04.381,2026A_exp2,2022.2.4,59.91076889788343,
1000,1,4.9,3.7,1,0,87,87,14,,,,,251.5390766999917,252.18992670002626,252.18992670002626,252.6911526999902,315,315,252.6911526999902,252.6911526999902,252.6911526999902,252.6911526999902,252.6911526999902,252.6911526999902,252.6911526999902,252.6911526999902,252.6911526999902,253.05743990000337,253.05743990000337,253.05743990000337,253.05743990000337,253.05743990000337,253.05743990000337,253.05743990000337,253.05743990000337,253.05743990000337,23,0,,,253.05743990000337,253.2595307000447,1000,253.2595307000447,1000,1000,1000,1000,0,num_3,0.5183581000310369,,27,16,2026-03-05_14h24.04.381,2026A_exp2,2022.2.4,59.91076889788343,
1,0,0.0,3.7,1,0,88,88,10,,,,,253.80821230000583,254.45876559999306,254.45876559999306,254.95981999998912,315,45,254.95981999998912,254.95981999998912,254.95981999998912,254.95981999998912,254.95981999998912,254.95981999998912,254.95981999998912,254.95981999998912,254.95981999998912,255.3261979999952,255.3261979999952,255.3261979999952,255.3261979999952,255.3261979999952,255.3261979999952,255.3261979999952,255.3261979999952,255.3261979999952,2,3,"[0.001191799994558096, 0.1168333999812603, 0.2837611999711953]","[0.1001168999937363, 0.26703679998172447, 0.3666852999594994]",255.3261979999952,255.52640969998902,3.7,255.52640969998902,1,3.7,1,1,1000,num_4,0.5628337999805808,,27,16,2026-03-05_14h24.04.381,2026A_exp2,2022.2.4,59.91076889788343,
1,0,0.0,3.7,0,0,89,89,22,,,,,256.110391299997,256.7610396000091,256.7610396000091,257.262165800028,315,45,257.262165800028,257.262165800028,257.262165800028,257.262165800028,257.262165800028,257.262165800028,257.262165800028,257.262165800028,257.262165800028,257.6286604999914,257.6286604999914,257.6286604999914,257.6286604999914,257.6286604999914,257.6286604999914,257.6286604999914,257.6286604999914,257.6286604999914,23,0,,,257.6286604999914,257.82875819999026,0.0,257.82875819999026,0,0.0,0,1,1000,num_1,0.5489802000229247,,27,16,2026-03-05_14h24.04.381,2026A_exp2,2022.2.4,59.91076889788343,
,,,,,,,,,,,,,,,,,,,,,,,,,,,,,,,,,,,,,,,,,,,,,,,,,,,,258.403205300041,,,,,,,
