validity,detectorcomp,contrastCW,contrastCCW,precueCWorCCW,block_80trials.thisRepN,block_80trials.thisTrialN,block_80trials.thisN,block_80trials.thisIndex,etRecord.started,etRecord.stopped,text.started,text.stopped,text_4.started,text_4.stopped,text_6.started,text_6.stopped,oriCW,oriCCW,roi_2.started,grating_UR.started,grating_UL.started,grating_LR.started,grating_LL.started,noise_UR.started,noise_UL.started,noise_LR.started,noise_LL.started,roi_2.stopped,grating_UR.stopped,grating_UL.stopped,grating_LR.stopped,grating_LL.stopped,noise_UR.stopped,noise_UL.stopped,noise_LR.stopped,noise_LL.stopped,outframe,roi_2.numLooks,roi_2.timesOn,roi_2.timesOff,text_2.started,text_2.stopped,probedcontrast,key_resp.started,respdetect,relevantContrast,correctDetect,TorFdetect,respCWorCCW,key_resp.keys,key_resp.rt,feedback_display_.started,participantNo,blockNo,date,expName,psychopyVersion,frameRate,
0,0,6.1,0.0,1,0,0,0,30,3.2899988582357764e-05,3.2899988582357764e-05,70.49290290000499,72.49835470001562,72.49835470001562,73.1297126999998,73.1297126999998,73.65364770000451,45,45,73.65364770000451,73.65364770000451,73.65364770000451,73.65364770000451,73.65364770000451,73.65364770000451,73.65364770000451,73.65364770000451,73.65364770000451,73.99716840000474,73.99716840000474,73.99716840000474,73.99716840000474,73.99716840000474,73.99716840000474,73.99716840000474,73.99716840000474,73.99716840000474,0,1,[0.0011089000036008656],[0.3650428999972064],73.99716840000474,74.19739869999466,6.1,74.19739869999466,1,6.1,1,1,1000,num_4,3.257098500005668,,21,1,2026-03-02_17h12.18.203,2026A_exp2,2022.2.4,59.914143034916535,
1000,1,0.0,0.0,1,0,1,1,23,,,,,77.48409899999388,78.13485570001649,78.13485570001649,78.61922540000523,45,315,78.61922540000523,78.61922540000523,78.61922540000523,78.61922540000523,78.61922540000523,78.61922540000523,78.61922540000523,78.61922540000523,78.61922540000523,78.98576740000863,78.98576740000863,78.98576740000863,78.98576740000863,78.98576740000863,78.98576740000863,78.98576740000863,78.98576740000863,78.98576740000863,0,1,[0.0007674999942537397],[0.36723249999340624],78.98576740000863,79.1860408000066,1000,79.1860408000066,1000,1000,1000,1000,0,num_3,2.508708300010767,,21,1,2026-03-02_17h12.18.203,2026A_exp2,2022.2.4,59.914143034916535,
1000,1,0.0,6.1,1,0,2,2,52,,,,,81.72186240000883,82.37216900000931,82.37216900000931,82.8566941000172,315,45,82.8566941000172,82.8566941000172,82.8566941000172,82.8566941000172,82.8566941000172,82.8566941000172,82.8566941000172,82.8566941000172,82.8566941000172,83.22303680001642,83.22303680001642,83.22303680001642,83.22303680001642,83.22303680001642,83.22303680001642,83.22303680001642,83.22303680001642,83.22303680001642,0,1,[0.0011656999995466322],[0.36663609999231994],83.22303680001642,83.42345000000205,1000,83.42345000000205,1000,1000,1000,1000,1,num_2,0.9196904000127688,,21,1,2026-03-02_17h12.18.203,2026A_exp2,2022.2.4,59.914143034916535,
1,0,6.1,6.1,0,0,3,3,27,,,,,84.3742815000005,85.02495059999637,85.02495059999637,85.50937580000027,315,45,85.50937580000027,85.50937580000027,85.50937580000027,85.50937580000027,85.50937580000027,85.50937580000027,85.50937580000027,85.50937580000027,85.50937580000027,85.87581900000805,85.87581900000805,85.87581900000805,85.87581900000805,85.87581900000805,85.87581900000805,85.87581900000805,85.87581900000805,85.87581900000805,0,1,[0.0007370999956037849],[0.3677707999886479],85.87581900000805,86.07588839999516,6.1,86.07588839999516,1,6.1,1,1,1000,num_4,2.0910173000011127,,21,1,2026-03-02_17h12.18.203,2026A_exp2,2022.2.4,59.914143034916535,
1000,1,0.0,0.0,0,0,4,4,15,,,,,88.19478240000899,88.84537490000366,88.84537490000366,89.32986220001476,45,45,89.32986220001476,89.32986220001476,89.32986220001476,89.32986220001476,89.32986220001476,89.32986220001476,89.32986220001476,89.32986220001476,89.32986220001476,89.69603789999383,89.69603789999383,89.69603789999383,89.69603789999383,89.69603789999383,89.69603789999383,89.69603789999383,89.69603789999383,89.69603789999383,23,0,,,89.69603789999383,89.89710470000864,1000,89.89710470000864,1000,1000,1000,1000,0,num_3,4.261362599994754,,21,1,2026-03-02_17h12.18.203,2026A_exp2,2022.2.4,59.914143034916535,
1000,1,0.0,4.9,0,0,5,5,5,,,,,94.18435809999937,94.83500210000784,94.83500210000784,95.33609070000239,315,315,95.33609070000239,95.33609070000239,95.33609070000239,95.33609070000239,95.33609070000239,95.33609070000239,95.33609070000239,95.33609070000239,95.33609070000239,95.68576880000182,95.68576880000182,95.68576880000182,95.68576880000182,95.68576880000182,95.68576880000182,95.68576880000182,95.68576880000182,95.68576880000182,0,1,[0.0012075999984517694],[0.35059020001790486],95.68576880000182,95.88816980001866,1000,95.88816980001866,1000,1000,1000,1000,1,num_2,1.3756813000072725,,21,1,2026-03-02_17h12.18.203,2026A_exp2,2022.2.4,59.914143034916535,
1,0,0.0,0.0,1,0,6,6,41,,,,,97.28748689999338,97.93804920002003,97.93804920002003,98.43915859999834,315,315,98.43915859999834,98.43915859999834,98.43915859999834,98.43915859999834,98.43915859999834,98.43915859999834,98.43915859999834,98.43915859999834,98.43915859999834,98.8056704000046,98.8056704000046,98.8056704000046,98.8056704000046,98.8056704000046,98.8056704000046,98.8056704000046,98.8056704000046,98.8056704000046,0,1,[0.0012388000031933188],[0.3673183999781031],98.8056704000046,99.00582180000492,0.0,99.00582180000492,0,0.0,0,1,1000,num_1,5.145103799994104,,21,1,2026-03-02_17h12.18.203,2026A_exp2,2022.2.4,59.914143034916535,
1000,1,0.0,4.9,0,0,7,7,74,,,,,104.17742009999347,104.82830540000577,104.82830540000577,105.32928130001528,315,45,105.32928130001528,105.32928130001528,105.32928130001528,105.32928130001528,105.32928130001528,105.32928130001528,105.32928130001528,105.32928130001528,105.32928130001528,105.67912479999359,105.67912479999359,105.67912479999359,105.67912479999359,105.67912479999359,105.67912479999359,105.67912479999359,105.67912479999359,105.67912479999359,0,1,[0.0012454999960027635],[0.35057000000961125],105.67912479999359,105.88120850000996,1000,105.88120850000996,1000,1000,1000,1000,1,num_2,1.2774522999825422,,21,1,2026-03-02_17h12.18.203,2026A_exp2,2022.2.4,59.914143034916535,
1000,1,0.0,0.0,0,0,8,8,6,,,,,107.1805619999941,107.83123599999817,107.83123599999817,108.33241940001608,315,45,108.33241940001608,108.33241940001608,108.33241940001608,108.33241940001608,108.33241940001608,108.33241940001608,108.33241940001608,108.33241940001608,108.33241940001608,108.68215130001772,108.68215130001772,108.68215130001772,108.68215130001772,108.68215130001772,108.68215130001772,108.68215130001772,108.68215130001772,108.68215130001772,0,1,[0.0012295999913476408],[0.350506899994798],108.68215130001772,108.88239670000621,1000,108.89905900001759,1000,1000,1000,1000,0,num_3,1.9718967000080738,,21,1,2026-03-02_17h12.18.203,2026A_exp2,2022.2.4,59.914143034916535,
1,0,0.0,0.0,1,0,9,9,24,,,,,110.90118820001953,111.55170820001513,111.55170820001513,112.05283200001577,45,45,112.05283200001577,112.05283200001577,112.05283200001577,112.05283200001577,112.05283200001577,112.05283200001577,112.05283200001577,112.05283200001577,112.05283200001577,112.40263290001894,112.40263290001894,112.40263290001894,112.40263290001894,112.40263290001894,112.40263290001894,112.40263290001894,112.40263290001894,112.40263290001894,14,3,"[0.10028919999604113, 0.16691979998722672, 0.35058959998423234]","[0.13333309997688048, 0.26717149998876266, 0.3505942999909166]",112.40263290001894,112.60276999999769,0.0,112.60276999999769,0,0.0,0,1,1000,num_1,1.1082472999987658,,21,1,2026-03-02_17h12.18.203,2026A_exp2,2022.2.4,59.914143034916535,
1,0,0.0,0.0,0,0,10,10,51,,,,,113.73689739999827,114.387839300005,114.387839300005,114.87226950001786,315,45,114.87226950001786,114.87226950001786,114.87226950001786,114.87226950001786,114.87226950001786,114.87226950001786,114.87226950001786,114.87226950001786,114.87226950001786,115.23865740001202,115.23865740001202,115.23865740001202,115.23865740001202,115.23865740001202,115.23865740001202,115.23865740001202,115.23865740001202,115.23865740001202,2,2,"[0.0011946000158786774, 0.21669000000110827]","[0.1835432999941986, 0.36724819999653846]",115.23865740001202,115.43895549999434,0.0,115.43895549999434,0,0.0,0,1,1000,num_1,2.8726246999867726,,21,1,2026-03-02_17h12.18.203,2026A_exp2,2022.2.4,59.914143034916535,
1000,1,0.0,0.0,0,0,11,11,45,,,,,118.34167809999781,118.99249010000494,118.99249010000494,119.47683040000265,45,315,119.47683040000265,119.47683040000265,119.47683040000265,119.47683040000265,119.47683040000265,119.47683040000265,119.47683040000265,119.47683040000265,119.47683040000265,119.84330770000815,119.84330770000815,119.84330770000815,119.84330770000815,119.84330770000815,119.84330770000815,119.84330770000815,119.84330770000815,119.84330770000815,0,1,[0.0012023999879602343],[0.3671862999908626],119.84330770000815,120.04516150002019,1000,120.04516150002019,1000,1000,1000,1000,0,num_3,5.273234899999807,,21,1,2026-03-02_17h12.18.203,2026A_exp2,2022.2.4,59.914143034916535,
1000,1,0.0,0.0,0,0,12,12,7,,,,,125.34864929999458,125.99944810001762,125.99944810001762,126.5006224999961,315,315,126.5006224999961,126.5006224999961,126.5006224999961,126.5006224999961,126.5006224999961,126.5006224999961,126.5006224999961,126.5006224999961,126.5006224999961,126.86697699999786,126.86697699999786,126.86697699999786,126.86697699999786,126.86697699999786,126.86697699999786,126.86697699999786,126.86697699999786,126.86697699999786,0,1,[0.0012402000138536096],[0.36714909999864176],126.86697699999786,127.06879459999618,1000,127.06879459999618,1000,1000,1000,1000,0,num_3,4.530378600000404,,21,1,2026-03-02_17h12.18.203,2026A_exp2,2022.2.4,59.914143034916535,
1000,1,0.0,0.0,1,0,13,13,60,,,,,131.6214971000154,132.27228790000663,132.27228790000663,132.75676760001807,45,315,132.75676760001807,132.75676760001807,132.75676760001807,132.75676760001807,132.75676760001807,132.75676760001807,132.75676760001807,132.75676760001807,132.75676760001807,133.12322450001375,133.12322450001375,133.12322450001375,133.12322450001375,133.12322450001375,133.12322450001375,133.12322450001375,133.12322450001375,133.12322450001375,0,1,[0.001280399999814108],[0.36703910000505857],133.12322450001375,133.3255393000145,1000,133.3255393000145,1000,1000,1000,1000,0,num_3,2.401304400002118,,21,1,2026-03-02_17h12.18.203,2026A_exp2,2022.2.4,59.914143034916535,
1,0,4.9,0.0,1,0,14,14,25,,,,,135.7425559000112,136.39318499999354,136.39318499999354,136.89420199999586,45,45,136.89420199999586,136.89420199999586,136.89420199999586,136.89420199999586,136.89420199999586,136.89420199999586,136.89420199999586,136.89420199999586,136.89420199999586,137.26072049999493,137.26072049999493,137.26072049999493,137.26072049999493,137.26072049999493,137.26072049999493,137.26072049999493,137.26072049999493,137.26072049999493,0,1,[0.0012075999984517694],[0.3672161000140477],137.26072049999493,137.4609551000176,0.0,137.4609551000176,0,0.0,0,1,1000,num_1,1.3136754999868572,,21,1,2026-03-02_17h12.18.203,2026A_exp2,2022.2.4,59.914143034916535,
1000,1,0.0,0.0,0,0,15,15,87,,,,,138.7952753000136,139.44628160001594,139.44628160001594,139.93044440000085,45,45,139.93044440000085,139.93044440000085,139.93044440000085,139.93044440000085,139.93044440000085,139.93044440000085,139.93044440000085,139.93044440000085,139.93044440000085,140.29708140000002,140.29708140000002,140.29708140000002,140.29708140000002,140.29708140000002,140.29708140000002,140.29708140000002,140.29708140000002,140.29708140000002,7,4,"[0.001217099983477965, 0.25039939998532645, 0.2835524999827612, 0.33369619998848066]","[0.21690440000384115, 0.2669383999891579, 0.3004503999836743, 0.36705100000835955]",140.29708140000002,140.49925079999957,1000,140.49925079999957,1000,1000,1000,1000,0,num_3,2.835532199998852,,21,1,2026-03-02_17h12.18.203,2026A_exp2,2022.2.4,59.914143034916535,
0,0,6.1,6.1,0,0,16,16,42,,,,,143.35118749999674,144.0008300000045,144.0008300000045,144.50173690001247,45,45,144.50173690001247,144.50173690001247,144.50173690001247,144.50173690001247,144.50173690001247,144.50173690001247,144.50173690001247,144.50173690001247,144.50173690001247,144.86823760002153,144.86823760002153,144.86823760002153,144.86823760002153,144.86823760002153,144.86823760002153,144.86823760002153,144.86823760002153,144.86823760002153,0,1,[0.001225399988470599],[0.3671990000002552],144.86823760002153,145.06859130001976,6.1,145.06859130001976,1,6.1,1,1,1000,num_4,2.1469502999971155,,21,1,2026-03-02_17h12.18.203,2026A_exp2,2022.2.4,59.914143034916535,
1,0,0.0,0.0,0,0,17,17,17,,,,,147.23728560001473,147.88797660000273,147.88797660000273,148.3723205999995,45,45,148.3723205999995,148.3723205999995,148.3723205999995,148.3723205999995,148.3723205999995,148.3723205999995,148.3723205999995,148.3723205999995,148.3723205999995,148.73858170001768,148.73858170001768,148.73858170001768,148.73858170001768,148.73858170001768,148.73858170001768,148.73858170001768,148.73858170001768,148.73858170001768,0,1,[0.0012317999789956957],[0.3671133999887388],148.73858170001768,148.93889750001836,0.0,148.93889750001836,0,0.0,0,1,1000,num_1,2.00378160001128,,21,1,2026-03-02_17h12.18.203,2026A_exp2,2022.2.4,59.914143034916535,
1000,1,0.0,0.0,0,0,18,18,72,,,,,150.97427920001792,151.6251089000143,151.6251089000143,152.10951569999452,45,45,152.10951569999452,152.10951569999452,152.10951569999452,152.10951569999452,152.10951569999452,152.10951569999452,152.10951569999452,152.10951569999452,152.10951569999452,152.47584759999881,152.47584759999881,152.47584759999881,152.47584759999881,152.47584759999881,152.47584759999881,152.47584759999881,152.47584759999881,152.47584759999881,11,4,"[0.001201699982630089, 0.1670604000100866, 0.25039199998718686, 0.3667944000044372]","[0.13360929998452775, 0.20033719998900779, 0.2673298000008799, 0.3667972999974154]",152.47584759999881,152.67774970000028,1000,152.67774970000028,1000,1000,1000,1000,0,num_3,1.393739999999525,,21,1,2026-03-02_17h12.18.203,2026A_exp2,2022.2.4,59.914143034916535,
1000,1,0.0,0.0,1,0,19,19,40,,,,,154.09413710000808,154.74482590000844,154.74482590000844,155.24599419999868,45,315,155.24599419999868,155.24599419999868,155.24599419999868,155.24599419999868,155.24599419999868,155.24599419999868,155.24599419999868,155.24599419999868,155.24599419999868,155.61233890001313,155.61233890001313,155.61233890001313,155.61233890001313,155.61233890001313,155.61233890001313,155.61233890001313,155.61233890001313,155.61233890001313,0,1,[0.0012162000057287514],[0.3673699999926612],155.61233890001313,155.8141736999969,1000,155.8141736999969,1000,1000,1000,1000,0,num_3,1.144813199993223,,21,1,2026-03-02_17h12.18.203,2026A_exp2,2022.2.4,59.914143034916535,
1000,1,0.0,0.0,1,0,20,20,46,,,,,156.9804800999991,157.63095580000663,157.63095580000663,158.13192549999803,45,45,158.13192549999803,158.13192549999803,158.13192549999803,158.13192549999803,158.13192549999803,158.13192549999803,158.13192549999803,158.13192549999803,158.13192549999803,158.49859679999645,158.49859679999645,158.49859679999645,158.49859679999645,158.49859679999645,158.49859679999645,158.49859679999645,158.49859679999645,158.49859679999645,0,1,[0.0010900000052060932],[0.36754489998565987],158.49859679999645,158.70083410001826,1000,158.70083410001826,1000,1000,1000,1000,0,num_3,3.0496051000081934,,21,1,2026-03-02_17h12.18.203,2026A_exp2,2022.2.4,59.914143034916535,
1000,1,0.0,6.1,1,0,21,21,19,,,,,161.7690252000175,162.41876530001173,162.41876530001173,162.92019790000631,315,315,162.92019790000631,162.92019790000631,162.92019790000631,162.92019790000631,162.92019790000631,162.92019790000631,162.92019790000631,162.92019790000631,162.92019790000631,163.28623779999907,163.28623779999907,163.28623779999907,163.28623779999907,163.28623779999907,163.28623779999907,163.28623779999907,163.28623779999907,163.28623779999907,0,1,[0.0007125000120140612],[0.36649069999111816],163.28623779999907,163.48653480000212,1000,163.48653480000212,1000,1000,1000,1000,1,num_2,0.9279278000176419,,21,1,2026-03-02_17h12.18.203,2026A_exp2,2022.2.4,59.914143034916535,
0,0,4.9,4.9,1,0,22,22,48,,,,,164.43774590000976,165.071546399995,165.071546399995,165.5892598000064,315,45,165.5892598000064,165.5892598000064,165.5892598000064,165.5892598000064,165.5892598000064,165.5892598000064,165.5892598000064,165.5892598000064,165.5892598000064,165.93939660000615,165.93939660000615,165.93939660000615,165.93939660000615,165.93939660000615,165.93939660000615,165.93939660000615,165.93939660000615,165.93939660000615,0,1,[0.000731200008885935],[0.35083599999779835],165.93939660000615,166.13979980000295,4.9,166.13979980000295,1,4.9,1,1,1000,num_4,3.8026034999929834,,21,1,2026-03-02_17h12.18.203,2026A_exp2,2022.2.4,59.914143034916535,
1,0,0.0,3.7,0,0,23,23,61,,,,,169.95987590000732,170.6107408000098,170.6107408000098,171.09501270001056,45,45,171.09501270001056,171.09501270001056,171.09501270001056,171.09501270001056,171.09501270001056,171.09501270001056,171.09501270001056,171.09501270001056,171.09501270001056,171.4615931000153,171.4615931000153,171.4615931000153,171.4615931000153,171.4615931000153,171.4615931000153,171.4615931000153,171.4615931000153,171.4615931000153,0,1,[0.001213099982123822],[0.3671637999941595],171.4615931000153,171.66177830001106,0.0,171.66177830001106,0,0.0,0,1,1000,num_1,2.4889614999992773,,21,1,2026-03-02_17h12.18.203,2026A_exp2,2022.2.4,59.914143034916535,
1,0,4.9,3.7,0,0,24,24,9,,,,,174.18098279999685,174.83160390000558,174.83160390000558,175.31595429999288,45,315,175.31595429999288,175.31595429999288,175.31595429999288,175.31595429999288,175.31595429999288,175.31595429999288,175.31595429999288,175.31595429999288,175.31595429999288,175.68237080000108,175.68237080000108,175.68237080000108,175.68237080000108,175.68237080000108,175.68237080000108,175.68237080000108,175.68237080000108,175.68237080000108,0,1,[0.0011876000207848847],[0.3670585000072606],175.68237080000108,175.8825240000151,4.9,175.8825240000151,1,4.9,1,1,1000,num_4,1.3007175000093412,,21,1,2026-03-02_17h12.18.203,2026A_exp2,2022.2.4,59.914143034916535,
1000,1,3.7,6.1,1,0,25,25,29,,,,,177.20057899999665,177.85130880001816,177.85130880001816,178.33572830000776,45,315,178.33572830000776,178.33572830000776,178.33572830000776,178.33572830000776,178.33572830000776,178.33572830000776,178.33572830000776,178.33572830000776,178.33572830000776,178.70218799999566,178.70218799999566,178.70218799999566,178.70218799999566,178.70218799999566,178.70218799999566,178.70218799999566,178.70218799999566,178.70218799999566,0,1,[0.0012489999935496598],[0.3673426999885123],178.70218799999566,178.90403750000405,1000,178.90403750000405,1000,1000,1000,1000,1,num_2,1.1112728999869432,,21,1,2026-03-02_17h12.18.203,2026A_exp2,2022.2.4,59.914143034916535,
1000,1,6.1,0.0,0,0,26,26,89,,,,,180.03663680001046,180.68741030001547,180.68741030001547,181.18859810000868,45,315,181.18859810000868,181.18859810000868,181.18859810000868,181.18859810000868,181.18859810000868,181.18859810000868,181.18859810000868,181.18859810000868,181.18859810000868,181.55497800000012,181.55497800000012,181.55497800000012,181.55497800000012,181.55497800000012,181.55497800000012,181.55497800000012,181.55497800000012,181.55497800000012,0,1,[0.0011838999926112592],[0.367212200013455],181.55497800000012,181.75734090001788,1000,181.75734090001788,1000,1000,1000,1000,0,num_3,0.9939744000148494,,21,1,2026-03-02_17h12.18.203,2026A_exp2,2022.2.4,59.914143034916535,
1,0,3.7,4.9,1,0,27,27,71,,,,,182.77266529999906,183.42335900000762,183.42335900000762,183.9245709000097,45,45,183.9245709000097,183.9245709000097,183.9245709000097,183.9245709000097,183.9245709000097,183.9245709000097,183.9245709000097,183.9245709000097,183.9245709000097,184.27444700000342,184.27444700000342,184.27444700000342,184.27444700000342,184.27444700000342,184.27444700000342,184.27444700000342,184.27444700000342,184.27444700000342,0,1,[0.004915400000754744],[0.36505079999915324],184.27444700000342,184.47492290000082,4.9,184.49133780002012,1,4.9,1,1,1000,num_4,2.107933999999659,,21,1,2026-03-02_17h12.18.203,2026A_exp2,2022.2.4,59.914143034916535,
1000,1,3.7,0.0,1,0,28,28,88,,,,,186.62673020001967,187.26068370000576,187.26068370000576,187.76184120000107,315,315,187.76184120000107,187.76184120000107,187.76184120000107,187.76184120000107,187.76184120000107,187.76184120000107,187.76184120000107,187.76184120000107,187.76184120000107,188.12820180002018,188.12820180002018,188.12820180002018,188.12820180002018,188.12820180002018,188.12820180002018,188.12820180002018,188.12820180002018,188.12820180002018,0,1,[0.0012687999987974763],[0.36665769998217],188.12820180002018,188.33036520000314,1000,188.33036520000314,1000,1000,1000,1000,0,num_3,0.9650488999905065,,21,1,2026-03-02_17h12.18.203,2026A_exp2,2022.2.4,59.914143034916535,
1000,1,6.1,4.9,0,0,29,29,49,,,,,189.31261379999341,189.9634531000047,189.9634531000047,190.46442370000295,45,45,190.46442370000295,190.46442370000295,190.46442370000295,190.46442370000295,190.46442370000295,190.46442370000295,190.46442370000295,190.46442370000295,190.46442370000295,190.83097300000372,190.83097300000372,190.83097300000372,190.83097300000372,190.83097300000372,190.83097300000372,190.83097300000372,190.83097300000372,190.83097300000372,0,1,[0.0012052000092808157],[0.36723040000651963],190.83097300000372,191.03276289999485,1000,191.03276289999485,1000,1000,1000,1000,0,num_3,0.6542723000166006,,21,1,2026-03-02_17h12.18.203,2026A_exp2,2022.2.4,59.914143034916535,
1000,1,3.7,4.9,0,0,30,30,80,,,,,191.71496710000793,192.36582770000678,192.36582770000678,192.85026390000712,315,315,192.85026390000712,192.85026390000712,192.85026390000712,192.85026390000712,192.85026390000712,192.85026390000712,192.85026390000712,192.85026390000712,192.85026390000712,193.2166520000028,193.2166520000028,193.2166520000028,193.2166520000028,193.2166520000028,193.2166520000028,193.2166520000028,193.2166520000028,193.2166520000028,0,1,[0.0011553000076673925],[0.3672898999939207],193.2166520000028,193.4186600999965,1000,193.4186600999965,1000,1000,1000,1000,1,num_2,1.205168499989668,,21,1,2026-03-02_17h12.18.203,2026A_exp2,2022.2.4,59.914143034916535,
1000,1,3.7,4.9,0,0,31,31,64,,,,,194.6513909000205,195.3022125000134,195.3022125000134,195.80303780001123,315,315,195.80303780001123,195.80303780001123,195.80303780001123,195.80303780001123,195.80303780001123,195.80303780001123,195.80303780001123,195.80303780001123,195.80303780001123,196.1695510999998,196.1695510999998,196.1695510999998,196.1695510999998,196.1695510999998,196.1695510999998,196.1695510999998,196.1695510999998,196.1695510999998,0,1,[0.0011961999989580363],[0.36722919999738224],196.1695510999998,196.37149809999391,1000,196.37149809999391,1000,1000,1000,1000,1,num_2,0.963578700000653,,21,1,2026-03-02_17h12.18.203,2026A_exp2,2022.2.4,59.914143034916535,
1000,1,0.0,6.1,1,0,32,32,3,,,,,197.353998400009,198.004809200007,198.004809200007,198.50571379999747,315,315,198.50571379999747,198.50571379999747,198.50571379999747,198.50571379999747,198.50571379999747,198.50571379999747,198.50571379999747,198.50571379999747,198.50571379999747,198.8722870000056,198.8722870000056,198.8722870000056,198.8722870000056,198.8722870000056,198.8722870000056,198.8722870000056,198.8722870000056,198.8722870000056,0,1,[0.00119270000141114],[0.3671413999982178],198.8722870000056,199.0740871000162,1000,199.0740871000162,1000,1000,1000,1000,1,num_2,0.7806527999928221,,21,1,2026-03-02_17h12.18.203,2026A_exp2,2022.2.4,59.914143034916535,
1000,1,0.0,6.1,1,0,33,33,69,,,,,199.87320659999386,200.5236649000144,200.5236649000144,201.02509350000764,45,45,201.02509350000764,201.02509350000764,201.02509350000764,201.02509350000764,201.02509350000764,201.02509350000764,201.02509350000764,201.02509350000764,201.02509350000764,201.39151950000087,201.39151950000087,201.39151950000087,201.39151950000087,201.39151950000087,201.39151950000087,201.39151950000087,201.39151950000087,201.39151950000087,0,1,[0.0011990999919362366],[0.36720410000998527],201.39151950000087,201.59373360002064,1000,201.59373360002064,1000,1000,1000,1000,1,num_2,0.7898106999928132,,21,1,2026-03-02_17h12.18.203,2026A_exp2,2022.2.4,59.914143034916535,
1000,1,4.9,0.0,0,0,34,34,50,,,,,202.40924360000645,203.0598173000035,203.0598173000035,203.56081369999447,315,315,203.56081369999447,203.56081369999447,203.56081369999447,203.56081369999447,203.56081369999447,203.56081369999447,203.56081369999447,203.56081369999447,203.56081369999447,203.9107084000134,203.9107084000134,203.9107084000134,203.9107084000134,203.9107084000134,203.9107084000134,203.9107084000134,203.9107084000134,203.9107084000134,1,2,"[0.0011986000172328204, 0.25041629999759607]","[0.23376070000813343, 0.3506776000140235]",203.9107084000134,204.11306279999553,1000,204.11306279999553,1000,1000,1000,1000,0,num_3,0.5904581999930087,,21,1,2026-03-02_17h12.18.203,2026A_exp2,2022.2.4,59.914143034916535,
1000,1,0.0,4.9,1,0,35,35,79,,,,,204.72804170000018,205.37850640001125,205.37850640001125,205.87984370000777,45,315,205.87984370000777,205.87984370000777,205.87984370000777,205.87984370000777,205.87984370000777,205.87984370000777,205.87984370000777,205.87984370000777,205.87984370000777,206.22972269999445,206.22972269999445,206.22972269999445,206.22972269999445,206.22972269999445,206.22972269999445,206.22972269999445,206.22972269999445,206.22972269999445,0,1,[0.0012854000087827444],[0.352077499992447],206.22972269999445,206.4299033000134,1000,206.4299033000134,1000,1000,1000,1000,1,num_2,0.5296743000217248,,21,1,2026-03-02_17h12.18.203,2026A_exp2,2022.2.4,59.914143034916535,
1,0,0.0,6.1,0,0,36,36,43,,,,,206.98024890001398,207.6310422999959,207.6310422999959,208.13197250000667,45,315,208.13197250000667,208.13197250000667,208.13197250000667,208.13197250000667,208.13197250000667,208.13197250000667,208.13197250000667,208.13197250000667,208.13197250000667,208.48208509999677,208.48208509999677,208.48208509999677,208.48208509999677,208.48208509999677,208.48208509999677,208.48208509999677,208.48208509999677,208.48208509999677,0,1,[0.0012070000229869038],[0.3518579000083264],208.48208509999677,208.6821858000185,0.0,208.6987638999999,0,0.0,0,1,1000,num_1,2.02882320000208,,21,1,2026-03-02_17h12.18.203,2026A_exp2,2022.2.4,59.914143034916535,
0,0,0.0,0.0,0,0,37,37,70,,,,,210.75079750001896,211.4016935999971,211.4016935999971,211.88586589999613,315,45,211.88586589999613,211.88586589999613,211.88586589999613,211.88586589999613,211.88586589999613,211.88586589999613,211.88586589999613,211.88586589999613,211.88586589999613,212.25222630001372,212.25222630001372,212.25222630001372,212.25222630001372,212.25222630001372,212.25222630001372,212.25222630001372,212.25222630001372,212.25222630001372,0,1,[0.001188099995488301],[0.3670204000081867],212.25222630001372,212.4526928999985,0.0,212.4526928999985,0,0.0,0,1,1000,num_1,1.5786109000036959,,21,1,2026-03-02_17h12.18.203,2026A_exp2,2022.2.4,59.914143034916535,
1,0,3.7,0.0,1,0,38,38,28,,,,,214.0540738000127,214.69889900001,214.69889900001,215.18907469999976,315,315,215.18907469999976,215.18907469999976,215.18907469999976,215.18907469999976,215.18907469999976,215.18907469999976,215.18907469999976,215.18907469999976,215.18907469999976,215.55562369999825,215.55562369999825,215.55562369999825,215.55562369999825,215.55562369999825,215.55562369999825,215.55562369999825,215.55562369999825,215.55562369999825,0,1,[0.0010952000156976283],[0.3672116000088863],215.55562369999825,215.75571640001726,0.0,215.75571640001726,0,0.0,0,1,1000,num_1,1.1390773000021,,21,1,2026-03-02_17h12.18.203,2026A_exp2,2022.2.4,59.914143034916535,
1000,1,0.0,6.1,0,0,39,39,58,,,,,216.92343029999756,217.57522480000625,217.57522480000625,218.07532620002166,45,45,218.07532620002166,218.07532620002166,218.07532620002166,218.07532620002166,218.07532620002166,218.07532620002166,218.07532620002166,218.07532620002166,218.07532620002166,218.44199930000468,218.44199930000468,218.44199930000468,218.44199930000468,218.44199930000468,218.44199930000468,218.44199930000468,218.44199930000468,218.44199930000468,18,3,"[0.017404699989128858, 0.24965969999902882, 0.36705619998974726]","[0.06697479999274947, 0.2665147999941837, 0.36706069999490865]",218.44199930000468,218.64206320000812,1000,218.64206320000812,1000,1000,1000,1000,1,num_2,1.3806641999981366,,21,1,2026-03-02_17h12.18.203,2026A_exp2,2022.2.4,59.914143034916535,
1000,1,6.1,4.9,0,0,40,40,68,,,,,220.04342780000297,220.69394029999967,220.69394029999967,221.19519369999762,45,315,221.19519369999762,221.19519369999762,221.19519369999762,221.19519369999762,221.19519369999762,221.19519369999762,221.19519369999762,221.19519369999762,221.19519369999762,221.54479440001887,221.54479440001887,221.54479440001887,221.54479440001887,221.54479440001887,221.54479440001887,221.54479440001887,221.54479440001887,221.54479440001887,0,1,[0.0012634999875444919],[0.35043039999436587],221.54479440001887,221.74680839999928,1000,221.7618938999949,1000,1000,1000,1000,0,num_3,1.2534803000162356,,21,1,2026-03-02_17h12.18.203,2026A_exp2,2022.2.4,59.914143034916535,
1,0,3.7,0.0,1,0,41,41,12,,,,,223.04639980001957,223.69713310000952,223.69713310000952,224.18166770000244,315,45,224.18166770000244,224.18166770000244,224.18166770000244,224.18166770000244,224.18166770000244,224.18166770000244,224.18166770000244,224.18166770000244,224.18166770000244,224.54798870001105,224.54798870001105,224.54798870001105,224.54798870001105,224.54798870001105,224.54798870001105,224.54798870001105,224.54798870001105,224.54798870001105,0,1,[0.0012342999980319291],[0.3670376999943983],224.54798870001105,224.74825040000724,0.0,224.74825040000724,0,0.0,0,1,1000,num_1,2.3472202000266407,,21,1,2026-03-02_17h12.18.203,2026A_exp2,2022.2.4,59.914143034916535,
1000,1,0.0,0.0,1,0,42,42,56,,,,,227.11722730001202,227.7677657000022,227.7677657000022,228.25221190002048,315,45,228.25221190002048,228.25221190002048,228.25221190002048,228.25221190002048,228.25221190002048,228.25221190002048,228.25221190002048,228.25221190002048,228.25221190002048,228.61859970001387,228.61859970001387,228.61859970001387,228.61859970001387,228.61859970001387,228.61859970001387,228.61859970001387,228.61859970001387,228.61859970001387,18,1,[0.0011881999962497503],[0.08328769999206997],228.61859970001387,228.82087570001022,1000,228.82087570001022,1000,1000,1000,1000,0,num_3,2.009893300011754,,21,1,2026-03-02_17h12.18.203,2026A_exp2,2022.2.4,59.914143034916535,
1000,1,6.1,3.7,0,0,43,43,18,,,,,230.854075500014,231.50484900001902,231.50484900001902,232.00597820000257,315,315,232.00597820000257,232.00597820000257,232.00597820000257,232.00597820000257,232.00597820000257,232.00597820000257,232.00597820000257,232.00597820000257,232.00597820000257,232.37238859999343,232.37238859999343,232.37238859999343,232.37238859999343,232.37238859999343,232.37238859999343,232.37238859999343,232.37238859999343,232.37238859999343,23,0,,,232.37238859999343,232.5746715000132,1000,232.5746715000132,1000,1000,1000,1000,0,num_3,0.9126929999911226,,21,1,2026-03-02_17h12.18.203,2026A_exp2,2022.2.4,59.914143034916535,
1000,1,0.0,6.1,1,0,44,44,62,,,,,233.5070837000094,234.1576285000192,234.1576285000192,234.64200990000973,315,45,234.64200990000973,234.64200990000973,234.64200990000973,234.64200990000973,234.64200990000973,234.64200990000973,234.64200990000973,234.64200990000973,234.64200990000973,235.00825539999641,235.00825539999641,235.00825539999641,235.00825539999641,235.00825539999641,235.00825539999641,235.00825539999641,235.00825539999641,235.00825539999641,18,2,"[0.01730049998150207, 0.08368199999677017]","[0.03354360000230372, 0.1503284999926109]",235.00825539999641,235.21033269999316,1000,235.21033269999316,1000,1000,1000,1000,1,num_2,0.7804623999982141,,21,1,2026-03-02_17h12.18.203,2026A_exp2,2022.2.4,59.914143034916535,
1,0,4.9,3.7,1,0,45,45,26,,,,,236.0095699999947,236.6600665000151,236.6600665000151,237.161179799994,315,315,237.161179799994,237.161179799994,237.161179799994,237.161179799994,237.161179799994,237.161179799994,237.161179799994,237.161179799994,237.161179799994,237.52758530000574,237.52758530000574,237.52758530000574,237.52758530000574,237.52758530000574,237.52758530000574,237.52758530000574,237.52758530000574,237.52758530000574,23,0,,,237.52758530000574,237.74203570000827,3.7,237.74203570000827,1,3.7,1,1,1000,num_4,5.497304599994095,,21,1,2026-03-02_17h12.18.203,2026A_exp2,2022.2.4,59.914143034916535,
1,0,0.0,4.9,1,0,46,46,1,,,,,243.2666819000151,243.91729300000588,243.91729300000588,244.4017826000054,315,45,244.4017826000054,244.4017826000054,244.4017826000054,244.4017826000054,244.4017826000054,244.4017826000054,244.4017826000054,244.4017826000054,244.4017826000054,244.7681212000025,244.7681212000025,244.7681212000025,244.7681212000025,244.7681212000025,244.7681212000025,244.7681212000025,244.7681212000025,244.7681212000025,22,1,[0.11662830002023838],[0.1337381000048481],244.7681212000025,244.9685438000015,4.9,244.9685438000015,1,4.9,1,1,1000,num_4,2.08609530000831,,21,1,2026-03-02_17h12.18.203,2026A_exp2,2022.2.4,59.914143034916535,
1,0,6.1,3.7,0,0,47,47,31,,,,,247.07048809999833,247.72117619999335,247.72117619999335,248.20548880001297,315,315,248.20548880001297,248.20548880001297,248.20548880001297,248.20548880001297,248.20548880001297,248.20548880001297,248.20548880001297,248.20548880001297,248.20548880001297,248.5719406999997,248.5719406999997,248.5719406999997,248.5719406999997,248.5719406999997,248.5719406999997,248.5719406999997,248.5719406999997,248.5719406999997,8,4,"[0.0012519000156316906, 0.06688280001981184, 0.15015570001560263, 0.36637010000413284]","[0.017369700013659894, 0.08345450001070276, 0.34997979999752715, 0.36637280002469197]",248.5719406999997,248.77212949999375,6.1,248.77212949999375,1,6.1,1,1,1000,num_4,1.434712899994338,,21,1,2026-03-02_17h12.18.203,2026A_exp2,2022.2.4,59.914143034916535,
0,0,0.0,3.7,0,0,48,48,47,,,,,250.2235542999988,250.87427780000144,250.87427780000144,251.35866980001447,315,45,251.35866980001447,251.35866980001447,251.35866980001447,251.35866980001447,251.35866980001447,251.35866980001447,251.35866980001447,251.35866980001447,251.35866980001447,251.72521000000415,251.72521000000415,251.72521000000415,251.72521000000415,251.72521000000415,251.72521000000415,251.72521000000415,251.72521000000415,251.72521000000415,23,0,,,251.72521000000415,251.92540199999348,3.7,251.92540199999348,0,3.7,1,0,1000,num_1,1.0422000999969896,,21,1,2026-03-02_17h12.18.203,2026A_exp2,2022.2.4,59.914143034916535,
1000,1,0.0,6.1,0,0,49,49,85,,,,,252.9945871999953,253.6446671000158,253.6446671000158,254.14486560001387,45,45,254.14486560001387,254.14486560001387,254.14486560001387,254.14486560001387,254.14486560001387,254.14486560001387,254.14486560001387,254.14486560001387,254.14486560001387,254.5112061999971,254.5112061999971,254.5112061999971,254.5112061999971,254.5112061999971,254.5112061999971,254.5112061999971,254.5112061999971,254.5112061999971,23,0,,,254.5112061999971,254.71336480000173,1000,254.71336480000173,1000,1000,1000,1000,1,num_2,1.3731590999814216,,21,1,2026-03-02_17h12.18.203,2026A_exp2,2022.2.4,59.914143034916535,
1,0,4.9,4.9,0,0,50,50,84,,,,,256.11277969999355,256.76338170000236,256.76338170000236,257.26465329999337,315,45,257.26465329999337,257.26465329999337,257.26465329999337,257.26465329999337,257.26465329999337,257.26465329999337,257.26465329999337,257.26465329999337,257.26465329999337,257.6310491000186,257.6310491000186,257.6310491000186,257.6310491000186,257.6310491000186,257.6310491000186,257.6310491000186,257.6310491000186,257.6310491000186,23,0,,,257.6310491000186,257.831241900014,4.9,257.831241900014,1,4.9,1,1,1000,num_4,2.1277771000168286,,21,1,2026-03-02_17h12.18.203,2026A_exp2,2022.2.4,59.914143034916535,
0,0,0.0,3.7,0,0,51,51,83,,,,,259.98330740001984,260.6173888000194,260.6173888000194,261.11848200001987,315,315,261.11848200001987,261.11848200001987,261.11848200001987,261.11848200001987,261.11848200001987,261.11848200001987,261.11848200001987,261.11848200001987,261.11848200001987,261.4847910999961,261.4847910999961,261.4847910999961,261.4847910999961,261.4847910999961,261.4847910999961,261.4847910999961,261.4847910999961,261.4847910999961,23,0,,,261.4847910999961,261.6849520000105,3.7,261.6849520000105,1,3.7,1,1,1000,num_4,2.5300298999936786,,21,1,2026-03-02_17h12.18.203,2026A_exp2,2022.2.4,59.914143034916535,
1,0,0.0,0.0,0,0,52,52,34,,,,,264.2376068000158,264.87167680001585,264.87167680001585,265.37240100000054,315,315,265.37240100000054,265.37240100000054,265.37240100000054,265.37240100000054,265.37240100000054,265.37240100000054,265.37240100000054,265.37240100000054,265.37240100000054,265.7392694000155,265.7392694000155,265.7392694000155,265.7392694000155,265.7392694000155,265.7392694000155,265.7392694000155,265.7392694000155,265.7392694000155,23,0,,,265.7392694000155,265.9418409000209,0.0,265.9418409000209,0,0.0,0,1,1000,num_1,0.737874800019199,,21,1,2026-03-02_17h12.18.203,2026A_exp2,2022.2.4,59.914143034916535,
1000,1,0.0,4.9,0,0,53,53,53,,,,,266.7067360999936,267.3574068000016,267.3574068000016,267.85840880000615,45,315,267.85840880000615,267.85840880000615,267.85840880000615,267.85840880000615,267.85840880000615,267.85840880000615,267.85840880000615,267.85840880000615,267.85840880000615,268.2248661000049,268.2248661000049,268.2248661000049,268.2248661000049,268.2248661000049,268.2248661000049,268.2248661000049,268.2248661000049,268.2248661000049,23,0,,,268.2248661000049,268.42709470001864,1000,268.42709470001864,1000,1000,1000,1000,1,num_2,1.124498399993172,,21,1,2026-03-02_17h12.18.203,2026A_exp2,2022.2.4,59.914143034916535,
1,0,3.7,4.9,0,0,54,54,76,,,,,269.5765683000209,270.2268989000004,270.2268989000004,270.7281492000038,315,45,270.7281492000038,270.7281492000038,270.7281492000038,270.7281492000038,270.7281492000038,270.7281492000038,270.7281492000038,270.7281492000038,270.7281492000038,271.07787239999743,271.07787239999743,271.07787239999743,271.07787239999743,271.07787239999743,271.07787239999743,271.07787239999743,271.07787239999743,271.07787239999743,22,0,,,271.07787239999743,271.27788150002016,3.7,271.29466850002063,1,3.7,1,1,1000,num_4,3.184884400019655,,21,1,2026-03-02_17h12.18.203,2026A_exp2,2022.2.4,59.914143034916535,
1,0,4.9,3.7,1,0,55,55,10,,,,,274.4979762000148,275.14868939999724,275.14868939999724,275.6331550000177,315,45,275.6331550000177,275.6331550000177,275.6331550000177,275.6331550000177,275.6331550000177,275.6331550000177,275.6331550000177,275.6331550000177,275.6331550000177,275.99946560000535,275.99946560000535,275.99946560000535,275.99946560000535,275.99946560000535,275.99946560000535,275.99946560000535,275.99946560000535,275.99946560000535,23,0,,,275.99946560000535,276.19967790000373,3.7,276.19967790000373,0,3.7,1,0,1000,num_1,3.062841599981766,,21,1,2026-03-02_17h12.18.203,2026A_exp2,2022.2.4,59.914143034916535,
1,0,3.7,6.1,1,0,56,56,77,,,,,279.28601539999363,279.9367079999938,279.9367079999938,280.4211757000012,315,315,280.4211757000012,280.4211757000012,280.4211757000012,280.4211757000012,280.4211757000012,280.4211757000012,280.4211757000012,280.4211757000012,280.4211757000012,280.7872237999982,280.7872237999982,280.7872237999982,280.7872237999982,280.7872237999982,280.7872237999982,280.7872237999982,280.7872237999982,280.7872237999982,23,0,,,280.7872237999982,280.98780510001234,6.1,280.98780510001234,1,6.1,1,1,1000,num_4,1.9547735000087414,,21,1,2026-03-02_17h12.18.203,2026A_exp2,2022.2.4,59.914143034916535,
1000,1,0.0,0.0,0,0,57,57,37,,,,,282.97293740001624,283.6236186000169,283.6236186000169,284.10819070000434,45,45,284.10819070000434,284.10819070000434,284.10819070000434,284.10819070000434,284.10819070000434,284.10819070000434,284.10819070000434,284.10819070000434,284.10819070000434,284.474558899994,284.474558899994,284.474558899994,284.474558899994,284.474558899994,284.474558899994,284.474558899994,284.474558899994,284.474558899994,23,0,,,284.474558899994,284.6764524000173,1000,284.6764524000173,1000,1000,1000,1000,0,num_3,4.28304670000216,,21,1,2026-03-02_17h12.18.203,2026A_exp2,2022.2.4,59.914143034916535,
1000,1,0.0,4.9,1,0,58,58,78,,,,,288.978927499993,289.62973220000276,289.62973220000276,290.1306681999995,315,315,290.1306681999995,290.1306681999995,290.1306681999995,290.1306681999995,290.1306681999995,290.1306681999995,290.1306681999995,290.1306681999995,290.1306681999995,290.4971323000209,290.4971323000209,290.4971323000209,290.4971323000209,290.4971323000209,290.4971323000209,290.4971323000209,290.4971323000209,290.4971323000209,23,0,,,290.4971323000209,290.69914310000604,1000,290.69914310000604,1000,1000,1000,1000,1,num_2,0.9793715999985579,,21,1,2026-03-02_17h12.18.203,2026A_exp2,2022.2.4,59.914143034916535,
1000,1,0.0,0.0,0,0,59,59,67,,,,,291.6983123999962,292.34919400000945,292.34919400000945,292.8501194000128,315,315,292.8501194000128,292.8501194000128,292.8501194000128,292.8501194000128,292.8501194000128,292.8501194000128,292.8501194000128,292.8501194000128,292.8501194000128,293.2166483000037,293.2166483000037,293.2166483000037,293.2166483000037,293.2166483000037,293.2166483000037,293.2166483000037,293.2166483000037,293.2166483000037,23,0,,,293.2166483000037,293.4185155000014,1000,293.4185155000014,1000,1000,1000,1000,1,num_2,2.8842548000102397,,21,1,2026-03-02_17h12.18.203,2026A_exp2,2022.2.4,59.914143034916535,
1,0,0.0,0.0,0,0,60,60,44,,,,,296.3196458000166,296.9702530000068,296.9702530000068,297.4714864999987,315,315,297.4714864999987,297.4714864999987,297.4714864999987,297.4714864999987,297.4714864999987,297.4714864999987,297.4714864999987,297.4714864999987,297.4714864999987,297.83791120001115,297.83791120001115,297.83791120001115,297.83791120001115,297.83791120001115,297.83791120001115,297.83791120001115,297.83791120001115,297.83791120001115,23,0,,,297.83791120001115,298.03807969999616,0.0,298.03807969999616,0,0.0,0,1,1000,num_1,2.9850902000034694,,21,1,2026-03-02_17h12.18.203,2026A_exp2,2022.2.4,59.914143034916535,
1000,1,0.0,6.1,0,0,61,61,75,,,,,301.04098910000175,301.6917139000143,301.6917139000143,302.17614389999653,45,315,302.17614389999653,302.17614389999653,302.17614389999653,302.17614389999653,302.17614389999653,302.17614389999653,302.17614389999653,302.17614389999653,302.17614389999653,302.542594700004,302.542594700004,302.542594700004,302.542594700004,302.542594700004,302.542594700004,302.542594700004,302.542594700004,302.542594700004,23,0,,,302.542594700004,302.7449530000158,1000,302.7449530000158,1000,1000,1000,1000,1,num_2,0.8708552999887615,,21,1,2026-03-02_17h12.18.203,2026A_exp2,2022.2.4,59.914143034916535,
1000,1,3.7,4.9,1,0,62,62,20,,,,,303.64389360000496,304.2943542000139,304.2943542000139,304.7787675000145,45,315,304.7787675000145,304.7787675000145,304.7787675000145,304.7787675000145,304.7787675000145,304.7787675000145,304.7787675000145,304.7787675000145,304.7787675000145,305.14525010000216,305.14525010000216,305.14525010000216,305.14525010000216,305.14525010000216,305.14525010000216,305.14525010000216,305.14525010000216,305.14525010000216,23,0,,,305.14525010000216,305.34728300001007,1000,305.34728300001007,1000,1000,1000,1000,0,num_3,2.1318867999943905,,21,1,2026-03-02_17h12.18.203,2026A_exp2,2022.2.4,59.914143034916535,
1,0,4.9,3.7,0,0,63,63,63,,,,,307.4979824000038,308.1482831000176,308.1482831000176,308.6494118999981,45,45,308.6494118999981,308.6494118999981,308.6494118999981,308.6494118999981,308.6494118999981,308.6494118999981,308.6494118999981,308.6494118999981,308.6494118999981,309.0156859999988,309.0156859999988,309.0156859999988,309.0156859999988,309.0156859999988,309.0156859999988,309.0156859999988,309.0156859999988,309.0156859999988,23,0,,,309.0156859999988,309.21597260001,4.9,309.21597260001,1,4.9,1,1,1000,num_4,1.8869788000010885,,21,1,2026-03-02_17h12.18.203,2026A_exp2,2022.2.4,59.914143034916535,
1000,1,0.0,3.7,1,0,64,64,65,,,,,311.134481999994,311.785229400004,311.785229400004,312.26957689999836,315,45,312.26957689999836,312.26957689999836,312.26957689999836,312.26957689999836,312.26957689999836,312.26957689999836,312.26957689999836,312.26957689999836,312.26957689999836,312.63603580000927,312.63603580000927,312.63603580000927,312.63603580000927,312.63603580000927,312.63603580000927,312.63603580000927,312.63603580000927,312.63603580000927,23,0,,,312.63603580000927,312.8382133000123,1000,312.8382133000123,1000,1000,1000,1000,1,num_2,1.5447896999830846,,21,1,2026-03-02_17h12.18.203,2026A_exp2,2022.2.4,59.914143034916535,
1000,1,0.0,4.9,1,0,65,65,55,,,,,314.40439350000815,315.05518540000776,315.05518540000776,315.55615439999383,315,45,315.55615439999383,315.55615439999383,315.55615439999383,315.55615439999383,315.55615439999383,315.55615439999383,315.55615439999383,315.55615439999383,315.55615439999383,315.9226975000056,315.9226975000056,315.9226975000056,315.9226975000056,315.9226975000056,315.9226975000056,315.9226975000056,315.9226975000056,315.9226975000056,23,0,,,315.9226975000056,316.12488940000185,1000,316.12488940000185,1000,1000,1000,1000,1,num_2,0.7947462000011001,,21,1,2026-03-02_17h12.18.203,2026A_exp2,2022.2.4,59.914143034916535,
0,0,3.7,6.1,0,0,66,66,73,,,,,316.94035730001633,317.59081799999694,317.59081799999694,318.09177160001127,45,45,318.09177160001127,318.09177160001127,318.09177160001127,318.09177160001127,318.09177160001127,318.09177160001127,318.09177160001127,318.09177160001127,318.09177160001127,318.4584392000106,318.4584392000106,318.4584392000106,318.4584392000106,318.4584392000106,318.4584392000106,318.4584392000106,318.4584392000106,318.4584392000106,23,0,,,318.4584392000106,318.65879499999573,6.1,318.65879499999573,1,6.1,1,1,1000,num_4,4.572580599982757,,21,1,2026-03-02_17h12.18.203,2026A_exp2,2022.2.4,59.914143034916535,
1000,1,3.7,0.0,1,0,67,67,54,,,,,323.2631953000091,323.8972947000002,323.8972947000002,324.3983444000187,315,315,324.3983444000187,324.3983444000187,324.3983444000187,324.3983444000187,324.3983444000187,324.3983444000187,324.3983444000187,324.3983444000187,324.3983444000187,324.7648160000099,324.7648160000099,324.7648160000099,324.7648160000099,324.7648160000099,324.7648160000099,324.7648160000099,324.7648160000099,324.7648160000099,0,1,[0.0008491000044159591],[0.3673906000040006],324.7648160000099,324.96708000000217,1000,324.96708000000217,1000,1000,1000,1000,0,num_3,7.55219039999065,,21,1,2026-03-02_17h12.18.203,2026A_exp2,2022.2.4,59.914143034916535,
1,0,3.7,0.0,1,0,68,68,13,,,,,332.5392477000132,333.1899600000179,333.1899600000179,333.69107289999374,315,45,333.69107289999374,333.69107289999374,333.69107289999374,333.69107289999374,333.69107289999374,333.69107289999374,333.69107289999374,333.69107289999374,333.69107289999374,334.0574551000027,334.0574551000027,334.0574551000027,334.0574551000027,334.0574551000027,334.0574551000027,334.0574551000027,334.0574551000027,334.0574551000027,6,5,"[0.0012273000029381365, 0.10010690000490285, 0.18359219998819754, 0.30051810000441037, 0.35046149999834597]","[0.08306740000261925, 0.166763399989577, 0.2838886999816168, 0.3171717999794055, 0.3672577999823261]",334.0574551000027,334.25769490000675,0.0,334.25769490000675,0,0.0,0,1,1000,num_1,2.5491618999803904,,21,1,2026-03-02_17h12.18.203,2026A_exp2,2022.2.4,59.914143034916535,
1000,1,0.0,6.1,0,0,69,69,35,,,,,336.8267861000204,337.47757660000934,337.47757660000934,337.96206620000885,315,45,337.96206620000885,337.96206620000885,337.96206620000885,337.96206620000885,337.96206620000885,337.96206620000885,337.96206620000885,337.96206620000885,337.96206620000885,338.3284235000028,338.3284235000028,338.3284235000028,338.3284235000028,338.3284235000028,338.3284235000028,338.3284235000028,338.3284235000028,338.3284235000028,23,0,,,338.3284235000028,338.5306829000183,1000,338.5306829000183,1000,1000,1000,1000,1,num_2,0.8929065999982413,,21,1,2026-03-02_17h12.18.203,2026A_exp2,2022.2.4,59.914143034916535,
1000,1,6.1,0.0,0,0,70,70,59,,,,,339.446098800021,340.0968974000134,340.0968974000134,340.59793760001776,315,315,340.59793760001776,340.59793760001776,340.59793760001776,340.59793760001776,340.59793760001776,340.59793760001776,340.59793760001776,340.59793760001776,340.59793760001776,340.94781969999894,340.94781969999894,340.94781969999894,340.94781969999894,340.94781969999894,340.94781969999894,340.94781969999894,340.94781969999894,340.94781969999894,22,0,,,340.94781969999894,341.1496431000123,1000,341.1645616000169,1000,1000,1000,1000,0,num_3,2.6424603999766987,,21,1,2026-03-02_17h12.18.203,2026A_exp2,2022.2.4,59.914143034916535,
1000,1,0.0,3.7,0,0,71,71,57,,,,,343.83388150000246,344.48448020001524,344.48448020001524,344.9856138000032,315,315,344.9856138000032,344.9856138000032,344.9856138000032,344.9856138000032,344.9856138000032,344.9856138000032,344.9856138000032,344.9856138000032,344.9856138000032,345.3521343000175,345.3521343000175,345.3521343000175,345.3521343000175,345.3521343000175,345.3521343000175,345.3521343000175,345.3521343000175,345.3521343000175,23,0,,,345.3521343000175,345.55231230001664,1000,345.55231230001664,1000,1000,1000,1000,1,num_2,2.8794661999854725,,21,1,2026-03-02_17h12.18.203,2026A_exp2,2022.2.4,59.914143034916535,
1000,1,0.0,0.0,0,0,72,72,36,,,,,348.4551138000097,349.1058824000065,349.1058824000065,349.606780800008,45,45,349.606780800008,349.606780800008,349.606780800008,349.606780800008,349.606780800008,349.606780800008,349.606780800008,349.606780800008,349.606780800008,349.97342580000986,349.97342580000986,349.97342580000986,349.97342580000986,349.97342580000986,349.97342580000986,349.97342580000986,349.97342580000986,349.97342580000986,23,0,,,349.97342580000986,350.1757826000103,1000,350.1757826000103,1000,1000,1000,1000,0,num_3,3.2791666999983136,,21,1,2026-03-02_17h12.18.203,2026A_exp2,2022.2.4,59.914143034916535,
1000,1,0.0,0.0,1,0,73,73,16,,,,,353.4767843000009,354.1273924999987,354.1273924999987,354.6286855000071,45,315,354.6286855000071,354.6286855000071,354.6286855000071,354.6286855000071,354.6286855000071,354.6286855000071,354.6286855000071,354.6286855000071,354.6286855000071,354.995052400016,354.995052400016,354.995052400016,354.995052400016,354.995052400016,354.995052400016,354.995052400016,354.995052400016,354.995052400016,23,0,,,354.995052400016,355.19703370000934,1000,355.19703370000934,1000,1000,1000,1000,0,num_3,1.282481700007338,,21,1,2026-03-02_17h12.18.203,2026A_exp2,2022.2.4,59.914143034916535,
1000,1,3.7,0.0,0,0,74,74,66,,,,,356.49647290000576,357.1471917000017,357.1471917000017,357.64834420001716,45,45,357.64834420001716,357.64834420001716,357.64834420001716,357.64834420001716,357.64834420001716,357.64834420001716,357.64834420001716,357.64834420001716,357.64834420001716,358.0147696000058,358.0147696000058,358.0147696000058,358.0147696000058,358.0147696000058,358.0147696000058,358.0147696000058,358.0147696000058,358.0147696000058,23,0,,,358.0147696000058,358.21686220000265,1000,358.21686220000265,1000,1000,1000,1000,0,num_3,0.9269667000044137,,21,1,2026-03-02_17h12.18.203,2026A_exp2,2022.2.4,59.914143034916535,
1000,1,0.0,6.1,0,0,75,75,2,,,,,359.1657822999987,359.8164181000029,359.8164181000029,360.31766410000273,45,315,360.31766410000273,360.31766410000273,360.31766410000273,360.31766410000273,360.31766410000273,360.31766410000273,360.31766410000273,360.31766410000273,360.31766410000273,360.68402440001955,360.68402440001955,360.68402440001955,360.68402440001955,360.68402440001955,360.68402440001955,360.68402440001955,360.68402440001955,360.68402440001955,23,0,,,360.68402440001955,360.88596959999995,1000,360.88596959999995,1000,1000,1000,1000,1,num_2,1.3130052000051364,,21,1,2026-03-02_17h12.18.203,2026A_exp2,2022.2.4,59.914143034916535,
1,0,0.0,3.7,1,0,76,76,0,,,,,362.2189083000121,362.86968800000614,362.86968800000614,363.3707682999957,315,45,363.3707682999957,363.3707682999957,363.3707682999957,363.3707682999957,363.3707682999957,363.3707682999957,363.3707682999957,363.3707682999957,363.3707682999957,363.7371989999956,363.7371989999956,363.7371989999956,363.7371989999956,363.7371989999956,363.7371989999956,363.7371989999956,363.7371989999956,363.7371989999956,1,1,[0.0011860999802593142],[0.3668576999916695],363.7371989999956,363.9372394999955,3.7,363.9372394999955,1,3.7,1,1,1000,num_4,3.246553100005258,,21,1,2026-03-02_17h12.18.203,2026A_exp2,2022.2.4,59.914143034916535,
1,0,4.9,6.1,0,0,77,77,33,,,,,367.207146700006,367.857851400011,367.857851400011,368.3422559000028,315,45,368.3422559000028,368.3422559000028,368.3422559000028,368.3422559000028,368.3422559000028,368.3422559000028,368.3422559000028,368.3422559000028,368.3422559000028,368.70872910000617,368.70872910000617,368.70872910000617,368.70872910000617,368.70872910000617,368.70872910000617,368.70872910000617,368.70872910000617,368.70872910000617,23,0,,,368.70872910000617,368.9089437999937,4.9,368.9089437999937,1,4.9,1,1,1000,num_4,1.601544900011504,,21,1,2026-03-02_17h12.18.203,2026A_exp2,2022.2.4,59.914143034916535,
1,0,3.7,0.0,1,0,78,78,11,,,,,370.52721250001923,371.1779582000163,371.1779582000163,371.66236149999895,45,45,371.66236149999895,371.66236149999895,371.66236149999895,371.66236149999895,371.66236149999895,371.66236149999895,371.66236149999895,371.66236149999895,371.66236149999895,372.0287582000019,372.0287582000019,372.0287582000019,372.0287582000019,372.0287582000019,372.0287582000019,372.0287582000019,372.0287582000019,372.0287582000019,23,0,,,372.0287582000019,372.2288219000038,0.0,372.2288219000038,0,0.0,0,1,1000,num_1,0.8901492999866605,,21,1,2026-03-02_17h12.18.203,2026A_exp2,2022.2.4,59.914143034916535,
1,0,6.1,4.9,0,0,79,79,81,,,,,373.1464694000024,373.7972360000131,373.7972360000131,374.281670700002,45,45,374.281670700002,374.281670700002,374.281670700002,374.281670700002,374.281670700002,374.281670700002,374.281670700002,374.281670700002,374.281670700002,374.64813180000056,374.64813180000056,374.64813180000056,374.64813180000056,374.64813180000056,374.64813180000056,374.64813180000056,374.64813180000056,374.64813180000056,23,0,,,374.64813180000056,374.8482400000212,6.1,374.8482400000212,1,6.1,1,1,1000,num_4,1.6312106999976095,,21,1,2026-03-02_17h12.18.203,2026A_exp2,2022.2.4,59.914143034916535,
0,0,0.0,0.0,1,0,80,80,38,,,,,376.4998270999931,377.15053280000575,377.15053280000575,377.6515663000173,45,45,377.6515663000173,377.6515663000173,377.6515663000173,377.6515663000173,377.6515663000173,377.6515663000173,377.6515663000173,377.6515663000173,377.6515663000173,378.0179064999975,378.0179064999975,378.0179064999975,378.0179064999975,378.0179064999975,378.0179064999975,378.0179064999975,378.0179064999975,378.0179064999975,23,0,,,378.0179064999975,378.2183477000217,0.0,378.2183477000217,0,0.0,0,1,1000,num_1,2.748857099999441,,21,1,2026-03-02_17h12.18.203,2026A_exp2,2022.2.4,59.914143034916535,
1,0,3.7,3.7,1,0,81,81,86,,,,,380.98757480000495,381.638248800009,381.638248800009,382.12288140002056,315,315,382.12288140002056,382.12288140002056,382.12288140002056,382.12288140002056,382.12288140002056,382.12288140002056,382.12288140002056,382.12288140002056,382.12288140002056,382.48925390001386,382.48925390001386,382.48925390001386,382.48925390001386,382.48925390001386,382.48925390001386,382.48925390001386,382.48925390001386,382.48925390001386,23,0,,,382.48925390001386,382.6893466000038,3.7,382.6893466000038,0,3.7,1,0,1000,num_1,3.2938054999976885,,21,1,2026-03-02_17h12.18.203,2026A_exp2,2022.2.4,59.914143034916535,
0,0,0.0,4.9,0,0,82,82,14,,,,,386.00931399999536,386.66011630001594,386.66011630001594,387.1505423000199,315,45,387.1505423000199,387.1505423000199,387.1505423000199,387.1505423000199,387.1505423000199,387.1505423000199,387.1505423000199,387.1505423000199,387.1505423000199,387.51105910001206,387.51105910001206,387.51105910001206,387.51105910001206,387.51105910001206,387.51105910001206,387.51105910001206,387.51105910001206,387.51105910001206,23,0,,,387.51105910001206,387.71435930000735,4.9,387.71435930000735,1,4.9,1,1,1000,num_4,2.260160800011363,,21,1,2026-03-02_17h12.18.203,2026A_exp2,2022.2.4,59.914143034916535,
1,0,4.9,0.0,0,0,83,83,4,,,,,389.99669930001255,390.6307319000189,390.6307319000189,391.13191100000404,315,315,391.13191100000404,391.13191100000404,391.13191100000404,391.13191100000404,391.13191100000404,391.13191100000404,391.13191100000404,391.13191100000404,391.13191100000404,391.49815900000976,391.49815900000976,391.49815900000976,391.49815900000976,391.49815900000976,391.49815900000976,391.49815900000976,391.49815900000976,391.49815900000976,23,0,,,391.49815900000976,391.6983567000134,4.9,391.6983567000134,1,4.9,1,1,1000,num_4,0.9004887999908533,,21,1,2026-03-02_17h12.18.203,2026A_exp2,2022.2.4,59.914143034916535,
1,0,0.0,0.0,1,0,84,84,21,,,,,392.6160276000155,393.2668891000212,393.2668891000212,393.751061100018,315,315,393.751061100018,393.751061100018,393.751061100018,393.751061100018,393.751061100018,393.751061100018,393.751061100018,393.751061100018,393.751061100018,394.1174713000073,394.1174713000073,394.1174713000073,394.1174713000073,394.1174713000073,394.1174713000073,394.1174713000073,394.1174713000073,394.1174713000073,23,0,,,394.1174713000073,394.3173416000209,0.0,394.3173416000209,0,0.0,0,1,1000,num_1,0.5060643999895547,,21,1,2026-03-02_17h12.18.203,2026A_exp2,2022.2.4,59.914143034916535,
1,0,3.7,0.0,0,0,85,85,8,,,,,394.8519814000174,395.5020482999971,395.5020482999971,395.9865736000065,315,315,395.9865736000065,395.9865736000065,395.9865736000065,395.9865736000065,395.9865736000065,395.9865736000065,395.9865736000065,395.9865736000065,395.9865736000065,396.3527835000132,396.3527835000132,396.3527835000132,396.3527835000132,396.3527835000132,396.3527835000132,396.3527835000132,396.3527835000132,396.3527835000132,23,0,,,396.3527835000132,396.5532840999949,3.7,396.5532840999949,1,3.7,1,1,1000,num_4,1.6377448000130244,,21,1,2026-03-02_17h12.18.203,2026A_exp2,2022.2.4,59.914143034916535,
1000,1,3.7,0.0,0,0,86,86,32,,,,,398.22147010001936,398.87214479999966,398.87214479999966,399.35660130000906,45,45,399.35660130000906,399.35660130000906,399.35660130000906,399.35660130000906,399.35660130000906,399.35660130000906,399.35660130000906,399.35660130000906,399.35660130000906,399.7231201000104,399.7231201000104,399.7231201000104,399.7231201000104,399.7231201000104,399.7231201000104,399.7231201000104,399.7231201000104,399.7231201000104,23,0,,,399.7231201000104,399.92507430000114,1000,399.92507430000114,1000,1000,1000,1000,0,num_3,1.1463377999898512,,21,1,2026-03-02_17h12.18.203,2026A_exp2,2022.2.4,59.914143034916535,
1,0,4.9,4.9,0,0,87,87,39,,,,,401.09110829999554,401.74182080000173,401.74182080000173,402.2260909000179,315,315,402.2260909000179,402.2260909000179,402.2260909000179,402.2260909000179,402.2260909000179,402.2260909000179,402.2260909000179,402.2260909000179,402.2260909000179,402.5926880000043,402.5926880000043,402.5926880000043,402.5926880000043,402.5926880000043,402.5926880000043,402.5926880000043,402.5926880000043,402.5926880000043,23,0,,,402.5926880000043,402.7927380000183,4.9,402.7927380000183,1,4.9,1,1,1000,num_4,1.7978239000076428,,21,1,2026-03-02_17h12.18.203,2026A_exp2,2022.2.4,59.914143034916535,
0,0,0.0,0.0,0,0,88,88,22,,,,,404.6112347000162,405.26201770000625,405.26201770000625,405.74627450000844,315,45,405.74627450000844,405.74627450000844,405.74627450000844,405.74627450000844,405.74627450000844,405.74627450000844,405.74627450000844,405.74627450000844,405.74627450000844,406.113002099999,406.113002099999,406.113002099999,406.113002099999,406.113002099999,406.113002099999,406.113002099999,406.113002099999,406.113002099999,23,0,,,406.113002099999,406.31301529999473,0.0,406.31301529999473,0,0.0,0,1,1000,num_1,1.4775148000044283,,21,1,2026-03-02_17h12.18.203,2026A_exp2,2022.2.4,59.914143034916535,
1,0,0.0,6.1,0,0,89,89,82,,,,,407.8146623999928,408.46524590000627,408.46524590000627,408.949672000017,45,315,408.949672000017,408.949672000017,408.949672000017,408.949672000017,408.949672000017,408.949672000017,408.949672000017,408.949672000017,408.949672000017,409.3159566000104,409.3159566000104,409.3159566000104,409.3159566000104,409.3159566000104,409.3159566000104,409.3159566000104,409.3159566000104,409.3159566000104,23,0,,,409.3159566000104,409.5162898999988,0.0,409.5162898999988,0,0.0,0,1,1000,num_1,1.1148079999838956,,21,1,2026-03-02_17h12.18.203,2026A_exp2,2022.2.4,59.914143034916535,
,,,,,,,,,,,,,,,,,,,,,,,,,,,,,,,,,,,,,,,,,,,,,,,,,,,,410.6525922000001,,,,,,,
