validity,detectorcomp,contrastCW,contrastCCW,precueCWorCCW,block_80trials.thisRepN,block_80trials.thisTrialN,block_80trials.thisN,block_80trials.thisIndex,etRecord.started,etRecord.stopped,text.started,text.stopped,text_4.started,text_4.stopped,text_6.started,text_6.stopped,oriCW,oriCCW,roi_2.started,grating_UR.started,grating_UL.started,grating_LR.started,grating_LL.started,noise_UR.started,noise_UL.started,noise_LR.started,noise_LL.started,roi_2.stopped,grating_UR.stopped,grating_UL.stopped,grating_LR.stopped,grating_LL.stopped,noise_UR.stopped,noise_UL.stopped,noise_LR.stopped,noise_LL.stopped,outframe,roi_2.numLooks,roi_2.timesOn,roi_2.timesOff,text_2.started,text_2.stopped,probedcontrast,key_resp.started,respdetect,relevantContrast,correctDetect,TorFdetect,respCWorCCW,key_resp.keys,key_resp.rt,feedback_display_.started,participantNo,blockNo,date,expName,psychopyVersion,frameRate,
0,0,0.0,0.0,0,0,0,0,15,5.650008097290993e-05,5.650008097290993e-05,47.75600329996087,49.75982749997638,49.75982749997638,50.39261800004169,50.39261800004169,50.9147598000709,315,45,50.9147598000709,50.9147598000709,50.9147598000709,50.9147598000709,50.9147598000709,50.9147598000709,50.9147598000709,50.9147598000709,50.9147598000709,51.26023339992389,51.26023339992389,51.26023339992389,51.26023339992389,51.26023339992389,51.26023339992389,51.26023339992389,51.26023339992389,51.26023339992389,22,1,[0.001006899867206812],[0.03611869993619621],51.26023339992389,51.460519100073725,0.0,51.460519100073725,0,0.0,0,1,1000,num_1,0.9038784999866039,,32,5,2026-03-12_15h32.14.766,2026A_exp2,2022.2.4,59.9615286694837,
1000,1,3.7,4.9,1,0,1,1,71,,,,,52.394921199884266,53.04553909995593,53.04553909995593,53.54661369998939,45,315,53.54661369998939,53.54661369998939,53.54661369998939,53.54661369998939,53.54661369998939,53.54661369998939,53.54661369998939,53.54661369998939,53.54661369998939,53.89635549997911,53.89635549997911,53.89635549997911,53.89635549997911,53.89635549997911,53.89635549997911,53.89635549997911,53.89635549997911,53.89635549997911,22,0,,,53.89635549997911,54.101039099972695,1000,54.11319800000638,1000,1000,1000,1000,1,num_2,0.5563306000549346,,32,5,2026-03-12_15h32.14.766,2026A_exp2,2022.2.4,59.9615286694837,
1,0,3.7,0.0,0,0,2,2,26,,,,,54.6972042999696,55.34769059997052,55.34769059997052,55.84883440006524,45,315,55.84883440006524,55.84883440006524,55.84883440006524,55.84883440006524,55.84883440006524,55.84883440006524,55.84883440006524,55.84883440006524,55.84883440006524,56.21526880003512,56.21526880003512,56.21526880003512,56.21526880003512,56.21526880003512,56.21526880003512,56.21526880003512,56.21526880003512,56.21526880003512,23,0,,,56.21526880003512,56.4154489999637,3.7,56.4154489999637,1,3.7,1,1,1000,num_4,0.6612814001273364,,32,5,2026-03-12_15h32.14.766,2026A_exp2,2022.2.4,59.9615286694837,
1000,1,0.0,0.0,1,0,3,3,29,,,,,57.099308599950746,57.73339190008119,57.73339190008119,58.23448739992455,315,45,58.23448739992455,58.23448739992455,58.23448739992455,58.23448739992455,58.23448739992455,58.23448739992455,58.23448739992455,58.23448739992455,58.23448739992455,58.60112040000968,58.60112040000968,58.60112040000968,58.60112040000968,58.60112040000968,58.60112040000968,58.60112040000968,58.60112040000968,58.60112040000968,23,0,,,58.60112040000968,58.80344899999909,1000,58.80344899999909,1000,1000,1000,1000,1,num_2,0.7685553000774235,,32,5,2026-03-12_15h32.14.766,2026A_exp2,2022.2.4,59.9615286694837,
1000,1,0.0,3.7,0,0,4,4,43,,,,,59.60196450003423,60.25257320003584,60.25257320003584,60.73707689996809,315,315,60.73707689996809,60.73707689996809,60.73707689996809,60.73707689996809,60.73707689996809,60.73707689996809,60.73707689996809,60.73707689996809,60.73707689996809,61.103466799948364,61.103466799948364,61.103466799948364,61.103466799948364,61.103466799948364,61.103466799948364,61.103466799948364,61.103466799948364,61.103466799948364,23,0,,,61.103466799948364,61.31142030004412,1000,61.31142030004412,1000,1000,1000,1000,0,num_3,0.5015161000192165,,32,5,2026-03-12_15h32.14.766,2026A_exp2,2022.2.4,59.9615286694837,
1000,1,0.0,0.0,0,0,5,5,7,,,,,61.837715399917215,62.48831889987923,62.48831889987923,62.98937080008909,45,45,62.98937080008909,62.98937080008909,62.98937080008909,62.98937080008909,62.98937080008909,62.98937080008909,62.98937080008909,62.98937080008909,62.98937080008909,63.355375200044364,63.355375200044364,63.355375200044364,63.355375200044364,63.355375200044364,63.355375200044364,63.355375200044364,63.355375200044364,63.355375200044364,23,0,,,63.355375200044364,63.55804660008289,1000,63.55804660008289,1000,1000,1000,1000,0,num_3,0.39887709985487163,,32,5,2026-03-12_15h32.14.766,2026A_exp2,2022.2.4,59.9615286694837,
1,0,0.0,0.0,0,0,6,6,87,,,,,63.97293210006319,64.6237717999611,64.6237717999611,65.12485629995354,315,45,65.12485629995354,65.12485629995354,65.12485629995354,65.12485629995354,65.12485629995354,65.12485629995354,65.12485629995354,65.12485629995354,65.12485629995354,65.49114649998955,65.49114649998955,65.49114649998955,65.49114649998955,65.49114649998955,65.49114649998955,65.49114649998955,65.49114649998955,65.49114649998955,23,0,,,65.49114649998955,65.69148909999058,0.0,65.69148909999058,1,0.0,0,0,1000,num_4,0.6579181000124663,,32,5,2026-03-12_15h32.14.766,2026A_exp2,2022.2.4,59.9615286694837,
1,0,4.9,4.9,1,0,7,7,9,,,,,66.3753054998815,67.0261663000565,67.0261663000565,67.51058169989847,315,45,67.51058169989847,67.51058169989847,67.51058169989847,67.51058169989847,67.51058169989847,67.51058169989847,67.51058169989847,67.51058169989847,67.51058169989847,67.87700790003873,67.87700790003873,67.87700790003873,67.87700790003873,67.87700790003873,67.87700790003873,67.87700790003873,67.87700790003873,67.87700790003873,23,0,,,67.87700790003873,68.0771085000597,4.9,68.0771085000597,1,4.9,1,1,1000,num_4,0.4481087001040578,,32,5,2026-03-12_15h32.14.766,2026A_exp2,2022.2.4,59.9615286694837,
1000,1,0.0,0.0,0,0,8,8,62,,,,,68.54432850005105,69.19493469991721,69.19493469991721,69.69606689992361,45,315,69.69606689992361,69.69606689992361,69.69606689992361,69.69606689992361,69.69606689992361,69.69606689992361,69.69606689992361,69.69606689992361,69.69606689992361,70.04575180006213,70.04575180006213,70.04575180006213,70.04575180006213,70.04575180006213,70.04575180006213,70.04575180006213,70.04575180006213,70.04575180006213,22,0,,,70.04575180006213,70.24786880007014,1000,70.24786880007014,1000,1000,1000,1000,0,num_3,0.43765909993089736,,32,5,2026-03-12_15h32.14.766,2026A_exp2,2022.2.4,59.9615286694837,
1,0,0.0,0.0,1,0,9,9,6,,,,,70.7129631000571,71.36359540000558,71.36359540000558,71.86473000003025,315,315,71.86473000003025,71.86473000003025,71.86473000003025,71.86473000003025,71.86473000003025,71.86473000003025,71.86473000003025,71.86473000003025,71.86473000003025,72.23135189991444,72.23135189991444,72.23135189991444,72.23135189991444,72.23135189991444,72.23135189991444,72.23135189991444,72.23135189991444,72.23135189991444,23,0,,,72.23135189991444,72.43162159994245,0.0,72.43162159994245,1,0.0,0,0,1000,num_4,0.5810034999158233,,32,5,2026-03-12_15h32.14.766,2026A_exp2,2022.2.4,59.9615286694837,
0,0,6.1,0.0,0,0,10,10,41,,,,,73.03200379991904,73.68264480005018,73.68264480005018,74.16711329994723,45,45,74.16711329994723,74.16711329994723,74.16711329994723,74.16711329994723,74.16711329994723,74.16711329994723,74.16711329994723,74.16711329994723,74.16711329994723,74.5336017999798,74.5336017999798,74.5336017999798,74.5336017999798,74.5336017999798,74.5336017999798,74.5336017999798,74.5336017999798,74.5336017999798,23,0,,,74.5336017999798,74.73372290004045,0.0,74.73372290004045,0,0.0,0,1,1000,num_1,0.6465602000243962,,32,5,2026-03-12_15h32.14.766,2026A_exp2,2022.2.4,59.9615286694837,
1000,1,0.0,0.0,1,0,11,11,73,,,,,75.40088490000926,76.0518269999884,76.0518269999884,76.53622259991243,315,315,76.53622259991243,76.53622259991243,76.53622259991243,76.53622259991243,76.53622259991243,76.53622259991243,76.53622259991243,76.53622259991243,76.53622259991243,76.90271240007132,76.90271240007132,76.90271240007132,76.90271240007132,76.90271240007132,76.90271240007132,76.90271240007132,76.90271240007132,76.90271240007132,23,0,,,76.90271240007132,77.10527840000577,1000,77.10527840000577,1000,1000,1000,1000,0,num_3,0.683986600022763,,32,5,2026-03-12_15h32.14.766,2026A_exp2,2022.2.4,59.9615286694837,
1000,1,0.0,6.1,0,0,12,12,61,,,,,77.82031779992394,78.45426100003533,78.45426100003533,78.95535960001871,315,45,78.95535960001871,78.95535960001871,78.95535960001871,78.95535960001871,78.95535960001871,78.95535960001871,78.95535960001871,78.95535960001871,78.95535960001871,79.32158729992807,79.32158729992807,79.32158729992807,79.32158729992807,79.32158729992807,79.32158729992807,79.32158729992807,79.32158729992807,79.32158729992807,23,0,,,79.32158729992807,79.52367280004546,1000,79.52367280004546,1000,1000,1000,1000,1,num_2,0.5606407001614571,,32,5,2026-03-12_15h32.14.766,2026A_exp2,2022.2.4,59.9615286694837,
0,0,0.0,3.7,1,0,13,13,53,,,,,80.10575000010431,80.75643619988114,80.75643619988114,81.25763630005531,315,315,81.25763630005531,81.25763630005531,81.25763630005531,81.25763630005531,81.25763630005531,81.25763630005531,81.25763630005531,81.25763630005531,81.25763630005531,81.62397930002771,81.62397930002771,81.62397930002771,81.62397930002771,81.62397930002771,81.62397930002771,81.62397930002771,81.62397930002771,81.62397930002771,23,0,,,81.62397930002771,81.82422899990343,0.0,81.82422899990343,0,0.0,0,1,1000,num_1,0.8446577999275178,,32,5,2026-03-12_15h32.14.766,2026A_exp2,2022.2.4,59.9615286694837,
1000,1,0.0,3.7,1,0,14,14,4,,,,,82.69164069998078,83.34494209988043,83.34494209988043,83.82675940007903,45,315,83.82675940007903,83.82675940007903,83.82675940007903,83.82675940007903,83.82675940007903,83.82675940007903,83.82675940007903,83.82675940007903,83.82675940007903,84.19326970004477,84.19326970004477,84.19326970004477,84.19326970004477,84.19326970004477,84.19326970004477,84.19326970004477,84.19326970004477,84.19326970004477,23,0,,,84.19326970004477,84.39572690008208,1000,84.39572690008208,1000,1000,1000,1000,1,num_2,0.7125570001080632,,32,5,2026-03-12_15h32.14.766,2026A_exp2,2022.2.4,59.9615286694837,
1,0,0.0,6.1,0,0,15,15,24,,,,,85.12745169992559,85.77817120007239,85.77817120007239,86.27934379992075,315,315,86.27934379992075,86.27934379992075,86.27934379992075,86.27934379992075,86.27934379992075,86.27934379992075,86.27934379992075,86.27934379992075,86.27934379992075,86.64577169995755,86.64577169995755,86.64577169995755,86.64577169995755,86.64577169995755,86.64577169995755,86.64577169995755,86.64577169995755,86.64577169995755,23,0,,,86.64577169995755,86.84638269990683,0.0,86.84638269990683,1,0.0,0,0,1000,num_4,0.6542679001577199,,32,5,2026-03-12_15h32.14.766,2026A_exp2,2022.2.4,59.9615286694837,
1000,1,0.0,0.0,0,0,16,16,45,,,,,87.5301248000469,88.16396449995227,88.16396449995227,88.66507630003616,315,315,88.66507630003616,88.66507630003616,88.66507630003616,88.66507630003616,88.66507630003616,88.66507630003616,88.66507630003616,88.66507630003616,88.66507630003616,89.03149829991162,89.03149829991162,89.03149829991162,89.03149829991162,89.03149829991162,89.03149829991162,89.03149829991162,89.03149829991162,89.03149829991162,23,0,,,89.03149829991162,89.23341790004633,1000,89.23341790004633,1000,1000,1000,1000,0,num_3,0.6351014000829309,,32,5,2026-03-12_15h32.14.766,2026A_exp2,2022.2.4,59.9615286694837,
0,0,0.0,0.0,1,0,17,17,44,,,,,89.89891139999963,90.54959299997427,90.54959299997427,91.05087119992822,45,315,91.05087119992822,91.05087119992822,91.05087119992822,91.05087119992822,91.05087119992822,91.05087119992822,91.05087119992822,91.05087119992822,91.05087119992822,91.41720300004818,91.41720300004818,91.41720300004818,91.41720300004818,91.41720300004818,91.41720300004818,91.41720300004818,91.41720300004818,91.41720300004818,23,0,,,91.41720300004818,91.61728339991532,0.0,91.61728339991532,0,0.0,0,1,1000,num_1,1.2518938998691738,,32,5,2026-03-12_15h32.14.766,2026A_exp2,2022.2.4,59.9615286694837,
1000,1,0.0,3.7,0,0,18,18,23,,,,,92.88540649996139,93.51930300006643,93.51930300006643,94.02023919997737,45,45,94.02023919997737,94.02023919997737,94.02023919997737,94.02023919997737,94.02023919997737,94.02023919997737,94.02023919997737,94.02023919997737,94.02023919997737,94.38679719995707,94.38679719995707,94.38679719995707,94.38679719995707,94.38679719995707,94.38679719995707,94.38679719995707,94.38679719995707,94.38679719995707,23,0,,,94.38679719995707,94.58876660000533,1000,94.58876660000533,1000,1000,1000,1000,0,num_3,0.6961240998934954,,32,5,2026-03-12_15h32.14.766,2026A_exp2,2022.2.4,59.9615286694837,
1,0,3.7,0.0,0,0,19,19,10,,,,,95.30428669997491,95.95508329989389,95.95508329989389,96.45631929999217,315,315,96.45631929999217,96.45631929999217,96.45631929999217,96.45631929999217,96.45631929999217,96.45631929999217,96.45631929999217,96.45631929999217,96.45631929999217,96.82258899998851,96.82258899998851,96.82258899998851,96.82258899998851,96.82258899998851,96.82258899998851,96.82258899998851,96.82258899998851,96.82258899998851,23,0,,,96.82258899998851,97.02285890001804,3.7,97.02285890001804,1,3.7,1,1,1000,num_4,0.5978820000309497,,32,5,2026-03-12_15h32.14.766,2026A_exp2,2022.2.4,59.9615286694837,
0,0,4.9,0.0,0,0,20,20,40,,,,,97.64027690002695,98.27393390005454,98.27393390005454,98.77503679995425,45,45,98.77503679995425,98.77503679995425,98.77503679995425,98.77503679995425,98.77503679995425,98.77503679995425,98.77503679995425,98.77503679995425,98.77503679995425,99.14160150010139,99.14160150010139,99.14160150010139,99.14160150010139,99.14160150010139,99.14160150010139,99.14160150010139,99.14160150010139,99.14160150010139,23,0,,,99.14160150010139,99.34183469996788,0.0,99.34183469996788,0,0.0,0,1,1000,num_1,0.7273222000803798,,32,5,2026-03-12_15h32.14.766,2026A_exp2,2022.2.4,59.9615286694837,
1000,1,0.0,0.0,0,0,21,21,72,,,,,100.0921974000521,100.74323139991611,100.74323139991611,101.22749700001441,45,45,101.22749700001441,101.22749700001441,101.22749700001441,101.22749700001441,101.22749700001441,101.22749700001441,101.22749700001441,101.22749700001441,101.22749700001441,101.5940280999057,101.5940280999057,101.5940280999057,101.5940280999057,101.5940280999057,101.5940280999057,101.5940280999057,101.5940280999057,101.5940280999057,23,0,,,101.5940280999057,101.79600810003467,1000,101.79600810003467,1000,1000,1000,1000,0,num_3,0.5842329999431968,,32,5,2026-03-12_15h32.14.766,2026A_exp2,2022.2.4,59.9615286694837,
1,0,0.0,0.0,1,0,22,22,33,,,,,102.41155919991434,103.0621229999233,103.0621229999233,103.56330720009282,315,315,103.56330720009282,103.56330720009282,103.56330720009282,103.56330720009282,103.56330720009282,103.56330720009282,103.56330720009282,103.56330720009282,103.56330720009282,103.92968449997716,103.92968449997716,103.92968449997716,103.92968449997716,103.92968449997716,103.92968449997716,103.92968449997716,103.92968449997716,103.92968449997716,23,0,,,103.92968449997716,104.1298078999389,0.0,104.1298078999389,0,0.0,0,1,1000,num_1,0.9068911001086235,,32,5,2026-03-12_15h32.14.766,2026A_exp2,2022.2.4,59.9615286694837,
1,0,0.0,6.1,1,0,23,23,19,,,,,105.06407080008648,105.71476370003074,105.71476370003074,106.19902559998445,45,45,106.19902559998445,106.19902559998445,106.19902559998445,106.19902559998445,106.19902559998445,106.19902559998445,106.19902559998445,106.19902559998445,106.19902559998445,106.56548859993927,106.56548859993927,106.56548859993927,106.56548859993927,106.56548859993927,106.56548859993927,106.56548859993927,106.56548859993927,106.56548859993927,23,0,,,106.56548859993927,106.76607479993254,6.1,106.76607479993254,1,6.1,1,1,1000,num_4,0.3434454998932779,,32,5,2026-03-12_15h32.14.766,2026A_exp2,2022.2.4,59.9615286694837,
1000,1,0.0,3.7,1,0,24,24,88,,,,,107.13277720008045,107.7833682000637,107.7833682000637,108.26799089997075,45,315,108.26799089997075,108.26799089997075,108.26799089997075,108.26799089997075,108.26799089997075,108.26799089997075,108.26799089997075,108.26799089997075,108.26799089997075,108.63437189999968,108.63437189999968,108.63437189999968,108.63437189999968,108.63437189999968,108.63437189999968,108.63437189999968,108.63437189999968,108.63437189999968,23,0,,,108.63437189999968,108.83588870009407,1000,108.83588870009407,1000,1000,1000,1000,1,num_2,0.6571792999748141,,32,5,2026-03-12_15h32.14.766,2026A_exp2,2022.2.4,59.9615286694837,
1000,1,0.0,0.0,0,0,25,25,64,,,,,109.51853000000119,110.16924339998513,110.16924339998513,110.67026260006242,315,45,110.67026260006242,110.67026260006242,110.67026260006242,110.67026260006242,110.67026260006242,110.67026260006242,110.67026260006242,110.67026260006242,110.67026260006242,111.03628799994476,111.03628799994476,111.03628799994476,111.03628799994476,111.03628799994476,111.03628799994476,111.03628799994476,111.03628799994476,111.03628799994476,23,0,,,111.03628799994476,111.23923689988442,1000,111.23923689988442,1000,1000,1000,1000,0,num_3,0.4049726000521332,,32,5,2026-03-12_15h32.14.766,2026A_exp2,2022.2.4,59.9615286694837,
0,0,6.1,3.7,0,0,26,26,49,,,,,111.67064279993065,112.32133720000274,112.32133720000274,112.82248160010204,45,315,112.82248160010204,112.82248160010204,112.82248160010204,112.82248160010204,112.82248160010204,112.82248160010204,112.82248160010204,112.82248160010204,112.82248160010204,113.18882640008815,113.18882640008815,113.18882640008815,113.18882640008815,113.18882640008815,113.18882640008815,113.18882640008815,113.18882640008815,113.18882640008815,23,0,,,113.18882640008815,113.38909829990007,3.7,113.38909829990007,0,3.7,1,0,1000,num_1,1.1277439000550658,,32,5,2026-03-12_15h32.14.766,2026A_exp2,2022.2.4,59.9615286694837,
1000,1,0.0,4.9,0,0,27,27,8,,,,,114.54008370009251,115.19114900007844,115.19114900007844,115.67535579996184,45,45,115.67535579996184,115.67535579996184,115.67535579996184,115.67535579996184,115.67535579996184,115.67535579996184,115.67535579996184,115.67535579996184,115.67535579996184,116.04183660005219,116.04183660005219,116.04183660005219,116.04183660005219,116.04183660005219,116.04183660005219,116.04183660005219,116.04183660005219,116.04183660005219,23,0,,,116.04183660005219,116.24350060010329,1000,116.24350060010329,1000,1000,1000,1000,1,num_2,0.5366110999602824,,32,5,2026-03-12_15h32.14.766,2026A_exp2,2022.2.4,59.9615286694837,
1000,1,0.0,0.0,1,0,28,28,3,,,,,116.80965330009349,117.45983409998007,117.45983409998007,117.94423160003498,315,315,117.94423160003498,117.94423160003498,117.94423160003498,117.94423160003498,117.94423160003498,117.94423160003498,117.94423160003498,117.94423160003498,117.94423160003498,118.31068510003388,118.31068510003388,118.31068510003388,118.31068510003388,118.31068510003388,118.31068510003388,118.31068510003388,118.31068510003388,118.31068510003388,23,0,,,118.31068510003388,118.51259729987942,1000,118.51259729987942,1000,1000,1000,1000,1,num_2,0.803618700010702,,32,5,2026-03-12_15h32.14.766,2026A_exp2,2022.2.4,59.9615286694837,
1,0,0.0,4.9,0,0,29,29,14,,,,,119.34503480000421,119.99559590010904,119.99559590010904,120.48006369988434,45,315,120.48006369988434,120.48006369988434,120.48006369988434,120.48006369988434,120.48006369988434,120.48006369988434,120.48006369988434,120.48006369988434,120.48006369988434,120.84655539994128,120.84655539994128,120.84655539994128,120.84655539994128,120.84655539994128,120.84655539994128,120.84655539994128,120.84655539994128,120.84655539994128,23,0,,,120.84655539994128,121.04684620001353,0.0,121.04684620001353,1,0.0,0,0,1000,num_4,0.7026748000644147,,32,5,2026-03-12_15h32.14.766,2026A_exp2,2022.2.4,59.9615286694837,
1000,1,4.9,3.7,1,0,30,30,78,,,,,121.78069239994511,122.431457699975,122.431457699975,122.9160543999169,315,315,122.9160543999169,122.9160543999169,122.9160543999169,122.9160543999169,122.9160543999169,122.9160543999169,122.9160543999169,122.9160543999169,122.9160543999169,123.28238609991968,123.28238609991968,123.28238609991968,123.28238609991968,123.28238609991968,123.28238609991968,123.28238609991968,123.28238609991968,123.28238609991968,23,0,,,123.28238609991968,123.48427170002833,1000,123.48427170002833,1000,1000,1000,1000,0,num_3,0.600203099893406,,32,5,2026-03-12_15h32.14.766,2026A_exp2,2022.2.4,59.9615286694837,
1000,1,6.1,0.0,1,0,31,31,79,,,,,124.09978919988498,124.75043829996139,124.75043829996139,125.25155070004985,45,315,125.25155070004985,125.25155070004985,125.25155070004985,125.25155070004985,125.25155070004985,125.25155070004985,125.25155070004985,125.25155070004985,125.25155070004985,125.61803600005805,125.61803600005805,125.61803600005805,125.61803600005805,125.61803600005805,125.61803600005805,125.61803600005805,125.61803600005805,125.61803600005805,23,0,,,125.61803600005805,125.82026059995405,1000,125.82026059995405,1000,1000,1000,1000,0,num_3,0.5126163999084383,,32,5,2026-03-12_15h32.14.766,2026A_exp2,2022.2.4,59.9615286694837,
1000,1,0.0,6.1,1,0,32,32,42,,,,,126.3519621999003,127.00274270004593,127.00274270004593,127.50401240005158,45,315,127.50401240005158,127.50401240005158,127.50401240005158,127.50401240005158,127.50401240005158,127.50401240005158,127.50401240005158,127.50401240005158,127.50401240005158,127.85357909998856,127.85357909998856,127.85357909998856,127.85357909998856,127.85357909998856,127.85357909998856,127.85357909998856,127.85357909998856,127.85357909998856,22,0,,,127.85357909998856,128.05569160007872,1000,128.0706130999606,1000,1000,1000,1000,1,num_2,0.3345170998945832,,32,5,2026-03-12_15h32.14.766,2026A_exp2,2022.2.4,59.9615286694837,
1000,1,0.0,0.0,0,0,33,33,57,,,,,128.42070899996907,129.07139920000918,129.07139920000918,129.5729338999372,315,45,129.5729338999372,129.5729338999372,129.5729338999372,129.5729338999372,129.5729338999372,129.5729338999372,129.5729338999372,129.5729338999372,129.5729338999372,129.93897509993985,129.93897509993985,129.93897509993985,129.93897509993985,129.93897509993985,129.93897509993985,129.93897509993985,129.93897509993985,129.93897509993985,23,0,,,129.93897509993985,130.14167429995723,1000,130.14167429995723,1000,1000,1000,1000,0,num_3,0.3669893001206219,,32,5,2026-03-12_15h32.14.766,2026A_exp2,2022.2.4,59.9615286694837,
1000,1,0.0,0.0,1,0,34,34,55,,,,,130.53958259988576,131.1899727000855,131.1899727000855,131.6914715000894,45,315,131.6914715000894,131.6914715000894,131.6914715000894,131.6914715000894,131.6914715000894,131.6914715000894,131.6914715000894,131.6914715000894,131.6914715000894,132.0577221000567,132.0577221000567,132.0577221000567,132.0577221000567,132.0577221000567,132.0577221000567,132.0577221000567,132.0577221000567,132.0577221000567,23,0,,,132.0577221000567,132.2580108998809,1000,132.2580108998809,1000,1000,1000,1000,1,num_2,0.3949313999619335,,32,5,2026-03-12_15h32.14.766,2026A_exp2,2022.2.4,59.9615286694837,
1,0,3.7,6.1,1,0,35,35,68,,,,,132.6748673999682,133.31709169992246,133.31709169992246,133.81492309994064,45,315,133.81492309994064,133.81492309994064,133.81492309994064,133.81492309994064,133.81492309994064,133.81492309994064,133.81492309994064,133.81492309994064,133.81492309994064,134.17662489996292,134.17662489996292,134.17662489996292,134.17662489996292,134.17662489996292,134.17662489996292,134.17662489996292,134.17662489996292,134.17662489996292,23,0,,,134.17662489996292,134.37964590010233,6.1,134.37964590010233,1,6.1,1,1,1000,num_4,0.521962899947539,,32,5,2026-03-12_15h32.14.766,2026A_exp2,2022.2.4,59.9615286694837,
1000,1,6.1,6.1,1,0,36,36,22,,,,,134.92722150008194,135.5781078999862,135.5781078999862,136.0624832001049,315,315,136.0624832001049,136.0624832001049,136.0624832001049,136.0624832001049,136.0624832001049,136.0624832001049,136.0624832001049,136.0624832001049,136.0624832001049,136.42893969989382,136.42893969989382,136.42893969989382,136.42893969989382,136.42893969989382,136.42893969989382,136.42893969989382,136.42893969989382,136.42893969989382,23,0,,,136.42893969989382,136.6308917000424,1000,136.6308917000424,1000,1000,1000,1000,1,num_2,0.8292982999701053,,32,5,2026-03-12_15h32.14.766,2026A_exp2,2022.2.4,59.9615286694837,
1000,1,0.0,6.1,0,0,37,37,16,,,,,137.47974759992212,138.13048080005683,138.13048080005683,138.63168979994953,315,45,138.63168979994953,138.63168979994953,138.63168979994953,138.63168979994953,138.63168979994953,138.63168979994953,138.63168979994953,138.63168979994953,138.63168979994953,138.99804780003615,138.99804780003615,138.99804780003615,138.99804780003615,138.99804780003615,138.99804780003615,138.99804780003615,138.99804780003615,138.99804780003615,23,0,,,138.99804780003615,139.2000696999021,1000,139.2000696999021,1000,1000,1000,1000,1,num_2,0.39612550009042025,,32,5,2026-03-12_15h32.14.766,2026A_exp2,2022.2.4,59.9615286694837,
1000,1,0.0,6.1,1,0,38,38,13,,,,,139.61566319991834,140.2658834999893,140.2658834999893,140.7670056000352,45,45,140.7670056000352,140.7670056000352,140.7670056000352,140.7670056000352,140.7670056000352,140.7670056000352,140.7670056000352,140.7670056000352,140.7670056000352,141.1333892000839,141.1333892000839,141.1333892000839,141.1333892000839,141.1333892000839,141.1333892000839,141.1333892000839,141.1333892000839,141.1333892000839,23,0,,,141.1333892000839,141.33390230010264,1000,141.33390230010264,1000,1000,1000,1000,1,num_2,0.36619689990766346,,32,5,2026-03-12_15h32.14.766,2026A_exp2,2022.2.4,59.9615286694837,
1000,1,3.7,6.1,0,0,39,39,60,,,,,141.7174601999577,142.36791749997064,142.36791749997064,142.86927739996463,315,45,142.86927739996463,142.86927739996463,142.86927739996463,142.86927739996463,142.86927739996463,142.86927739996463,142.86927739996463,142.86927739996463,142.86927739996463,143.2356632000301,143.2356632000301,143.2356632000301,143.2356632000301,143.2356632000301,143.2356632000301,143.2356632000301,143.2356632000301,143.2356632000301,23,0,,,143.2356632000301,143.43747680005617,1000,143.43747680005617,1000,1000,1000,1000,1,num_2,0.5513347999658436,,32,5,2026-03-12_15h32.14.766,2026A_exp2,2022.2.4,59.9615286694837,
1000,1,6.1,0.0,0,0,40,40,27,,,,,144.01968350005336,144.67036819993518,144.67036819993518,145.17149040009826,315,315,145.17149040009826,145.17149040009826,145.17149040009826,145.17149040009826,145.17149040009826,145.17149040009826,145.17149040009826,145.17149040009826,145.17149040009826,145.5377990999259,145.5377990999259,145.5377990999259,145.5377990999259,145.5377990999259,145.5377990999259,145.5377990999259,145.5377990999259,145.5377990999259,23,0,,,145.5377990999259,145.74047870002687,1000,145.74047870002687,1000,1000,1000,1000,0,num_3,0.4316308000124991,,32,5,2026-03-12_15h32.14.766,2026A_exp2,2022.2.4,59.9615286694837,
1000,1,6.1,0.0,0,0,41,41,58,,,,,146.1884512999095,146.83928070007823,146.83928070007823,147.34116160008125,315,315,147.34116160008125,147.34116160008125,147.34116160008125,147.34116160008125,147.34116160008125,147.34116160008125,147.34116160008125,147.34116160008125,147.34116160008125,147.70642880001105,147.70642880001105,147.70642880001105,147.70642880001105,147.70642880001105,147.70642880001105,147.70642880001105,147.70642880001105,147.70642880001105,23,0,,,147.70642880001105,147.90678539988585,1000,147.90678539988585,1000,1000,1000,1000,0,num_3,0.42561179981566966,,32,5,2026-03-12_15h32.14.766,2026A_exp2,2022.2.4,59.9615286694837,
1,0,0.0,0.0,1,0,42,42,31,,,,,148.35720980004407,149.007720900001,149.007720900001,149.4922096999362,315,315,149.4922096999362,149.4922096999362,149.4922096999362,149.4922096999362,149.4922096999362,149.4922096999362,149.4922096999362,149.4922096999362,149.4922096999362,149.858676899923,149.858676899923,149.858676899923,149.858676899923,149.858676899923,149.858676899923,149.858676899923,149.858676899923,149.858676899923,23,0,,,149.858676899923,150.05896799988113,0.0,150.05896799988113,1,0.0,0,0,1000,num_4,0.6331251999363303,,32,5,2026-03-12_15h32.14.766,2026A_exp2,2022.2.4,59.9615286694837,
1000,1,6.1,4.9,0,0,43,43,51,,,,,150.70955629996024,151.34366400004365,151.34366400004365,151.84468990005553,45,315,151.84468990005553,151.84468990005553,151.84468990005553,151.84468990005553,151.84468990005553,151.84468990005553,151.84468990005553,151.84468990005553,151.84468990005553,152.21093839989044,152.21093839989044,152.21093839989044,152.21093839989044,152.21093839989044,152.21093839989044,152.21093839989044,152.21093839989044,152.21093839989044,23,0,,,152.21093839989044,152.411230500089,1000,152.411230500089,1000,1000,1000,1000,0,num_3,0.8415916999801993,,32,5,2026-03-12_15h32.14.766,2026A_exp2,2022.2.4,59.9615286694837,
1000,1,4.9,3.7,0,0,44,44,28,,,,,153.27888050000183,153.9292935000267,153.9292935000267,154.41463500005193,315,315,154.41463500005193,154.41463500005193,154.41463500005193,154.41463500005193,154.41463500005193,154.41463500005193,154.41463500005193,154.41463500005193,154.41463500005193,154.78037160006352,154.78037160006352,154.78037160006352,154.78037160006352,154.78037160006352,154.78037160006352,154.78037160006352,154.78037160006352,154.78037160006352,23,0,,,154.78037160006352,154.98052340000868,1000,154.98052340000868,1000,1000,1000,1000,0,num_3,0.39216839987784624,,32,5,2026-03-12_15h32.14.766,2026A_exp2,2022.2.4,59.9615286694837,
1000,1,4.9,0.0,0,0,45,45,50,,,,,155.39761439990252,156.04807269992307,156.04807269992307,156.54913559998386,45,45,156.54913559998386,156.54913559998386,156.54913559998386,156.54913559998386,156.54913559998386,156.54913559998386,156.54913559998386,156.54913559998386,156.54913559998386,156.89950360008515,156.89950360008515,156.89950360008515,156.89950360008515,156.89950360008515,156.89950360008515,156.89950360008515,156.89950360008515,156.89950360008515,22,0,,,156.89950360008515,157.09933430003002,1000,157.11622940003872,1000,1000,1000,1000,0,num_3,0.4560479000210762,,32,5,2026-03-12_15h32.14.766,2026A_exp2,2022.2.4,59.9615286694837,
1000,1,4.9,0.0,1,0,46,46,67,,,,,157.59990040003322,158.25034600007348,158.25034600007348,158.7358418998774,45,45,158.7358418998774,158.7358418998774,158.7358418998774,158.7358418998774,158.7358418998774,158.7358418998774,158.7358418998774,158.7358418998774,158.7358418998774,159.10145479999483,159.10145479999483,159.10145479999483,159.10145479999483,159.10145479999483,159.10145479999483,159.10145479999483,159.10145479999483,159.10145479999483,23,0,,,159.10145479999483,159.30150679987855,1000,159.30150679987855,1000,1000,1000,1000,0,num_3,0.3674393000546843,,32,5,2026-03-12_15h32.14.766,2026A_exp2,2022.2.4,59.9615286694837,
1000,1,0.0,0.0,1,0,47,47,56,,,,,159.6850521999877,160.3190854000859,160.3190854000859,160.82024869997986,315,315,160.82024869997986,160.82024869997986,160.82024869997986,160.82024869997986,160.82024869997986,160.82024869997986,160.82024869997986,160.82024869997986,160.82024869997986,161.18676099996082,161.18676099996082,161.18676099996082,161.18676099996082,161.18676099996082,161.18676099996082,161.18676099996082,161.18676099996082,161.18676099996082,23,0,,,161.18676099996082,161.3870719000697,1000,161.3870719000697,1000,1000,1000,1000,1,num_2,0.6329425999429077,,32,5,2026-03-12_15h32.14.766,2026A_exp2,2022.2.4,59.9615286694837,
1,0,4.9,0.0,0,0,48,48,66,,,,,162.03758909995668,162.6882114999462,162.6882114999462,163.17262910003774,45,45,163.17262910003774,163.17262910003774,163.17262910003774,163.17262910003774,163.17262910003774,163.17262910003774,163.17262910003774,163.17262910003774,163.17262910003774,163.53902460006066,163.53902460006066,163.53902460006066,163.53902460006066,163.53902460006066,163.53902460006066,163.53902460006066,163.53902460006066,163.53902460006066,23,0,,,163.53902460006066,163.7393471999094,4.9,163.7393471999094,1,4.9,1,1,1000,num_4,0.6408339000772685,,32,5,2026-03-12_15h32.14.766,2026A_exp2,2022.2.4,59.9615286694837,
1,0,0.0,0.0,0,0,49,49,80,,,,,164.4066667999141,165.04045449988917,165.04045449988917,165.541858300101,315,45,165.541858300101,165.541858300101,165.541858300101,165.541858300101,165.541858300101,165.541858300101,165.541858300101,165.541858300101,165.541858300101,165.90791349997744,165.90791349997744,165.90791349997744,165.90791349997744,165.90791349997744,165.90791349997744,165.90791349997744,165.90791349997744,165.90791349997744,23,0,,,165.90791349997744,166.10832710005343,0.0,166.10832710005343,1,0.0,0,0,1000,num_4,1.0078056999482214,,32,5,2026-03-12_15h32.14.766,2026A_exp2,2022.2.4,59.9615286694837,
1000,1,3.7,0.0,0,0,50,50,35,,,,,167.14256149996072,167.7932994000148,167.7932994000148,168.27772690006532,45,45,168.27772690006532,168.27772690006532,168.27772690006532,168.27772690006532,168.27772690006532,168.27772690006532,168.27772690006532,168.27772690006532,168.27772690006532,168.64421320008114,168.64421320008114,168.64421320008114,168.64421320008114,168.64421320008114,168.64421320008114,168.64421320008114,168.64421320008114,168.64421320008114,23,0,,,168.64421320008114,168.8444020000752,1000,168.8444020000752,1000,1000,1000,1000,0,num_3,0.5523308999836445,,32,5,2026-03-12_15h32.14.766,2026A_exp2,2022.2.4,59.9615286694837,
1,0,0.0,4.9,0,0,51,51,32,,,,,169.42842889996246,170.06221339991316,170.06221339991316,170.56406440003775,315,45,170.56406440003775,170.56406440003775,170.56406440003775,170.56406440003775,170.56406440003775,170.56406440003775,170.56406440003775,170.56406440003775,170.56406440003775,170.9299685000442,170.9299685000442,170.9299685000442,170.9299685000442,170.9299685000442,170.9299685000442,170.9299685000442,170.9299685000442,170.9299685000442,23,0,,,170.9299685000442,171.13007569988258,0.0,171.13007569988258,0,0.0,0,1,1000,num_1,0.7223534998483956,,32,5,2026-03-12_15h32.14.766,2026A_exp2,2022.2.4,59.9615286694837,
1,0,4.9,0.0,1,0,52,52,34,,,,,171.88055879995227,172.5145117000211,172.5145117000211,173.0157465999946,315,45,173.0157465999946,173.0157465999946,173.0157465999946,173.0157465999946,173.0157465999946,173.0157465999946,173.0157465999946,173.0157465999946,173.0157465999946,173.38198750000447,173.38198750000447,173.38198750000447,173.38198750000447,173.38198750000447,173.38198750000447,173.38198750000447,173.38198750000447,173.38198750000447,23,0,,,173.38198750000447,173.58237130008638,0.0,173.58237130008638,0,0.0,0,1,1000,num_1,1.349891799967736,,32,5,2026-03-12_15h32.14.766,2026A_exp2,2022.2.4,59.9615286694837,
1,0,3.7,0.0,1,0,53,53,30,,,,,174.9504835999105,175.5845262000803,175.5845262000803,176.08578899991699,45,45,176.08578899991699,176.08578899991699,176.08578899991699,176.08578899991699,176.08578899991699,176.08578899991699,176.08578899991699,176.08578899991699,176.08578899991699,176.45172060001642,176.45172060001642,176.45172060001642,176.45172060001642,176.45172060001642,176.45172060001642,176.45172060001642,176.45172060001642,176.45172060001642,23,0,,,176.45172060001642,176.65201120008714,0.0,176.65201120008714,0,0.0,0,1,1000,num_1,1.1441089999862015,,32,5,2026-03-12_15h32.14.766,2026A_exp2,2022.2.4,59.9615286694837,
1,0,0.0,4.9,0,0,54,54,70,,,,,177.8199384000618,178.4537166999653,178.4537166999653,178.95512269996107,45,315,178.95512269996107,178.95512269996107,178.95512269996107,178.95512269996107,178.95512269996107,178.95512269996107,178.95512269996107,178.95512269996107,178.95512269996107,179.32123839994892,179.32123839994892,179.32123839994892,179.32123839994892,179.32123839994892,179.32123839994892,179.32123839994892,179.32123839994892,179.32123839994892,23,0,,,179.32123839994892,179.5217192999553,0.0,179.5217192999553,0,0.0,0,1,1000,num_1,1.06686419993639,,32,5,2026-03-12_15h32.14.766,2026A_exp2,2022.2.4,59.9615286694837,
0,0,6.1,0.0,1,0,55,55,52,,,,,180.60663580009714,181.25663489988074,181.25663489988074,181.75765809998848,315,45,181.75765809998848,181.75765809998848,181.75765809998848,181.75765809998848,181.75765809998848,181.75765809998848,181.75765809998848,181.75765809998848,181.75765809998848,182.12409600010142,182.12409600010142,182.12409600010142,182.12409600010142,182.12409600010142,182.12409600010142,182.12409600010142,182.12409600010142,182.12409600010142,23,0,,,182.12409600010142,182.32434120005928,6.1,182.32434120005928,1,6.1,1,1,1000,num_4,0.6562771000899374,,32,5,2026-03-12_15h32.14.766,2026A_exp2,2022.2.4,59.9615286694837,
1000,1,6.1,3.7,1,0,56,56,11,,,,,183.00853149988689,183.65904950001277,183.65904950001277,184.1437283998821,45,315,184.1437283998821,184.1437283998821,184.1437283998821,184.1437283998821,184.1437283998821,184.1437283998821,184.1437283998821,184.1437283998821,184.1437283998821,184.5098896001,184.5098896001,184.5098896001,184.5098896001,184.5098896001,184.5098896001,184.5098896001,184.5098896001,184.5098896001,23,0,,,184.5098896001,184.71018809988163,1000,184.71018809988163,1000,1000,1000,1000,0,num_3,0.6463351999409497,,32,5,2026-03-12_15h32.14.766,2026A_exp2,2022.2.4,59.9615286694837,
0,0,3.7,0.0,0,0,57,57,18,,,,,185.37761719990522,186.02833899995312,186.02833899995312,186.52930609998293,315,315,186.52930609998293,186.52930609998293,186.52930609998293,186.52930609998293,186.52930609998293,186.52930609998293,186.52930609998293,186.52930609998293,186.52930609998293,186.89585760002956,186.89585760002956,186.89585760002956,186.89585760002956,186.89585760002956,186.89585760002956,186.89585760002956,186.89585760002956,186.89585760002956,23,0,,,186.89585760002956,187.09585470007733,0.0,187.09585470007733,0,0.0,0,1,1000,num_1,0.8124106999021024,,32,5,2026-03-12_15h32.14.766,2026A_exp2,2022.2.4,59.9615286694837,
1000,1,0.0,6.1,1,0,58,58,74,,,,,187.93018019990996,188.58080579992384,188.58080579992384,189.0657140999101,45,45,189.0657140999101,189.0657140999101,189.0657140999101,189.0657140999101,189.0657140999101,189.0657140999101,189.0657140999101,189.0657140999101,189.0657140999101,189.43153110006824,189.43153110006824,189.43153110006824,189.43153110006824,189.43153110006824,189.43153110006824,189.43153110006824,189.43153110006824,189.43153110006824,23,0,,,189.43153110006824,189.63165009999648,1000,189.63165009999648,1000,1000,1000,1000,1,num_2,0.4612566998694092,,32,5,2026-03-12_15h32.14.766,2026A_exp2,2022.2.4,59.9615286694837,
1,0,6.1,0.0,1,0,59,59,17,,,,,190.11558050010353,190.76609229994938,190.76609229994938,191.2509085999336,45,45,191.2509085999336,191.2509085999336,191.2509085999336,191.2509085999336,191.2509085999336,191.2509085999336,191.2509085999336,191.2509085999336,191.2509085999336,191.61742429994047,191.61742429994047,191.61742429994047,191.61742429994047,191.61742429994047,191.61742429994047,191.61742429994047,191.61742429994047,191.61742429994047,23,0,,,191.61742429994047,191.81710370001383,0.0,191.81710370001383,0,0.0,0,1,1000,num_1,0.6597619999665767,,32,5,2026-03-12_15h32.14.766,2026A_exp2,2022.2.4,59.9615286694837,
1000,1,0.0,3.7,0,0,60,60,76,,,,,192.50247399997897,193.15187319996767,193.15187319996767,193.65309759997763,315,45,193.65309759997763,193.65309759997763,193.65309759997763,193.65309759997763,193.65309759997763,193.65309759997763,193.65309759997763,193.65309759997763,193.65309759997763,194.0027886000462,194.0027886000462,194.0027886000462,194.0027886000462,194.0027886000462,194.0027886000462,194.0027886000462,194.0027886000462,194.0027886000462,22,0,,,194.0027886000462,194.20311499992386,1000,194.20311499992386,1000,1000,1000,1000,1,num_2,0.9773812000639737,,32,5,2026-03-12_15h32.14.766,2026A_exp2,2022.2.4,59.9615286694837,
1000,1,3.7,6.1,1,0,61,61,75,,,,,195.20409579994157,195.8546035999898,195.8546035999898,196.3390623999294,315,315,196.3390623999294,196.3390623999294,196.3390623999294,196.3390623999294,196.3390623999294,196.3390623999294,196.3390623999294,196.3390623999294,196.3390623999294,196.70538739999756,196.70538739999756,196.70538739999756,196.70538739999756,196.70538739999756,196.70538739999756,196.70538739999756,196.70538739999756,196.70538739999756,23,0,,,196.70538739999756,196.90567560005002,1000,196.90567560005002,1000,1000,1000,1000,1,num_2,0.47484529996290803,,32,5,2026-03-12_15h32.14.766,2026A_exp2,2022.2.4,59.9615286694837,
0,0,6.1,0.0,1,0,62,62,25,,,,,197.40619860007428,198.05691489996389,198.05691489996389,198.5412987000309,45,315,198.5412987000309,198.5412987000309,198.5412987000309,198.5412987000309,198.5412987000309,198.5412987000309,198.5412987000309,198.5412987000309,198.5412987000309,198.90758290002123,198.90758290002123,198.90758290002123,198.90758290002123,198.90758290002123,198.90758290002123,198.90758290002123,198.90758290002123,198.90758290002123,23,0,,,198.90758290002123,199.10782969999127,6.1,199.10782969999127,1,6.1,1,1,1000,num_4,1.8329100001137704,,32,5,2026-03-12_15h32.14.766,2026A_exp2,2022.2.4,59.9615286694837,
1,0,0.0,0.0,1,0,63,63,38,,,,,200.9597074999474,201.61045900010504,201.61045900010504,202.0948566000443,315,45,202.0948566000443,202.0948566000443,202.0948566000443,202.0948566000443,202.0948566000443,202.0948566000443,202.0948566000443,202.0948566000443,202.0948566000443,202.4613594999537,202.4613594999537,202.4613594999537,202.4613594999537,202.4613594999537,202.4613594999537,202.4613594999537,202.4613594999537,202.4613594999537,23,0,,,202.4613594999537,202.66149189998396,0.0,202.66149189998396,0,0.0,0,1,1000,num_1,0.903121099807322,,32,5,2026-03-12_15h32.14.766,2026A_exp2,2022.2.4,59.9615286694837,
1000,1,0.0,4.9,0,0,64,64,0,,,,,203.5959999000188,204.22989770001732,204.22989770001732,204.7306764998939,45,315,204.7306764998939,204.7306764998939,204.7306764998939,204.7306764998939,204.7306764998939,204.7306764998939,204.7306764998939,204.7306764998939,204.7306764998939,205.0982687000651,205.0982687000651,205.0982687000651,205.0982687000651,205.0982687000651,205.0982687000651,205.0982687000651,205.0982687000651,205.0982687000651,23,0,,,205.0982687000651,205.30200950009748,1000,205.30200950009748,1000,1000,1000,1000,1,num_2,0.8300068997777998,,32,5,2026-03-12_15h32.14.766,2026A_exp2,2022.2.4,59.9615286694837,
0,0,4.9,0.0,0,0,65,65,84,,,,,206.1482758000493,206.79929449991323,206.79929449991323,207.28341199993156,315,315,207.28341199993156,207.28341199993156,207.28341199993156,207.28341199993156,207.28341199993156,207.28341199993156,207.28341199993156,207.28341199993156,207.28341199993156,207.649778699968,207.649778699968,207.649778699968,207.649778699968,207.649778699968,207.649778699968,207.649778699968,207.649778699968,207.649778699968,23,0,,,207.649778699968,207.84996809996665,0.0,207.84996809996665,0,0.0,0,1,1000,num_1,0.6344036001246423,,32,5,2026-03-12_15h32.14.766,2026A_exp2,2022.2.4,59.9615286694837,
1000,1,3.7,3.7,0,0,66,66,59,,,,,208.50066019990481,209.15117960004136,209.15117960004136,209.6356969999615,45,315,209.6356969999615,209.6356969999615,209.6356969999615,209.6356969999615,209.6356969999615,209.6356969999615,209.6356969999615,209.6356969999615,209.6356969999615,210.00205580005422,210.00205580005422,210.00205580005422,210.00205580005422,210.00205580005422,210.00205580005422,210.00205580005422,210.00205580005422,210.00205580005422,23,0,,,210.00205580005422,210.20245340000838,1000,210.20245340000838,1000,1000,1000,1000,1,num_2,0.6177367998752743,,32,5,2026-03-12_15h32.14.766,2026A_exp2,2022.2.4,59.9615286694837,
1,0,6.1,0.0,0,0,67,67,85,,,,,210.83698699995875,211.48705009999685,211.48705009999685,211.98888710001484,315,315,211.98888710001484,211.98888710001484,211.98888710001484,211.98888710001484,211.98888710001484,211.98888710001484,211.98888710001484,211.98888710001484,211.98888710001484,212.35432319995016,212.35432319995016,212.35432319995016,212.35432319995016,212.35432319995016,212.35432319995016,212.35432319995016,212.35432319995016,212.35432319995016,23,0,,,212.35432319995016,212.55446780007333,6.1,212.55446780007333,1,6.1,1,1,1000,num_4,0.617959399940446,,32,5,2026-03-12_15h32.14.766,2026A_exp2,2022.2.4,59.9615286694837,
1,0,0.0,0.0,1,0,68,68,83,,,,,213.18857669993304,213.8230065999087,213.8230065999087,214.32439429988153,45,45,214.32439429988153,214.32439429988153,214.32439429988153,214.32439429988153,214.32439429988153,214.32439429988153,214.32439429988153,214.32439429988153,214.32439429988153,214.68991760001518,214.68991760001518,214.68991760001518,214.68991760001518,214.68991760001518,214.68991760001518,214.68991760001518,214.68991760001518,214.68991760001518,23,0,,,214.68991760001518,214.89033189998008,0.0,214.89033189998008,1,0.0,0,0,1000,num_4,0.5224150000140071,,32,5,2026-03-12_15h32.14.766,2026A_exp2,2022.2.4,59.9615286694837,
1000,1,3.7,0.0,0,0,69,69,39,,,,,215.44110079994425,216.0747829999309,216.0747829999309,216.57592829992063,45,45,216.57592829992063,216.57592829992063,216.57592829992063,216.57592829992063,216.57592829992063,216.57592829992063,216.57592829992063,216.57592829992063,216.57592829992063,216.94235379993916,216.94235379993916,216.94235379993916,216.94235379993916,216.94235379993916,216.94235379993916,216.94235379993916,216.94235379993916,216.94235379993916,23,0,,,216.94235379993916,217.1431996000465,1000,217.1431996000465,1000,1000,1000,1000,0,num_3,0.5014353001024574,,32,5,2026-03-12_15h32.14.766,2026A_exp2,2022.2.4,59.9615286694837,
1000,1,3.7,0.0,0,0,70,70,86,,,,,217.67646149988286,218.326991799986,218.326991799986,218.8116540000774,315,45,218.8116540000774,218.8116540000774,218.8116540000774,218.8116540000774,218.8116540000774,218.8116540000774,218.8116540000774,218.8116540000774,218.8116540000774,219.177908499958,219.177908499958,219.177908499958,219.177908499958,219.177908499958,219.177908499958,219.177908499958,219.177908499958,219.177908499958,23,0,,,219.177908499958,219.37822440010495,1000,219.37822440010495,1000,1000,1000,1000,0,num_3,0.521832900121808,,32,5,2026-03-12_15h32.14.766,2026A_exp2,2022.2.4,59.9615286694837,
1000,1,0.0,0.0,0,0,71,71,65,,,,,219.92858049995266,220.57923360005952,220.57923360005952,221.06375159998424,45,315,221.06375159998424,221.06375159998424,221.06375159998424,221.06375159998424,221.06375159998424,221.06375159998424,221.06375159998424,221.06375159998424,221.06375159998424,221.4302338999696,221.4302338999696,221.4302338999696,221.4302338999696,221.4302338999696,221.4302338999696,221.4302338999696,221.4302338999696,221.4302338999696,23,0,,,221.4302338999696,221.63051820010878,1000,221.63051820010878,1000,1000,1000,1000,0,num_3,0.4615203000139445,,32,5,2026-03-12_15h32.14.766,2026A_exp2,2022.2.4,59.9615286694837,
1,0,0.0,4.9,1,0,72,72,54,,,,,222.11436049989425,222.74845630000345,222.74845630000345,223.24920720001683,315,315,223.24920720001683,223.24920720001683,223.24920720001683,223.24920720001683,223.24920720001683,223.24920720001683,223.24920720001683,223.24920720001683,223.24920720001683,223.61599910003133,223.61599910003133,223.61599910003133,223.61599910003133,223.61599910003133,223.61599910003133,223.61599910003133,223.61599910003133,223.61599910003133,23,0,,,223.61599910003133,223.81583300000057,4.9,223.81583300000057,1,4.9,1,1,1000,num_4,0.5487221998628229,,32,5,2026-03-12_15h32.14.766,2026A_exp2,2022.2.4,59.9615286694837,
1000,1,0.0,3.7,0,0,73,73,21,,,,,224.38315050001256,225.03452409990132,225.03452409990132,225.5355054999236,45,315,225.5355054999236,225.5355054999236,225.5355054999236,225.5355054999236,225.5355054999236,225.5355054999236,225.5355054999236,225.5355054999236,225.5355054999236,225.9012905000709,225.9012905000709,225.9012905000709,225.9012905000709,225.9012905000709,225.9012905000709,225.9012905000709,225.9012905000709,225.9012905000709,23,0,,,225.9012905000709,226.10168300010264,1000,226.10168300010264,1000,1000,1000,1000,0,num_3,0.278811699943617,,32,5,2026-03-12_15h32.14.766,2026A_exp2,2022.2.4,59.9615286694837,
0,0,3.7,4.9,0,0,74,74,77,,,,,226.4028453999199,227.05267830006778,227.05267830006778,227.55367500009015,45,45,227.55367500009015,227.55367500009015,227.55367500009015,227.55367500009015,227.55367500009015,227.55367500009015,227.55367500009015,227.55367500009015,227.55367500009015,227.9201553000603,227.9201553000603,227.9201553000603,227.9201553000603,227.9201553000603,227.9201553000603,227.9201553000603,227.9201553000603,227.9201553000603,23,0,,,227.9201553000603,228.12061080010608,4.9,228.12061080010608,0,4.9,1,0,1000,num_1,1.308307999977842,,32,5,2026-03-12_15h32.14.766,2026A_exp2,2022.2.4,59.9615286694837,
1000,1,0.0,0.0,1,0,75,75,2,,,,,229.4547327000182,230.08873729989864,230.08873729989864,230.59010290005244,315,45,230.59010290005244,230.59010290005244,230.59010290005244,230.59010290005244,230.59010290005244,230.59010290005244,230.59010290005244,230.59010290005244,230.59010290005244,230.95633479999378,230.95633479999378,230.95633479999378,230.95633479999378,230.95633479999378,230.95633479999378,230.95633479999378,230.95633479999378,230.95633479999378,23,0,,,230.95633479999378,231.1566296000965,1000,231.1566296000965,1000,1000,1000,1000,1,num_2,0.5201348999980837,,32,5,2026-03-12_15h32.14.766,2026A_exp2,2022.2.4,59.9615286694837,
1000,1,4.9,6.1,0,0,76,76,36,,,,,231.70714049995877,232.35780379991047,232.35780379991047,232.842317200033,45,315,232.842317200033,232.842317200033,232.842317200033,232.842317200033,232.842317200033,232.842317200033,232.842317200033,232.842317200033,232.842317200033,233.20900940010324,233.20900940010324,233.20900940010324,233.20900940010324,233.20900940010324,233.20900940010324,233.20900940010324,233.20900940010324,233.20900940010324,23,0,,,233.20900940010324,233.40904589998536,1000,233.40904589998536,1000,1000,1000,1000,1,num_2,1.1390413998160511,,32,5,2026-03-12_15h32.14.766,2026A_exp2,2022.2.4,59.9615286694837,
1000,1,0.0,6.1,0,0,77,77,20,,,,,234.57673690002412,235.2109552999027,235.2109552999027,235.71261549997143,315,315,235.71261549997143,235.71261549997143,235.71261549997143,235.71261549997143,235.71261549997143,235.71261549997143,235.71261549997143,235.71261549997143,235.71261549997143,236.07826559990644,236.07826559990644,236.07826559990644,236.07826559990644,236.07826559990644,236.07826559990644,236.07826559990644,236.07826559990644,236.07826559990644,23,0,,,236.07826559990644,236.27871409989893,1000,236.27871409989893,1000,1000,1000,1000,1,num_2,0.40614159987308085,,32,5,2026-03-12_15h32.14.766,2026A_exp2,2022.2.4,59.9615286694837,
1,0,0.0,6.1,1,0,78,78,46,,,,,236.71268659993075,237.3633328001015,237.3633328001015,237.86398739996366,45,315,237.86398739996366,237.86398739996366,237.86398739996366,237.86398739996366,237.86398739996366,237.86398739996366,237.86398739996366,237.86398739996366,237.86398739996366,238.21371800010093,238.21371800010093,238.21371800010093,238.21371800010093,238.21371800010093,238.21371800010093,238.21371800010093,238.21371800010093,238.21371800010093,22,0,,,238.21371800010093,238.41387429996394,6.1,238.4304738000501,1,6.1,1,1,1000,num_4,1.5260476002003998,,32,5,2026-03-12_15h32.14.766,2026A_exp2,2022.2.4,59.9615286694837,
1000,1,4.9,0.0,1,0,79,79,48,,,,,239.98206049995497,240.6161966000218,240.6161966000218,241.11853939993307,45,315,241.11853939993307,241.11853939993307,241.11853939993307,241.11853939993307,241.11853939993307,241.11853939993307,241.11853939993307,241.11853939993307,241.11853939993307,241.48404940008186,241.48404940008186,241.48404940008186,241.48404940008186,241.48404940008186,241.48404940008186,241.48404940008186,241.48404940008186,241.48404940008186,23,0,,,241.48404940008186,241.68386160000227,1000,241.68386160000227,1000,1000,1000,1000,0,num_3,0.45658919983543456,,32,5,2026-03-12_15h32.14.766,2026A_exp2,2022.2.4,59.9615286694837,
0,0,3.7,0.0,1,0,80,80,1,,,,,242.16762379999273,242.8205909000244,242.8205909000244,243.30270530004054,315,45,243.30270530004054,243.30270530004054,243.30270530004054,243.30270530004054,243.30270530004054,243.30270530004054,243.30270530004054,243.30270530004054,243.30270530004054,243.66907029994763,243.66907029994763,243.66907029994763,243.66907029994763,243.66907029994763,243.66907029994763,243.66907029994763,243.66907029994763,243.66907029994763,23,0,,,243.66907029994763,243.86996869998984,3.7,243.86996869998984,0,3.7,1,0,1000,num_1,1.8708371000830084,,32,5,2026-03-12_15h32.14.766,2026A_exp2,2022.2.4,59.9615286694837,
1000,1,4.9,0.0,1,0,81,81,12,,,,,245.7719264999032,246.42193339997903,246.42193339997903,246.906287800055,45,315,246.906287800055,246.906287800055,246.906287800055,246.906287800055,246.906287800055,246.906287800055,246.906287800055,246.906287800055,246.906287800055,247.27261299989186,247.27261299989186,247.27261299989186,247.27261299989186,247.27261299989186,247.27261299989186,247.27261299989186,247.27261299989186,247.27261299989186,23,0,,,247.27261299989186,247.47324350010604,1000,247.47324350010604,1000,1000,1000,1000,0,num_3,0.5071799999568611,,32,5,2026-03-12_15h32.14.766,2026A_exp2,2022.2.4,59.9615286694837,
1000,1,0.0,4.9,1,0,82,82,37,,,,,248.0068530999124,248.64131430000998,248.64131430000998,249.14205899997614,45,45,249.14205899997614,249.14205899997614,249.14205899997614,249.14205899997614,249.14205899997614,249.14205899997614,249.14205899997614,249.14205899997614,249.14205899997614,249.508164400002,249.508164400002,249.508164400002,249.508164400002,249.508164400002,249.508164400002,249.508164400002,249.508164400002,249.508164400002,23,0,,,249.508164400002,249.70847430010326,1000,249.70847430010326,1000,1000,1000,1000,1,num_2,0.5040945999789983,,32,5,2026-03-12_15h32.14.766,2026A_exp2,2022.2.4,59.9615286694837,
1000,1,0.0,0.0,0,0,83,83,89,,,,,250.2423870000057,250.89385839994065,250.89385839994065,251.39396529993974,45,45,251.39396529993974,251.39396529993974,251.39396529993974,251.39396529993974,251.39396529993974,251.39396529993974,251.39396529993974,251.39396529993974,251.39396529993974,251.74388130009174,251.74388130009174,251.74388130009174,251.74388130009174,251.74388130009174,251.74388130009174,251.74388130009174,251.74388130009174,251.74388130009174,22,0,,,251.74388130009174,251.9444321000483,1000,251.9444321000483,1000,1000,1000,1000,0,num_3,0.7643874001223594,,32,5,2026-03-12_15h32.14.766,2026A_exp2,2022.2.4,59.9615286694837,
1000,1,6.1,4.9,0,0,84,84,81,,,,,252.72823140001856,253.37920519988984,253.37920519988984,253.88022619998083,45,315,253.88022619998083,253.88022619998083,253.88022619998083,253.88022619998083,253.88022619998083,253.88022619998083,253.88022619998083,253.88022619998083,253.88022619998083,254.22997849993408,254.22997849993408,254.22997849993408,254.22997849993408,254.22997849993408,254.22997849993408,254.22997849993408,254.22997849993408,254.22997849993408,22,0,,,254.22997849993408,254.4322277000174,1000,254.4322277000174,1000,1000,1000,1000,0,num_3,0.4124265001155436,,32,5,2026-03-12_15h32.14.766,2026A_exp2,2022.2.4,59.9615286694837,
1,0,6.1,6.1,1,0,85,85,47,,,,,254.86384200002067,255.51446420000866,255.51446420000866,256.0154883998912,315,45,256.0154883998912,256.0154883998912,256.0154883998912,256.0154883998912,256.0154883998912,256.0154883998912,256.0154883998912,256.0154883998912,256.0154883998912,256.38211279991083,256.38211279991083,256.38211279991083,256.38211279991083,256.38211279991083,256.38211279991083,256.38211279991083,256.38211279991083,256.38211279991083,23,0,,,256.38211279991083,256.5823558999691,6.1,256.5823558999691,1,6.1,1,1,1000,num_4,0.847324299858883,,32,5,2026-03-12_15h32.14.766,2026A_exp2,2022.2.4,59.9615286694837,
1,0,4.9,6.1,0,0,86,86,82,,,,,257.4502465999685,258.1003920000512,258.1003920000512,258.6016782000661,315,45,258.6016782000661,258.6016782000661,258.6016782000661,258.6016782000661,258.6016782000661,258.6016782000661,258.6016782000661,258.6016782000661,258.6016782000661,258.9681214999873,258.9681214999873,258.9681214999873,258.9681214999873,258.9681214999873,258.9681214999873,258.9681214999873,258.9681214999873,258.9681214999873,23,0,,,258.9681214999873,259.17193210008554,4.9,259.17193210008554,1,4.9,1,1,1000,num_4,1.0488561999518424,,32,5,2026-03-12_15h32.14.766,2026A_exp2,2022.2.4,59.9615286694837,
1000,1,3.7,0.0,0,0,87,87,69,,,,,260.2526831999421,260.90328669990413,260.90328669990413,261.38780610007234,315,45,261.38780610007234,261.38780610007234,261.38780610007234,261.38780610007234,261.38780610007234,261.38780610007234,261.38780610007234,261.38780610007234,261.38780610007234,261.7541851999704,261.7541851999704,261.7541851999704,261.7541851999704,261.7541851999704,261.7541851999704,261.7541851999704,261.7541851999704,261.7541851999704,23,0,,,261.7541851999704,261.95633720001206,1000,261.95633720001206,1000,1000,1000,1000,0,num_3,0.7205911001656204,,32,5,2026-03-12_15h32.14.766,2026A_exp2,2022.2.4,59.9615286694837,
1000,1,4.9,6.1,1,0,88,88,5,,,,,262.7052110999357,263.35583649994805,263.35583649994805,263.856863199966,315,315,263.856863199966,263.856863199966,263.856863199966,263.856863199966,263.856863199966,263.856863199966,263.856863199966,263.856863199966,263.856863199966,264.22326459991746,264.22326459991746,264.22326459991746,264.22326459991746,264.22326459991746,264.22326459991746,264.22326459991746,264.22326459991746,264.22326459991746,23,0,,,264.22326459991746,264.42508410010487,1000,264.42508410010487,1000,1000,1000,1000,1,num_2,0.579239500220865,,32,5,2026-03-12_15h32.14.766,2026A_exp2,2022.2.4,59.9615286694837,
1000,1,0.0,3.7,0,0,89,89,63,,,,,265.02395589998923,265.67451069992967,265.67451069992967,266.17578399996273,315,45,266.17578399996273,266.17578399996273,266.17578399996273,266.17578399996273,266.17578399996273,266.17578399996273,266.17578399996273,266.17578399996273,266.17578399996273,266.5423026001081,266.5423026001081,266.5423026001081,266.5423026001081,266.5423026001081,266.5423026001081,266.5423026001081,266.5423026001081,266.5423026001081,23,0,,,266.5423026001081,266.74451129999943,1000,266.74451129999943,1000,1000,1000,1000,0,num_3,0.9402961002197117,,32,5,2026-03-12_15h32.14.766,2026A_exp2,2022.2.4,59.9615286694837,
,,,,,,,,,,,,,,,,,,,,,,,,,,,,,,,,,,,,,,,,,,,,,,,,,,,,267.7128691000398,,,,,,,
