validity,detectorcomp,contrastCW,contrastCCW,precueCWorCCW,block_80trials.thisRepN,block_80trials.thisTrialN,block_80trials.thisN,block_80trials.thisIndex,etRecord.started,etRecord.stopped,text.started,text.stopped,text_4.started,text_4.stopped,text_6.started,text_6.stopped,oriCW,oriCCW,roi_2.started,grating_UR.started,grating_UL.started,grating_LR.started,grating_LL.started,noise_UR.started,noise_UL.started,noise_LR.started,noise_LL.started,roi_2.stopped,grating_UR.stopped,grating_UL.stopped,grating_LR.stopped,grating_LL.stopped,noise_UR.stopped,noise_UL.stopped,noise_LR.stopped,noise_LL.stopped,outframe,roi_2.numLooks,roi_2.timesOn,roi_2.timesOff,text_2.started,text_2.stopped,probedcontrast,key_resp.started,respdetect,relevantContrast,correctDetect,TorFdetect,respCWorCCW,key_resp.keys,key_resp.rt,feedback_display_.started,participantNo,blockNo,date,expName,psychopyVersion,frameRate,
1,0,0.0,3.7,0,0,0,0,61,3.2800016924738884e-05,3.2800016924738884e-05,46.39141689997632,48.39890039997408,48.39890039997408,49.02742160001071,49.02742160001071,49.5451643000124,45,315,49.5451643000124,49.5451643000124,49.5451643000124,49.5451643000124,49.5451643000124,49.5451643000124,49.5451643000124,49.5451643000124,49.5451643000124,49.89503790001618,49.89503790001618,49.89503790001618,49.89503790001618,49.89503790001618,49.89503790001618,49.89503790001618,49.89503790001618,49.89503790001618,23,0,,,49.89503790001618,50.09530819999054,0.0,50.09530819999054,0,0.0,0,1,1000,num_1,1.9627570000011474,,25,1,2026-03-04_17h07.20.884,2026A_exp2,2022.2.4,59.92825387836566,
1000,1,3.7,0.0,1,0,1,1,54,,,,,52.08059259998845,52.73116779996781,52.73116779996781,53.21556009998312,45,315,53.21556009998312,53.21556009998312,53.21556009998312,53.21556009998312,53.21556009998312,53.21556009998312,53.21556009998312,53.21556009998312,53.21556009998312,53.58194629999343,53.58194629999343,53.58194629999343,53.58194629999343,53.58194629999343,53.58194629999343,53.58194629999343,53.58194629999343,53.58194629999343,22,1,[0.06645869999192655],[0.08336989994859323],53.58194629999343,53.78731450001942,1000,53.78731450001942,1000,1000,1000,1000,1,num_2,1.2143666000338271,,25,1,2026-03-04_17h07.20.884,2026A_exp2,2022.2.4,59.92825387836566,
1,0,4.9,4.9,0,0,2,2,39,,,,,55.01686899998458,55.667455599992536,55.667455599992536,56.16866789996857,45,315,56.16866789996857,56.16866789996857,56.16866789996857,56.16866789996857,56.16866789996857,56.16866789996857,56.16866789996857,56.16866789996857,56.16866789996857,56.53506139997626,56.53506139997626,56.53506139997626,56.53506139997626,56.53506139997626,56.53506139997626,56.53506139997626,56.53506139997626,56.53506139997626,0,1,[0.000832199992146343],[0.36745399999199435],56.53506139997626,56.735014499980025,4.9,56.735014499980025,0,4.9,1,0,1000,num_1,0.9700324999867007,,25,1,2026-03-04_17h07.20.884,2026A_exp2,2022.2.4,59.92825387836566,
1000,1,0.0,0.0,0,0,3,3,15,,,,,57.736169199983124,58.386886599997524,58.386886599997524,58.871451499988325,315,315,58.871451499988325,58.871451499988325,58.871451499988325,58.871451499988325,58.871451499988325,58.871451499988325,58.871451499988325,58.871451499988325,58.871451499988325,59.237747900013346,59.237747900013346,59.237747900013346,59.237747900013346,59.237747900013346,59.237747900013346,59.237747900013346,59.237747900013346,59.237747900013346,0,1,[0.0007057999609969556],[0.36731760000111535],59.237747900013346,59.43784550001146,1000,59.43784550001146,1000,1000,1000,1000,1,num_2,1.1716870000236668,,25,1,2026-03-04_17h07.20.884,2026A_exp2,2022.2.4,59.92825387836566,
1,0,0.0,4.9,1,0,4,4,1,,,,,60.63931280001998,61.2897180999862,61.2897180999862,61.79076010000426,315,45,61.79076010000426,61.79076010000426,61.79076010000426,61.79076010000426,61.79076010000426,61.79076010000426,61.79076010000426,61.79076010000426,61.79076010000426,62.15729080000892,62.15729080000892,62.15729080000892,62.15729080000892,62.15729080000892,62.15729080000892,62.15729080000892,62.15729080000892,62.15729080000892,23,0,,,62.15729080000892,62.35743019997608,4.9,62.35743019997608,0,4.9,1,0,1000,num_1,1.147511899995152,,25,1,2026-03-04_17h07.20.884,2026A_exp2,2022.2.4,59.92825387836566,
1,0,3.7,0.0,1,0,5,5,11,,,,,63.525318400003016,64.17593849997502,64.17593849997502,64.66033039998729,315,45,64.66033039998729,64.66033039998729,64.66033039998729,64.66033039998729,64.66033039998729,64.66033039998729,64.66033039998729,64.66033039998729,64.66033039998729,65.02659530000528,65.02659530000528,65.02659530000528,65.02659530000528,65.02659530000528,65.02659530000528,65.02659530000528,65.02659530000528,65.02659530000528,11,3,"[0.11689959996147081, 0.16691479994915426, 0.250304099987261]","[0.15016339998692274, 0.23369419999653473, 0.3503050999715924]",65.02659530000528,65.22705579997273,0.0,65.22705579997273,1,0.0,0,0,1000,num_4,1.4546432999777608,,25,1,2026-03-04_17h07.20.884,2026A_exp2,2022.2.4,59.92825387836566,
1,0,0.0,0.0,0,0,6,6,44,,,,,66.71169229998486,67.36252329999115,67.36252329999115,67.84689179999987,315,315,67.84689179999987,67.84689179999987,67.84689179999987,67.84689179999987,67.84689179999987,67.84689179999987,67.84689179999987,67.84689179999987,67.84689179999987,68.21332249999978,68.21332249999978,68.21332249999978,68.21332249999978,68.21332249999978,68.21332249999978,68.21332249999978,68.21332249999978,68.21332249999978,20,1,[0.33398279995890334],[0.3672804000088945],68.21332249999978,68.41359870001907,0.0,68.41359870001907,0,0.0,0,1,1000,num_1,1.1802624000119977,,25,1,2026-03-04_17h07.20.884,2026A_exp2,2022.2.4,59.92825387836566,
1000,1,6.1,0.0,0,0,7,7,59,,,,,69.61497830000008,70.26549750001868,70.26549750001868,70.74984780000523,45,45,70.74984780000523,70.74984780000523,70.74984780000523,70.74984780000523,70.74984780000523,70.74984780000523,70.74984780000523,70.74984780000523,70.74984780000523,71.11621509998804,71.11621509998804,71.11621509998804,71.11621509998804,71.11621509998804,71.11621509998804,71.11621509998804,71.11621509998804,71.11621509998804,10,1,[0.16708240000298247],[0.36709409998729825],71.11621509998804,71.31646220001858,1000,71.31646220001858,1000,1000,1000,1000,1,num_2,1.2689920999691822,,25,1,2026-03-04_17h07.20.884,2026A_exp2,2022.2.4,59.92825387836566,
1000,1,3.7,4.9,1,0,8,8,20,,,,,72.60107029997744,73.25174889998743,73.25174889998743,73.75293309998233,45,315,73.75293309998233,73.75293309998233,73.75293309998233,73.75293309998233,73.75293309998233,73.75293309998233,73.75293309998233,73.75293309998233,73.75293309998233,74.10265299997991,74.10265299997991,74.10265299997991,74.10265299997991,74.10265299997991,74.10265299997991,74.10265299997991,74.10265299997991,74.10265299997991,22,0,,,74.10265299997991,74.30456289998256,1000,74.31956669996725,1000,1000,1000,1000,0,num_3,2.2659223999944516,,25,1,2026-03-04_17h07.20.884,2026A_exp2,2022.2.4,59.92825387836566,
1000,1,0.0,0.0,0,0,9,9,87,,,,,76.60518529999536,77.25573649996659,77.25573649996659,77.75673449999886,315,315,77.75673449999886,77.75673449999886,77.75673449999886,77.75673449999886,77.75673449999886,77.75673449999886,77.75673449999886,77.75673449999886,77.75673449999886,78.12319660000503,78.12319660000503,78.12319660000503,78.12319660000503,78.12319660000503,78.12319660000503,78.12319660000503,78.12319660000503,78.12319660000503,23,0,,,78.12319660000503,78.32504889997654,1000,78.32504889997654,1000,1000,1000,1000,0,num_3,0.9808699999703094,,25,1,2026-03-04_17h07.20.884,2026A_exp2,2022.2.4,59.92825387836566,
1000,1,0.0,4.9,1,0,10,10,78,,,,,79.32431019999785,79.97508649999509,79.97508649999509,80.47628619999159,45,45,80.47628619999159,80.47628619999159,80.47628619999159,80.47628619999159,80.47628619999159,80.47628619999159,80.47628619999159,80.47628619999159,80.47628619999159,80.8424881999963,80.8424881999963,80.8424881999963,80.8424881999963,80.8424881999963,80.8424881999963,80.8424881999963,80.8424881999963,80.8424881999963,23,0,,,80.8424881999963,81.04454079997959,1000,81.04454079997959,1000,1000,1000,1000,1,num_2,1.181018800009042,,25,1,2026-03-04_17h07.20.884,2026A_exp2,2022.2.4,59.92825387836566,
0,0,3.7,6.1,0,0,11,11,73,,,,,82.24392079998506,82.89463349996367,82.89463349996367,83.39573260000907,315,45,83.39573260000907,83.39573260000907,83.39573260000907,83.39573260000907,83.39573260000907,83.39573260000907,83.39573260000907,83.39573260000907,83.39573260000907,83.76209999999264,83.76209999999264,83.76209999999264,83.76209999999264,83.76209999999264,83.76209999999264,83.76209999999264,83.76209999999264,83.76209999999264,23,0,,,83.76209999999264,83.96239990001777,6.1,83.96239990001777,1,6.1,1,1,1000,num_4,0.9034238000167534,,25,1,2026-03-04_17h07.20.884,2026A_exp2,2022.2.4,59.92825387836566,
1000,1,6.1,4.9,0,0,12,12,49,,,,,84.8965356000117,85.54743330000201,85.54743330000201,86.03167280001799,45,315,86.03167280001799,86.03167280001799,86.03167280001799,86.03167280001799,86.03167280001799,86.03167280001799,86.03167280001799,86.03167280001799,86.03167280001799,86.39807379996637,86.39807379996637,86.39807379996637,86.39807379996637,86.39807379996637,86.39807379996637,86.39807379996637,86.39807379996637,86.39807379996637,23,0,,,86.39807379996637,86.59843929996714,1000,86.59843929996714,1000,1000,1000,1000,0,num_3,0.834978399972897,,25,1,2026-03-04_17h07.20.884,2026A_exp2,2022.2.4,59.92825387836566,
1,0,3.7,4.9,0,0,13,13,76,,,,,87.44921559997601,88.09996789996512,88.09996789996512,88.60083399998257,315,45,88.60083399998257,88.60083399998257,88.60083399998257,88.60083399998257,88.60083399998257,88.60083399998257,88.60083399998257,88.60083399998257,88.60083399998257,88.96761709998827,88.96761709998827,88.96761709998827,88.96761709998827,88.96761709998827,88.96761709998827,88.96761709998827,88.96761709998827,88.96761709998827,23,0,,,88.96761709998827,89.16749929997604,3.7,89.16749929997604,1,3.7,1,1,1000,num_4,1.4981204999494366,,25,1,2026-03-04_17h07.20.884,2026A_exp2,2022.2.4,59.92825387836566,
1000,1,3.7,0.0,1,0,14,14,88,,,,,90.68560909997905,91.33648719999474,91.33648719999474,91.82102069997927,315,45,91.82102069997927,91.82102069997927,91.82102069997927,91.82102069997927,91.82102069997927,91.82102069997927,91.82102069997927,91.82102069997927,91.82102069997927,92.18724070000462,92.18724070000462,92.18724070000462,92.18724070000462,92.18724070000462,92.18724070000462,92.18724070000462,92.18724070000462,92.18724070000462,2,1,[0.03351660002954304],[0.36713750002672896],92.18724070000462,92.38948229997186,1000,92.38948229997186,1000,1000,1000,1000,0,num_3,1.1644164000172168,,25,1,2026-03-04_17h07.20.884,2026A_exp2,2022.2.4,59.92825387836566,
1,0,0.0,6.1,0,0,15,15,82,,,,,93.5719540999853,94.22274759999709,94.22274759999709,94.72351380001055,45,315,94.72351380001055,94.72351380001055,94.72351380001055,94.72351380001055,94.72351380001055,94.72351380001055,94.72351380001055,94.72351380001055,94.72351380001055,95.0908889999846,95.0908889999846,95.0908889999846,95.0908889999846,95.0908889999846,95.0908889999846,95.0908889999846,95.0908889999846,95.0908889999846,11,1,[0.18357470002956688],[0.36755590001121163],95.0908889999846,95.29043360002106,0.0,95.29043360002106,0,0.0,0,1,1000,num_1,1.7431878999923356,,25,1,2026-03-04_17h07.20.884,2026A_exp2,2022.2.4,59.92825387836566,
1000,1,6.1,3.7,0,0,16,16,18,,,,,97.0586824999773,97.70948249998037,97.70948249998037,98.19381849997444,315,45,98.19381849997444,98.19381849997444,98.19381849997444,98.19381849997444,98.19381849997444,98.19381849997444,98.19381849997444,98.19381849997444,98.19381849997444,98.56043469998986,98.56043469998986,98.56043469998986,98.56043469998986,98.56043469998986,98.56043469998986,98.56043469998986,98.56043469998986,98.56043469998986,4,4,"[0.0012079000007361174, 0.2504119000514038, 0.2838455000310205, 0.33384610002394766]","[0.2336234000395052, 0.2670014000032097, 0.31716259999666363, 0.3672497000079602]",98.56043469998986,98.76262180000776,1000,98.76262180000776,1000,1000,1000,1000,0,num_3,0.6312011999543756,,25,1,2026-03-04_17h07.20.884,2026A_exp2,2022.2.4,59.92825387836566,
0,0,0.0,0.0,0,0,17,17,70,,,,,99.41110399999889,100.06212429999141,100.06212429999141,100.5628629999701,315,45,100.5628629999701,100.5628629999701,100.5628629999701,100.5628629999701,100.5628629999701,100.5628629999701,100.5628629999701,100.5628629999701,100.5628629999701,100.92923700000392,100.92923700000392,100.92923700000392,100.92923700000392,100.92923700000392,100.92923700000392,100.92923700000392,100.92923700000392,100.92923700000392,23,0,,,100.92923700000392,101.12958770000841,0.0,101.12958770000841,1,0.0,0,0,1000,num_4,1.576665900007356,,25,1,2026-03-04_17h07.20.884,2026A_exp2,2022.2.4,59.92825387836566,
1,0,0.0,0.0,0,0,18,18,51,,,,,102.7310953999986,103.38187819998711,103.38187819998711,103.86630250001326,45,45,103.86630250001326,103.86630250001326,103.86630250001326,103.86630250001326,103.86630250001326,103.86630250001326,103.86630250001326,103.86630250001326,103.86630250001326,104.23268149996875,104.23268149996875,104.23268149996875,104.23268149996875,104.23268149996875,104.23268149996875,104.23268149996875,104.23268149996875,104.23268149996875,0,1,[0.0013290999922901392],[0.3671681000269018],104.23268149996875,104.43292320001638,0.0,104.43292320001638,0,0.0,0,1,1000,num_1,0.9049105999874882,,25,1,2026-03-04_17h07.20.884,2026A_exp2,2022.2.4,59.92825387836566,
1,0,3.7,0.0,1,0,19,19,13,,,,,105.36693560000276,106.01805969997076,106.01805969997076,106.50220599997556,45,45,106.50220599997556,106.50220599997556,106.50220599997556,106.50220599997556,106.50220599997556,106.50220599997556,106.50220599997556,106.50220599997556,106.50220599997556,106.86874930001795,106.86874930001795,106.86874930001795,106.86874930001795,106.86874930001795,106.86874930001795,106.86874930001795,106.86874930001795,106.86874930001795,23,0,,,106.86874930001795,107.06884620001074,0.0,107.06884620001074,0,0.0,0,1,1000,num_1,0.5091982000158168,,25,1,2026-03-04_17h07.20.884,2026A_exp2,2022.2.4,59.92825387836566,
1000,1,0.0,0.0,1,0,20,20,16,,,,,107.60256849997677,108.25344319996657,108.25344319996657,108.73784740001429,45,45,108.73784740001429,108.73784740001429,108.73784740001429,108.73784740001429,108.73784740001429,108.73784740001429,108.73784740001429,108.73784740001429,108.73784740001429,109.10409939999226,109.10409939999226,109.10409939999226,109.10409939999226,109.10409939999226,109.10409939999226,109.10409939999226,109.10409939999226,109.10409939999226,23,0,,,109.10409939999226,109.30611130001489,1000,109.30611130001489,1000,1000,1000,1000,0,num_3,1.3428456999827176,,25,1,2026-03-04_17h07.20.884,2026A_exp2,2022.2.4,59.92825387836566,
0,0,0.0,3.7,0,0,21,21,83,,,,,110.67239989998052,111.32314240001142,111.32314240001142,111.82428930001333,45,45,111.82428930001333,111.82428930001333,111.82428930001333,111.82428930001333,111.82428930001333,111.82428930001333,111.82428930001333,111.82428930001333,111.82428930001333,112.19070779997855,112.19070779997855,112.19070779997855,112.19070779997855,112.19070779997855,112.19070779997855,112.19070779997855,112.19070779997855,112.19070779997855,21,1,[0.03339789999881759],[0.06677380000473931],112.19070779997855,112.39074210001854,3.7,112.39074210001854,0,3.7,1,0,1000,num_1,1.4430569999967702,,25,1,2026-03-04_17h07.20.884,2026A_exp2,2022.2.4,59.92825387836566,
1000,1,0.0,6.1,1,0,22,22,19,,,,,113.858864800015,114.50960350001696,114.50960350001696,114.99415649997536,45,315,114.99415649997536,114.99415649997536,114.99415649997536,114.99415649997536,114.99415649997536,114.99415649997536,114.99415649997536,114.99415649997536,114.99415649997536,115.36051069997484,115.36051069997484,115.36051069997484,115.36051069997484,115.36051069997484,115.36051069997484,115.36051069997484,115.36051069997484,115.36051069997484,23,0,,,115.36051069997484,115.56233049998991,1000,115.56233049998991,1000,1000,1000,1000,1,num_2,0.4793169999611564,,25,1,2026-03-04_17h07.20.884,2026A_exp2,2022.2.4,59.92825387836566,
1000,1,0.0,4.9,0,0,23,23,5,,,,,116.06119789998047,116.71171299996786,116.71171299996786,117.21299259999068,315,45,117.21299259999068,117.21299259999068,117.21299259999068,117.21299259999068,117.21299259999068,117.21299259999068,117.21299259999068,117.21299259999068,117.21299259999068,117.57941659999778,117.57941659999778,117.57941659999778,117.57941659999778,117.57941659999778,117.57941659999778,117.57941659999778,117.57941659999778,117.57941659999778,23,0,,,117.57941659999778,117.78118869999889,1000,117.78118869999889,1000,1000,1000,1000,0,num_3,0.8841380999656394,,25,1,2026-03-04_17h07.20.884,2026A_exp2,2022.2.4,59.92825387836566,
1000,1,0.0,0.0,1,0,24,24,40,,,,,118.68038520001573,119.33103729999857,119.33103729999857,119.83225520001724,315,315,119.83225520001724,119.83225520001724,119.83225520001724,119.83225520001724,119.83225520001724,119.83225520001724,119.83225520001724,119.83225520001724,119.83225520001724,120.19870409998111,120.19870409998111,120.19870409998111,120.19870409998111,120.19870409998111,120.19870409998111,120.19870409998111,120.19870409998111,120.19870409998111,23,0,,,120.19870409998111,120.40054010000313,1000,120.40054010000313,1000,1000,1000,1000,0,num_3,1.8970533999963664,,25,1,2026-03-04_17h07.20.884,2026A_exp2,2022.2.4,59.92825387836566,
1000,1,0.0,0.0,1,0,25,25,23,,,,,122.31723709998187,122.96783340000547,122.96783340000547,123.46926689997781,315,45,123.46926689997781,123.46926689997781,123.46926689997781,123.46926689997781,123.46926689997781,123.46926689997781,123.46926689997781,123.46926689997781,123.46926689997781,123.83567299996503,123.83567299996503,123.83567299996503,123.83567299996503,123.83567299996503,123.83567299996503,123.83567299996503,123.83567299996503,123.83567299996503,23,0,,,123.83567299996503,124.03776209999342,1000,124.03776209999342,1000,1000,1000,1000,1,num_2,0.723943299963139,,25,1,2026-03-04_17h07.20.884,2026A_exp2,2022.2.4,59.92825387836566,
1,0,3.7,0.0,1,0,26,26,12,,,,,124.78649249998853,125.43746350001311,125.43746350001311,125.93832269997802,45,315,125.93832269997802,125.93832269997802,125.93832269997802,125.93832269997802,125.93832269997802,125.93832269997802,125.93832269997802,125.93832269997802,125.93832269997802,126.28807199996663,126.28807199996663,126.28807199996663,126.28807199996663,126.28807199996663,126.28807199996663,126.28807199996663,126.28807199996663,126.28807199996663,14,1,[0.001193600008264184],[0.13334380002925172],126.28807199996663,126.48826549999649,0.0,126.50504630000796,0,0.0,0,1,1000,num_1,1.0889451000257395,,25,1,2026-03-04_17h07.20.884,2026A_exp2,2022.2.4,59.92825387836566,
1,0,0.0,6.1,0,0,27,27,43,,,,,127.62263840000378,128.27337710000575,128.27337710000575,128.7576454000082,315,315,128.7576454000082,128.7576454000082,128.7576454000082,128.7576454000082,128.7576454000082,128.7576454000082,128.7576454000082,128.7576454000082,128.7576454000082,129.12411400000565,129.12411400000565,129.12411400000565,129.12411400000565,129.12411400000565,129.12411400000565,129.12411400000565,129.12411400000565,129.12411400000565,0,1,[0.0012276999768801033],[0.3671440999605693],129.12411400000565,129.32457830000203,0.0,129.32457830000203,1,0.0,0,0,1000,num_4,4.476177200034726,,25,1,2026-03-04_17h07.20.884,2026A_exp2,2022.2.4,59.92825387836566,
1000,1,0.0,6.1,1,0,28,28,52,,,,,133.8288212000043,134.47948149999138,134.47948149999138,134.96397169999545,45,315,134.96397169999545,134.96397169999545,134.96397169999545,134.96397169999545,134.96397169999545,134.96397169999545,134.96397169999545,134.96397169999545,134.96397169999545,135.33030620001955,135.33030620001955,135.33030620001955,135.33030620001955,135.33030620001955,135.33030620001955,135.33030620001955,135.33030620001955,135.33030620001955,23,0,,,135.33030620001955,135.5323747000075,1000,135.5323747000075,1000,1000,1000,1000,0,num_3,1.101156200049445,,25,1,2026-03-04_17h07.20.884,2026A_exp2,2022.2.4,59.92825387836566,
1,0,3.7,0.0,1,0,29,29,28,,,,,136.66525949997595,137.31575850001536,137.31575850001536,137.81702730001416,315,45,137.81702730001416,137.81702730001416,137.81702730001416,137.81702730001416,137.81702730001416,137.81702730001416,137.81702730001416,137.81702730001416,137.81702730001416,138.16645199997583,138.16645199997583,138.16645199997583,138.16645199997583,138.16645199997583,138.16645199997583,138.16645199997583,138.16645199997583,138.16645199997583,22,0,,,138.16645199997583,138.3666826999979,0.0,138.3666826999979,0,0.0,0,1,1000,num_1,0.6669580999878235,,25,1,2026-03-04_17h07.20.884,2026A_exp2,2022.2.4,59.92825387836566,
1000,1,0.0,6.1,1,0,30,30,62,,,,,139.0506546999677,139.70162010000786,139.70162010000786,140.18595469999127,45,315,140.18595469999127,140.18595469999127,140.18595469999127,140.18595469999127,140.18595469999127,140.18595469999127,140.18595469999127,140.18595469999127,140.18595469999127,140.55228329997044,140.55228329997044,140.55228329997044,140.55228329997044,140.55228329997044,140.55228329997044,140.55228329997044,140.55228329997044,140.55228329997044,23,0,,,140.55228329997044,140.75415699998848,1000,140.75415699998848,1000,1000,1000,1000,0,num_3,0.41539859998738393,,25,1,2026-03-04_17h07.20.884,2026A_exp2,2022.2.4,59.92825387836566,
1000,1,0.0,0.0,0,0,31,31,67,,,,,141.18631169997388,141.83685969997896,141.83685969997896,142.33805459999712,45,315,142.33805459999712,142.33805459999712,142.33805459999712,142.33805459999712,142.33805459999712,142.33805459999712,142.33805459999712,142.33805459999712,142.33805459999712,142.7044481000048,142.7044481000048,142.7044481000048,142.7044481000048,142.7044481000048,142.7044481000048,142.7044481000048,142.7044481000048,142.7044481000048,9,4,"[0.033562099968548864, 0.10035009996499866, 0.15026560000842437, 0.2671398000093177]","[0.06687939999392256, 0.11694029998034239, 0.200344699958805, 0.36684540001442656]",142.7044481000048,142.9064743000199,1000,142.9064743000199,1000,1000,1000,1000,0,num_3,1.3343585000257008,,25,1,2026-03-04_17h07.20.884,2026A_exp2,2022.2.4,59.92825387836566,
1000,1,0.0,0.0,0,0,32,32,36,,,,,144.25597150000976,144.90670320001664,144.90670320001664,145.4076858999906,315,315,145.4076858999906,145.4076858999906,145.4076858999906,145.4076858999906,145.4076858999906,145.4076858999906,145.4076858999906,145.4076858999906,145.4076858999906,145.77408309996827,145.77408309996827,145.77408309996827,145.77408309996827,145.77408309996827,145.77408309996827,145.77408309996827,145.77408309996827,145.77408309996827,23,0,,,145.77408309996827,145.9758245999692,1000,145.9758245999692,1000,1000,1000,1000,1,num_2,0.6653974000364542,,25,1,2026-03-04_17h07.20.884,2026A_exp2,2022.2.4,59.92825387836566,
1,0,3.7,0.0,0,0,33,33,8,,,,,146.6583527000039,147.3091046999907,147.3091046999907,147.81004720000783,315,315,147.81004720000783,147.81004720000783,147.81004720000783,147.81004720000783,147.81004720000783,147.81004720000783,147.81004720000783,147.81004720000783,147.81004720000783,148.17668530001538,148.17668530001538,148.17668530001538,148.17668530001538,148.17668530001538,148.17668530001538,148.17668530001538,148.17668530001538,148.17668530001538,23,0,,,148.17668530001538,148.37685190001503,3.7,148.37685190001503,1,3.7,1,1,1000,num_4,2.1126874000183307,,25,1,2026-03-04_17h07.20.884,2026A_exp2,2022.2.4,59.92825387836566,
1000,1,0.0,6.1,1,0,34,34,3,,,,,150.51210029999493,151.1628596999799,151.1628596999799,151.64732230000664,315,45,151.64732230000664,151.64732230000664,151.64732230000664,151.64732230000664,151.64732230000664,151.64732230000664,151.64732230000664,151.64732230000664,151.64732230000664,152.0136222000001,152.0136222000001,152.0136222000001,152.0136222000001,152.0136222000001,152.0136222000001,152.0136222000001,152.0136222000001,152.0136222000001,23,0,,,152.0136222000001,152.21586220001336,1000,152.21586220001336,1000,1000,1000,1000,0,num_3,0.9783037999877706,,25,1,2026-03-04_17h07.20.884,2026A_exp2,2022.2.4,59.92825387836566,
1000,1,0.0,4.9,1,0,35,35,79,,,,,153.21492429997306,153.86568569997326,153.86568569997326,154.36654670001008,45,315,154.36654670001008,154.36654670001008,154.36654670001008,154.36654670001008,154.36654670001008,154.36654670001008,154.36654670001008,154.36654670001008,154.36654670001008,154.73348840000108,154.73348840000108,154.73348840000108,154.73348840000108,154.73348840000108,154.73348840000108,154.73348840000108,154.73348840000108,154.73348840000108,23,0,,,154.73348840000108,154.93339540000306,1000,154.93339540000306,1000,1000,1000,1000,0,num_3,1.3002747999853455,,25,1,2026-03-04_17h07.20.884,2026A_exp2,2022.2.4,59.92825387836566,
1000,1,0.0,4.9,1,0,36,36,55,,,,,156.25123449997045,156.90164300001925,156.90164300001925,157.38646670000162,315,315,157.38646670000162,157.38646670000162,157.38646670000162,157.38646670000162,157.38646670000162,157.38646670000162,157.38646670000162,157.38646670000162,157.38646670000162,157.7524178000167,157.7524178000167,157.7524178000167,157.7524178000167,157.7524178000167,157.7524178000167,157.7524178000167,157.7524178000167,157.7524178000167,20,1,[0.23413569998228922],[0.2840853999950923],157.7524178000167,157.95298689999618,1000,157.95298689999618,1000,1000,1000,1000,0,num_3,0.7044360000290908,,25,1,2026-03-04_17h07.20.884,2026A_exp2,2022.2.4,59.92825387836566,
1,0,6.1,4.9,0,0,37,37,81,,,,,158.68707759998506,,159.33763039996848,159.83896680001635,315,315,159.83896680001635,159.83896680001635,159.83896680001635,159.83896680001635,159.83896680001635,159.83896680001635,159.83896680001635,159.83896680001635,159.83896680001635,160.18882229999872,160.18882229999872,160.18882229999872,160.18882229999872,160.18882229999872,160.18882229999872,160.18882229999872,160.18882229999872,160.18882229999872,22,0,,,160.18882229999872,160.38895449996926,6.1,160.38895449996926,0,6.1,1,0,1000,num_1,1.0206992999883369,,25,1,2026-03-04_17h07.20.884,2026A_exp2,2022.2.4,59.92825387836566,
1000,1,0.0,3.7,0,0,38,38,57,,,,,161.43976649997057,162.09045839996543,162.09045839996543,162.57503740000539,315,315,162.57503740000539,162.57503740000539,162.57503740000539,162.57503740000539,162.57503740000539,162.57503740000539,162.57503740000539,162.57503740000539,162.57503740000539,162.94125319999876,162.94125319999876,162.94125319999876,162.94125319999876,162.94125319999876,162.94125319999876,162.94125319999876,162.94125319999876,162.94125319999876,23,0,,,162.94125319999876,163.1431529999827,1000,163.1431529999827,1000,1000,1000,1000,1,num_2,0.3947760000010021,,25,1,2026-03-04_17h07.20.884,2026A_exp2,2022.2.4,59.92825387836566,
1000,1,0.0,0.0,0,0,39,39,7,,,,,163.55856949998997,164.20926500001224,164.20926500001224,164.7104948000051,45,45,164.7104948000051,164.7104948000051,164.7104948000051,164.7104948000051,164.7104948000051,164.7104948000051,164.7104948000051,164.7104948000051,164.7104948000051,165.07684240001254,165.07684240001254,165.07684240001254,165.07684240001254,165.07684240001254,165.07684240001254,165.07684240001254,165.07684240001254,165.07684240001254,19,2,"[0.017328499990981072, 0.25041189999319613]","[0.06686899997293949, 0.2670642999582924]",165.07684240001254,165.2788441000157,1000,165.2788441000157,1000,1000,1000,1000,0,num_3,1.347020099987276,,25,1,2026-03-04_17h07.20.884,2026A_exp2,2022.2.4,59.92825387836566,
0,0,0.0,4.9,0,0,40,40,14,,,,,166.6450791999814,167.29577630001586,167.29577630001586,167.7802182000014,45,45,167.7802182000014,167.7802182000014,167.7802182000014,167.7802182000014,167.7802182000014,167.7802182000014,167.7802182000014,167.7802182000014,167.7802182000014,168.14664029999403,168.14664029999403,168.14664029999403,168.14664029999403,168.14664029999403,168.14664029999403,168.14664029999403,168.14664029999403,168.14664029999403,3,3,"[0.0011830999865196645, 0.10019239998655394, 0.16708199999993667]","[0.08365300000878051, 0.13360319996718317, 0.3672082999837585]",168.14664029999403,168.34673980000662,4.9,168.34673980000662,0,4.9,1,0,1000,num_1,0.8073240999947302,,25,1,2026-03-04_17h07.20.884,2026A_exp2,2022.2.4,59.92825387836566,
1,0,3.7,4.9,1,0,41,41,71,,,,,169.18106759997318,169.81499639997492,169.81499639997492,170.31598949996987,315,315,170.31598949996987,170.31598949996987,170.31598949996987,170.31598949996987,170.31598949996987,170.31598949996987,170.31598949996987,170.31598949996987,170.31598949996987,170.68263589998242,170.68263589998242,170.68263589998242,170.68263589998242,170.68263589998242,170.68263589998242,170.68263589998242,170.68263589998242,170.68263589998242,23,0,,,170.68263589998242,170.88258849998238,4.9,170.88258849998238,1,4.9,1,1,1000,num_4,1.1184921999811195,,25,1,2026-03-04_17h07.20.884,2026A_exp2,2022.2.4,59.92825387836566,
1,0,4.9,0.0,0,0,42,42,4,,,,,172.01709540002048,172.67013139999472,172.67013139999472,173.1688294999767,45,315,173.1688294999767,173.1688294999767,173.1688294999767,173.1688294999767,173.1688294999767,173.1688294999767,173.1688294999767,173.1688294999767,173.1688294999767,173.53538020001724,173.53538020001724,173.53538020001724,173.53538020001724,173.53538020001724,173.53538020001724,173.53538020001724,173.53538020001724,173.53538020001724,0,1,[0.001228799985256046],[0.3672983000287786],173.53538020001724,173.73551819997374,4.9,173.73551819997374,0,4.9,1,0,1000,num_1,0.3935874999733642,,25,1,2026-03-04_17h07.20.884,2026A_exp2,2022.2.4,59.92825387836566,
1000,1,3.7,0.0,0,0,43,43,32,,,,,174.1523911000113,174.80328559997724,174.80328559997724,175.28772869997192,315,45,175.28772869997192,175.28772869997192,175.28772869997192,175.28772869997192,175.28772869997192,175.28772869997192,175.28772869997192,175.28772869997192,175.28772869997192,175.65415539999958,175.65415539999958,175.65415539999958,175.65415539999958,175.65415539999958,175.65415539999958,175.65415539999958,175.65415539999958,175.65415539999958,23,0,,,175.65415539999958,175.85470999998506,1000,175.85470999998506,1000,1000,1000,1000,0,num_3,0.2991477000177838,,25,1,2026-03-04_17h07.20.884,2026A_exp2,2022.2.4,59.92825387836566,
0,0,0.0,0.0,1,0,44,44,38,,,,,176.1713410000084,176.82172389997868,176.82172389997868,177.32300149998628,45,45,177.32300149998628,177.32300149998628,177.32300149998628,177.32300149998628,177.32300149998628,177.32300149998628,177.32300149998628,177.32300149998628,177.32300149998628,177.6728715999634,177.6728715999634,177.6728715999634,177.6728715999634,177.6728715999634,177.6728715999634,177.6728715999634,177.6728715999634,177.6728715999634,22,0,,,177.6728715999634,177.87307540001348,0.0,177.88974459999008,0,0.0,0,1,1000,num_1,0.5920096000190824,,25,1,2026-03-04_17h07.20.884,2026A_exp2,2022.2.4,59.92825387836566,
0,0,0.0,3.7,0,0,45,45,47,,,,,178.5067987999646,179.1660666000098,179.1660666000098,179.658751400013,45,315,179.658751400013,179.658751400013,179.658751400013,179.658751400013,179.658751400013,179.658751400013,179.658751400013,179.658751400013,179.658751400013,180.0251936999848,180.0251936999848,180.0251936999848,180.0251936999848,180.0251936999848,180.0251936999848,180.0251936999848,180.0251936999848,180.0251936999848,23,0,,,180.0251936999848,180.22529719996965,3.7,180.22529719996965,0,3.7,1,0,1000,num_1,0.5682605999754742,,25,1,2026-03-04_17h07.20.884,2026A_exp2,2022.2.4,59.92825387836566,
1,0,6.1,3.7,0,0,46,46,31,,,,,180.80915380001534,181.45994029997382,181.45994029997382,181.9610939999693,45,315,181.9610939999693,181.9610939999693,181.9610939999693,181.9610939999693,181.9610939999693,181.9610939999693,181.9610939999693,181.9610939999693,181.9610939999693,182.31065389997093,182.31065389997093,182.31065389997093,182.31065389997093,182.31065389997093,182.31065389997093,182.31065389997093,182.31065389997093,182.31065389997093,22,0,,,182.31065389997093,182.51086559996475,6.1,182.51086559996475,0,6.1,1,0,1000,num_1,0.4904431999893859,,25,1,2026-03-04_17h07.20.884,2026A_exp2,2022.2.4,59.92825387836566,
1000,1,4.9,0.0,0,0,47,47,50,,,,,183.029444099986,183.67874220001977,183.67874220001977,184.1798281999654,315,45,184.1798281999654,184.1798281999654,184.1798281999654,184.1798281999654,184.1798281999654,184.1798281999654,184.1798281999654,184.1798281999654,184.1798281999654,184.54634739999892,184.54634739999892,184.54634739999892,184.54634739999892,184.54634739999892,184.54634739999892,184.54634739999892,184.54634739999892,184.54634739999892,23,0,,,184.54634739999892,184.7481852999772,1000,184.7481852999772,1000,1000,1000,1000,0,num_3,0.30172779998974875,,25,1,2026-03-04_17h07.20.884,2026A_exp2,2022.2.4,59.92825387836566,
1,0,3.7,3.7,1,0,48,48,86,,,,,185.0801454000175,185.73073080001632,185.73073080001632,186.2319391000201,315,315,186.2319391000201,186.2319391000201,186.2319391000201,186.2319391000201,186.2319391000201,186.2319391000201,186.2319391000201,186.2319391000201,186.2319391000201,186.59823160001542,186.59823160001542,186.59823160001542,186.59823160001542,186.59823160001542,186.59823160001542,186.59823160001542,186.59823160001542,186.59823160001542,23,0,,,186.59823160001542,186.79865569999674,3.7,186.79865569999674,0,3.7,1,0,1000,num_1,1.0187740999972448,,25,1,2026-03-04_17h07.20.884,2026A_exp2,2022.2.4,59.92825387836566,
1000,1,0.0,4.9,0,0,49,49,74,,,,,187.83282329997746,188.48362760001328,188.48362760001328,188.9847951999982,315,45,188.9847951999982,188.9847951999982,188.9847951999982,188.9847951999982,188.9847951999982,188.9847951999982,188.9847951999982,188.9847951999982,188.9847951999982,189.35130979999667,189.35130979999667,189.35130979999667,189.35130979999667,189.35130979999667,189.35130979999667,189.35130979999667,189.35130979999667,189.35130979999667,0,1,[0.0014854000182822347],[0.3666477000224404],189.35130979999667,189.5644173999899,1000,189.5644173999899,1000,1000,1000,1000,0,num_3,0.9817459000041708,,25,1,2026-03-04_17h07.20.884,2026A_exp2,2022.2.4,59.92825387836566,
1,0,3.7,6.1,1,0,50,50,77,,,,,190.5690255999798,191.21966010000324,191.21966010000324,191.70400029997109,45,315,191.70400029997109,191.70400029997109,191.70400029997109,191.70400029997109,191.70400029997109,191.70400029997109,191.70400029997109,191.70400029997109,191.70400029997109,192.07049589999951,192.07049589999951,192.07049589999951,192.07049589999951,192.07049589999951,192.07049589999951,192.07049589999951,192.07049589999951,192.07049589999951,5,1,[0.0011989999911747873],[0.3006017000298016],192.07049589999951,192.270783999993,6.1,192.270783999993,1,6.1,1,1,1000,num_4,0.8190911000128835,,25,1,2026-03-04_17h07.20.884,2026A_exp2,2022.2.4,59.92825387836566,
0,0,6.1,0.0,1,0,51,51,30,,,,,193.121711099986,193.77406919997884,193.77406919997884,194.26172670000233,45,45,194.26172670000233,194.26172670000233,194.26172670000233,194.26172670000233,194.26172670000233,194.26172670000233,194.26172670000233,194.26172670000233,194.26172670000233,194.62309750000713,194.62309750000713,194.62309750000713,194.62309750000713,194.62309750000713,194.62309750000713,194.62309750000713,194.62309750000713,194.62309750000713,23,0,,,194.62309750000713,194.8232070999802,6.1,194.8232070999802,0,6.1,1,0,1000,num_1,1.8897403999581002,,25,1,2026-03-04_17h07.20.884,2026A_exp2,2022.2.4,59.92825387836566,
1,0,0.0,0.0,1,0,52,52,21,,,,,196.7417368000024,197.3924146000063,197.3924146000063,197.8769843999762,315,45,197.8769843999762,197.8769843999762,197.8769843999762,197.8769843999762,197.8769843999762,197.8769843999762,197.8769843999762,197.8769843999762,197.8769843999762,198.24341639998602,198.24341639998602,198.24341639998602,198.24341639998602,198.24341639998602,198.24341639998602,198.24341639998602,198.24341639998602,198.24341639998602,0,1,[0.0012394000077620149],[0.3671081000356935],198.24341639998602,198.4438964999863,0.0,198.4438964999863,1,0.0,0,0,1000,num_4,0.7820618000114337,,25,1,2026-03-04_17h07.20.884,2026A_exp2,2022.2.4,59.92825387836566,
1000,1,0.0,6.1,1,0,53,53,69,,,,,199.24419800000032,199.89683480001986,199.89683480001986,200.39619060000405,315,315,200.39619060000405,200.39619060000405,200.39619060000405,200.39619060000405,200.39619060000405,200.39619060000405,200.39619060000405,200.39619060000405,200.39619060000405,200.74592730001314,200.74592730001314,200.74592730001314,200.74592730001314,200.74592730001314,200.74592730001314,200.74592730001314,200.74592730001314,200.74592730001314,22,0,,,200.74592730001314,200.9477132000029,1000,200.9477132000029,1000,1000,1000,1000,0,num_3,0.6611189000541344,,25,1,2026-03-04_17h07.20.884,2026A_exp2,2022.2.4,59.92825387836566,
1000,1,6.1,0.0,0,0,54,54,89,,,,,201.63002400001278,202.28072069998598,202.28072069998598,202.7651346999919,45,45,202.7651346999919,202.7651346999919,202.7651346999919,202.7651346999919,202.7651346999919,202.7651346999919,202.7651346999919,202.7651346999919,202.7651346999919,203.1316631999798,203.1316631999798,203.1316631999798,203.1316631999798,203.1316631999798,203.1316631999798,203.1316631999798,203.1316631999798,203.1316631999798,23,0,,,203.1316631999798,203.35679579997668,1000,203.35679579997668,1000,1000,1000,1000,1,num_2,1.5728603000170551,,25,1,2026-03-04_17h07.20.884,2026A_exp2,2022.2.4,59.92825387836566,
1,0,4.9,3.7,1,0,55,55,26,,,,,204.95005669997772,205.60060940001858,205.60060940001858,206.11189950001426,315,315,206.11189950001426,206.11189950001426,206.11189950001426,206.11189950001426,206.11189950001426,206.11189950001426,206.11189950001426,206.11189950001426,206.11189950001426,206.46829679998336,206.46829679998336,206.46829679998336,206.46829679998336,206.46829679998336,206.46829679998336,206.46829679998336,206.46829679998336,206.46829679998336,23,0,,,206.46829679998336,206.66845080000348,3.7,206.66845080000348,0,3.7,1,0,1000,num_1,0.8292233000393026,,25,1,2026-03-04_17h07.20.884,2026A_exp2,2022.2.4,59.92825387836566,
1,0,0.0,0.0,0,0,56,56,17,,,,,207.5192763999803,208.15840399998706,208.15840399998706,208.65442769997753,315,315,208.65442769997753,208.65442769997753,208.65442769997753,208.65442769997753,208.65442769997753,208.65442769997753,208.65442769997753,208.65442769997753,208.65442769997753,209.02085659996374,209.02085659996374,209.02085659996374,209.02085659996374,209.02085659996374,209.02085659996374,209.02085659996374,209.02085659996374,209.02085659996374,23,0,,,209.02085659996374,209.22088769997936,0.0,209.22088769997936,1,0.0,0,0,1000,num_4,1.4609594999928959,,25,1,2026-03-04_17h07.20.884,2026A_exp2,2022.2.4,59.92825387836566,
1000,1,0.0,0.0,0,0,57,57,6,,,,,210.70570829999633,211.3563998999889,211.3563998999889,211.8409837000072,315,315,211.8409837000072,211.8409837000072,211.8409837000072,211.8409837000072,211.8409837000072,211.8409837000072,211.8409837000072,211.8409837000072,211.8409837000072,212.20737159997225,212.20737159997225,212.20737159997225,212.20737159997225,212.20737159997225,212.20737159997225,212.20737159997225,212.20737159997225,212.20737159997225,3,3,"[0.0011881999671459198, 0.10013430000981316, 0.19999300001654774]","[0.06680169998435304, 0.18338539998512715, 0.36710769997444004]",212.20737159997225,212.4091194999637,1000,212.4091194999637,1000,1000,1000,1000,0,num_3,0.7610146999941207,,25,1,2026-03-04_17h07.20.884,2026A_exp2,2022.2.4,59.92825387836566,
1000,1,3.7,4.9,0,0,58,58,80,,,,,213.19164049997926,213.84238410001853,213.84238410001853,214.32664649997605,315,45,214.32664649997605,214.32664649997605,214.32664649997605,214.32664649997605,214.32664649997605,214.32664649997605,214.32664649997605,214.32664649997605,214.32664649997605,214.69314089999534,214.69314089999534,214.69314089999534,214.69314089999534,214.69314089999534,214.69314089999534,214.69314089999534,214.69314089999534,214.69314089999534,0,1,[0.0011921999976038933],[0.36710889998357743],214.69314089999534,214.89303899998777,1000,214.89303899998777,1000,1000,1000,1000,1,num_2,1.0679459000239149,,25,1,2026-03-04_17h07.20.884,2026A_exp2,2022.2.4,59.92825387836566,
1000,1,0.0,6.1,0,0,59,59,75,,,,,215.97761910001282,216.62843320000684,216.62843320000684,217.1296844999888,315,45,217.1296844999888,217.1296844999888,217.1296844999888,217.1296844999888,217.1296844999888,217.1296844999888,217.1296844999888,217.1296844999888,217.1296844999888,217.49577699997462,217.49577699997462,217.49577699997462,217.49577699997462,217.49577699997462,217.49577699997462,217.49577699997462,217.49577699997462,217.49577699997462,2,3,"[0.0012106000212952495, 0.1504869000054896, 0.33400370000163093]","[0.13373309996677563, 0.3172601999831386, 0.36728429998038337]",217.49577699997462,217.69783879996976,1000,217.69783879996976,1000,1000,1000,1000,1,num_2,0.8634658000082709,,25,1,2026-03-04_17h07.20.884,2026A_exp2,2022.2.4,59.92825387836566,
1000,1,0.0,0.0,0,0,60,60,72,,,,,218.58022319996962,219.23105800000485,219.23105800000485,219.73209359997418,45,315,219.73209359997418,219.73209359997418,219.73209359997418,219.73209359997418,219.73209359997418,219.73209359997418,219.73209359997418,219.73209359997418,219.73209359997418,220.0984559999779,220.0984559999779,220.0984559999779,220.0984559999779,220.0984559999779,220.0984559999779,220.0984559999779,220.0984559999779,220.0984559999779,22,1,[0.0012414000229910016],[0.017351799993775785],220.0984559999779,220.3004590999917,1000,220.3004590999917,1000,1000,1000,1000,0,num_3,0.4851053999736905,,25,1,2026-03-04_17h07.20.884,2026A_exp2,2022.2.4,59.92825387836566,
1000,1,0.0,0.0,1,0,61,61,46,,,,,220.81580260000192,221.46661349997157,221.46661349997157,221.96780109999236,45,315,221.96780109999236,221.96780109999236,221.96780109999236,221.96780109999236,221.96780109999236,221.96780109999236,221.96780109999236,221.96780109999236,221.96780109999236,222.3340761999716,222.3340761999716,222.3340761999716,222.3340761999716,222.3340761999716,222.3340761999716,222.3340761999716,222.3340761999716,222.3340761999716,23,0,,,222.3340761999716,222.55824819998816,1000,222.55824819998816,1000,1000,1000,1000,1,num_2,0.41121900000143796,,25,1,2026-03-04_17h07.20.884,2026A_exp2,2022.2.4,59.92825387836566,
1,0,4.9,3.7,1,0,62,62,10,,,,,222.98463819996687,223.63551779999398,223.63551779999398,224.13661659997888,315,45,224.13661659997888,224.13661659997888,224.13661659997888,224.13661659997888,224.13661659997888,224.13661659997888,224.13661659997888,224.13661659997888,224.13661659997888,224.50305020000087,224.50305020000087,224.50305020000087,224.50305020000087,224.50305020000087,224.50305020000087,224.50305020000087,224.50305020000087,224.50305020000087,9,2,"[0.05021099996520206, 0.2002830999554135]","[0.13359789998503402, 0.33348549995571375]",224.50305020000087,224.71457589999773,3.7,224.71457589999773,0,3.7,1,0,1000,num_1,0.8155818000086583,,25,1,2026-03-04_17h07.20.884,2026A_exp2,2022.2.4,59.92825387836566,
1000,1,0.0,4.9,0,0,63,63,53,,,,,225.55392199999187,226.20452670002123,226.20452670002123,226.70563549996587,315,45,226.70563549996587,226.70563549996587,226.70563549996587,226.70563549996587,226.70563549996587,226.70563549996587,226.70563549996587,226.70563549996587,226.70563549996587,227.07216229999904,227.07216229999904,227.07216229999904,227.07216229999904,227.07216229999904,227.07216229999904,227.07216229999904,227.07216229999904,227.07216229999904,21,1,[0.033559200004674494],[0.06692239997209981],227.07216229999904,227.27587189996848,1000,227.27587189996848,1000,1000,1000,1000,0,num_3,1.0699674999923445,,25,1,2026-03-04_17h07.20.884,2026A_exp2,2022.2.4,59.92825387836566,
1000,1,0.0,0.0,1,0,64,64,56,,,,,228.3735483000055,229.02961079997476,229.02961079997476,229.5084800000186,315,45,229.5084800000186,229.5084800000186,229.5084800000186,229.5084800000186,229.5084800000186,229.5084800000186,229.5084800000186,229.5084800000186,229.5084800000186,229.8750139999902,229.8750139999902,229.8750139999902,229.8750139999902,229.8750139999902,229.8750139999902,229.8750139999902,229.8750139999902,229.8750139999902,0,1,[0.0012461000005714595],[0.36716909997630864],229.8750139999902,230.07677529996727,1000,230.07677529996727,1000,1000,1000,1000,1,num_2,0.43664670002181083,,25,1,2026-03-04_17h07.20.884,2026A_exp2,2022.2.4,59.92825387836566,
1000,1,0.0,6.1,0,0,65,65,2,,,,,230.54221440001857,231.19290819996968,231.19290819996968,231.69413469999563,315,315,231.69413469999563,231.69413469999563,231.69413469999563,231.69413469999563,231.69413469999563,231.69413469999563,231.69413469999563,231.69413469999563,231.69413469999563,232.0605598000111,232.0605598000111,232.0605598000111,232.0605598000111,232.0605598000111,232.0605598000111,232.0605598000111,232.0605598000111,232.0605598000111,23,0,,,232.0605598000111,232.2624102999689,1000,232.2624102999689,1000,1000,1000,1000,1,num_2,0.5239084000349976,,25,1,2026-03-04_17h07.20.884,2026A_exp2,2022.2.4,59.92825387836566,
1,0,4.9,3.7,0,0,66,66,63,,,,,232.81132129998878,233.44526609999593,233.44526609999593,233.95462480001152,45,45,233.95462480001152,233.95462480001152,233.95462480001152,233.95462480001152,233.95462480001152,233.95462480001152,233.95462480001152,233.95462480001152,233.95462480001152,234.31267479999224,234.31267479999224,234.31267479999224,234.31267479999224,234.31267479999224,234.31267479999224,234.31267479999224,234.31267479999224,234.31267479999224,23,0,,,234.31267479999224,234.512965300004,4.9,234.512965300004,0,4.9,1,0,1000,num_1,1.1357593000284396,,25,1,2026-03-04_17h07.20.884,2026A_exp2,2022.2.4,59.92825387836566,
1000,1,0.0,0.0,0,0,67,67,45,,,,,235.68081869999878,236.33144300000276,236.33144300000276,236.8159663999686,315,315,236.8159663999686,236.8159663999686,236.8159663999686,236.8159663999686,236.8159663999686,236.8159663999686,236.8159663999686,236.8159663999686,236.8159663999686,237.1823158999905,237.1823158999905,237.1823158999905,237.1823158999905,237.1823158999905,237.1823158999905,237.1823158999905,237.1823158999905,237.1823158999905,13,4,"[0.06698389997472987, 0.11748349998379126, 0.1834810000145808, 0.2853800000157207]","[0.08325259998673573, 0.14983319997554645, 0.2540677000069991, 0.33513089996995404]",237.1823158999905,237.3985792999738,1000,237.3985792999738,1000,1000,1000,1000,1,num_2,1.01146119995974,,25,1,2026-03-04_17h07.20.884,2026A_exp2,2022.2.4,59.92825387836566,
1,0,0.0,3.7,1,0,68,68,0,,,,,238.43377030000556,239.08418509998592,239.08418509998592,239.58531080000103,45,45,239.58531080000103,239.58531080000103,239.58531080000103,239.58531080000103,239.58531080000103,239.58531080000103,239.58531080000103,239.58531080000103,239.58531080000103,239.9517842999776,239.9517842999776,239.9517842999776,239.9517842999776,239.9517842999776,239.9517842999776,239.9517842999776,239.9517842999776,239.9517842999776,5,3,"[0.0011937000090256333, 0.11692540004150942, 0.33380120003130287]","[0.10021420003613457, 0.3003502000356093, 0.3671193000045605]",239.9517842999776,240.15189480001573,3.7,240.15189480001573,0,3.7,1,0,1000,num_1,0.2814033000031486,,25,1,2026-03-04_17h07.20.884,2026A_exp2,2022.2.4,59.92825387836566,
0,0,0.0,0.0,0,0,69,69,22,,,,,240.45198419998633,241.10326289996738,241.10326289996738,241.60260689997813,45,315,241.60260689997813,241.60260689997813,241.60260689997813,241.60260689997813,241.60260689997813,241.60260689997813,241.60260689997813,241.60260689997813,241.60260689997813,241.95378659997368,241.95378659997368,241.95378659997368,241.95378659997368,241.95378659997368,241.95378659997368,241.95378659997368,241.95378659997368,241.95378659997368,23,0,,,241.95378659997368,242.1539036000031,0.0,242.1539036000031,0,0.0,0,1,1000,num_1,1.2709234000067227,,25,1,2026-03-04_17h07.20.884,2026A_exp2,2022.2.4,59.92825387836566,
0,0,4.9,4.9,1,0,70,70,48,,,,,243.45497429999523,244.10592389997328,244.10592389997328,244.60669709998183,315,45,244.60669709998183,244.60669709998183,244.60669709998183,244.60669709998183,244.60669709998183,244.60669709998183,244.60669709998183,244.60669709998183,244.60669709998183,244.9734604000114,244.9734604000114,244.9734604000114,244.9734604000114,244.9734604000114,244.9734604000114,244.9734604000114,244.9734604000114,244.9734604000114,13,2,"[0.0012195000308565795, 0.18407010001828894]","[0.10055740003008395, 0.2508197000133805]",244.9734604000114,245.17361820000224,4.9,245.17361820000224,1,4.9,1,1,1000,num_4,1.627314799989108,,25,1,2026-03-04_17h07.20.884,2026A_exp2,2022.2.4,59.92825387836566,
0,0,6.1,6.1,0,0,71,71,42,,,,,246.82507299998542,247.4844719999819,247.4844719999819,247.96527380001498,45,315,247.96527380001498,247.96527380001498,247.96527380001498,247.96527380001498,247.96527380001498,247.96527380001498,247.96527380001498,247.96527380001498,247.96527380001498,248.3267504000105,248.3267504000105,248.3267504000105,248.3267504000105,248.3267504000105,248.3267504000105,248.3267504000105,248.3267504000105,248.3267504000105,23,0,,,248.3267504000105,248.53034830000252,6.1,248.53034830000252,1,6.1,1,1,1000,num_4,1.2952765000518411,,25,1,2026-03-04_17h07.20.884,2026A_exp2,2022.2.4,59.92825387836566,
1,0,0.0,0.0,1,0,72,72,41,,,,,249.84627759997966,250.49566820001928,250.49566820001928,250.99671589996433,45,315,250.99671589996433,250.99671589996433,250.99671589996433,250.99671589996433,250.99671589996433,250.99671589996433,250.99671589996433,250.99671589996433,250.99671589996433,251.36330540000927,251.36330540000927,251.36330540000927,251.36330540000927,251.36330540000927,251.36330540000927,251.36330540000927,251.36330540000927,251.36330540000927,17,4,"[0.017663300037384033, 0.08385660004569218, 0.15057019999949262, 0.18394710001302883]","[0.050430200004484504, 0.11718420003307983, 0.1673756000236608, 0.20064080000156537]",251.36330540000927,251.57723349996377,0.0,251.57723349996377,0,0.0,0,1,1000,num_1,1.6075320999952964,,25,1,2026-03-04_17h07.20.884,2026A_exp2,2022.2.4,59.92825387836566,
1,0,4.9,0.0,1,0,73,73,25,,,,,253.2150328999851,253.86804789997404,253.86804789997404,254.35555560002103,315,45,254.35555560002103,254.35555560002103,254.35555560002103,254.35555560002103,254.35555560002103,254.35555560002103,254.35555560002103,254.35555560002103,254.35555560002103,254.71654320001835,254.71654320001835,254.71654320001835,254.71654320001835,254.71654320001835,254.71654320001835,254.71654320001835,254.71654320001835,254.71654320001835,0,1,[0.0025731000350788236],[0.36547379998955876],254.71654320001835,254.91657739999937,0.0,254.91657739999937,1,0.0,0,0,1000,num_4,0.9171208000043407,,25,1,2026-03-04_17h07.20.884,2026A_exp2,2022.2.4,59.92825387836566,
1000,1,0.0,0.0,0,0,74,74,37,,,,,255.85262859996874,256.5037727999734,256.5037727999734,257.0026666999911,45,45,257.0026666999911,257.0026666999911,257.0026666999911,257.0026666999911,257.0026666999911,257.0026666999911,257.0026666999911,257.0026666999911,257.0026666999911,257.3691809999873,257.3691809999873,257.3691809999873,257.3691809999873,257.3691809999873,257.3691809999873,257.3691809999873,257.3691809999873,257.3691809999873,1,1,[0.0012455999967642128],[0.36705639999127015],257.3691809999873,257.57146190002095,1000,257.57146190002095,1000,1000,1000,1000,1,num_2,1.9018737000296824,,25,1,2026-03-04_17h07.20.884,2026A_exp2,2022.2.4,59.92825387836566,
1000,1,3.7,6.1,1,0,75,75,29,,,,,259.50465640000766,260.15528329997323,260.15528329997323,260.65637689997675,45,45,260.65637689997675,260.65637689997675,260.65637689997675,260.65637689997675,260.65637689997675,260.65637689997675,260.65637689997675,260.65637689997675,260.65637689997675,261.0228572000051,261.0228572000051,261.0228572000051,261.0228572000051,261.0228572000051,261.0228572000051,261.0228572000051,261.0228572000051,261.0228572000051,23,0,,,261.0228572000051,261.2248277000035,1000,261.2248277000035,1000,1000,1000,1000,1,num_2,1.0561450999812223,,25,1,2026-03-04_17h07.20.884,2026A_exp2,2022.2.4,59.92825387836566,
1000,1,0.0,0.0,1,0,76,76,60,,,,,262.3075585999759,262.95802899997216,262.95802899997216,263.4589858999825,45,45,263.4589858999825,263.4589858999825,263.4589858999825,263.4589858999825,263.4589858999825,263.4589858999825,263.4589858999825,263.4589858999825,263.4589858999825,263.8089657999808,263.8089657999808,263.8089657999808,263.8089657999808,263.8089657999808,263.8089657999808,263.8089657999808,263.8089657999808,263.8089657999808,22,0,,,263.8089657999808,264.0090233999654,1000,264.02597650000826,1000,1000,1000,1000,1,num_2,0.5190127000096254,,25,1,2026-03-04_17h07.20.884,2026A_exp2,2022.2.4,59.92825387836566,
1000,1,0.0,3.7,1,0,77,77,65,,,,,264.5764476999757,265.22702990000835,265.22702990000835,265.7281632999657,315,315,265.7281632999657,265.7281632999657,265.7281632999657,265.7281632999657,265.7281632999657,265.7281632999657,265.7281632999657,265.7281632999657,265.7281632999657,266.0945546000148,266.0945546000148,266.0945546000148,266.0945546000148,266.0945546000148,266.0945546000148,266.0945546000148,266.0945546000148,266.0945546000148,23,0,,,266.0945546000148,266.2965560000157,1000,266.2965560000157,1000,1000,1000,1000,1,num_2,0.48898730002110824,,25,1,2026-03-04_17h07.20.884,2026A_exp2,2022.2.4,59.92825387836566,
1,0,4.9,4.9,0,0,78,78,84,,,,,266.81205639999826,267.46252180001466,267.46252180001466,267.9636031999835,315,315,267.9636031999835,267.9636031999835,267.9636031999835,267.9636031999835,267.9636031999835,267.9636031999835,267.9636031999835,267.9636031999835,267.9636031999835,268.3301459000213,268.3301459000213,268.3301459000213,268.3301459000213,268.3301459000213,268.3301459000213,268.3301459000213,268.3301459000213,268.3301459000213,23,0,,,268.3301459000213,268.53034329996444,4.9,268.53034329996444,1,4.9,1,1,1000,num_4,0.9348416000138968,,25,1,2026-03-04_17h07.20.884,2026A_exp2,2022.2.4,59.92825387836566,
1000,1,6.1,4.9,0,0,79,79,68,,,,,269.48123619996477,270.13174430001527,270.13174430001527,270.6163067999878,45,45,270.6163067999878,270.6163067999878,270.6163067999878,270.6163067999878,270.6163067999878,270.6163067999878,270.6163067999878,270.6163067999878,270.6163067999878,270.98259099997813,270.98259099997813,270.98259099997813,270.98259099997813,270.98259099997813,270.98259099997813,270.98259099997813,270.98259099997813,270.98259099997813,23,0,,,270.98259099997813,271.18315739999525,1000,271.18315739999525,1000,1000,1000,1000,0,num_3,0.810774199955631,,25,1,2026-03-04_17h07.20.884,2026A_exp2,2022.2.4,59.92825387836566,
1000,1,0.0,6.1,0,0,80,80,58,,,,,272.0172363999882,272.66775829996914,272.66775829996914,273.16885610000463,315,315,273.16885610000463,273.16885610000463,273.16885610000463,273.16885610000463,273.16885610000463,273.16885610000463,273.16885610000463,273.16885610000463,273.16885610000463,273.53513699996984,273.53513699996984,273.53513699996984,273.53513699996984,273.53513699996984,273.53513699996984,273.53513699996984,273.53513699996984,273.53513699996984,1,2,"[0.001344999996945262, 0.20079680002527311]","[0.18412779999198392, 0.36749580001924187]",273.53513699996984,273.73606379999546,1000,273.73606379999546,1000,1000,1000,1000,1,num_2,0.665342399966903,,25,1,2026-03-04_17h07.20.884,2026A_exp2,2022.2.4,59.92825387836566,
1000,1,3.7,4.9,0,0,81,81,64,,,,,274.41972559998976,275.0702457000152,275.0702457000152,275.55451220000396,315,315,275.55451220000396,275.55451220000396,275.55451220000396,275.55451220000396,275.55451220000396,275.55451220000396,275.55451220000396,275.55451220000396,275.55451220000396,275.9209499999997,275.9209499999997,275.9209499999997,275.9209499999997,275.9209499999997,275.9209499999997,275.9209499999997,275.9209499999997,275.9209499999997,23,0,,,275.9209499999997,276.12316109996755,1000,276.12316109996755,1000,1000,1000,1000,0,num_3,0.5816646000021137,,25,1,2026-03-04_17h07.20.884,2026A_exp2,2022.2.4,59.92825387836566,
1000,1,0.0,6.1,0,0,82,82,85,,,,,276.72183799999766,277.372500700003,277.372500700003,277.8736357999733,315,315,277.8736357999733,277.8736357999733,277.8736357999733,277.8736357999733,277.8736357999733,277.8736357999733,277.8736357999733,277.8736357999733,277.8736357999733,278.22335779998684,278.22335779998684,278.22335779998684,278.22335779998684,278.22335779998684,278.22335779998684,278.22335779998684,278.22335779998684,278.22335779998684,22,0,,,278.22335779998684,278.4248767999816,1000,278.4401065999991,1000,1000,1000,1000,1,num_2,0.4171051000012085,,25,1,2026-03-04_17h07.20.884,2026A_exp2,2022.2.4,59.92825387836566,
1,0,0.0,0.0,1,0,83,83,24,,,,,278.8740393000189,279.5246548000141,279.5246548000141,280.0256706000073,45,315,280.0256706000073,280.0256706000073,280.0256706000073,280.0256706000073,280.0256706000073,280.0256706000073,280.0256706000073,280.0256706000073,280.0256706000073,280.39221449999604,280.39221449999604,280.39221449999604,280.39221449999604,280.39221449999604,280.39221449999604,280.39221449999604,280.39221449999604,280.39221449999604,22,1,[0.3670818000100553],[0.3670877999975346],280.39221449999604,280.59213020000607,0.0,280.59213020000607,0,0.0,0,1,1000,num_1,0.32136699999682605,,25,1,2026-03-04_17h07.20.884,2026A_exp2,2022.2.4,59.92825387836566,
1,0,4.9,3.7,0,0,84,84,9,,,,,280.9426214999985,281.576659000013,281.576659000013,282.0778352000052,45,315,282.0778352000052,282.0778352000052,282.0778352000052,282.0778352000052,282.0778352000052,282.0778352000052,282.0778352000052,282.0778352000052,282.0778352000052,282.44417919998523,282.44417919998523,282.44417919998523,282.44417919998523,282.44417919998523,282.44417919998523,282.44417919998523,282.44417919998523,282.44417919998523,23,0,,,282.44417919998523,282.644534299965,4.9,282.644534299965,0,4.9,1,0,1000,num_1,1.1096721999929287,,25,1,2026-03-04_17h07.20.884,2026A_exp2,2022.2.4,59.92825387836566,
1,0,6.1,6.1,0,0,85,85,27,,,,,283.77885170001537,284.4295374000212,284.4295374000212,284.91398790001404,45,315,284.91398790001404,284.91398790001404,284.91398790001404,284.91398790001404,284.91398790001404,284.91398790001404,284.91398790001404,284.91398790001404,284.91398790001404,285.28043639997486,285.28043639997486,285.28043639997486,285.28043639997486,285.28043639997486,285.28043639997486,285.28043639997486,285.28043639997486,285.28043639997486,14,1,[0.2336735000135377],[0.3673479999997653],285.28043639997486,285.4806627999642,6.1,285.4806627999642,1,6.1,1,1,1000,num_4,0.5684258000110276,,25,1,2026-03-04_17h07.20.884,2026A_exp2,2022.2.4,59.92825387836566,
1000,1,0.0,6.1,0,0,86,86,35,,,,,286.0812707999721,286.73152939998545,286.73152939998545,287.2164186000009,45,45,287.2164186000009,287.2164186000009,287.2164186000009,287.2164186000009,287.2164186000009,287.2164186000009,287.2164186000009,287.2164186000009,287.2164186000009,287.5827678000205,287.5827678000205,287.5827678000205,287.5827678000205,287.5827678000205,287.5827678000205,287.5827678000205,287.5827678000205,287.5827678000205,23,0,,,287.5827678000205,287.7845759000047,1000,287.7845759000047,1000,1000,1000,1000,0,num_3,0.8329587000189349,,25,1,2026-03-04_17h07.20.884,2026A_exp2,2022.2.4,59.92825387836566,
1,0,4.9,6.1,0,0,87,87,33,,,,,288.6337754999986,289.2844749999931,289.2844749999931,289.78557030000957,45,315,289.78557030000957,289.78557030000957,289.78557030000957,289.78557030000957,289.78557030000957,289.78557030000957,289.78557030000957,289.78557030000957,289.78557030000957,290.13524959998904,290.13524959998904,290.13524959998904,290.13524959998904,290.13524959998904,290.13524959998904,290.13524959998904,290.13524959998904,290.13524959998904,2,1,[0.0011951999622397125],[0.3338960999972187],290.13524959998904,290.33538629999384,4.9,290.35209200001555,0,4.9,1,0,1000,num_1,0.9288554000086151,,25,1,2026-03-04_17h07.20.884,2026A_exp2,2022.2.4,59.92825387836566,
1000,1,3.7,0.0,0,0,88,88,66,,,,,291.3030842000153,291.9536386000109,291.9536386000109,292.4380479999818,315,315,292.4380479999818,292.4380479999818,292.4380479999818,292.4380479999818,292.4380479999818,292.4380479999818,292.4380479999818,292.4380479999818,292.4380479999818,292.8045153999701,292.8045153999701,292.8045153999701,292.8045153999701,292.8045153999701,292.8045153999701,292.8045153999701,292.8045153999701,292.8045153999701,17,1,[0.2837266999995336],[0.36695450003026053],292.8045153999701,293.0050770000089,1000,293.0050770000089,1000,1000,1000,1000,1,num_2,0.36429800000041723,,25,1,2026-03-04_17h07.20.884,2026A_exp2,2022.2.4,59.92825387836566,
1,0,0.0,0.0,0,0,89,89,34,,,,,293.3885827999911,294.03925929998513,294.03925929998513,294.54032939998433,315,45,294.54032939998433,294.54032939998433,294.54032939998433,294.54032939998433,294.54032939998433,294.54032939998433,294.54032939998433,294.54032939998433,294.54032939998433,294.90671890001977,294.90671890001977,294.90671890001977,294.90671890001977,294.90671890001977,294.90671890001977,294.90671890001977,294.90671890001977,294.90671890001977,23,0,,,294.90671890001977,295.1069040999864,0.0,295.1069040999864,0,0.0,0,1,1000,num_1,0.7426519999862649,,25,1,2026-03-04_17h07.20.884,2026A_exp2,2022.2.4,59.92825387836566,
,,,,,,,,,,,,,,,,,,,,,,,,,,,,,,,,,,,,,,,,,,,,,,,,,,,,295.88224499998614,,,,,,,
