validity,detectorcomp,contrastCW,contrastCCW,precueCWorCCW,block_80trials.thisRepN,block_80trials.thisTrialN,block_80trials.thisN,block_80trials.thisIndex,etRecord.started,etRecord.stopped,text.started,text.stopped,text_4.started,text_4.stopped,text_6.started,text_6.stopped,oriCW,oriCCW,roi_2.started,grating_UR.started,grating_UL.started,grating_LR.started,grating_LL.started,noise_UR.started,noise_UL.started,noise_LR.started,noise_LL.started,roi_2.stopped,grating_UR.stopped,grating_UL.stopped,grating_LR.stopped,grating_LL.stopped,noise_UR.stopped,noise_UL.stopped,noise_LR.stopped,noise_LL.stopped,outframe,roi_2.numLooks,roi_2.timesOn,roi_2.timesOff,text_2.started,text_2.stopped,probedcontrast,key_resp.started,respdetect,relevantContrast,correctDetect,TorFdetect,respCWorCCW,key_resp.keys,key_resp.rt,feedback_display_.started,participantNo,blockNo,date,expName,psychopyVersion,frameRate,
1,0,3.7,0.0,0,0,0,0,87,5.359994247555733e-05,5.359994247555733e-05,56.28109539998695,58.28405310004018,58.28405310004018,58.91741769993678,58.91741769993678,59.449910999974236,45,315,59.449910999974236,59.449910999974236,59.449910999974236,59.449910999974236,59.449910999974236,59.449910999974236,59.449910999974236,59.449910999974236,59.449910999974236,59.78505740012042,59.78505740012042,59.78505740012042,59.78505740012042,59.78505740012042,59.78505740012042,59.78505740012042,59.78505740012042,59.78505740012042,15,4,"[0.13422530004754663, 0.18448129994794726, 0.23446909990161657, 0.35131850000470877]","[0.16775420005433261, 0.20106819993816316, 0.2678644999396056, 0.3679206999950111]",59.78505740012042,59.98519850010052,3.7,59.98519850010052,0,3.7,1,0,1000,num_1,0.6840477997902781,,35,12,2026-03-13_14h23.31.885,2026A_exp2,2022.2.4,59.96408147903807,
1,0,3.7,4.9,1,0,1,1,20,,,,,60.68602170003578,61.336676799925044,61.336676799925044,61.83779090014286,315,315,61.83779090014286,61.83779090014286,61.83779090014286,61.83779090014286,61.83779090014286,61.83779090014286,61.83779090014286,61.83779090014286,61.83779090014286,62.18740830011666,62.18740830011666,62.18740830011666,62.18740830011666,62.18740830011666,62.18740830011666,62.18740830011666,62.18740830011666,62.18740830011666,18,2,"[0.2667501999530941, 0.3338901000097394]","[0.30047570005990565, 0.35061959992162883]",62.18740830011666,62.38773180008866,4.9,62.38773180008866,1,4.9,1,1,1000,num_4,0.4894188998732716,,35,12,2026-03-13_14h23.31.885,2026A_exp2,2022.2.4,59.96408147903807,
1,0,6.1,4.9,1,0,2,2,11,,,,,62.904861900024116,63.55532929999754,63.55532929999754,64.0398421001155,45,45,64.0398421001155,64.0398421001155,64.0398421001155,64.0398421001155,64.0398421001155,64.0398421001155,64.0398421001155,64.0398421001155,64.0398421001155,64.40641029994003,64.40641029994003,64.40641029994003,64.40641029994003,64.40641029994003,64.40641029994003,64.40641029994003,64.40641029994003,64.40641029994003,23,0,,,64.40641029994003,64.6066390001215,4.9,64.6066390001215,0,4.9,1,0,1000,num_1,0.5511409000027925,,35,12,2026-03-13_14h23.31.885,2026A_exp2,2022.2.4,59.96408147903807,
1000,1,6.1,0.0,1,0,3,3,29,,,,,65.17387280007824,65.82452780008316,65.82452780008316,66.30860679992475,45,315,66.30860679992475,66.30860679992475,66.30860679992475,66.30860679992475,66.30860679992475,66.30860679992475,66.30860679992475,66.30860679992475,66.30860679992475,66.67533120000735,66.67533120000735,66.67533120000735,66.67533120000735,66.67533120000735,66.67533120000735,66.67533120000735,66.67533120000735,66.67533120000735,23,0,,,66.67533120000735,66.88055030000396,1000,66.88055030000396,1000,1000,1000,1000,0,num_3,0.5248213999439031,,35,12,2026-03-13_14h23.31.885,2026A_exp2,2022.2.4,59.96408147903807,
1,0,0.0,0.0,1,0,4,4,69,,,,,67.42617280012928,68.0766825999599,68.0766825999599,68.57785940007307,45,315,68.57785940007307,68.57785940007307,68.57785940007307,68.57785940007307,68.57785940007307,68.57785940007307,68.57785940007307,68.57785940007307,68.57785940007307,68.94428199995309,68.94428199995309,68.94428199995309,68.94428199995309,68.94428199995309,68.94428199995309,68.94428199995309,68.94428199995309,68.94428199995309,13,4,"[0.05020989989861846, 0.13346579996868968, 0.18348549981601536, 0.30020539998076856]","[0.10015559988096356, 0.15020509995520115, 0.21686309995129704, 0.3669216998387128]",68.94428199995309,69.14445689995773,0.0,69.14445689995773,0,0.0,0,1,1000,num_1,0.6137592999730259,,35,12,2026-03-13_14h23.31.885,2026A_exp2,2022.2.4,59.96408147903807,
1,0,3.7,4.9,1,0,5,5,18,,,,,69.7784232001286,70.42918259999715,70.42918259999715,70.91337710013613,315,45,70.91337710013613,70.91337710013613,70.91337710013613,70.91337710013613,70.91337710013613,70.91337710013613,70.91337710013613,70.91337710013613,70.91337710013613,71.27983030001633,71.27983030001633,71.27983030001633,71.27983030001633,71.27983030001633,71.27983030001633,71.27983030001633,71.27983030001633,71.27983030001633,20,2,"[0.0012342999689280987, 0.04990530014038086]","[0.01716000004671514, 0.08344499999657273]",71.27983030001633,71.48003150010481,4.9,71.48003150010481,1,4.9,1,1,1000,num_4,0.41398989991284907,,35,12,2026-03-13_14h23.31.885,2026A_exp2,2022.2.4,59.96408147903807,
1000,1,0.0,0.0,0,0,6,6,17,,,,,71.9137343999464,72.56665390008129,72.56665390008129,73.04889030009508,315,45,73.04889030009508,73.04889030009508,73.04889030009508,73.04889030009508,73.04889030009508,73.04889030009508,73.04889030009508,73.04889030009508,73.04889030009508,73.415316300001,73.415316300001,73.415316300001,73.415316300001,73.415316300001,73.415316300001,73.415316300001,73.415316300001,73.415316300001,14,4,"[0.017492699902504683, 0.16715769981965423, 0.23352459981106222, 0.3169939999934286]","[0.03368239989504218, 0.21689089993014932, 0.2835509998258203, 0.3503772998228669]",73.415316300001,73.61750310007483,1000,73.61750310007483,1000,1000,1000,1000,0,num_3,0.4916848000138998,,35,12,2026-03-13_14h23.31.885,2026A_exp2,2022.2.4,59.96408147903807,
1000,1,0.0,0.0,0,0,7,7,7,,,,,74.13266419991851,74.78387259994633,74.78387259994633,75.28460870007984,45,45,75.28460870007984,75.28460870007984,75.28460870007984,75.28460870007984,75.28460870007984,75.28460870007984,75.28460870007984,75.28460870007984,75.28460870007984,75.65080099995248,75.65080099995248,75.65080099995248,75.65080099995248,75.65080099995248,75.65080099995248,75.65080099995248,75.65080099995248,75.65080099995248,21,2,"[0.017444999888539314, 0.08358699991367757]","[0.03350939997471869, 0.10039069992490113]",75.65080099995248,75.85329070012085,1000,75.85329070012085,1000,1000,1000,1000,1,num_2,0.7442149999551475,,35,12,2026-03-13_14h23.31.885,2026A_exp2,2022.2.4,59.96408147903807,
1,0,4.9,0.0,0,0,8,8,53,,,,,76.61851019994356,77.2692472001072,77.2692472001072,77.77037029992789,315,315,77.77037029992789,77.77037029992789,77.77037029992789,77.77037029992789,77.77037029992789,77.77037029992789,77.77037029992789,77.77037029992789,77.77037029992789,78.1200590999797,78.1200590999797,78.1200590999797,78.1200590999797,78.1200590999797,78.1200590999797,78.1200590999797,78.1200590999797,78.1200590999797,18,3,"[0.0013276999816298485, 0.23388969991356134, 0.3338973999489099]","[0.01753469998948276, 0.250563400099054, 0.35073380009271204]",78.1200590999797,78.32027229992673,4.9,78.32027229992673,0,4.9,1,0,1000,num_1,0.6687577997799963,,35,12,2026-03-13_14h23.31.885,2026A_exp2,2022.2.4,59.96408147903807,
1,0,6.1,0.0,0,0,9,9,47,,,,,79.02072479994968,79.67153530009091,79.67153530009091,80.15612790011801,45,45,80.15612790011801,80.15612790011801,80.15612790011801,80.15612790011801,80.15612790011801,80.15612790011801,80.15612790011801,80.15612790011801,80.15612790011801,80.52248260006309,80.52248260006309,80.52248260006309,80.52248260006309,80.52248260006309,80.52248260006309,80.52248260006309,80.52248260006309,80.52248260006309,11,6,"[0.0013689000625163317, 0.033547400031238794, 0.13347709993831813, 0.1836497001349926, 0.30047300015576184, 0.3504832999315113]","[0.017381200101226568, 0.08361510001122952, 0.16680820006877184, 0.2503118000458926, 0.3169824001379311, 0.3670850000344217]",80.52248260006309,80.7225598001387,6.1,80.7225598001387,1,6.1,1,1,1000,num_4,0.5868262997828424,,35,12,2026-03-13_14h23.31.885,2026A_exp2,2022.2.4,59.96408147903807,
0,0,6.1,4.9,0,0,10,10,22,,,,,81.33983270009048,81.99056500010192,81.99056500010192,82.47512760013342,45,45,82.47512760013342,82.47512760013342,82.47512760013342,82.47512760013342,82.47512760013342,82.47512760013342,82.47512760013342,82.47512760013342,82.47512760013342,82.84118230012245,82.84118230012245,82.84118230012245,82.84118230012245,82.84118230012245,82.84118230012245,82.84118230012245,82.84118230012245,82.84118230012245,4,3,"[0.001267499988898635, 0.06632560002617538, 0.3331895999144763]","[0.03302289987914264, 0.3167273998260498, 0.3665207999292761]",82.84118230012245,83.04180609993637,4.9,83.04180609993637,0,4.9,1,0,1000,num_1,0.6285117999650538,,35,12,2026-03-13_14h23.31.885,2026A_exp2,2022.2.4,59.96408147903807,
1,0,4.9,0.0,1,0,11,11,65,,,,,83.69217570009641,84.34294910007156,84.34294910007156,84.82750170002691,315,45,84.82750170002691,84.82750170002691,84.82750170002691,84.82750170002691,84.82750170002691,84.82750170002691,84.82750170002691,84.82750170002691,84.82750170002691,85.1937762000598,85.1937762000598,85.1937762000598,85.1937762000598,85.1937762000598,85.1937762000598,85.1937762000598,85.1937762000598,85.1937762000598,3,2,"[0.0012376001104712486, 0.3171916001010686]","[0.2671630000695586, 0.36706300009973347]",85.1937762000598,85.39385220012628,0.0,85.39385220012628,0,0.0,0,1,1000,num_1,0.763342099962756,,35,12,2026-03-13_14h23.31.885,2026A_exp2,2022.2.4,59.96408147903807,
1,0,6.1,0.0,1,0,12,12,70,,,,,86.17796829994768,86.82880949997343,86.82880949997343,87.3134071000386,315,315,87.3134071000386,87.3134071000386,87.3134071000386,87.3134071000386,87.3134071000386,87.3134071000386,87.3134071000386,87.3134071000386,87.3134071000386,87.67959449999034,87.67959449999034,87.67959449999034,87.67959449999034,87.67959449999034,87.67959449999034,87.67959449999034,87.67959449999034,87.67959449999034,14,2,"[0.03355509997345507, 0.26698810001835227]","[0.15032320003956556, 0.3168842000886798]",87.67959449999034,87.87975959992036,0.0,87.87975959992036,0,0.0,0,1,1000,num_1,0.5259825999382883,,35,12,2026-03-13_14h23.31.885,2026A_exp2,2022.2.4,59.96408147903807,
0,0,4.9,0.0,1,0,13,13,67,,,,,88.43025460001081,89.08098590001464,89.08098590001464,89.56551799993031,315,45,89.56551799993031,89.56551799993031,89.56551799993031,89.56551799993031,89.56551799993031,89.56551799993031,89.56551799993031,89.56551799993031,89.56551799993031,89.93189100013115,89.93189100013115,89.93189100013115,89.93189100013115,89.93189100013115,89.93189100013115,89.93189100013115,89.93189100013115,89.93189100013115,23,0,,,89.93189100013115,90.13176940008998,4.9,90.13176940008998,1,4.9,1,1,1000,num_4,1.0411353998351842,,35,12,2026-03-13_14h23.31.885,2026A_exp2,2022.2.4,59.96408147903807,
1000,1,3.7,6.1,1,0,14,14,58,,,,,91.1997221999336,91.85052520013414,91.85052520013414,92.33494869992137,45,45,92.33494869992137,92.33494869992137,92.33494869992137,92.33494869992137,92.33494869992137,92.33494869992137,92.33494869992137,92.33494869992137,92.33494869992137,92.70135580003262,92.70135580003262,92.70135580003262,92.70135580003262,92.70135580003262,92.70135580003262,92.70135580003262,92.70135580003262,92.70135580003262,11,7,"[0.0011968999169766903, 0.033471900038421154, 0.15028760000132024, 0.20027290005236864, 0.23362319986335933, 0.26716389995999634, 0.3170892000198364]","[0.017334099858999252, 0.1335879999678582, 0.1668634999077767, 0.21701469994150102, 0.25022040004841983, 0.2836970998905599, 0.3337040999904275]",92.70135580003262,92.90318919997662,1000,92.90318919997662,1000,1000,1000,1000,0,num_3,0.4781474999617785,,35,12,2026-03-13_14h23.31.885,2026A_exp2,2022.2.4,59.96408147903807,
1000,1,0.0,4.9,0,0,15,15,6,,,,,93.40186370001175,94.05287090013735,94.05287090013735,94.55378419999033,45,45,94.55378419999033,94.55378419999033,94.55378419999033,94.55378419999033,94.55378419999033,94.55378419999033,94.55378419999033,94.55378419999033,94.55378419999033,94.9200832999777,94.9200832999777,94.9200832999777,94.9200832999777,94.9200832999777,94.9200832999777,94.9200832999777,94.9200832999777,94.9200832999777,23,0,,,94.9200832999777,95.12224419997074,1000,95.12224419997074,1000,1000,1000,1000,1,num_2,0.595029599731788,,35,12,2026-03-13_14h23.31.885,2026A_exp2,2022.2.4,59.96408147903807,
1,0,6.1,4.9,1,0,16,16,64,,,,,95.73757200012915,96.38833860005252,96.38833860005252,96.88930899999104,315,315,96.88930899999104,96.88930899999104,96.88930899999104,96.88930899999104,96.88930899999104,96.88930899999104,96.88930899999104,96.88930899999104,96.88930899999104,97.25588850001805,97.25588850001805,97.25588850001805,97.25588850001805,97.25588850001805,97.25588850001805,97.25588850001805,97.25588850001805,97.25588850001805,7,4,"[0.0012702001258730888, 0.1503562000580132, 0.20037630014121532, 0.25048770010471344]","[0.08357609994709492, 0.1836578999646008, 0.23370760004036129, 0.36723840003833175]",97.25588850001805,97.45596179994754,4.9,97.45596179994754,0,4.9,1,0,1000,num_1,0.6851427997462451,,35,12,2026-03-13_14h23.31.885,2026A_exp2,2022.2.4,59.96408147903807,
1000,1,6.1,6.1,0,0,17,17,16,,,,,98.17341760010459,98.82414419995621,98.82414419995621,99.3085952999536,315,315,99.3085952999536,99.3085952999536,99.3085952999536,99.3085952999536,99.3085952999536,99.3085952999536,99.3085952999536,99.3085952999536,99.3085952999536,99.67496490012854,99.67496490012854,99.67496490012854,99.67496490012854,99.67496490012854,99.67496490012854,99.67496490012854,99.67496490012854,99.67496490012854,21,2,"[0.033551399828866124, 0.21662369999103248]","[0.06678269989788532, 0.23344029998406768]",99.67496490012854,99.87519369996153,1000,99.87519369996153,1000,1000,1000,1000,0,num_3,0.6269423998892307,,35,12,2026-03-13_14h23.31.885,2026A_exp2,2022.2.4,59.96408147903807,
1,0,0.0,4.9,0,0,18,18,73,,,,,100.52605649991892,101.1764726000838,101.1764726000838,101.67638959991746,45,315,101.67638959991746,101.67638959991746,101.67638959991746,101.67638959991746,101.67638959991746,101.67638959991746,101.67638959991746,101.67638959991746,101.67638959991746,102.02749320003204,102.02749320003204,102.02749320003204,102.02749320003204,102.02749320003204,102.02749320003204,102.02749320003204,102.02749320003204,102.02749320003204,5,4,"[0.004462099866941571, 0.05765530001372099, 0.2817634998355061, 0.3318880000151694]","[0.04531920002773404, 0.24843229982070625, 0.29847249994054437, 0.3652704998385161]",102.02749320003204,102.22750440007076,0.0,102.22750440007076,0,0.0,0,1,1000,num_1,0.6906451999675483,,35,12,2026-03-13_14h23.31.885,2026A_exp2,2022.2.4,59.96408147903807,
1000,1,6.1,3.7,0,0,19,19,75,,,,,102.9449217999354,103.59561379998922,103.59561379998922,104.09662350011058,45,45,104.09662350011058,104.09662350011058,104.09662350011058,104.09662350011058,104.09662350011058,104.09662350011058,104.09662350011058,104.09662350011058,104.09662350011058,104.46302030002698,104.46302030002698,104.46302030002698,104.46302030002698,104.46302030002698,104.46302030002698,104.46302030002698,104.46302030002698,104.46302030002698,11,4,"[0.03354330011643469, 0.2330785000231117, 0.3004036999773234, 0.35044299997389317]","[0.15031210007146, 0.26663820003159344, 0.31710210000164807, 0.36711280001327395]",104.46302030002698,104.66497729998082,1000,104.66497729998082,1000,1000,1000,1000,0,num_3,0.4443867998197675,,35,12,2026-03-13_14h23.31.885,2026A_exp2,2022.2.4,59.96408147903807,
1000,1,4.9,4.9,1,0,20,20,68,,,,,105.1302893999964,105.78108280012384,105.78108280012384,106.2823628000915,315,315,106.2823628000915,106.2823628000915,106.2823628000915,106.2823628000915,106.2823628000915,106.2823628000915,106.2823628000915,106.2823628000915,106.2823628000915,106.6484282000456,106.6484282000456,106.6484282000456,106.6484282000456,106.6484282000456,106.6484282000456,106.6484282000456,106.6484282000456,106.6484282000456,23,0,,,106.6484282000456,106.85061700013466,1000,106.85061700013466,1000,1000,1000,1000,1,num_2,0.3951874999329448,,35,12,2026-03-13_14h23.31.885,2026A_exp2,2022.2.4,59.96408147903807,
1000,1,4.9,3.7,0,0,21,21,40,,,,,107.26574299996719,107.9164692000486,107.9164692000486,108.41764790005982,315,315,108.41764790005982,108.41764790005982,108.41764790005982,108.41764790005982,108.41764790005982,108.41764790005982,108.41764790005982,108.41764790005982,108.41764790005982,108.78412610013038,108.78412610013038,108.78412610013038,108.78412610013038,108.78412610013038,108.78412610013038,108.78412610013038,108.78412610013038,108.78412610013038,2,4,"[0.001222599996253848, 0.08364570001140237, 0.18368250015191734, 0.2670919999945909]","[0.0668450000230223, 0.16709850006736815, 0.25058350013569, 0.36723600002005696]",108.78412610013038,108.98621960007586,1000,108.98621960007586,1000,1000,1000,1000,0,num_3,0.40301159978844225,,35,12,2026-03-13_14h23.31.885,2026A_exp2,2022.2.4,59.96408147903807,
1,0,0.0,6.1,0,0,22,22,0,,,,,109.41794529999606,110.06872400012799,110.06872400012799,110.56966420006938,45,45,110.56966420006938,110.56966420006938,110.56966420006938,110.56966420006938,110.56966420006938,110.56966420006938,110.56966420006938,110.56966420006938,110.56966420006938,110.9362236999441,110.9362236999441,110.9362236999441,110.9362236999441,110.9362236999441,110.9362236999441,110.9362236999441,110.9362236999441,110.9362236999441,14,4,"[0.0012632999569177628, 0.050078000174835324, 0.13370899995788932, 0.2836712000425905]","[0.03347690007649362, 0.06686220015399158, 0.200347000034526, 0.31741060013882816]",110.9362236999441,111.13651910005137,0.0,111.13651910005137,0,0.0,0,1,1000,num_1,0.645152400014922,,35,12,2026-03-13_14h23.31.885,2026A_exp2,2022.2.4,59.96408147903807,
0,0,0.0,0.0,1,0,23,23,2,,,,,111.80361820012331,112.45445180009119,112.45445180009119,112.93889990006573,45,45,112.93889990006573,112.93889990006573,112.93889990006573,112.93889990006573,112.93889990006573,112.93889990006573,112.93889990006573,112.93889990006573,112.93889990006573,113.30579959996976,113.30579959996976,113.30579959996976,113.30579959996976,113.30579959996976,113.30579959996976,113.30579959996976,113.30579959996976,113.30579959996976,23,0,,,113.30579959996976,113.50545789999887,0.0,113.50545789999887,0,0.0,0,1,1000,num_1,0.7002286999486387,,35,12,2026-03-13_14h23.31.885,2026A_exp2,2022.2.4,59.96408147903807,
1000,1,0.0,0.0,1,0,24,24,1,,,,,114.22282429994084,114.87350139999762,114.87350139999762,115.35798400011845,45,315,115.35798400011845,115.35798400011845,115.35798400011845,115.35798400011845,115.35798400011845,115.35798400011845,115.35798400011845,115.35798400011845,115.35798400011845,115.72441269992851,115.72441269992851,115.72441269992851,115.72441269992851,115.72441269992851,115.72441269992851,115.72441269992851,115.72441269992851,115.72441269992851,23,0,,,115.72441269992851,115.93631500005722,1000,115.93631500005722,1000,1000,1000,1000,1,num_2,0.437396900029853,,35,12,2026-03-13_14h23.31.885,2026A_exp2,2022.2.4,59.96408147903807,
0,0,6.1,0.0,0,0,25,25,74,,,,,116.39151669992134,117.04241180000827,117.04241180000827,117.54341230005957,315,45,117.54341230005957,117.54341230005957,117.54341230005957,117.54341230005957,117.54341230005957,117.54341230005957,117.54341230005957,117.54341230005957,117.54341230005957,117.90990919992328,117.90990919992328,117.90990919992328,117.90990919992328,117.90990919992328,117.90990919992328,117.90990919992328,117.90990919992328,117.90990919992328,19,2,"[0.11686840001493692, 0.317181000020355]","[0.15030799992382526, 0.35046710004098713]",117.90990919992328,118.11008380004205,0.0,118.11008380004205,0,0.0,0,1,1000,num_1,0.6235161998774856,,35,12,2026-03-13_14h23.31.885,2026A_exp2,2022.2.4,59.96408147903807,
0,0,4.9,3.7,0,0,26,26,28,,,,,118.76060819998384,119.41137400013395,119.41137400013395,119.89568380010314,315,45,119.89568380010314,119.89568380010314,119.89568380010314,119.89568380010314,119.89568380010314,119.89568380010314,119.89568380010314,119.89568380010314,119.89568380010314,120.26226300001144,120.26226300001144,120.26226300001144,120.26226300001144,120.26226300001144,120.26226300001144,120.26226300001144,120.26226300001144,120.26226300001144,23,0,,,120.26226300001144,120.46248139999807,3.7,120.46248139999807,0,3.7,1,0,1000,num_1,0.49561019986867905,,35,12,2026-03-13_14h23.31.885,2026A_exp2,2022.2.4,59.96408147903807,
1,0,0.0,6.1,1,0,27,27,50,,,,,120.97946500009857,121.63023329991847,121.63023329991847,122.11458820011467,315,315,122.11458820011467,122.11458820011467,122.11458820011467,122.11458820011467,122.11458820011467,122.11458820011467,122.11458820011467,122.11458820011467,122.11458820011467,122.48100910009816,122.48100910009816,122.48100910009816,122.48100910009816,122.48100910009816,122.48100910009816,122.48100910009816,122.48100910009816,122.48100910009816,20,2,"[0.06670730002224445, 0.29997879988513887]","[0.10013509984128177, 0.31677359994500875]",122.48100910009816,122.68140280013904,6.1,122.68140280013904,1,6.1,1,1,1000,num_4,0.7885074999649078,,35,12,2026-03-13_14h23.31.885,2026A_exp2,2022.2.4,59.96408147903807,
0,0,3.7,0.0,0,0,28,28,62,,,,,123.49868059996516,124.1494766001124,124.1494766001124,124.6338108999189,315,315,124.6338108999189,124.6338108999189,124.6338108999189,124.6338108999189,124.6338108999189,124.6338108999189,124.6338108999189,124.6338108999189,124.6338108999189,125.0002554000821,125.0002554000821,125.0002554000821,125.0002554000821,125.0002554000821,125.0002554000821,125.0002554000821,125.0002554000821,125.0002554000821,23,0,,,125.0002554000821,125.20051679993048,0.0,125.20051679993048,0,0.0,0,1,1000,num_1,0.5974099999293685,,35,12,2026-03-13_14h23.31.885,2026A_exp2,2022.2.4,59.96408147903807,
1000,1,3.7,3.7,0,0,29,29,63,,,,,125.81759290001355,126.46833520010114,126.46833520010114,126.95293810009025,45,45,126.95293810009025,126.95293810009025,126.95293810009025,126.95293810009025,126.95293810009025,126.95293810009025,126.95293810009025,126.95293810009025,126.95293810009025,127.31912550004199,127.31912550004199,127.31912550004199,127.31912550004199,127.31912550004199,127.31912550004199,127.31912550004199,127.31912550004199,127.31912550004199,14,7,"[0.0011990999337285757, 0.06685559987090528, 0.10032279998995364, 0.16708559985272586, 0.20044689998030663, 0.2670845999382436, 0.3004725999198854]","[0.03355509997345507, 0.08353209984488785, 0.11699809995479882, 0.18357489979825914, 0.2336873000022024, 0.2837358999531716, 0.3171051999088377]",127.31912550004199,127.52114470000379,1000,127.52114470000379,1000,1000,1000,1000,0,num_3,0.45199479977600276,,35,12,2026-03-13_14h23.31.885,2026A_exp2,2022.2.4,59.96408147903807,
1,0,0.0,0.0,1,0,30,30,39,,,,,128.003380500013,128.65395840001293,128.65395840001293,129.15495719993487,45,45,129.15495719993487,129.15495719993487,129.15495719993487,129.15495719993487,129.15495719993487,129.15495719993487,129.15495719993487,129.15495719993487,129.15495719993487,129.50475380010903,129.50475380010903,129.50475380010903,129.50475380010903,129.50475380010903,129.50475380010903,129.50475380010903,129.50475380010903,129.50475380010903,20,2,"[0.10015319986268878, 0.2838194998912513]","[0.1168335999827832, 0.3002440999262035]",129.50475380010903,129.70495559996925,0.0,129.72173009999096,0,0.0,0,1,1000,num_1,0.5075158998370171,,35,12,2026-03-13_14h23.31.885,2026A_exp2,2022.2.4,59.96408147903807,
1000,1,0.0,0.0,0,0,31,31,5,,,,,130.2554206000641,130.9061561000999,130.9061561000999,131.3907195001375,45,45,131.3907195001375,131.3907195001375,131.3907195001375,131.3907195001375,131.3907195001375,131.3907195001375,131.3907195001375,131.3907195001375,131.3907195001375,131.75707749999128,131.75707749999128,131.75707749999128,131.75707749999128,131.75707749999128,131.75707749999128,131.75707749999128,131.75707749999128,131.75707749999128,7,5,"[0.0011982000432908535, 0.10031170002184808, 0.21700130007229745, 0.26699739997275174, 0.31708419998176396]","[0.0834975999314338, 0.1836981000378728, 0.2336991000920534, 0.30059830006211996, 0.36718800012022257]",131.75707749999128,131.95909240003675,1000,131.95909240003675,1000,1000,1000,1000,0,num_3,0.4784533998463303,,35,12,2026-03-13_14h23.31.885,2026A_exp2,2022.2.4,59.96408147903807,
1,0,0.0,0.0,1,0,32,32,42,,,,,132.45762130012736,133.10842559998855,133.10842559998855,133.60957470000722,315,45,133.60957470000722,133.60957470000722,133.60957470000722,133.60957470000722,133.60957470000722,133.60957470000722,133.60957470000722,133.60957470000722,133.60957470000722,133.97598470002413,133.97598470002413,133.97598470002413,133.97598470002413,133.97598470002413,133.97598470002413,133.97598470002413,133.97598470002413,133.97598470002413,1,2,"[0.0012663002125918865, 0.16696430020965636]","[0.150346000213176, 0.3673502001911402]",133.97598470002413,134.17616589996032,0.0,134.17616589996032,0,0.0,0,1,1000,num_1,0.48531629983335733,,35,12,2026-03-13_14h23.31.885,2026A_exp2,2022.2.4,59.96408147903807,
1000,1,3.7,0.0,1,0,33,33,38,,,,,134.6929951000493,135.34398020012304,135.34398020012304,135.82843660004437,315,45,135.82843660004437,135.82843660004437,135.82843660004437,135.82843660004437,135.82843660004437,135.82843660004437,135.82843660004437,135.82843660004437,135.82843660004437,136.19478720007464,136.19478720007464,136.19478720007464,136.19478720007464,136.19478720007464,136.19478720007464,136.19478720007464,136.19478720007464,136.19478720007464,7,4,"[0.0011950000189244747, 0.08342550019733608, 0.13350620004348457, 0.183592600049451]","[0.017382000107318163, 0.10018750000745058, 0.16701040021143854, 0.3671665000729263]",136.19478720007464,136.39672530000098,1000,136.39672530000098,1000,1000,1000,1000,1,num_2,0.4886797999497503,,35,12,2026-03-13_14h23.31.885,2026A_exp2,2022.2.4,59.96408147903807,
1,0,6.1,0.0,0,0,34,34,21,,,,,136.91251190006733,137.56284660007805,137.56284660007805,138.04718609992415,315,315,138.04718609992415,138.04718609992415,138.04718609992415,138.04718609992415,138.04718609992415,138.04718609992415,138.04718609992415,138.04718609992415,138.04718609992415,138.4136795999948,138.4136795999948,138.4136795999948,138.4136795999948,138.4136795999948,138.4136795999948,138.4136795999948,138.4136795999948,138.4136795999948,17,1,[0.0011907999869436026],[0.10023580002598464],138.4136795999948,138.6138025999535,6.1,138.6138025999535,1,6.1,1,1,1000,num_4,0.4556966000236571,,35,12,2026-03-13_14h23.31.885,2026A_exp2,2022.2.4,59.96408147903807,
1000,1,0.0,4.9,0,0,35,35,26,,,,,139.0976418000646,139.7482193999458,139.7482193999458,140.2495029999409,315,315,140.2495029999409,140.2495029999409,140.2495029999409,140.2495029999409,140.2495029999409,140.2495029999409,140.2495029999409,140.2495029999409,140.2495029999409,140.61590069998056,140.61590069998056,140.61590069998056,140.61590069998056,140.61590069998056,140.61590069998056,140.61590069998056,140.61590069998056,140.61590069998056,23,0,,,140.61590069998056,140.81792309996672,1000,140.81792309996672,1000,1000,1000,1000,1,num_2,0.4763791998848319,,35,12,2026-03-13_14h23.31.885,2026A_exp2,2022.2.4,59.96408147903807,
1000,1,0.0,0.0,1,0,36,36,85,,,,,141.31646850006655,141.96717280009761,141.96717280009761,142.46841789991595,315,315,142.46841789991595,142.46841789991595,142.46841789991595,142.46841789991595,142.46841789991595,142.46841789991595,142.46841789991595,142.46841789991595,142.46841789991595,142.8347444999963,142.8347444999963,142.8347444999963,142.8347444999963,142.8347444999963,142.8347444999963,142.8347444999963,142.8347444999963,142.8347444999963,22,1,[0.017585299909114838],[0.033656599931418896],142.8347444999963,143.0369860001374,1000,143.0369860001374,1000,1000,1000,1000,1,num_2,0.409139399882406,,35,12,2026-03-13_14h23.31.885,2026A_exp2,2022.2.4,59.96408147903807,
1,0,0.0,3.7,1,0,37,37,14,,,,,143.46878980007023,144.11938480008394,144.11938480008394,144.62032550014555,45,45,144.62032550014555,144.62032550014555,144.62032550014555,144.62032550014555,144.62032550014555,144.62032550014555,144.62032550014555,144.62032550014555,144.62032550014555,144.98672850010917,144.98672850010917,144.98672850010917,144.98672850010917,144.98672850010917,144.98672850010917,144.98672850010917,144.98672850010917,144.98672850010917,22,1,[0.017576999962329865],[0.03372150007635355],144.98672850010917,145.18714080005884,3.7,145.18714080005884,0,3.7,1,0,1000,num_1,0.5385463000275195,,35,12,2026-03-13_14h23.31.885,2026A_exp2,2022.2.4,59.96408147903807,
1000,1,6.1,0.0,1,0,38,38,25,,,,,145.75439750007354,146.40500569995493,146.40500569995493,146.88932089996524,45,315,146.88932089996524,146.88932089996524,146.88932089996524,146.88932089996524,146.88932089996524,146.88932089996524,146.88932089996524,146.88932089996524,146.88932089996524,147.25590500002727,147.25590500002727,147.25590500002727,147.25590500002727,147.25590500002727,147.25590500002727,147.25590500002727,147.25590500002727,147.25590500002727,16,5,"[0.05027089989744127, 0.13353079999797046, 0.2670434999745339, 0.31686019990593195, 0.3501440999098122]","[0.10047049983404577, 0.15062129986472428, 0.28385939984582365, 0.3337276999372989, 0.36719330004416406]",147.25590500002727,147.45796309993602,1000,147.45796309993602,1000,1000,1000,1000,0,num_3,0.4361044999677688,,35,12,2026-03-13_14h23.31.885,2026A_exp2,2022.2.4,59.96408147903807,
1000,1,0.0,0.0,0,0,39,39,86,,,,,147.92313789995387,148.57388820010237,148.57388820010237,149.0748948000837,315,45,149.0748948000837,149.0748948000837,149.0748948000837,149.0748948000837,149.0748948000837,149.0748948000837,149.0748948000837,149.0748948000837,149.0748948000837,149.44143379991874,149.44143379991874,149.44143379991874,149.44143379991874,149.44143379991874,149.44143379991874,149.44143379991874,149.44143379991874,149.44143379991874,20,2,"[0.1337484000250697, 0.350705899996683]","[0.1505184001289308, 0.36739880009554327]",149.44143379991874,149.64329700008966,1000,149.64329700008966,1000,1000,1000,1000,1,num_2,0.3782424000091851,,35,12,2026-03-13_14h23.31.885,2026A_exp2,2022.2.4,59.96408147903807,
1000,1,6.1,0.0,1,0,40,40,83,,,,,150.04190480010584,150.6759307999164,150.6759307999164,151.1770357999485,45,45,151.1770357999485,151.1770357999485,151.1770357999485,151.1770357999485,151.1770357999485,151.1770357999485,151.1770357999485,151.1770357999485,151.1770357999485,151.5435252999887,151.5435252999887,151.5435252999887,151.5435252999887,151.5435252999887,151.5435252999887,151.5435252999887,151.5435252999887,151.5435252999887,5,2,"[0.0668250999879092, 0.23377970000728965]","[0.216660900041461, 0.36700380011461675]",151.5435252999887,151.74538360000588,1000,151.74538360000588,1000,1000,1000,1000,0,num_3,0.3162653998006135,,35,12,2026-03-13_14h23.31.885,2026A_exp2,2022.2.4,59.96408147903807,
1,0,0.0,0.0,0,0,41,41,79,,,,,152.0773680000566,152.7280256000813,152.7280256000813,153.22910210001282,315,315,153.22910210001282,153.22910210001282,153.22910210001282,153.22910210001282,153.22910210001282,153.22910210001282,153.22910210001282,153.22910210001282,153.22910210001282,153.5955008000601,153.5955008000601,153.5955008000601,153.5955008000601,153.5955008000601,153.5955008000601,153.5955008000601,153.5955008000601,153.5955008000601,4,3,"[0.0012564000207930803, 0.31687500001862645, 0.3671053000725806]","[0.28363770013675094, 0.33364870003424585, 0.36711039999499917]",153.5955008000601,153.79591350001283,0.0,153.79591350001283,0,0.0,0,1,1000,num_1,0.9940262997988611,,35,12,2026-03-13_14h23.31.885,2026A_exp2,2022.2.4,59.96408147903807,
1,0,6.1,3.7,1,0,42,42,51,,,,,154.81352600012906,155.46393229998648,155.46393229998648,155.94853860000148,315,315,155.94853860000148,155.94853860000148,155.94853860000148,155.94853860000148,155.94853860000148,155.94853860000148,155.94853860000148,155.94853860000148,155.94853860000148,156.31495649996214,156.31495649996214,156.31495649996214,156.31495649996214,156.31495649996214,156.31495649996214,156.31495649996214,156.31495649996214,156.31495649996214,2,2,"[0.0012066999915987253, 0.3673297001514584]","[0.3338264999911189, 0.36733470018953085]",156.31495649996214,156.51517000002787,3.7,156.51517000002787,0,3.7,1,0,1000,num_1,0.5307809000369161,,35,12,2026-03-13_14h23.31.885,2026A_exp2,2022.2.4,59.96408147903807,
1,0,0.0,0.0,1,0,43,43,49,,,,,157.0656024001073,157.7162725001108,157.7162725001108,158.20066390000284,315,315,158.20066390000284,158.20066390000284,158.20066390000284,158.20066390000284,158.20066390000284,158.20066390000284,158.20066390000284,158.20066390000284,158.20066390000284,158.56712900009006,158.56712900009006,158.56712900009006,158.56712900009006,158.56712900009006,158.56712900009006,158.56712900009006,158.56712900009006,158.56712900009006,6,3,"[0.017283599823713303, 0.21712989988736808, 0.3503987998701632]","[0.18365319981239736, 0.3171257998328656, 0.36724229995161295]",158.56712900009006,158.76725820009597,0.0,158.76725820009597,0,0.0,0,1,1000,num_1,0.4464766997843981,,35,12,2026-03-13_14h23.31.885,2026A_exp2,2022.2.4,59.96408147903807,
1,0,0.0,6.1,1,0,44,44,36,,,,,159.23450869997032,159.89528729999438,159.89528729999438,160.36962320003659,45,45,160.36962320003659,160.36962320003659,160.36962320003659,160.36962320003659,160.36962320003659,160.36962320003659,160.36962320003659,160.36962320003659,160.36962320003659,160.7358633999247,160.7358633999247,160.7358633999247,160.7358633999247,160.7358633999247,160.7358633999247,160.7358633999247,160.7358633999247,160.7358633999247,10,7,"[0.0007508997805416584, 0.03349579987116158, 0.18398440000601113, 0.2173327999189496, 0.2839085999876261, 0.3340878998860717, 0.36703619989566505]","[0.017279299907386303, 0.11707399995066226, 0.20055819978006184, 0.2673636998515576, 0.30031969980336726, 0.3502664999105036, 0.36703939992003143]",160.7358633999247,160.93609520001337,6.1,160.93609520001337,0,6.1,1,0,1000,num_1,0.4934032999444753,,35,12,2026-03-13_14h23.31.885,2026A_exp2,2022.2.4,59.96408147903807,
0,0,0.0,3.7,0,0,45,45,34,,,,,161.4532940001227,162.10399230010808,162.10399230010808,162.588546999963,315,45,162.588546999963,162.588546999963,162.588546999963,162.588546999963,162.588546999963,162.588546999963,162.588546999963,162.588546999963,162.588546999963,162.95491200010292,162.95491200010292,162.95491200010292,162.95491200010292,162.95491200010292,162.95491200010292,162.95491200010292,162.95491200010292,162.95491200010292,3,4,"[0.0012169000692665577, 0.11683620000258088, 0.2503270001616329, 0.3003571000881493]","[0.10014890017919242, 0.2336256999988109, 0.28366119996644557, 0.3671663000714034]",162.95491200010292,163.15517399995588,3.7,163.15517399995588,0,3.7,1,0,1000,num_1,0.9548962998669595,,35,12,2026-03-13_14h23.31.885,2026A_exp2,2022.2.4,59.96408147903807,
1000,1,0.0,0.0,1,0,46,46,78,,,,,164.1393508000765,164.79013480013236,164.79013480013236,165.27435440011322,45,45,165.27435440011322,165.27435440011322,165.27435440011322,165.27435440011322,165.27435440011322,165.27435440011322,165.27435440011322,165.27435440011322,165.27435440011322,165.64078160002828,165.64078160002828,165.64078160002828,165.64078160002828,165.64078160002828,165.64078160002828,165.64078160002828,165.64078160002828,165.64078160002828,4,3,"[0.0012509000953286886, 0.2002551001496613, 0.3504532999359071]","[0.18352359998971224, 0.30043520010076463, 0.36711280001327395]",165.64078160002828,165.84287589997984,1000,165.84287589997984,1000,1000,1000,1000,0,num_3,0.49886559997685254,,35,12,2026-03-13_14h23.31.885,2026A_exp2,2022.2.4,59.96408147903807,
1000,1,0.0,3.7,1,0,47,47,13,,,,,166.35825780010782,167.00899749994278,167.00899749994278,167.51016529998742,45,315,167.51016529998742,167.51016529998742,167.51016529998742,167.51016529998742,167.51016529998742,167.51016529998742,167.51016529998742,167.51016529998742,167.51016529998742,167.87650160002522,167.87650160002522,167.87650160002522,167.87650160002522,167.87650160002522,167.87650160002522,167.87650160002522,167.87650160002522,167.87650160002522,22,1,[0.15028980001807213],[0.1669286999385804],167.87650160002522,168.07841080008075,1000,168.07841080008075,1000,1000,1000,1000,1,num_2,0.7984869999345392,,35,12,2026-03-13_14h23.31.885,2026A_exp2,2022.2.4,59.96408147903807,
1000,1,0.0,4.9,0,0,48,48,60,,,,,168.89413039991632,169.54473210009746,169.54473210009746,170.04594630002975,315,45,170.04594630002975,170.04594630002975,170.04594630002975,170.04594630002975,170.04594630002975,170.04594630002975,170.04594630002975,170.04594630002975,170.04594630002975,170.41222280007787,170.41222280007787,170.41222280007787,170.41222280007787,170.41222280007787,170.41222280007787,170.41222280007787,170.41222280007787,170.41222280007787,23,0,,,170.41222280007787,170.61430240003392,1000,170.61430240003392,1000,1000,1000,1000,1,num_2,0.7757770998869091,,35,12,2026-03-13_14h23.31.885,2026A_exp2,2022.2.4,59.96408147903807,
1000,1,3.7,3.7,0,0,49,49,72,,,,,171.41330200014636,172.06394040002488,172.06394040002488,172.5650216001086,315,45,172.5650216001086,172.5650216001086,172.5650216001086,172.5650216001086,172.5650216001086,172.5650216001086,172.5650216001086,172.5650216001086,172.5650216001086,172.93145349994302,172.93145349994302,172.93145349994302,172.93145349994302,172.93145349994302,172.93145349994302,172.93145349994302,172.93145349994302,172.93145349994302,10,3,"[0.0011984999291598797, 0.20035469997674227, 0.3004295998252928]","[0.18364159995689988, 0.21679740003310144, 0.31704430002719164]",172.93145349994302,173.13353649992496,1000,173.13353649992496,1000,1000,1000,1000,1,num_2,0.32737319986335933,,35,12,2026-03-13_14h23.31.885,2026A_exp2,2022.2.4,59.96408147903807,
1000,1,3.7,0.0,1,0,50,50,19,,,,,173.48192790010944,174.13235340011306,174.13235340011306,174.63392539997585,45,45,174.63392539997585,174.63392539997585,174.63392539997585,174.63392539997585,174.63392539997585,174.63392539997585,174.63392539997585,174.63392539997585,174.63392539997585,175.00026579992846,175.00026579992846,175.00026579992846,175.00026579992846,175.00026579992846,175.00026579992846,175.00026579992846,175.00026579992846,175.00026579992846,5,3,"[0.0012572999112308025, 0.13303589983843267, 0.350318499840796]","[0.11618809984065592, 0.30017449986189604, 0.36691009998321533]",175.00026579992846,175.20183170004748,1000,175.20183170004748,1000,1000,1000,1000,1,num_2,0.4117892999202013,,35,12,2026-03-13_14h23.31.885,2026A_exp2,2022.2.4,59.96408147903807,
1000,1,0.0,6.1,1,0,51,51,43,,,,,175.63428999995813,176.2849864999298,176.2849864999298,176.78599980007857,45,45,176.78599980007857,176.78599980007857,176.78599980007857,176.78599980007857,176.78599980007857,176.78599980007857,176.78599980007857,176.78599980007857,176.78599980007857,177.15244380012155,177.15244380012155,177.15244380012155,177.15244380012155,177.15244380012155,177.15244380012155,177.15244380012155,177.15244380012155,177.15244380012155,23,0,,,177.15244380012155,177.3544656999875,1000,177.3544656999875,1000,1000,1000,1000,1,num_2,0.44305339991115034,,35,12,2026-03-13_14h23.31.885,2026A_exp2,2022.2.4,59.96408147903807,
1000,1,0.0,6.1,1,0,52,52,71,,,,,177.81975249992684,178.47036319994368,178.47036319994368,178.98684230004437,45,45,178.98684230004437,178.98684230004437,178.98684230004437,178.98684230004437,178.98684230004437,178.98684230004437,178.98684230004437,178.98684230004437,178.98684230004437,179.3379587000236,179.3379587000236,179.3379587000236,179.3379587000236,179.3379587000236,179.3379587000236,179.3379587000236,179.3379587000236,179.3379587000236,16,5,"[0.004395900061354041, 0.14751200005412102, 0.19767919997684658, 0.2643351999577135, 0.3477281001396477]","[0.032102799974381924, 0.1643009001854807, 0.23096820013597608, 0.28112810011953115, 0.3644322999753058]",179.3379587000236,179.54424570011906,1000,179.54424570011906,1000,1000,1000,1000,1,num_2,0.4220535000786185,,35,12,2026-03-13_14h23.31.885,2026A_exp2,2022.2.4,59.96408147903807,
1000,1,4.9,0.0,1,0,53,53,10,,,,,179.9885503000114,180.64625340001658,180.64625340001658,181.14024630002677,45,45,181.14024630002677,181.14024630002677,181.14024630002677,181.14024630002677,181.14024630002677,181.14024630002677,181.14024630002677,181.14024630002677,181.14024630002677,181.5068693999201,181.5068693999201,181.5068693999201,181.5068693999201,181.5068693999201,181.5068693999201,181.5068693999201,181.5068693999201,181.5068693999201,23,0,,,181.5068693999201,181.7086245000828,1000,181.7086245000828,1000,1000,1000,1000,0,num_3,0.3363393999170512,,35,12,2026-03-13_14h23.31.885,2026A_exp2,2022.2.4,59.96408147903807,
1,0,0.0,0.0,0,0,54,54,55,,,,,182.07386190001853,182.7246588000562,182.7246588000562,183.22576229996048,315,45,183.22576229996048,183.22576229996048,183.22576229996048,183.22576229996048,183.22576229996048,183.22576229996048,183.22576229996048,183.22576229996048,183.22576229996048,183.59223509998992,183.59223509998992,183.59223509998992,183.59223509998992,183.59223509998992,183.59223509998992,183.59223509998992,183.59223509998992,183.59223509998992,14,3,"[0.05018369993194938, 0.18377449992112815, 0.26720849983394146]","[0.13357609999366105, 0.20038099982775748, 0.33387929992750287]",183.59223509998992,183.79246379993856,0.0,183.79246379993856,0,0.0,0,1,1000,num_1,1.8048191999550909,,35,12,2026-03-13_14h23.31.885,2026A_exp2,2022.2.4,59.96408147903807,
1000,1,4.9,0.0,1,0,55,55,77,,,,,185.6275315999519,186.27812059991993,186.27812059991993,186.76251680008136,315,315,186.76251680008136,186.76251680008136,186.76251680008136,186.76251680008136,186.76251680008136,186.76251680008136,186.76251680008136,186.76251680008136,186.76251680008136,187.12903610011563,187.12903610011563,187.12903610011563,187.12903610011563,187.12903610011563,187.12903610011563,187.12903610011563,187.12903610011563,187.12903610011563,0,1,[0.001231999834999442],[0.3673019998241216],187.12903610011563,187.33133390010335,1000,187.33133390010335,1000,1000,1000,1000,0,num_3,0.4182292998302728,,35,12,2026-03-13_14h23.31.885,2026A_exp2,2022.2.4,59.96408147903807,
1,0,3.7,6.1,0,0,56,56,52,,,,,187.7799146999605,188.43022370012477,188.43022370012477,188.93138830014504,45,315,188.93138830014504,188.93138830014504,188.93138830014504,188.93138830014504,188.93138830014504,188.93138830014504,188.93138830014504,188.93138830014504,188.93138830014504,189.29789760010317,189.29789760010317,189.29789760010317,189.29789760010317,189.29789760010317,189.29789760010317,189.29789760010317,189.29789760010317,189.29789760010317,23,0,,,189.29789760010317,189.49819840001874,3.7,189.49819840001874,0,3.7,1,0,1000,num_1,0.6596370998304337,,35,12,2026-03-13_14h23.31.885,2026A_exp2,2022.2.4,59.96408147903807,
1000,1,3.7,0.0,0,0,57,57,76,,,,,190.1820130001288,190.84327340009622,190.84327340009622,191.33370640012436,45,315,191.33370640012436,191.33370640012436,191.33370640012436,191.33370640012436,191.33370640012436,191.33370640012436,191.33370640012436,191.33370640012436,191.33370640012436,191.6836846000515,191.6836846000515,191.6836846000515,191.6836846000515,191.6836846000515,191.6836846000515,191.6836846000515,191.6836846000515,191.6836846000515,22,0,,,191.6836846000515,191.88568160007708,1000,191.88568160007708,1000,1000,1000,1000,0,num_3,0.4235513999592513,,35,12,2026-03-13_14h23.31.885,2026A_exp2,2022.2.4,59.96408147903807,
0,0,0.0,0.0,0,0,58,58,59,,,,,192.3341588000767,192.98493809998035,192.98493809998035,193.486085700104,45,315,193.486085700104,193.486085700104,193.486085700104,193.486085700104,193.486085700104,193.486085700104,193.486085700104,193.486085700104,193.486085700104,193.8524740000721,193.8524740000721,193.8524740000721,193.8524740000721,193.8524740000721,193.8524740000721,193.8524740000721,193.8524740000721,193.8524740000721,13,5,"[0.0011992000509053469, 0.067027100129053, 0.13365400000475347, 0.1837308001704514, 0.3339082000311464]","[0.03349810000509024, 0.08361580013297498, 0.16712370002642274, 0.2504935001488775, 0.3505005999468267]",193.8524740000721,194.05259729991667,0.0,194.05259729991667,0,0.0,0,1,1000,num_1,0.6333517997991294,,35,12,2026-03-13_14h23.31.885,2026A_exp2,2022.2.4,59.96408147903807,
1000,1,3.7,4.9,0,0,59,59,45,,,,,194.7031271001324,195.3539090999402,195.3539090999402,195.8382055000402,315,45,195.8382055000402,195.8382055000402,195.8382055000402,195.8382055000402,195.8382055000402,195.8382055000402,195.8382055000402,195.8382055000402,195.8382055000402,196.2048096000217,196.2048096000217,196.2048096000217,196.2048096000217,196.2048096000217,196.2048096000217,196.2048096000217,196.2048096000217,196.2048096000217,0,1,[0.0012101000174880028],[0.36711689992807806],196.2048096000217,196.40688239992596,1000,196.40688239992596,1000,1000,1000,1000,0,num_3,0.4624929998535663,,35,12,2026-03-13_14h23.31.885,2026A_exp2,2022.2.4,59.96408147903807,
1,0,0.0,6.1,1,0,60,60,33,,,,,196.88877469999716,197.5396185000427,197.5396185000427,198.04061309993267,45,315,198.04061309993267,198.04061309993267,198.04061309993267,198.04061309993267,198.04061309993267,198.04061309993267,198.04061309993267,198.04061309993267,198.04061309993267,198.40697190002538,198.40697190002538,198.40697190002538,198.40697190002538,198.40697190002538,198.40697190002538,198.40697190002538,198.40697190002538,198.40697190002538,18,3,"[0.0012115000281482935, 0.04991709999740124, 0.3169212001375854]","[0.017352900002151728, 0.083202000008896, 0.333846100140363]",198.40697190002538,198.60711440001614,6.1,198.60711440001614,1,6.1,1,1,1000,num_4,0.5179432998411357,,35,12,2026-03-13_14h23.31.885,2026A_exp2,2022.2.4,59.96408147903807,
1000,1,0.0,0.0,0,0,61,61,15,,,,,199.14096549991518,199.7917530001141,199.7917530001141,200.27619410003535,45,315,200.27619410003535,200.27619410003535,200.27619410003535,200.27619410003535,200.27619410003535,200.27619410003535,200.27619410003535,200.27619410003535,200.27619410003535,200.64268520008773,200.64268520008773,200.64268520008773,200.64268520008773,200.64268520008773,200.64268520008773,200.64268520008773,200.64268520008773,200.64268520008773,23,0,,,200.64268520008773,200.8477511999663,1000,200.8477511999663,1000,1000,1000,1000,0,num_3,0.2697507997509092,,35,12,2026-03-13_14h23.31.885,2026A_exp2,2022.2.4,59.96408147903807,
1000,1,0.0,3.7,1,0,62,62,84,,,,,201.14327970007434,201.79375130007975,201.79375130007975,202.2782000999432,45,315,202.2782000999432,202.2782000999432,202.2782000999432,202.2782000999432,202.2782000999432,202.2782000999432,202.2782000999432,202.2782000999432,202.2782000999432,202.64459590008482,202.64459590008482,202.64459590008482,202.64459590008482,202.64459590008482,202.64459590008482,202.64459590008482,202.64459590008482,202.64459590008482,23,0,,,202.64459590008482,202.84653139999136,1000,202.84653139999136,1000,1000,1000,1000,1,num_2,0.32705599977634847,,35,12,2026-03-13_14h23.31.885,2026A_exp2,2022.2.4,59.96408147903807,
1,0,6.1,0.0,0,0,63,63,82,,,,,203.19529010006227,203.84577229991555,203.84577229991555,204.3302515000105,45,315,204.3302515000105,204.3302515000105,204.3302515000105,204.3302515000105,204.3302515000105,204.3302515000105,204.3302515000105,204.3302515000105,204.3302515000105,204.69659690000117,204.69659690000117,204.69659690000117,204.69659690000117,204.69659690000117,204.69659690000117,204.69659690000117,204.69659690000117,204.69659690000117,23,0,,,204.69659690000117,204.8969108001329,6.1,204.8969108001329,1,6.1,1,1,1000,num_4,0.868460999801755,,35,12,2026-03-13_14h23.31.885,2026A_exp2,2022.2.4,59.96408147903807,
1,0,3.7,0.0,1,0,64,64,12,,,,,205.78093140013516,206.43173549999483,206.43173549999483,206.9240719000809,315,315,206.9240719000809,206.9240719000809,206.9240719000809,206.9240719000809,206.9240719000809,206.9240719000809,206.9240719000809,206.9240719000809,206.9240719000809,207.29912220011465,207.29912220011465,207.29912220011465,207.29912220011465,207.29912220011465,207.29912220011465,207.29912220011465,207.29912220011465,207.29912220011465,20,3,"[0.16506450017914176, 0.19844630011357367, 0.332036399981007]","[0.18167360010556877, 0.23181230016052723, 0.34854230005294085]",207.29912220011465,207.49936920008622,0.0,207.49936920008622,0,0.0,0,1,1000,num_1,0.546503699850291,,35,12,2026-03-13_14h23.31.885,2026A_exp2,2022.2.4,59.96408147903807,
1,0,0.0,6.1,1,0,65,65,31,,,,,208.06691329996102,208.71731219999492,208.71731219999492,209.2016133000143,45,45,209.2016133000143,209.2016133000143,209.2016133000143,209.2016133000143,209.2016133000143,209.2016133000143,209.2016133000143,209.2016133000143,209.2016133000143,209.5680003000889,209.5680003000889,209.5680003000889,209.5680003000889,209.5680003000889,209.5680003000889,209.5680003000889,209.5680003000889,209.5680003000889,14,5,"[0.017202300019562244, 0.16693959990516305, 0.233748700004071, 0.3003684999421239, 0.3504357000347227]","[0.06691359984688461, 0.18338559987023473, 0.28383329999633133, 0.31711169984191656, 0.3671079999767244]",209.5680003000889,209.76843930012546,6.1,209.76843930012546,1,6.1,1,1,1000,num_4,0.5485942999366671,,35,12,2026-03-13_14h23.31.885,2026A_exp2,2022.2.4,59.96408147903807,
1000,1,0.0,3.7,0,0,66,66,46,,,,,210.33533670008183,210.9696363999974,210.9696363999974,211.4704734000843,45,45,211.4704734000843,211.4704734000843,211.4704734000843,211.4704734000843,211.4704734000843,211.4704734000843,211.4704734000843,211.4704734000843,211.4704734000843,211.8371542999521,211.8371542999521,211.8371542999521,211.8371542999521,211.8371542999521,211.8371542999521,211.8371542999521,211.8371542999521,211.8371542999521,3,3,"[0.017152999993413687, 0.08396860002540052, 0.2341048999223858]","[0.06746569997631013, 0.21753089991398156, 0.36761489999480546]",211.8371542999521,212.03913510008715,1000,212.03913510008715,1000,1000,1000,1000,0,num_3,0.3985824000556022,,35,12,2026-03-13_14h23.31.885,2026A_exp2,2022.2.4,59.96408147903807,
1,0,4.9,3.7,0,0,67,67,44,,,,,212.4543216000311,213.1050138999708,213.1050138999708,213.60594930010848,45,45,213.60594930010848,213.60594930010848,213.60594930010848,213.60594930010848,213.60594930010848,213.60594930010848,213.60594930010848,213.60594930010848,213.60594930010848,213.9725792000536,213.9725792000536,213.9725792000536,213.9725792000536,213.9725792000536,213.9725792000536,213.9725792000536,213.9725792000536,213.9725792000536,20,2,"[0.06692799995653331, 0.2503541000187397]","[0.0996872999239713, 0.26701999991200864]",213.9725792000536,214.1728006999474,4.9,214.1728006999474,1,4.9,1,1,1000,num_4,0.512323800008744,,35,12,2026-03-13_14h23.31.885,2026A_exp2,2022.2.4,59.96408147903807,
1000,1,0.0,4.9,1,0,68,68,66,,,,,214.7064310000278,215.35741279996,215.35741279996,215.84172770008445,45,315,215.84172770008445,215.84172770008445,215.84172770008445,215.84172770008445,215.84172770008445,215.84172770008445,215.84172770008445,215.84172770008445,215.84172770008445,216.20819779997692,216.20819779997692,216.20819779997692,216.20819779997692,216.20819779997692,216.20819779997692,216.20819779997692,216.20819779997692,216.20819779997692,3,3,"[0.0012141000479459763, 0.04994189995341003, 0.11702210013754666]","[0.03338170005008578, 0.10029050009325147, 0.3672128999605775]",216.20819779997692,216.41045590001158,1000,216.41045590001158,1000,1000,1000,1000,1,num_2,0.5001582996919751,,35,12,2026-03-13_14h23.31.885,2026A_exp2,2022.2.4,59.96408147903807,
1,0,0.0,4.9,0,0,69,69,3,,,,,216.94224100001156,217.59292720002122,217.59292720002122,218.09401190001518,45,45,218.09401190001518,218.09401190001518,218.09401190001518,218.09401190001518,218.09401190001518,218.09401190001518,218.09401190001518,218.09401190001518,218.09401190001518,218.46031120000407,218.46031120000407,218.46031120000407,218.46031120000407,218.46031120000407,218.46031120000407,218.46031120000407,218.46031120000407,218.46031120000407,5,3,"[0.033463100204244256, 0.16698530013673007, 0.2337867000605911]","[0.1503718001767993, 0.20029130019247532, 0.3672212001401931]",218.46031120000407,218.66063660010695,0.0,218.66063660010695,1,0.0,0,0,1000,num_4,0.552788799861446,,35,12,2026-03-13_14h23.31.885,2026A_exp2,2022.2.4,59.96408147903807,
1000,1,6.1,6.1,1,0,70,70,4,,,,,219.24535059998743,219.895041000098,219.895041000098,220.3963126000017,45,315,220.3963126000017,220.3963126000017,220.3963126000017,220.3963126000017,220.3963126000017,220.3963126000017,220.3963126000017,220.3963126000017,220.3963126000017,220.76252930006012,220.76252930006012,220.76252930006012,220.76252930006012,220.76252930006012,220.76252930006012,220.76252930006012,220.76252930006012,220.76252930006012,1,2,"[0.0008364999666810036, 0.23418359993956983]","[0.21740230009891093, 0.3676209000404924]",220.76252930006012,220.96478700009175,1000,220.96478700009175,1000,1000,1000,1000,0,num_3,0.4965766000095755,,35,12,2026-03-13_14h23.31.885,2026A_exp2,2022.2.4,59.96408147903807,
1000,1,0.0,4.9,0,0,71,71,61,,,,,221.4800176001154,222.13072440004908,222.13072440004908,222.63173300004564,45,45,222.63173300004564,222.63173300004564,222.63173300004564,222.63173300004564,222.63173300004564,222.63173300004564,222.63173300004564,222.63173300004564,222.63173300004564,222.99831530009396,222.99831530009396,222.99831530009396,222.99831530009396,222.99831530009396,222.99831530009396,222.99831530009396,222.99831530009396,222.99831530009396,7,3,"[0.001196000026538968, 0.26684909989126027, 0.3502056999132037]","[0.2000529000069946, 0.3001733999699354, 0.3670171000994742]",222.99831530009396,223.20027099992149,1000,223.20027099992149,1000,1000,1000,1000,1,num_2,0.6771825000178069,,35,12,2026-03-13_14h23.31.885,2026A_exp2,2022.2.4,59.96408147903807,
1000,1,4.9,0.0,0,0,72,72,54,,,,,223.89901189994998,224.5498377000913,224.5498377000913,225.05095680011436,315,315,225.05095680011436,225.05095680011436,225.05095680011436,225.05095680011436,225.05095680011436,225.05095680011436,225.05095680011436,225.05095680011436,225.05095680011436,225.41739890002646,225.41739890002646,225.41739890002646,225.41739890002646,225.41739890002646,225.41739890002646,225.41739890002646,225.41739890002646,225.41739890002646,3,3,"[0.0012141000479459763, 0.16696409997530282, 0.3172395001165569]","[0.15034909988753498, 0.28375219996087253, 0.36724129994399846]",225.41739890002646,225.6193476000335,1000,225.6193476000335,1000,1000,1000,1000,0,num_3,0.4257010999135673,,35,12,2026-03-13_14h23.31.885,2026A_exp2,2022.2.4,59.96408147903807,
1,0,4.9,3.7,1,0,73,73,27,,,,,226.0679572999943,226.7186221999582,226.7186221999582,227.21972579997964,315,315,227.21972579997964,227.21972579997964,227.21972579997964,227.21972579997964,227.21972579997964,227.21972579997964,227.21972579997964,227.21972579997964,227.21972579997964,227.56953700003214,227.56953700003214,227.56953700003214,227.56953700003214,227.56953700003214,227.56953700003214,227.56953700003214,227.56953700003214,227.56953700003214,0,1,[0.0012442998122423887],[0.350457499967888],227.56953700003214,227.7695482999552,3.7,227.78640790004283,0,3.7,1,0,1000,num_1,0.6746332000475377,,35,12,2026-03-13_14h23.31.885,2026A_exp2,2022.2.4,59.96408147903807,
1000,1,3.7,6.1,1,0,74,74,48,,,,,228.48689970001578,229.13772380002774,229.13772380002774,229.62208850006573,45,315,229.62208850006573,229.62208850006573,229.62208850006573,229.62208850006573,229.62208850006573,229.62208850006573,229.62208850006573,229.62208850006573,229.62208850006573,229.98863249993883,229.98863249993883,229.98863249993883,229.98863249993883,229.98863249993883,229.98863249993883,229.98863249993883,229.98863249993883,229.98863249993883,3,4,"[0.0012063998728990555, 0.06692299991846085, 0.16697650006972253, 0.3171115000732243]","[0.05014479998499155, 0.1501499000005424, 0.3004409000277519, 0.367100500036031]",229.98863249993883,230.1888548999559,1000,230.1888548999559,1000,1000,1000,1000,1,num_2,0.36812349990941584,,35,12,2026-03-13_14h23.31.885,2026A_exp2,2022.2.4,59.96408147903807,
1,0,0.0,4.9,1,0,75,75,37,,,,,230.57249940000474,231.22317050001584,231.22317050001584,231.7241412999574,315,315,231.7241412999574,231.7241412999574,231.7241412999574,231.7241412999574,231.7241412999574,231.7241412999574,231.7241412999574,231.7241412999574,231.7241412999574,232.09073469997384,232.09073469997384,232.09073469997384,232.09073469997384,232.09073469997384,232.09073469997384,232.09073469997384,232.09073469997384,232.09073469997384,3,3,"[0.001238000113517046, 0.20032329997047782, 0.3170386999845505]","[0.18358030007220805, 0.3002963000908494, 0.36730120005086064]",232.09073469997384,232.2909150000196,4.9,232.2909150000196,0,4.9,1,0,1000,num_1,0.5470106999855489,,35,12,2026-03-13_14h23.31.885,2026A_exp2,2022.2.4,59.96408147903807,
1,0,3.7,3.7,1,0,76,76,30,,,,,232.8582454000134,233.50871690013446,233.50871690013446,233.9933436999563,315,315,233.9933436999563,233.9933436999563,233.9933436999563,233.9933436999563,233.9933436999563,233.9933436999563,233.9933436999563,233.9933436999563,233.9933436999563,234.3596566999331,234.3596566999331,234.3596566999331,234.3596566999331,234.3596566999331,234.3596566999331,234.3596566999331,234.3596566999331,234.3596566999331,22,1,[0.2504422999918461],[0.2841568000148982],234.3596566999331,234.55977190006524,3.7,234.55977190006524,1,3.7,1,1,1000,num_4,0.5425295999739319,,35,12,2026-03-13_14h23.31.885,2026A_exp2,2022.2.4,59.96408147903807,
1,0,6.1,0.0,1,0,77,77,89,,,,,235.12715440010652,235.77775250002742,235.77775250002742,236.26202729996294,315,315,236.26202729996294,236.26202729996294,236.26202729996294,236.26202729996294,236.26202729996294,236.26202729996294,236.26202729996294,236.26202729996294,236.26202729996294,236.6286281000357,236.6286281000357,236.6286281000357,236.6286281000357,236.6286281000357,236.6286281000357,236.6286281000357,236.6286281000357,236.6286281000357,4,3,"[0.0012509999796748161, 0.05016439990140498, 0.2169160998892039]","[0.017108399886637926, 0.2002451999578625, 0.3337220000103116]",236.6286281000357,236.82875730004162,0.0,236.82875730004162,0,0.0,0,1,1000,num_1,0.5369847998954356,,35,12,2026-03-13_14h23.31.885,2026A_exp2,2022.2.4,59.96408147903807,
1,0,6.1,6.1,1,0,78,78,23,,,,,237.39608029997908,238.04661049996503,238.04661049996503,238.5309838000685,45,45,238.5309838000685,238.5309838000685,238.5309838000685,238.5309838000685,238.5309838000685,238.5309838000685,238.5309838000685,238.5309838000685,238.5309838000685,238.8975206001196,238.8975206001196,238.8975206001196,238.8975206001196,238.8975206001196,238.8975206001196,238.8975206001196,238.8975206001196,238.8975206001196,13,6,"[0.05018980009481311, 0.10016410006210208, 0.16678779991343617, 0.25032470002770424, 0.3004392001312226, 0.33376840013079345]","[0.08354860008694232, 0.1167856000829488, 0.21702999994158745, 0.2837018999271095, 0.31704459991306067, 0.36711079999804497]",238.8975206001196,239.09747059992515,6.1,239.09747059992515,0,6.1,1,0,1000,num_1,0.41242469986900687,,35,12,2026-03-13_14h23.31.885,2026A_exp2,2022.2.4,59.96408147903807,
1,0,0.0,0.0,0,0,79,79,24,,,,,239.53151000011712,240.1821654001251,240.1821654001251,240.6666216000449,45,315,240.6666216000449,240.6666216000449,240.6666216000449,240.6666216000449,240.6666216000449,240.6666216000449,240.6666216000449,240.6666216000449,240.6666216000449,241.0330094001256,241.0330094001256,241.0330094001256,241.0330094001256,241.0330094001256,241.0330094001256,241.0330094001256,241.0330094001256,241.0330094001256,1,2,"[0.0012285998091101646, 0.25031319982372224]","[0.23372070002369583, 0.3666069998871535]",241.0330094001256,241.23309680004604,0.0,241.23309680004604,0,0.0,0,1,1000,num_1,0.8124995999969542,,35,12,2026-03-13_14h23.31.885,2026A_exp2,2022.2.4,59.96408147903807,
1000,1,6.1,0.0,0,0,80,80,81,,,,,242.06730290013365,242.71786490012892,242.71786490012892,243.2191600999795,315,45,243.2191600999795,243.2191600999795,243.2191600999795,243.2191600999795,243.2191600999795,243.2191600999795,243.2191600999795,243.2191600999795,243.2191600999795,243.56889070011675,243.56889070011675,243.56889070011675,243.56889070011675,243.56889070011675,243.56889070011675,243.56889070011675,243.56889070011675,243.56889070011675,7,4,"[0.0012079000007361174, 0.20036600017920136, 0.23345680022612214, 0.3175148000009358]","[0.18392710015177727, 0.21701230015605688, 0.2500957001466304, 0.3504481001291424]",243.56889070011675,243.77090990007855,1000,243.77090990007855,1000,1000,1000,1000,0,num_3,0.354179399786517,,35,12,2026-03-13_14h23.31.885,2026A_exp2,2022.2.4,59.96408147903807,
1,0,0.0,3.7,1,0,81,81,35,,,,,244.15277700009756,244.80337180010974,244.80337180010974,245.30450710002333,315,45,245.30450710002333,245.30450710002333,245.30450710002333,245.30450710002333,245.30450710002333,245.30450710002333,245.30450710002333,245.30450710002333,245.30450710002333,245.6709364000708,245.6709364000708,245.6709364000708,245.6709364000708,245.6709364000708,245.6709364000708,245.6709364000708,245.6709364000708,245.6709364000708,21,2,"[0.16748800012283027, 0.3177394000813365]","[0.18406459991820157, 0.33439310011453927]",245.6709364000708,245.87118360004388,3.7,245.87118360004388,0,3.7,1,0,1000,num_1,0.4059872997459024,,35,12,2026-03-13_14h23.31.885,2026A_exp2,2022.2.4,59.96408147903807,
1000,1,3.7,0.0,0,0,82,82,56,,,,,246.3049246999435,246.95559470006265,246.95559470006265,247.4398469000589,315,45,247.4398469000589,247.4398469000589,247.4398469000589,247.4398469000589,247.4398469000589,247.4398469000589,247.4398469000589,247.4398469000589,247.4398469000589,247.8064069999382,247.8064069999382,247.8064069999382,247.8064069999382,247.8064069999382,247.8064069999382,247.8064069999382,247.8064069999382,247.8064069999382,7,3,"[0.001231399830430746, 0.2170475998427719, 0.3170353998430073]","[0.20023979991674423, 0.2669767998158932, 0.3337405000347644]",247.8064069999382,248.00830350001343,1000,248.00830350001343,1000,1000,1000,1000,0,num_3,0.3328001999761909,,35,12,2026-03-13_14h23.31.885,2026A_exp2,2022.2.4,59.96408147903807,
1000,1,6.1,0.0,1,0,83,83,57,,,,,248.35711360001005,249.00764359999448,249.00764359999448,249.50878620008007,315,315,249.50878620008007,249.50878620008007,249.50878620008007,249.50878620008007,249.50878620008007,249.50878620008007,249.50878620008007,249.50878620008007,249.50878620008007,249.87542619998567,249.87542619998567,249.87542619998567,249.87542619998567,249.87542619998567,249.87542619998567,249.87542619998567,249.87542619998567,249.87542619998567,23,0,,,249.87542619998567,250.07699820003472,1000,250.07699820003472,1000,1000,1000,1000,0,num_3,0.5358549999073148,,35,12,2026-03-13_14h23.31.885,2026A_exp2,2022.2.4,59.96408147903807,
1000,1,4.9,0.0,0,0,84,84,41,,,,,250.6427281999495,251.2933016999159,251.2933016999159,251.79433059995063,45,45,251.79433059995063,251.79433059995063,251.79433059995063,251.79433059995063,251.79433059995063,251.79433059995063,251.79433059995063,251.79433059995063,251.79433059995063,252.1608001999557,252.1608001999557,252.1608001999557,252.1608001999557,252.1608001999557,252.1608001999557,252.1608001999557,252.1608001999557,252.1608001999557,23,0,,,252.1608001999557,252.36268209991977,1000,252.36268209991977,1000,1000,1000,1000,0,num_3,0.35520779993385077,,35,12,2026-03-13_14h23.31.885,2026A_exp2,2022.2.4,59.96408147903807,
1,0,0.0,0.0,0,0,85,85,88,,,,,252.74490509997122,253.39532659994438,253.39532659994438,253.89636459993199,45,315,253.89636459993199,253.89636459993199,253.89636459993199,253.89636459993199,253.89636459993199,253.89636459993199,253.89636459993199,253.89636459993199,253.89636459993199,254.2628305000253,254.2628305000253,254.2628305000253,254.2628305000253,254.2628305000253,254.2628305000253,254.2628305000253,254.2628305000253,254.2628305000253,12,5,"[0.0012400001287460327, 0.0835317000746727, 0.1667463001795113, 0.28384060016833246, 0.3670974001288414]","[0.017283400055021048, 0.10029460000805557, 0.2171955001540482, 0.35050090006552637, 0.36710240016691387]",254.2628305000253,254.46300490014255,0.0,254.46300490014255,0,0.0,0,1,1000,num_1,0.4070717999711633,,35,12,2026-03-13_14h23.31.885,2026A_exp2,2022.2.4,59.96408147903807,
1,0,6.1,0.0,1,0,86,86,80,,,,,254.89685970009305,255.54753240011632,255.54753240011632,256.03180040000007,315,45,256.03180040000007,256.03180040000007,256.03180040000007,256.03180040000007,256.03180040000007,256.03180040000007,256.03180040000007,256.03180040000007,256.03180040000007,256.3984115999192,256.3984115999192,256.3984115999192,256.3984115999192,256.3984115999192,256.3984115999192,256.3984115999192,256.3984115999192,256.3984115999192,6,4,"[0.0011984000448137522, 0.21713779983110726, 0.2839073999784887, 0.366981899831444]","[0.20050029992125928, 0.2506181998178363, 0.3002828999888152, 0.3669851999729872]",256.3984115999192,256.5984730999917,0.0,256.5984730999917,0,0.0,0,1,1000,num_1,0.606490999693051,,35,12,2026-03-13_14h23.31.885,2026A_exp2,2022.2.4,59.96408147903807,
1,0,0.0,3.7,1,0,87,87,32,,,,,257.2324459000956,257.88317349995486,257.88317349995486,258.38420590013266,45,45,258.38420590013266,258.38420590013266,258.38420590013266,258.38420590013266,258.38420590013266,258.38420590013266,258.38420590013266,258.38420590013266,258.38420590013266,258.734046400059,258.734046400059,258.734046400059,258.734046400059,258.734046400059,258.734046400059,258.734046400059,258.734046400059,258.734046400059,12,5,"[0.001330000115558505, 0.11699820007197559, 0.21695460006594658, 0.2671636000741273, 0.33387620002031326]","[0.100323700113222, 0.13373440015129745, 0.23387780017219484, 0.28375850012525916, 0.35063460003584623]",258.734046400059,258.93414209992625,3.7,258.93414209992625,0,3.7,1,0,1000,num_1,0.383000599918887,,35,12,2026-03-13_14h23.31.885,2026A_exp2,2022.2.4,59.96408147903807,
1000,1,0.0,0.0,1,0,88,88,9,,,,,259.33467170014046,259.9853193999734,259.9853193999734,260.46969239995815,315,45,260.46969239995815,260.46969239995815,260.46969239995815,260.46969239995815,260.46969239995815,260.46969239995815,260.46969239995815,260.46969239995815,260.46969239995815,260.8361494001001,260.8361494001001,260.8361494001001,260.8361494001001,260.8361494001001,260.8361494001001,260.8361494001001,260.8361494001001,260.8361494001001,11,6,"[0.017433400033041835, 0.13371620001271367, 0.21704300004057586, 0.26701489998959005, 0.31710670003667474, 0.35054340003989637]","[0.06688479986041784, 0.18364519998431206, 0.25041399989277124, 0.2838808000087738, 0.3338675999548286, 0.36724559986032546]",260.8361494001001,261.03824679995887,1000,261.03824679995887,1000,1000,1000,1000,0,num_3,0.7595734000205994,,35,12,2026-03-13_14h23.31.885,2026A_exp2,2022.2.4,59.96408147903807,
1000,1,6.1,6.1,1,0,89,89,8,,,,,261.8204759999644,262.47108329995535,262.47108329995535,262.9722657999955,45,315,262.9722657999955,262.9722657999955,262.9722657999955,262.9722657999955,262.9722657999955,262.9722657999955,262.9722657999955,262.9722657999955,262.9722657999955,263.3387776000891,263.3387776000891,263.3387776000891,263.3387776000891,263.3387776000891,263.3387776000891,263.3387776000891,263.3387776000891,263.3387776000891,17,4,"[0.017537000123411417, 0.13361879996955395, 0.2837944000493735, 0.31708439998328686]","[0.06707089999690652, 0.1502340999431908, 0.3005476000253111, 0.3339065001346171]",263.3387776000891,263.5404451000504,1000,263.5404451000504,1000,1000,1000,1000,0,num_3,0.40942099993117154,,35,12,2026-03-13_14h23.31.885,2026A_exp2,2022.2.4,59.96408147903807,
,,,,,,,,,,,,,,,,,,,,,,,,,,,,,,,,,,,,,,,,,,,,,,,,,,,,263.98226940003224,,,,,,,
