validity,detectorcomp,contrastCW,contrastCCW,precueCWorCCW,block_80trials.thisRepN,block_80trials.thisTrialN,block_80trials.thisN,block_80trials.thisIndex,etRecord.started,etRecord.stopped,text.started,text.stopped,text_4.started,text_4.stopped,text_6.started,text_6.stopped,oriCW,oriCCW,roi_2.started,grating_UR.started,grating_UL.started,grating_LR.started,grating_LL.started,noise_UR.started,noise_UL.started,noise_LR.started,noise_LL.started,roi_2.stopped,grating_UR.stopped,grating_UL.stopped,grating_LR.stopped,grating_LL.stopped,noise_UR.stopped,noise_UL.stopped,noise_LR.stopped,noise_LL.stopped,outframe,roi_2.numLooks,roi_2.timesOn,roi_2.timesOff,text_2.started,text_2.stopped,probedcontrast,key_resp.started,respdetect,relevantContrast,correctDetect,TorFdetect,respCWorCCW,key_resp.keys,key_resp.rt,feedback_display_.started,participantNo,blockNo,date,expName,psychopyVersion,frameRate,
1,0,4.9,0.0,0,0,0,0,19,3.290001768618822e-05,3.290001768618822e-05,52.6703523999895,54.672662500001024,54.672662500001024,55.30693419999443,55.30693419999443,55.82706139999209,315,315,55.82706139999209,55.82706139999209,55.82706139999209,55.82706139999209,55.82706139999209,55.82706139999209,55.82706139999209,55.82706139999209,55.82706139999209,56.174305199994706,56.174305199994706,56.174305199994706,56.174305199994706,56.174305199994706,56.174305199994706,56.174305199994706,56.174305199994706,56.174305199994706,0,1,[0.0009099000017158687],[0.36816760001238436],56.174305199994706,56.374424599984195,4.9,56.374424599984195,1,4.9,1,1,1000,num_4,0.6454267999506555,,27,14,2026-03-05_14h14.28.475,2026A_exp2,2022.2.4,59.9590839097315,
1,0,3.7,0.0,1,0,1,1,73,,,,,57.041862799960654,57.692724199965596,57.692724199965596,58.17699060001178,315,315,58.17699060001178,58.17699060001178,58.17699060001178,58.17699060001178,58.17699060001178,58.17699060001178,58.17699060001178,58.17699060001178,58.17699060001178,58.543485999980476,58.543485999980476,58.543485999980476,58.543485999980476,58.543485999980476,58.543485999980476,58.543485999980476,58.543485999980476,58.543485999980476,0,1,[0.0012399000115692616],[0.3671881000045687],58.543485999980476,58.743814299989026,0.0,58.743814299989026,0,0.0,0,1,1000,num_1,0.5628993000136688,,27,14,2026-03-05_14h14.28.475,2026A_exp2,2022.2.4,59.9590839097315,
1000,1,4.9,6.1,1,0,2,2,4,,,,,59.32746170001337,59.978186399966944,59.978186399966944,60.479208900011145,45,315,60.479208900011145,60.479208900011145,60.479208900011145,60.479208900011145,60.479208900011145,60.479208900011145,60.479208900011145,60.479208900011145,60.479208900011145,60.82918790000258,60.82918790000258,60.82918790000258,60.82918790000258,60.82918790000258,60.82918790000258,60.82918790000258,60.82918790000258,60.82918790000258,20,1,[0.03354949998902157],[0.06694129999959841],60.82918790000258,61.03192549996311,1000,61.03192549996311,1000,1000,1000,1000,1,num_2,0.46762330003548414,,27,14,2026-03-05_14h14.28.475,2026A_exp2,2022.2.4,59.9590839097315,
1,0,4.9,0.0,0,0,3,3,14,,,,,61.52975799998967,62.180418299976736,62.180418299976736,62.681641899980605,315,45,62.681641899980605,62.681641899980605,62.681641899980605,62.681641899980605,62.681641899980605,62.681641899980605,62.681641899980605,62.681641899980605,62.681641899980605,63.04778640001314,63.04778640001314,63.04778640001314,63.04778640001314,63.04778640001314,63.04778640001314,63.04778640001314,63.04778640001314,63.04778640001314,23,0,,,63.04778640001314,63.24802070000442,4.9,63.24802070000442,1,4.9,1,1,1000,num_4,0.7071187000256032,,27,14,2026-03-05_14h14.28.475,2026A_exp2,2022.2.4,59.9590839097315,
0,0,0.0,6.1,0,0,4,4,30,,,,,63.98201549996156,64.63279259996489,64.63279259996489,65.11723709997023,315,315,65.11723709997023,65.11723709997023,65.11723709997023,65.11723709997023,65.11723709997023,65.11723709997023,65.11723709997023,65.11723709997023,65.11723709997023,65.4836348000099,65.4836348000099,65.4836348000099,65.4836348000099,65.4836348000099,65.4836348000099,65.4836348000099,65.4836348000099,65.4836348000099,23,0,,,65.4836348000099,65.68394969997462,6.1,65.68394969997462,1,6.1,1,1,1000,num_4,0.47086329996818677,,27,14,2026-03-05_14h14.28.475,2026A_exp2,2022.2.4,59.9590839097315,
0,0,0.0,0.0,0,0,5,5,20,,,,,66.18404349999037,66.81837739999173,66.81837739999173,67.31928880000487,315,315,67.31928880000487,67.31928880000487,67.31928880000487,67.31928880000487,67.31928880000487,67.31928880000487,67.31928880000487,67.31928880000487,67.31928880000487,67.68594210001174,67.68594210001174,67.68594210001174,67.68594210001174,67.68594210001174,67.68594210001174,67.68594210001174,67.68594210001174,67.68594210001174,23,0,,,67.68594210001174,67.88615849998314,0.0,67.88615849998314,0,0.0,0,1,1000,num_1,0.8682113999966532,,27,14,2026-03-05_14h14.28.475,2026A_exp2,2022.2.4,59.9590839097315,
0,0,4.9,6.1,0,0,6,6,1,,,,,68.77010959998006,69.42103470000438,69.42103470000438,69.92198939999798,315,315,69.92198939999798,69.92198939999798,69.92198939999798,69.92198939999798,69.92198939999798,69.92198939999798,69.92198939999798,69.92198939999798,69.92198939999798,70.28848370001651,70.28848370001651,70.28848370001651,70.28848370001651,70.28848370001651,70.28848370001651,70.28848370001651,70.28848370001651,70.28848370001651,23,0,,,70.28848370001651,70.48871509998571,6.1,70.48871509998571,1,6.1,1,1,1000,num_4,0.5939706000499427,,27,14,2026-03-05_14h14.28.475,2026A_exp2,2022.2.4,59.9590839097315,
1000,1,0.0,3.7,0,0,7,7,21,,,,,71.10582529997919,71.75670149998041,71.75670149998041,72.24109759996645,45,45,72.24109759996645,72.24109759996645,72.24109759996645,72.24109759996645,72.24109759996645,72.24109759996645,72.24109759996645,72.24109759996645,72.24109759996645,72.60755299997982,72.60755299997982,72.60755299997982,72.60755299997982,72.60755299997982,72.60755299997982,72.60755299997982,72.60755299997982,72.60755299997982,23,0,,,72.60755299997982,72.80958010000177,1000,72.80958010000177,1000,1000,1000,1000,1,num_2,0.43367039994336665,,27,14,2026-03-05_14h14.28.475,2026A_exp2,2022.2.4,59.9590839097315,
1,0,0.0,0.0,1,0,8,8,42,,,,,73.27498619997641,73.92546679999214,73.92546679999214,74.42656499997247,315,45,74.42656499997247,74.42656499997247,74.42656499997247,74.42656499997247,74.42656499997247,74.42656499997247,74.42656499997247,74.42656499997247,74.42656499997247,74.77617719996488,74.77617719996488,74.77617719996488,74.77617719996488,74.77617719996488,74.77617719996488,74.77617719996488,74.77617719996488,74.77617719996488,22,0,,,74.77617719996488,74.97646480001276,0.0,74.97646480001276,0,0.0,0,1,1000,num_1,0.6338974999962375,,27,14,2026-03-05_14h14.28.475,2026A_exp2,2022.2.4,59.9590839097315,
0,0,4.9,3.7,1,0,9,9,13,,,,,75.62720799999079,76.27781309996499,76.27781309996499,76.76222470001085,315,45,76.76222470001085,76.76222470001085,76.76222470001085,76.76222470001085,76.76222470001085,76.76222470001085,76.76222470001085,76.76222470001085,76.76222470001085,77.12880010000663,77.12880010000663,77.12880010000663,77.12880010000663,77.12880010000663,77.12880010000663,77.12880010000663,77.12880010000663,77.12880010000663,23,0,,,77.12880010000663,77.32900799997151,4.9,77.32900799997151,1,4.9,1,1,1000,num_4,0.5935343999881297,,27,14,2026-03-05_14h14.28.475,2026A_exp2,2022.2.4,59.9590839097315,
0,0,3.7,0.0,0,0,10,10,16,,,,,77.94605379999848,78.59686689998489,78.59686689998489,79.08132359996671,315,45,79.08132359996671,79.08132359996671,79.08132359996671,79.08132359996671,79.08132359996671,79.08132359996671,79.08132359996671,79.08132359996671,79.08132359996671,79.44768689997727,79.44768689997727,79.44768689997727,79.44768689997727,79.44768689997727,79.44768689997727,79.44768689997727,79.44768689997727,79.44768689997727,1,2,"[0.001206899993121624, 0.367073800007347]","[0.3504524999880232, 0.3670784999849275]",79.44768689997727,79.64783460000763,0.0,79.64783460000763,0,0.0,0,1,1000,num_1,0.4910591000225395,,27,14,2026-03-05_14h14.28.475,2026A_exp2,2022.2.4,59.9590839097315,
1,0,3.7,4.9,0,0,11,11,70,,,,,80.16486759996042,80.81641209998634,80.81641209998634,81.30018269998254,315,315,81.30018269998254,81.30018269998254,81.30018269998254,81.30018269998254,81.30018269998254,81.30018269998254,81.30018269998254,81.30018269998254,81.30018269998254,81.66656719997991,81.66656719997991,81.66656719997991,81.66656719997991,81.66656719997991,81.66656719997991,81.66656719997991,81.66656719997991,81.66656719997991,23,0,,,81.66656719997991,81.86661239998648,3.7,81.86661239998648,0,3.7,1,0,1000,num_1,0.5606787000433542,,27,14,2026-03-05_14h14.28.475,2026A_exp2,2022.2.4,59.9590839097315,
1,0,3.7,6.1,0,0,12,12,74,,,,,82.45056389999809,83.10136329999659,83.10136329999659,83.58567249996122,45,315,83.58567249996122,83.58567249996122,83.58567249996122,83.58567249996122,83.58567249996122,83.58567249996122,83.58567249996122,83.58567249996122,83.58567249996122,83.95218739996199,83.95218739996199,83.95218739996199,83.95218739996199,83.95218739996199,83.95218739996199,83.95218739996199,83.95218739996199,83.95218739996199,23,0,,,83.95218739996199,84.15220780001255,3.7,84.15220780001255,0,3.7,1,0,1000,num_1,0.49867390003055334,,27,14,2026-03-05_14h14.28.475,2026A_exp2,2022.2.4,59.9590839097315,
1,0,3.7,3.7,1,0,13,13,11,,,,,84.66934530000435,85.32021119998535,85.32021119998535,85.82128009997541,45,45,85.82128009997541,85.82128009997541,85.82128009997541,85.82128009997541,85.82128009997541,85.82128009997541,85.82128009997541,85.82128009997541,85.82128009997541,86.17105800000718,86.17105800000718,86.17105800000718,86.17105800000718,86.17105800000718,86.17105800000718,86.17105800000718,86.17105800000718,86.17105800000718,22,0,,,86.17105800000718,86.37120120000327,3.7,86.37120120000327,1,3.7,1,1,1000,num_4,0.5600167000084184,,27,14,2026-03-05_14h14.28.475,2026A_exp2,2022.2.4,59.9590839097315,
1000,1,0.0,3.7,0,0,14,14,18,,,,,86.95498390001012,87.60584739997284,87.60584739997284,88.10700379998889,45,45,88.10700379998889,88.10700379998889,88.10700379998889,88.10700379998889,88.10700379998889,88.10700379998889,88.10700379998889,88.10700379998889,88.10700379998889,88.47338839998702,88.47338839998702,88.47338839998702,88.47338839998702,88.47338839998702,88.47338839998702,88.47338839998702,88.47338839998702,88.47338839998702,23,0,,,88.47338839998702,88.67530279996572,1000,88.67530279996572,1000,1000,1000,1000,1,num_2,0.4234279000083916,,27,14,2026-03-05_14h14.28.475,2026A_exp2,2022.2.4,59.9590839097315,
1000,1,0.0,4.9,0,0,15,15,50,,,,,89.12385059997905,89.77470929996343,89.77470929996343,90.27569579996634,315,315,90.27569579996634,90.27569579996634,90.27569579996634,90.27569579996634,90.27569579996634,90.27569579996634,90.27569579996634,90.27569579996634,90.27569579996634,90.64222489995882,90.64222489995882,90.64222489995882,90.64222489995882,90.64222489995882,90.64222489995882,90.64222489995882,90.64222489995882,90.64222489995882,12,4,"[0.0011993999942205846, 0.08344459999352694, 0.20035030000144616, 0.2670508999726735]","[0.05017299996688962, 0.10017779999179766, 0.21700659999623895, 0.3671833999687806]",90.64222489995882,90.84438349999255,1000,90.84438349999255,1000,1000,1000,1000,1,num_2,0.4221571999951266,,27,14,2026-03-05_14h14.28.475,2026A_exp2,2022.2.4,59.9590839097315,
1,0,3.7,0.0,0,0,16,16,15,,,,,91.29278329998488,91.94349879998481,91.94349879998481,92.44468889996642,45,315,92.44468889996642,92.44468889996642,92.44468889996642,92.44468889996642,92.44468889996642,92.44468889996642,92.44468889996642,92.44468889996642,92.44468889996642,92.81106129998807,92.81106129998807,92.81106129998807,92.81106129998807,92.81106129998807,92.81106129998807,92.81106129998807,92.81106129998807,92.81106129998807,19,2,"[0.15021280001383275, 0.2670737999724224]","[0.18363109999336302, 0.283765800006222]",92.81106129998807,93.0111756999977,3.7,93.0111756999977,1,3.7,1,1,1000,num_4,0.6084683999652043,,27,14,2026-03-05_14h14.28.475,2026A_exp2,2022.2.4,59.9590839097315,
1,0,4.9,4.9,1,0,17,17,32,,,,,93.64513419999275,94.29589840001427,94.29589840001427,94.78019429999404,315,315,94.78019429999404,94.78019429999404,94.78019429999404,94.78019429999404,94.78019429999404,94.78019429999404,94.78019429999404,94.78019429999404,94.78019429999404,95.14647099998547,95.14647099998547,95.14647099998547,95.14647099998547,95.14647099998547,95.14647099998547,95.14647099998547,95.14647099998547,95.14647099998547,23,0,,,95.14647099998547,95.34693950001383,4.9,95.34693950001383,1,4.9,1,1,1000,num_4,0.7513604999985546,,27,14,2026-03-05_14h14.28.475,2026A_exp2,2022.2.4,59.9590839097315,
1,0,0.0,0.0,1,0,18,18,68,,,,,96.11425169999711,96.76495779998368,96.76495779998368,97.24946560000535,45,45,97.24946560000535,97.24946560000535,97.24946560000535,97.24946560000535,97.24946560000535,97.24946560000535,97.24946560000535,97.24946560000535,97.24946560000535,97.61558009998407,97.61558009998407,97.61558009998407,97.61558009998407,97.61558009998407,97.61558009998407,97.61558009998407,97.61558009998407,97.61558009998407,23,0,,,97.61558009998407,97.81596799998078,0.0,97.81596799998078,0,0.0,0,1,1000,num_1,0.5793648999533616,,27,14,2026-03-05_14h14.28.475,2026A_exp2,2022.2.4,59.9590839097315,
1000,1,0.0,0.0,1,0,19,19,27,,,,,98.41645869996864,99.06703689997084,99.06703689997084,99.55164779996267,315,315,99.55164779996267,99.55164779996267,99.55164779996267,99.55164779996267,99.55164779996267,99.55164779996267,99.55164779996267,99.55164779996267,99.55164779996267,99.91815809998661,99.91815809998661,99.91815809998661,99.91815809998661,99.91815809998661,99.91815809998661,99.91815809998661,99.91815809998661,99.91815809998661,23,0,,,99.91815809998661,100.12004419998266,1000,100.12004419998266,1000,1000,1000,1000,0,num_3,0.5394821999943815,,27,14,2026-03-05_14h14.28.475,2026A_exp2,2022.2.4,59.9590839097315,
1000,1,4.9,4.9,1,0,20,20,67,,,,,100.68569620000198,101.33626899996307,101.33626899996307,101.83735699998215,45,45,101.83735699998215,101.83735699998215,101.83735699998215,101.83735699998215,101.83735699998215,101.83735699998215,101.83735699998215,101.83735699998215,101.83735699998215,102.18707889999496,102.18707889999496,102.18707889999496,102.18707889999496,102.18707889999496,102.18707889999496,102.18707889999496,102.18707889999496,102.18707889999496,22,0,,,102.18707889999496,102.38899659999879,1000,102.38899659999879,1000,1000,1000,1000,1,num_2,0.4458805999602191,,27,14,2026-03-05_14h14.28.475,2026A_exp2,2022.2.4,59.9590839097315,
1000,1,4.9,6.1,0,0,21,21,59,,,,,102.85425639996538,103.50514059996931,103.50514059996931,104.00623160001123,315,315,104.00623160001123,104.00623160001123,104.00623160001123,104.00623160001123,104.00623160001123,104.00623160001123,104.00623160001123,104.00623160001123,104.00623160001123,104.37244629999623,104.37244629999623,104.37244629999623,104.37244629999623,104.37244629999623,104.37244629999623,104.37244629999623,104.37244629999623,104.37244629999623,23,0,,,104.37244629999623,104.57448050001403,1000,104.57448050001403,1000,1000,1000,1000,1,num_2,0.42888660001335666,,27,14,2026-03-05_14h14.28.475,2026A_exp2,2022.2.4,59.9590839097315,
1,0,6.1,0.0,0,0,22,22,22,,,,,105.0230925999931,105.67377210000996,105.67377210000996,106.17489429999841,315,45,106.17489429999841,106.17489429999841,106.17489429999841,106.17489429999841,106.17489429999841,106.17489429999841,106.17489429999841,106.17489429999841,106.17489429999841,106.54142939997837,106.54142939997837,106.54142939997837,106.54142939997837,106.54142939997837,106.54142939997837,106.54142939997837,106.54142939997837,106.54142939997837,23,0,,,106.54142939997837,106.74164999998175,6.1,106.74164999998175,1,6.1,1,1,1000,num_4,0.54876619996503,,27,14,2026-03-05_14h14.28.475,2026A_exp2,2022.2.4,59.9590839097315,
1,0,4.9,6.1,1,0,23,23,62,,,,,107.30861949996324,107.95957690000068,107.95957690000068,108.46066469996003,315,315,108.46066469996003,108.46066469996003,108.46066469996003,108.46066469996003,108.46066469996003,108.46066469996003,108.46066469996003,108.46066469996003,108.46066469996003,108.81032749998849,108.81032749998849,108.81032749998849,108.81032749998849,108.81032749998849,108.81032749998849,108.81032749998849,108.81032749998849,108.81032749998849,22,0,,,108.81032749998849,109.01062760001514,6.1,109.01062760001514,1,6.1,1,1,1000,num_4,0.49635039997519925,,27,14,2026-03-05_14h14.28.475,2026A_exp2,2022.2.4,59.9590839097315,
1,0,6.1,0.0,1,0,24,24,41,,,,,109.52759929996682,110.17835850000847,110.17835850000847,110.66289939999115,315,315,110.66289939999115,110.66289939999115,110.66289939999115,110.66289939999115,110.66289939999115,110.66289939999115,110.66289939999115,110.66289939999115,110.66289939999115,111.02921559999231,111.02921559999231,111.02921559999231,111.02921559999231,111.02921559999231,111.02921559999231,111.02921559999231,111.02921559999231,111.02921559999231,23,0,,,111.02921559999231,111.22948390000965,0.0,111.22948390000965,0,0.0,0,1,1000,num_1,0.5263379000243731,,27,14,2026-03-05_14h14.28.475,2026A_exp2,2022.2.4,59.9590839097315,
1000,1,3.7,3.7,0,0,25,25,76,,,,,111.78023869998287,112.41849389998242,112.41849389998242,112.91495649999706,315,45,112.91495649999706,112.91495649999706,112.91495649999706,112.91495649999706,112.91495649999706,112.91495649999706,112.91495649999706,112.91495649999706,112.91495649999706,113.28147719998378,113.28147719998378,113.28147719998378,113.28147719998378,113.28147719998378,113.28147719998378,113.28147719998378,113.28147719998378,113.28147719998378,23,0,,,113.28147719998378,113.48342930001672,1000,113.48342930001672,1000,1000,1000,1000,0,num_3,0.5999479000456631,,27,14,2026-03-05_14h14.28.475,2026A_exp2,2022.2.4,59.9590839097315,
1000,1,0.0,0.0,0,0,26,26,33,,,,,114.09892329998547,114.7496422000113,114.7496422000113,115.25070949998917,315,45,115.25070949998917,115.25070949998917,115.25070949998917,115.25070949998917,115.25070949998917,115.25070949998917,115.25070949998917,115.25070949998917,115.25070949998917,115.61724190000677,115.61724190000677,115.61724190000677,115.61724190000677,115.61724190000677,115.61724190000677,115.61724190000677,115.61724190000677,115.61724190000677,23,0,,,115.61724190000677,115.81919889996061,1000,115.81919889996061,1000,1000,1000,1000,0,num_3,0.3996123000397347,,27,14,2026-03-05_14h14.28.475,2026A_exp2,2022.2.4,59.9590839097315,
1,0,0.0,0.0,1,0,27,27,77,,,,,116.23433269996895,116.8850466000149,116.8850466000149,117.38626319996547,45,315,117.38626319996547,117.38626319996547,117.38626319996547,117.38626319996547,117.38626319996547,117.38626319996547,117.38626319996547,117.38626319996547,117.38626319996547,117.75262899999507,117.75262899999507,117.75262899999507,117.75262899999507,117.75262899999507,117.75262899999507,117.75262899999507,117.75262899999507,117.75262899999507,23,0,,,117.75262899999507,117.95260630000848,0.0,117.95260630000848,0,0.0,0,1,1000,num_1,0.9304085999610834,,27,14,2026-03-05_14h14.28.475,2026A_exp2,2022.2.4,59.9590839097315,
1,0,0.0,4.9,1,0,28,28,2,,,,,118.90363999997498,119.55433389998507,119.55433389998507,120.05544430000009,45,315,120.05544430000009,120.05544430000009,120.05544430000009,120.05544430000009,120.05544430000009,120.05544430000009,120.05544430000009,120.05544430000009,120.05544430000009,120.42185179999797,120.42185179999797,120.42185179999797,120.42185179999797,120.42185179999797,120.42185179999797,120.42185179999797,120.42185179999797,120.42185179999797,23,0,,,120.42185179999797,120.62218140001642,4.9,120.62218140001642,1,4.9,1,1,1000,num_4,0.5488153999904171,,27,14,2026-03-05_14h14.28.475,2026A_exp2,2022.2.4,59.9590839097315,
1,0,0.0,0.0,1,0,29,29,24,,,,,121.18917649996001,121.84012309997343,121.84012309997343,122.32448209996801,45,315,122.32448209996801,122.32448209996801,122.32448209996801,122.32448209996801,122.32448209996801,122.32448209996801,122.32448209996801,122.32448209996801,122.32448209996801,122.69090169999981,122.69090169999981,122.69090169999981,122.69090169999981,122.69090169999981,122.69090169999981,122.69090169999981,122.69090169999981,122.69090169999981,23,0,,,122.69090169999981,122.8909651999711,0.0,122.8909651999711,0,0.0,0,1,1000,num_1,0.48000079998746514,,27,14,2026-03-05_14h14.28.475,2026A_exp2,2022.2.4,59.9590839097315,
1000,1,4.9,3.7,0,0,30,30,26,,,,,123.39144839998335,124.04227049998008,124.04227049998008,124.5267765999888,45,45,124.5267765999888,124.5267765999888,124.5267765999888,124.5267765999888,124.5267765999888,124.5267765999888,124.5267765999888,124.5267765999888,124.5267765999888,124.89301930001238,124.89301930001238,124.89301930001238,124.89301930001238,124.89301930001238,124.89301930001238,124.89301930001238,124.89301930001238,124.89301930001238,23,0,,,124.89301930001238,125.0949271999998,1000,125.0949271999998,1000,1000,1000,1000,0,num_3,0.49167839996516705,,27,14,2026-03-05_14h14.28.475,2026A_exp2,2022.2.4,59.9590839097315,
1,0,4.9,3.7,0,0,31,31,89,,,,,125.61047660000622,126.26084989996161,126.26084989996161,126.7622027999605,315,315,126.7622027999605,126.7622027999605,126.7622027999605,126.7622027999605,126.7622027999605,126.7622027999605,126.7622027999605,126.7622027999605,126.7622027999605,127.12852999998722,127.12852999998722,127.12852999998722,127.12852999998722,127.12852999998722,127.12852999998722,127.12852999998722,127.12852999998722,127.12852999998722,0,1,[0.0012089000083506107],[0.36688010004581884],127.12852999998722,127.32881909998832,4.9,127.32881909998832,0,4.9,1,0,1000,num_1,0.6817909000092186,,27,14,2026-03-05_14h14.28.475,2026A_exp2,2022.2.4,59.9590839097315,
1000,1,4.9,6.1,0,0,32,32,35,,,,,128.02932269999292,128.68023050000193,128.68023050000193,129.1646131000016,315,315,129.1646131000016,129.1646131000016,129.1646131000016,129.1646131000016,129.1646131000016,129.1646131000016,129.1646131000016,129.1646131000016,129.1646131000016,129.53106559999287,129.53106559999287,129.53106559999287,129.53106559999287,129.53106559999287,129.53106559999287,129.53106559999287,129.53106559999287,129.53106559999287,0,1,[0.001192399999126792],[0.3672273999545723],129.53106559999287,129.7319598000031,1000,129.7319598000031,1000,1000,1000,1000,1,num_2,0.5109182999585755,,27,14,2026-03-05_14h14.28.475,2026A_exp2,2022.2.4,59.9590839097315,
1,0,6.1,0.0,1,0,33,33,23,,,,,130.26503760000924,130.9157035999815,130.9157035999815,131.4167628000141,315,315,131.4167628000141,131.4167628000141,131.4167628000141,131.4167628000141,131.4167628000141,131.4167628000141,131.4167628000141,131.4167628000141,131.4167628000141,131.76670139998896,131.76670139998896,131.76670139998896,131.76670139998896,131.76670139998896,131.76670139998896,131.76670139998896,131.76670139998896,131.76670139998896,0,1,[0.0012522999895736575],[0.35051159997237846],131.76670139998896,131.9668827999849,0.0,131.9668827999849,0,0.0,0,1,1000,num_1,0.4597065999987535,,27,14,2026-03-05_14h14.28.475,2026A_exp2,2022.2.4,59.9590839097315,
1,0,0.0,6.1,1,0,34,34,17,,,,,132.45050829998218,133.10132289998,133.10132289998,133.58568560000276,315,315,133.58568560000276,133.58568560000276,133.58568560000276,133.58568560000276,133.58568560000276,133.58568560000276,133.58568560000276,133.58568560000276,133.58568560000276,133.95222169999033,133.95222169999033,133.95222169999033,133.95222169999033,133.95222169999033,133.95222169999033,133.95222169999033,133.95222169999033,133.95222169999033,0,1,[0.0012322000111453235],[0.36704489996191114],133.95222169999033,134.15230139996856,6.1,134.15230139996856,1,6.1,1,1,1000,num_4,0.4750262000015937,,27,14,2026-03-05_14h14.28.475,2026A_exp2,2022.2.4,59.9590839097315,
1,0,0.0,4.9,1,0,35,35,44,,,,,134.652911400015,135.30353839998133,135.30353839998133,135.78799260000233,45,45,135.78799260000233,135.78799260000233,135.78799260000233,135.78799260000233,135.78799260000233,135.78799260000233,135.78799260000233,135.78799260000233,135.78799260000233,136.1543490999611,136.1543490999611,136.1543490999611,136.1543490999611,136.1543490999611,136.1543490999611,136.1543490999611,136.1543490999611,136.1543490999611,1,2,"[0.0013242000131867826, 0.15024119999725372]","[0.13343909999821335, 0.36699619999853894]",136.1543490999611,136.35457659995882,4.9,136.35457659995882,1,4.9,1,1,1000,num_4,0.5525879000197165,,27,14,2026-03-05_14h14.28.475,2026A_exp2,2022.2.4,59.9590839097315,
0,0,0.0,0.0,0,0,36,36,10,,,,,136.9381159999757,137.58918979996815,137.58918979996815,138.07351249997737,315,315,138.07351249997737,138.07351249997737,138.07351249997737,138.07351249997737,138.07351249997737,138.07351249997737,138.07351249997737,138.07351249997737,138.07351249997737,138.43979939998826,138.43979939998826,138.43979939998826,138.43979939998826,138.43979939998826,138.43979939998826,138.43979939998826,138.43979939998826,138.43979939998826,0,1,[0.0012027000193484128],[0.36679180001374334],138.43979939998826,138.64016539999284,0.0,138.64016539999284,0,0.0,0,1,1000,num_1,0.45830579998437315,,27,14,2026-03-05_14h14.28.475,2026A_exp2,2022.2.4,59.9590839097315,
1000,1,0.0,3.7,1,0,37,37,7,,,,,139.12386479997076,139.77452889998676,139.77452889998676,140.25911459996132,45,315,140.25911459996132,140.25911459996132,140.25911459996132,140.25911459996132,140.25911459996132,140.25911459996132,140.25911459996132,140.25911459996132,140.25911459996132,140.62568240001565,140.62568240001565,140.62568240001565,140.62568240001565,140.62568240001565,140.62568240001565,140.62568240001565,140.62568240001565,140.62568240001565,0,1,[0.001284400001168251],[0.3671491999994032],140.62568240001565,140.82563699997263,1000,140.82563699997263,1000,1000,1000,1000,1,num_2,0.5449656000128016,,27,14,2026-03-05_14h14.28.475,2026A_exp2,2022.2.4,59.9590839097315,
1,0,0.0,0.0,0,0,38,38,31,,,,,141.3929039000068,142.04357430001255,142.04357430001255,142.54473829997005,45,315,142.54473829997005,142.54473829997005,142.54473829997005,142.54473829997005,142.54473829997005,142.54473829997005,142.54473829997005,142.54473829997005,142.54473829997005,142.8944645000156,142.8944645000156,142.8944645000156,142.8944645000156,142.8944645000156,142.8944645000156,142.8944645000156,142.8944645000156,142.8944645000156,7,4,"[0.0012046999763697386, 0.08348229998955503, 0.13345269998535514, 0.2837009999784641]","[0.050187300017569214, 0.10029480000957847, 0.21693320001941174, 0.3504399000084959]",142.8944645000156,143.0946355999913,0.0,143.11151029996108,1,0.0,0,0,1000,num_4,1.4751711999997497,,27,14,2026-03-05_14h14.28.475,2026A_exp2,2022.2.4,59.9590839097315,
1,0,4.9,0.0,0,0,39,39,57,,,,,144.6126237999997,145.263419099967,145.263419099967,145.74788889999036,45,45,145.74788889999036,145.74788889999036,145.74788889999036,145.74788889999036,145.74788889999036,145.74788889999036,145.74788889999036,145.74788889999036,145.74788889999036,146.11430129996734,146.11430129996734,146.11430129996734,146.11430129996734,146.11430129996734,146.11430129996734,146.11430129996734,146.11430129996734,146.11430129996734,23,0,,,146.11430129996734,146.31439680000767,4.9,146.31439680000767,1,4.9,1,1,1000,num_4,0.4170511999982409,,27,14,2026-03-05_14h14.28.475,2026A_exp2,2022.2.4,59.9590839097315,
1000,1,4.9,0.0,0,0,40,40,82,,,,,146.74809389997972,147.39885569998296,147.39885569998296,147.89992789999815,45,45,147.89992789999815,147.89992789999815,147.89992789999815,147.89992789999815,147.89992789999815,147.89992789999815,147.89992789999815,147.89992789999815,147.89992789999815,148.24963330000173,148.24963330000173,148.24963330000173,148.24963330000173,148.24963330000173,148.24963330000173,148.24963330000173,148.24963330000173,148.24963330000173,16,4,"[0.01723219995619729, 0.049910000001545995, 0.2838405999937095, 0.35052219999488443]","[0.03304389998083934, 0.1002217999775894, 0.30036029999610037, 0.35052719997474924]",148.24963330000173,148.44994839996798,1000,148.44994839996798,1000,1000,1000,1000,0,num_3,0.6493496999610215,,27,14,2026-03-05_14h14.28.475,2026A_exp2,2022.2.4,59.9590839097315,
1000,1,0.0,0.0,1,0,41,41,80,,,,,149.11749699997017,149.76814790000208,149.76814790000208,150.26903149997815,315,45,150.26903149997815,150.26903149997815,150.26903149997815,150.26903149997815,150.26903149997815,150.26903149997815,150.26903149997815,150.26903149997815,150.26903149997815,150.61885199998505,150.61885199998505,150.61885199998505,150.61885199998505,150.61885199998505,150.61885199998505,150.61885199998505,150.61885199998505,150.61885199998505,5,3,"[0.050229999993462116, 0.11692459997721016, 0.2504581999965012]","[0.10028569999849424, 0.2338232999900356, 0.3504665999789722]",150.61885199998505,150.8209908999852,1000,150.8209908999852,1000,1000,1000,1000,0,num_3,0.49389400001382455,,27,14,2026-03-05_14h14.28.475,2026A_exp2,2022.2.4,59.9590839097315,
1,0,0.0,3.7,0,0,42,42,34,,,,,151.33604009996634,151.9867668999941,151.9867668999941,152.4880240999628,315,45,152.4880240999628,152.4880240999628,152.4880240999628,152.4880240999628,152.4880240999628,152.4880240999628,152.4880240999628,152.4880240999628,152.4880240999628,152.85433409997495,152.85433409997495,152.85433409997495,152.85433409997495,152.85433409997495,152.85433409997495,152.85433409997495,152.85433409997495,152.85433409997495,11,7,"[0.001213400042615831, 0.03345590003300458, 0.100079600000754, 0.1669794000335969, 0.3003849000087939, 0.33384930004831403, 0.36714270000811666]","[0.017434500041417778, 0.08362020005006343, 0.11675159999867901, 0.2337987000355497, 0.3171798000112176, 0.35048160003498197, 0.36714710004162043]",152.85433409997495,153.05465499998536,0.0,153.05465499998536,0,0.0,0,1,1000,num_1,0.7966935000149533,,27,14,2026-03-05_14h14.28.475,2026A_exp2,2022.2.4,59.9590839097315,
1000,1,0.0,3.7,1,0,43,43,81,,,,,153.8719451999641,154.50782529998105,154.50782529998105,155.00707990000956,45,45,155.00707990000956,155.00707990000956,155.00707990000956,155.00707990000956,155.00707990000956,155.00707990000956,155.00707990000956,155.00707990000956,155.00707990000956,155.3736096000066,155.3736096000066,155.3736096000066,155.3736096000066,155.3736096000066,155.3736096000066,155.3736096000066,155.3736096000066,155.3736096000066,21,1,[0.33360529999481514],[0.36702609999338165],155.3736096000066,155.57536169997184,1000,155.57536169997184,1000,1000,1000,1000,1,num_2,0.6035965000046417,,27,14,2026-03-05_14h14.28.475,2026A_exp2,2022.2.4,59.9590839097315,
1000,1,3.7,0.0,1,0,44,44,54,,,,,156.20758280000882,156.85835180000868,156.85835180000868,157.35940570000093,315,315,157.35940570000093,157.35940570000093,157.35940570000093,157.35940570000093,157.35940570000093,157.35940570000093,157.35940570000093,157.35940570000093,157.35940570000093,157.72593620000407,157.72593620000407,157.72593620000407,157.72593620000407,157.72593620000407,157.72593620000407,157.72593620000407,157.72593620000407,157.72593620000407,12,6,"[0.0007649000035598874, 0.10098579997429624, 0.13424509996548295, 0.21770330000435933, 0.26771200000075623, 0.3178213000064716]","[0.06770800001686439, 0.11767529998905957, 0.18440410000039265, 0.23440720001235604, 0.30107759998645633, 0.35113309998996556]",157.72593620000407,157.927916799963,1000,157.927916799963,1000,1000,1000,1000,0,num_3,0.52392480004346,,27,14,2026-03-05_14h14.28.475,2026A_exp2,2022.2.4,59.9590839097315,
0,0,3.7,0.0,1,0,45,45,0,,,,,158.47666069999104,159.12740629998734,159.12740629998734,159.62858289998258,315,315,159.62858289998258,159.62858289998258,159.62858289998258,159.62858289998258,159.62858289998258,159.62858289998258,159.62858289998258,159.62858289998258,159.62858289998258,159.99479069997324,159.99479069997324,159.99479069997324,159.99479069997324,159.99479069997324,159.99479069997324,159.99479069997324,159.99479069997324,159.99479069997324,2,2,"[0.0012462000013329089, 0.23362660000566393]","[0.20027249999111518, 0.36761010001646355]",159.99479069997324,160.1951328999712,3.7,160.1951328999712,1,3.7,1,1,1000,num_4,0.6153736999840476,,27,14,2026-03-05_14h14.28.475,2026A_exp2,2022.2.4,59.9590839097315,
1000,1,0.0,3.7,1,0,46,46,86,,,,,160.82879259996116,161.47956000000704,161.47956000000704,161.96404310001526,315,45,161.96404310001526,161.96404310001526,161.96404310001526,161.96404310001526,161.96404310001526,161.96404310001526,161.96404310001526,161.96404310001526,161.96404310001526,162.33056360000046,162.33056360000046,162.33056360000046,162.33056360000046,162.33056360000046,162.33056360000046,162.33056360000046,162.33056360000046,162.33056360000046,4,4,"[0.0011827999842353165, 0.11726039997301996, 0.2170180999673903, 0.3004497999791056]","[0.10041050001746044, 0.1670670000021346, 0.28399339999305084, 0.36725080001633614]",162.33056360000046,162.53079869999783,1000,162.53079869999783,1000,1000,1000,1000,1,num_2,0.4728171000024304,,27,14,2026-03-05_14h14.28.475,2026A_exp2,2022.2.4,59.9590839097315,
0,0,0.0,6.1,1,0,47,47,84,,,,,163.03108709998196,163.68200500000967,163.68200500000967,164.18329039996024,315,45,164.18329039996024,164.18329039996024,164.18329039996024,164.18329039996024,164.18329039996024,164.18329039996024,164.18329039996024,164.18329039996024,164.18329039996024,164.54943040001672,164.54943040001672,164.54943040001672,164.54943040001672,164.54943040001672,164.54943040001672,164.54943040001672,164.54943040001672,164.54943040001672,16,6,"[0.03414539998630062, 0.0833256000187248, 0.11692980001680553, 0.26699969999026507, 0.3337959999917075, 0.3671794999972917]","[0.066657799994573, 0.10016349999932572, 0.13347850000718608, 0.28380179998930544, 0.35035780002363026, 0.3671845000353642]",164.54943040001672,164.74949489999563,0.0,164.74949489999563,0,0.0,0,1,1000,num_1,0.6539915000321344,,27,14,2026-03-05_14h14.28.475,2026A_exp2,2022.2.4,59.9590839097315,
0,0,4.9,4.9,0,0,48,48,88,,,,,165.4335062999744,166.08429879997857,166.08429879997857,166.56874839996453,315,315,166.56874839996453,166.56874839996453,166.56874839996453,166.56874839996453,166.56874839996453,166.56874839996453,166.56874839996453,166.56874839996453,166.56874839996453,166.93518199998653,166.93518199998653,166.93518199998653,166.93518199998653,166.93518199998653,166.93518199998653,166.93518199998653,166.93518199998653,166.93518199998653,14,6,"[0.033536699949763715, 0.10020759998587891, 0.15016379998996854, 0.21697109995875508, 0.3337148999562487, 0.3669800999923609]","[0.08374469995032996, 0.1335143999895081, 0.16691929998341948, 0.2337283999659121, 0.35018839995609596, 0.3669841999653727]",166.93518199998653,167.13526929996442,4.9,167.13526929996442,1,4.9,1,1,1000,num_4,0.6515127000166103,,27,14,2026-03-05_14h14.28.475,2026A_exp2,2022.2.4,59.9590839097315,
1000,1,4.9,4.9,0,0,49,49,36,,,,,167.8025578999659,168.45335949998116,168.45335949998116,168.9377881999826,45,315,168.9377881999826,168.9377881999826,168.9377881999826,168.9377881999826,168.9377881999826,168.9377881999826,168.9377881999826,168.9377881999826,168.9377881999826,169.30416499997955,169.30416499997955,169.30416499997955,169.30416499997955,169.30416499997955,169.30416499997955,169.30416499997955,169.30416499997955,169.30416499997955,8,5,"[0.017427400045562536, 0.13367430004291236, 0.18365080002695322, 0.26709060004213825, 0.33384450001176447]","[0.08362010004930198, 0.15029570000478998, 0.25042670004768297, 0.31705090001923963, 0.3671464000362903]",169.30416499997955,169.5059736999683,1000,169.5059736999683,1000,1000,1000,1000,1,num_2,0.5453975000418723,,27,14,2026-03-05_14h14.28.475,2026A_exp2,2022.2.4,59.9590839097315,
1,0,6.1,0.0,1,0,50,50,53,,,,,170.0714289000025,170.72222870000405,170.72222870000405,171.22335149999708,315,315,171.22335149999708,171.22335149999708,171.22335149999708,171.22335149999708,171.22335149999708,171.22335149999708,171.22335149999708,171.22335149999708,171.22335149999708,171.58999710000353,171.58999710000353,171.58999710000353,171.58999710000353,171.58999710000353,171.58999710000353,171.58999710000353,171.58999710000353,171.58999710000353,0,1,[0.0012637999607250094],[0.36708259995793924],171.58999710000353,171.78996939997887,0.0,171.78996939997887,0,0.0,0,1,1000,num_1,0.5176072999602184,,27,14,2026-03-05_14h14.28.475,2026A_exp2,2022.2.4,59.9590839097315,
1000,1,0.0,6.1,0,0,51,51,5,,,,,172.32525950000854,172.9742993999971,172.9742993999971,173.47566920000827,315,45,173.47566920000827,173.47566920000827,173.47566920000827,173.47566920000827,173.47566920000827,173.47566920000827,173.47566920000827,173.47566920000827,173.47566920000827,173.8420353999827,173.8420353999827,173.8420353999827,173.8420353999827,173.8420353999827,173.8420353999827,173.8420353999827,173.8420353999827,173.8420353999827,22,0,,,173.8420353999827,174.04415619996144,1000,174.04415619996144,1000,1000,1000,1000,1,num_2,0.4718587000388652,,27,14,2026-03-05_14h14.28.475,2026A_exp2,2022.2.4,59.9590839097315,
1,0,0.0,4.9,0,0,52,52,9,,,,,174.54480059997877,175.19338720000815,175.19338720000815,175.69433149998076,315,45,175.69433149998076,175.69433149998076,175.69433149998076,175.69433149998076,175.69433149998076,175.69433149998076,175.69433149998076,175.69433149998076,175.69433149998076,176.0610968999681,176.0610968999681,176.0610968999681,176.0610968999681,176.0610968999681,176.0610968999681,176.0610968999681,176.0610968999681,176.0610968999681,16,4,"[0.09982310002669692, 0.1832698000362143, 0.28334650001488626, 0.3503659000271]","[0.11663990002125502, 0.19999860000098124, 0.31616719998419285, 0.3667376000084914]",176.0610968999681,176.26114059996326,0.0,176.26114059996326,0,0.0,0,1,1000,num_1,0.6774892000248656,,27,14,2026-03-05_14h14.28.475,2026A_exp2,2022.2.4,59.9590839097315,
1000,1,6.1,3.7,0,0,53,53,43,,,,,176.9616348000127,177.5958784999675,177.5958784999675,178.09696150000673,45,45,178.09696150000673,178.09696150000673,178.09696150000673,178.09696150000673,178.09696150000673,178.09696150000673,178.09696150000673,178.09696150000673,178.09696150000673,178.46330090000993,178.46330090000993,178.46330090000993,178.46330090000993,178.46330090000993,178.46330090000993,178.46330090000993,178.46330090000993,178.46330090000993,14,6,"[0.0007974000182002783, 0.06692670000484213, 0.1004135999828577, 0.18400349997682497, 0.26747730001807213, 0.3509584999992512]","[0.03361609997227788, 0.08384929999010637, 0.11714330001268536, 0.2007216999772936, 0.30090689996723086, 0.3675236999988556]",178.46330090000993,178.66534899995895,1000,178.66534899995895,1000,1000,1000,1000,0,num_3,0.9697139999479987,,27,14,2026-03-05_14h14.28.475,2026A_exp2,2022.2.4,59.9590839097315,
1,0,0.0,0.0,0,0,54,54,75,,,,,179.66438649996417,180.31510549999075,180.31510549999075,180.8162069999962,315,45,180.8162069999962,180.8162069999962,180.8162069999962,180.8162069999962,180.8162069999962,180.8162069999962,180.8162069999962,180.8162069999962,180.8162069999962,181.18254469998647,181.18254469998647,181.18254469998647,181.18254469998647,181.18254469998647,181.18254469998647,181.18254469998647,181.18254469998647,181.18254469998647,9,5,"[0.0012415999663062394, 0.06683349999366328, 0.2169929000083357, 0.25037999998312443, 0.33387169998604804]","[0.05011050001485273, 0.16682199999922886, 0.2335909999674186, 0.29997910000383854, 0.3501262000063434]",181.18254469998647,181.38295830000425,0.0,181.38295830000425,1,0.0,0,0,1000,num_4,0.6045614000177011,,27,14,2026-03-05_14h14.28.475,2026A_exp2,2022.2.4,59.9590839097315,
1000,1,6.1,0.0,1,0,55,55,61,,,,,182.016862199991,182.66809569997713,182.66809569997713,183.15192989999196,315,315,183.15192989999196,183.15192989999196,183.15192989999196,183.15192989999196,183.15192989999196,183.15192989999196,183.15192989999196,183.15192989999196,183.15192989999196,183.51837790000718,183.51837790000718,183.51837790000718,183.51837790000718,183.51837790000718,183.51837790000718,183.51837790000718,183.51837790000718,183.51837790000718,19,4,"[0.016946899995673448, 0.05019229999743402, 0.10022899997420609, 0.23387019999790937]","[0.03348439995897934, 0.06693959998665377, 0.11702850001165643, 0.25045829999726266]",183.51837790000718,183.72030669997912,1000,183.72030669997912,1000,1000,1000,1000,0,num_3,0.5301990999723785,,27,14,2026-03-05_14h14.28.475,2026A_exp2,2022.2.4,59.9590839097315,
1,0,0.0,0.0,1,0,56,56,66,,,,,184.26923229999375,184.92152769997483,184.92152769997483,185.4209471999784,45,45,185.4209471999784,185.4209471999784,185.4209471999784,185.4209471999784,185.4209471999784,185.4209471999784,185.4209471999784,185.4209471999784,185.4209471999784,185.78730199998245,185.78730199998245,185.78730199998245,185.78730199998245,185.78730199998245,185.78730199998245,185.78730199998245,185.78730199998245,185.78730199998245,4,5,"[0.001401800021994859, 0.05012270004954189, 0.08352330001071095, 0.11685099999886006, 0.20039090001955628]","[0.033421200001612306, 0.06678540003485978, 0.10023999999975786, 0.1835401999996975, 0.36725140002090484]",185.78730199998245,185.98742239997955,0.0,185.98742239997955,0,0.0,0,1,1000,num_1,0.5601973999873735,,27,14,2026-03-05_14h14.28.475,2026A_exp2,2022.2.4,59.9590839097315,
1000,1,3.7,0.0,0,0,57,57,28,,,,,186.57128500001272,187.22198779997416,187.22198779997416,187.70654799998738,45,45,187.70654799998738,187.70654799998738,187.70654799998738,187.70654799998738,187.70654799998738,187.70654799998738,187.70654799998738,187.70654799998738,187.70654799998738,188.07294290000573,188.07294290000573,188.07294290000573,188.07294290000573,188.07294290000573,188.07294290000573,188.07294290000573,188.07294290000573,188.07294290000573,19,3,"[0.0012274999753572047, 0.050152999989222735, 0.10029759997269139]","[0.0334341999841854, 0.06677909998688847, 0.11665729997912422]",188.07294290000573,188.275024499977,1000,188.275024499977,1000,1000,1000,1000,0,num_3,0.44734760001301765,,27,14,2026-03-05_14h14.28.475,2026A_exp2,2022.2.4,59.9590839097315,
1,0,6.1,0.0,0,0,58,58,58,,,,,188.74006689997623,189.39089189999504,189.39089189999504,189.89205259998562,45,45,189.89205259998562,189.89205259998562,189.89205259998562,189.89205259998562,189.89205259998562,189.89205259998562,189.89205259998562,189.89205259998562,189.89205259998562,190.25853549997555,190.25853549997555,190.25853549997555,190.25853549997555,190.25853549997555,190.25853549997555,190.25853549997555,190.25853549997555,190.25853549997555,17,3,"[0.08353930001612753, 0.1335335000185296, 0.3171697999932803]","[0.11687189998337999, 0.16643719997955486, 0.35044639999978244]",190.25853549997555,190.45868619997054,6.1,190.45868619997054,1,6.1,1,1,1000,num_4,0.5845171000109985,,27,14,2026-03-05_14h14.28.475,2026A_exp2,2022.2.4,59.9590839097315,
1000,1,4.9,4.9,0,0,59,59,6,,,,,191.05918320000637,191.70976299996255,191.70976299996255,192.19428890000563,315,45,192.19428890000563,192.19428890000563,192.19428890000563,192.19428890000563,192.19428890000563,192.19428890000563,192.19428890000563,192.19428890000563,192.19428890000563,192.56051939999452,192.56051939999452,192.56051939999452,192.56051939999452,192.56051939999452,192.56051939999452,192.56051939999452,192.56051939999452,192.56051939999452,23,0,,,192.56051939999452,192.78983079997124,1000,192.78983079997124,1000,1000,1000,1000,1,num_2,0.3818013000418432,,27,14,2026-03-05_14h14.28.475,2026A_exp2,2022.2.4,59.9590839097315,
1,0,3.7,0.0,1,0,60,60,55,,,,,193.1945701999939,193.84534639999038,193.84534639999038,194.3464528999757,315,45,194.3464528999757,194.3464528999757,194.3464528999757,194.3464528999757,194.3464528999757,194.3464528999757,194.3464528999757,194.3464528999757,194.3464528999757,194.71282499999506,194.71282499999506,194.71282499999506,194.71282499999506,194.71282499999506,194.71282499999506,194.71282499999506,194.71282499999506,194.71282499999506,23,0,,,194.71282499999506,194.91318350000074,0.0,194.91318350000074,0,0.0,0,1,1000,num_1,0.5139351999969222,,27,14,2026-03-05_14h14.28.475,2026A_exp2,2022.2.4,59.9590839097315,
1000,1,0.0,0.0,1,0,61,61,72,,,,,195.44677939999383,196.097649000003,196.097649000003,196.59879590000492,45,315,196.59879590000492,196.59879590000492,196.59879590000492,196.59879590000492,196.59879590000492,196.59879590000492,196.59879590000492,196.59879590000492,196.59879590000492,196.94836270000087,196.94836270000087,196.94836270000087,196.94836270000087,196.94836270000087,196.94836270000087,196.94836270000087,196.94836270000087,196.94836270000087,11,7,"[0.033685100032016635, 0.08360300003550947, 0.11672560003353283, 0.18377860001055524, 0.21708319999743253, 0.283886999997776, 0.333864199987147]","[0.06696080003166571, 0.1003093000035733, 0.13336889998754486, 0.20044039998902008, 0.267119400028605, 0.31722339999396354, 0.35060070001054555]",196.94836270000087,197.15087119996315,1000,197.15087119996315,1000,1000,1000,1000,0,num_3,0.4037585000041872,,27,14,2026-03-05_14h14.28.475,2026A_exp2,2022.2.4,59.9590839097315,
1,0,0.0,0.0,0,0,62,62,87,,,,,197.58226920000743,198.2331783999689,198.2331783999689,198.734114699997,315,45,198.734114699997,198.734114699997,198.734114699997,198.734114699997,198.734114699997,198.734114699997,198.734114699997,198.734114699997,198.734114699997,199.0841387999826,199.0841387999826,199.0841387999826,199.0841387999826,199.0841387999826,199.0841387999826,199.0841387999826,199.0841387999826,199.0841387999826,9,7,"[0.03355430002557114, 0.06667580001521856, 0.15021400002297014, 0.18376139999600127, 0.21727530000498518, 0.3004515999928117, 0.3337349999928847]","[0.05008890002500266, 0.11651050002546981, 0.1671572999912314, 0.2003619999741204, 0.2838206000160426, 0.31708999996772036, 0.350468999997247]",199.0841387999826,199.2840066999779,0.0,199.2840066999779,1,0.0,0,0,1000,num_4,0.5744701999938115,,27,14,2026-03-05_14h14.28.475,2026A_exp2,2022.2.4,59.9590839097315,
1000,1,0.0,0.0,1,0,63,63,78,,,,,199.88458849996096,200.53541309997672,200.53541309997672,201.01988579996396,45,315,201.01988579996396,201.01988579996396,201.01988579996396,201.01988579996396,201.01988579996396,201.01988579996396,201.01988579996396,201.01988579996396,201.01988579996396,201.38623219996225,201.38623219996225,201.38623219996225,201.38623219996225,201.38623219996225,201.38623219996225,201.38623219996225,201.38623219996225,201.38623219996225,12,7,"[0.001112000027205795, 0.05039520002901554, 0.15054800000507385, 0.23398300004191697, 0.2673539000097662, 0.3006951000425033, 0.36738200002582744]","[0.03374190005706623, 0.11713290004990995, 0.16731310001341626, 0.25068770005600527, 0.28418350004358217, 0.31733160000294447, 0.3673867000034079]",201.38623219996225,201.58846459997585,1000,201.58846459997585,1000,1000,1000,1000,0,num_3,0.5345195999834687,,27,14,2026-03-05_14h14.28.475,2026A_exp2,2022.2.4,59.9590839097315,
1,0,0.0,6.1,0,0,64,64,3,,,,,202.15350730001228,202.8043712999788,202.8043712999788,203.3053179999697,45,315,203.3053179999697,203.3053179999697,203.3053179999697,203.3053179999697,203.3053179999697,203.3053179999697,203.3053179999697,203.3053179999697,203.3053179999697,203.67191530001583,203.67191530001583,203.67191530001583,203.67191530001583,203.67191530001583,203.67191530001583,203.67191530001583,203.67191530001583,203.67191530001583,17,4,"[0.16698169999290258, 0.2002636000397615, 0.24994760000845417, 0.3168083000346087]","[0.1835996000445448, 0.216933700023219, 0.30006919999141246, 0.33364319999236614]",203.67191530001583,203.8720628999872,0.0,203.8720628999872,0,0.0,0,1,1000,num_1,0.5953483000048436,,27,14,2026-03-05_14h14.28.475,2026A_exp2,2022.2.4,59.9590839097315,
1000,1,0.0,4.9,1,0,65,65,51,,,,,204.4893371000071,205.14004859997658,205.14004859997658,205.6246095999959,315,45,205.6246095999959,205.6246095999959,205.6246095999959,205.6246095999959,205.6246095999959,205.6246095999959,205.6246095999959,205.6246095999959,205.6246095999959,205.99086299998453,205.99086299998453,205.99086299998453,205.99086299998453,205.99086299998453,205.99086299998453,205.99086299998453,205.99086299998453,205.99086299998453,23,0,,,205.99086299998453,206.19296439999016,1000,206.19296439999016,1000,1000,1000,1000,1,num_2,0.44288139999844134,,27,14,2026-03-05_14h14.28.475,2026A_exp2,2022.2.4,59.9590839097315,
1000,1,4.9,6.1,0,0,66,66,49,,,,,206.65826940000989,207.3088808999746,207.3088808999746,207.79322469996987,45,45,207.79322469996987,207.79322469996987,207.79322469996987,207.79322469996987,207.79322469996987,207.79322469996987,207.79322469996987,207.79322469996987,207.79322469996987,208.15987460000906,208.15987460000906,208.15987460000906,208.15987460000906,208.15987460000906,208.15987460000906,208.15987460000906,208.15987460000906,208.15987460000906,8,4,"[0.0012454999960027635, 0.1000682000303641, 0.18350530002499, 0.23346420004963875]","[0.03334470000118017, 0.15002210001694039, 0.20018400001572445, 0.3666609000065364]",208.15987460000906,208.36171069997363,1000,208.36171069997363,1000,1000,1000,1000,1,num_2,0.4656187000218779,,27,14,2026-03-05_14h14.28.475,2026A_exp2,2022.2.4,59.9590839097315,
1000,1,0.0,6.1,0,0,67,67,85,,,,,208.8436011999729,209.4950336999609,209.4950336999609,209.99540079996223,45,315,209.99540079996223,209.99540079996223,209.99540079996223,209.99540079996223,209.99540079996223,209.99540079996223,209.99540079996223,209.99540079996223,209.99540079996223,210.3618245999678,210.3618245999678,210.3618245999678,210.3618245999678,210.3618245999678,210.3618245999678,210.3618245999678,210.3618245999678,210.3618245999678,0,1,[0.0013842000043950975],[0.3670251999865286],210.3618245999678,210.5632670999621,1000,210.5632670999621,1000,1000,1000,1000,1,num_2,0.39242580003337935,,27,14,2026-03-05_14h14.28.475,2026A_exp2,2022.2.4,59.9590839097315,
1,0,0.0,6.1,1,0,68,68,39,,,,,210.9793044999824,211.62975299998652,211.62975299998652,212.14542010001605,315,45,212.14542010001605,212.14542010001605,212.14542010001605,212.14542010001605,212.14542010001605,212.14542010001605,212.14542010001605,212.14542010001605,212.14542010001605,212.4974491999601,212.4974491999601,212.4974491999601,212.4974491999601,212.4974491999601,212.4974491999601,212.4974491999601,212.4974491999601,212.4974491999601,0,1,[0.00465659995097667],[0.366006699972786],212.4974491999601,212.7037795999786,6.1,212.7037795999786,1,6.1,1,1,1000,num_4,0.4828801999683492,,27,14,2026-03-05_14h14.28.475,2026A_exp2,2022.2.4,59.9590839097315,
1,0,6.1,4.9,1,0,69,69,38,,,,,213.21455669996794,213.8653295999975,213.8653295999975,214.36652430001413,315,315,214.36652430001413,214.36652430001413,214.36652430001413,214.36652430001413,214.36652430001413,214.36652430001413,214.36652430001413,214.36652430001413,214.36652430001413,214.73289719998138,214.73289719998138,214.73289719998138,214.73289719998138,214.73289719998138,214.73289719998138,214.73289719998138,214.73289719998138,214.73289719998138,14,4,"[0.017385900020599365, 0.117019800003618, 0.26711620000423864, 0.3337712000356987]","[0.08357770001748577, 0.13351670000702143, 0.2837005000328645, 0.3671043000067584]",214.73289719998138,214.93315359996632,4.9,214.93315359996632,1,4.9,1,1,1000,num_4,0.4698509000008926,,27,14,2026-03-05_14h14.28.475,2026A_exp2,2022.2.4,59.9590839097315,
1,0,6.1,0.0,1,0,70,70,29,,,,,215.43377259996487,216.06759859999875,216.06759859999875,216.56874089996563,315,45,216.56874089996563,216.56874089996563,216.56874089996563,216.56874089996563,216.56874089996563,216.56874089996563,216.56874089996563,216.56874089996563,216.56874089996563,216.93514389998745,216.93514389998745,216.93514389998745,216.93514389998745,216.93514389998745,216.93514389998745,216.93514389998745,216.93514389998745,216.93514389998745,3,3,"[0.017515900020953268, 0.23382530000526458, 0.31724669999675825]","[0.21735630003968254, 0.3006449000095017, 0.3673797000083141]",216.93514389998745,217.1353026999859,0.0,217.1353026999859,0,0.0,0,1,1000,num_1,0.4591656999546103,,27,14,2026-03-05_14h14.28.475,2026A_exp2,2022.2.4,59.9590839097315,
1,0,0.0,4.9,0,0,71,71,48,,,,,217.61910509999143,218.26987419999205,218.26987419999205,218.75427859998308,315,315,218.75427859998308,218.75427859998308,218.75427859998308,218.75427859998308,218.75427859998308,218.75427859998308,218.75427859998308,218.75427859998308,218.75427859998308,219.1206955999951,219.1206955999951,219.1206955999951,219.1206955999951,219.1206955999951,219.1206955999951,219.1206955999951,219.1206955999951,219.1206955999951,12,6,"[0.017606699955649674, 0.06699309998657554, 0.15049440000439063, 0.2171727999811992, 0.2673112999764271, 0.3507339999778196]","[0.03370480000739917, 0.11708729999372736, 0.16714209999190643, 0.2505875999922864, 0.31740699999500066, 0.3673974999692291]",219.1206955999951,219.32090399996378,0.0,219.32090399996378,0,0.0,0,1,1000,num_1,0.6580119000282139,,27,14,2026-03-05_14h14.28.475,2026A_exp2,2022.2.4,59.9590839097315,
0,0,6.1,0.0,0,0,72,72,65,,,,,220.00473099999363,220.6554538999917,220.6554538999917,221.13991749996785,45,45,221.13991749996785,221.13991749996785,221.13991749996785,221.13991749996785,221.13991749996785,221.13991749996785,221.13991749996785,221.13991749996785,221.13991749996785,221.50641989998985,221.50641989998985,221.50641989998985,221.50641989998985,221.50641989998985,221.50641989998985,221.50641989998985,221.50641989998985,221.50641989998985,23,0,,,221.50641989998985,221.70652169996174,0.0,221.70652169996174,0,0.0,0,1,1000,num_1,0.48038759996416047,,27,14,2026-03-05_14h14.28.475,2026A_exp2,2022.2.4,59.9590839097315,
1,0,6.1,3.7,1,0,73,73,45,,,,,222.20686059998116,222.8577643999597,222.8577643999597,223.34216719999677,45,45,223.34216719999677,223.34216719999677,223.34216719999677,223.34216719999677,223.34216719999677,223.34216719999677,223.34216719999677,223.34216719999677,223.34216719999677,223.70858219999354,223.70858219999354,223.70858219999354,223.70858219999354,223.70858219999354,223.70858219999354,223.70858219999354,223.70858219999354,223.70858219999354,15,4,"[0.0011882000253535807, 0.1503507000161335, 0.20047989999875426, 0.3168928000377491]","[0.033640600042417645, 0.1670365000027232, 0.23388640000484884, 0.3671283000148833]",223.70858219999354,223.90862219996052,3.7,223.90862219996052,0,3.7,1,0,1000,num_1,0.477906999993138,,27,14,2026-03-05_14h14.28.475,2026A_exp2,2022.2.4,59.9590839097315,
1,0,0.0,0.0,1,0,74,74,60,,,,,224.40911249996861,225.0599199999706,225.0599199999706,225.54416579997633,315,45,225.54416579997633,225.54416579997633,225.54416579997633,225.54416579997633,225.54416579997633,225.54416579997633,225.54416579997633,225.54416579997633,225.54416579997633,225.91089449997526,225.91089449997526,225.91089449997526,225.91089449997526,225.91089449997526,225.91089449997526,225.91089449997526,225.91089449997526,225.91089449997526,7,2,"[0.09999730001436546, 0.35056280001299456]","[0.3335594999953173, 0.36691320000682026]",225.91089449997526,226.11115859996062,0.0,226.11115859996062,0,0.0,0,1,1000,num_1,0.45948939997470006,,27,14,2026-03-05_14h14.28.475,2026A_exp2,2022.2.4,59.9590839097315,
1,0,0.0,0.0,0,0,75,75,64,,,,,226.59466269996483,227.2451754999929,227.2451754999929,227.72990889998619,45,45,227.72990889998619,227.72990889998619,227.72990889998619,227.72990889998619,227.72990889998619,227.72990889998619,227.72990889998619,227.72990889998619,227.72990889998619,228.0961004999699,228.0961004999699,228.0961004999699,228.0961004999699,228.0961004999699,228.0961004999699,228.0961004999699,228.0961004999699,228.0961004999699,13,4,"[0.01744139997754246, 0.06676040001912042, 0.26705839997157454, 0.35027729999274015]","[0.050080300017725676, 0.0999491999973543, 0.33348029997432604, 0.36698980000801384]",228.0961004999699,228.29647979995934,0.0,228.29647979995934,1,0.0,0,0,1000,num_4,0.5302349000121467,,27,14,2026-03-05_14h14.28.475,2026A_exp2,2022.2.4,59.9590839097315,
1000,1,0.0,0.0,1,0,76,76,8,,,,,228.84702049999032,229.49764959997265,229.49764959997265,229.98215679998975,45,315,229.98215679998975,229.98215679998975,229.98215679998975,229.98215679998975,229.98215679998975,229.98215679998975,229.98215679998975,229.98215679998975,229.98215679998975,230.34866289998172,230.34866289998172,230.34866289998172,230.34866289998172,230.34866289998172,230.34866289998172,230.34866289998172,230.34866289998172,230.34866289998172,14,7,"[0.0012646999675780535, 0.06671559996902943, 0.09977779997279868, 0.16700010001659393, 0.21697569999378175, 0.2504625999717973, 0.2837071999674663]","[0.01742529997136444, 0.08304120000684634, 0.11678229999961331, 0.20037460001185536, 0.2338609999860637, 0.26708229997893795, 0.3165895999991335]",230.34866289998172,230.55064299999503,1000,230.55064299999503,1000,1000,1000,1000,0,num_3,0.5806972999707796,,27,14,2026-03-05_14h14.28.475,2026A_exp2,2022.2.4,59.9590839097315,
1,0,4.9,0.0,1,0,77,77,52,,,,,231.14928399998462,231.80086680001114,231.80086680001114,232.30114639998646,315,45,232.30114639998646,232.30114639998646,232.30114639998646,232.30114639998646,232.30114639998646,232.30114639998646,232.30114639998646,232.30114639998646,232.30114639998646,232.66746430000057,232.66746430000057,232.66746430000057,232.66746430000057,232.66746430000057,232.66746430000057,232.66746430000057,232.66746430000057,232.66746430000057,19,3,"[0.20052879996364936, 0.300500999961514, 0.3503377999877557]","[0.21705480001401156, 0.3171024000039324, 0.36724429996684194]",232.66746430000057,232.86774059996242,0.0,232.86774059996242,0,0.0,0,1,1000,num_1,0.4389526000013575,,27,14,2026-03-05_14h14.28.475,2026A_exp2,2022.2.4,59.9590839097315,
1000,1,0.0,0.0,1,0,78,78,37,,,,,233.33475569996517,233.98549079999793,233.98549079999793,234.46998739999253,45,315,234.46998739999253,234.46998739999253,234.46998739999253,234.46998739999253,234.46998739999253,234.46998739999253,234.46998739999253,234.46998739999253,234.46998739999253,234.83640929998364,234.83640929998364,234.83640929998364,234.83640929998364,234.83640929998364,234.83640929998364,234.83640929998364,234.83640929998364,234.83640929998364,23,0,,,234.83640929998364,235.03831540001556,1000,235.03831540001556,1000,1000,1000,1000,0,num_3,0.5008188000065275,,27,14,2026-03-05_14h14.28.475,2026A_exp2,2022.2.4,59.9590839097315,
1000,1,0.0,0.0,1,0,79,79,63,,,,,235.5704289000132,236.22106859995984,236.22106859995984,236.7222585999989,45,315,236.7222585999989,236.7222585999989,236.7222585999989,236.7222585999989,236.7222585999989,236.7222585999989,236.7222585999989,236.7222585999989,236.7222585999989,237.07189259998268,237.07189259998268,237.07189259998268,237.07189259998268,237.07189259998268,237.07189259998268,237.07189259998268,237.07189259998268,237.07189259998268,9,5,"[0.050370700017083436, 0.11693509999895468, 0.18356680002762005, 0.25036659999750555, 0.35044000000925735]","[0.0834986999980174, 0.1670581999933347, 0.23364430002402514, 0.317042600014247, 0.3504452999914065]",237.07189259998268,237.27390649996232,1000,237.288851899968,1000,1000,1000,1000,0,num_3,0.43431530002271757,,27,14,2026-03-05_14h14.28.475,2026A_exp2,2022.2.4,59.9590839097315,
1,0,0.0,3.7,1,0,80,80,83,,,,,237.7392364999978,238.38981739996234,238.38981739996234,238.89095319999615,315,315,238.89095319999615,238.89095319999615,238.89095319999615,238.89095319999615,238.89095319999615,238.89095319999615,238.89095319999615,238.89095319999615,238.89095319999615,239.25745189998997,239.25745189998997,239.25745189998997,239.25745189998997,239.25745189998997,239.25745189998997,239.25745189998997,239.25745189998997,239.25745189998997,0,1,[0.0013561000232584774],[0.366929900017567],239.25745189998997,239.45734759996412,3.7,239.45734759996412,1,3.7,1,1,1000,num_4,0.6170898000127636,,27,14,2026-03-05_14h14.28.475,2026A_exp2,2022.2.4,59.9590839097315,
1000,1,6.1,0.0,1,0,81,81,71,,,,,240.0918798999628,240.74223259999417,240.74223259999417,241.22671670001,315,45,241.22671670001,241.22671670001,241.22671670001,241.22671670001,241.22671670001,241.22671670001,241.22671670001,241.22671670001,241.22671670001,241.59313339996152,241.59313339996152,241.59313339996152,241.59313339996152,241.59313339996152,241.59313339996152,241.59313339996152,241.59313339996152,241.59313339996152,18,3,"[0.0012314999476075172, 0.05016849999083206, 0.350410099956207]","[0.017270699958316982, 0.100041700003203, 0.3669886999996379]",241.59313339996152,241.79561839997768,1000,241.79561839997768,1000,1000,1000,1000,0,num_3,0.5116772999754176,,27,14,2026-03-05_14h14.28.475,2026A_exp2,2022.2.4,59.9590839097315,
1,0,3.7,3.7,0,0,82,82,69,,,,,242.32735079998383,242.96099940000568,242.96099940000568,243.462191300001,45,45,243.462191300001,243.462191300001,243.462191300001,243.462191300001,243.462191300001,243.462191300001,243.462191300001,243.462191300001,243.462191300001,243.828647599963,243.828647599963,243.828647599963,243.828647599963,243.828647599963,243.828647599963,243.828647599963,243.828647599963,243.828647599963,12,4,"[0.01735229999758303, 0.08358019997831434, 0.1336264000274241, 0.283829300024081]","[0.033555899979546666, 0.1170564999920316, 0.21713870001258329, 0.3171009999932721]",243.828647599963,244.0288383999723,3.7,244.0288383999723,1,3.7,1,1,1000,num_4,0.6780116999871098,,27,14,2026-03-05_14h14.28.475,2026A_exp2,2022.2.4,59.9590839097315,
1,0,6.1,3.7,0,0,83,83,79,,,,,244.72949910000898,245.38029389997246,245.38029389997246,245.86468669999158,45,45,245.86468669999158,245.86468669999158,245.86468669999158,245.86468669999158,245.86468669999158,245.86468669999158,245.86468669999158,245.86468669999158,245.86468669999158,246.23085739999078,246.23085739999078,246.23085739999078,246.23085739999078,246.23085739999078,246.23085739999078,246.23085739999078,246.23085739999078,246.23085739999078,23,0,,,246.23085739999078,246.43123970000306,6.1,246.43123970000306,1,6.1,1,1,1000,num_4,0.6196173000498675,,27,14,2026-03-05_14h14.28.475,2026A_exp2,2022.2.4,59.9590839097315,
0,0,0.0,6.1,0,0,84,84,12,,,,,247.08181639999384,247.7326000999892,247.7326000999892,248.2335282000131,45,45,248.2335282000131,248.2335282000131,248.2335282000131,248.2335282000131,248.2335282000131,248.2335282000131,248.2335282000131,248.2335282000131,248.2335282000131,248.60018879995914,248.60018879995914,248.60018879995914,248.60018879995914,248.60018879995914,248.60018879995914,248.60018879995914,248.60018879995914,248.60018879995914,17,4,"[0.18356840003980324, 0.28335829998832196, 0.31682040001032874, 0.36682270001620054]","[0.21583689999533817, 0.3000609999871813, 0.35003420000430197, 0.366827399993781]",248.60018879995914,248.80024429998593,6.1,248.80024429998593,1,6.1,1,1,1000,num_4,0.763034500007052,,27,14,2026-03-05_14h14.28.475,2026A_exp2,2022.2.4,59.9590839097315,
1000,1,0.0,6.1,1,0,85,85,40,,,,,249.58446209999966,250.21826140000485,250.21826140000485,250.7195531000034,45,45,250.7195531000034,250.7195531000034,250.7195531000034,250.7195531000034,250.7195531000034,250.7195531000034,250.7195531000034,250.7195531000034,250.7195531000034,251.08602280000923,251.08602280000923,251.08602280000923,251.08602280000923,251.08602280000923,251.08602280000923,251.08602280000923,251.08602280000923,251.08602280000923,19,3,"[0.11689429997932166, 0.2002690999652259, 0.26716139999916777]","[0.13353009999264032, 0.217047999962233, 0.3003960999776609]",251.08602280000923,251.28785439999774,1000,251.28785439999774,1000,1000,1000,1000,1,num_2,0.5390885999659076,,27,14,2026-03-05_14h14.28.475,2026A_exp2,2022.2.4,59.9590839097315,
1000,1,4.9,3.7,1,0,86,86,46,,,,,251.85325889999513,252.5040487999795,252.5040487999795,253.02184120001039,45,315,253.02184120001039,253.02184120001039,253.02184120001039,253.02184120001039,253.02184120001039,253.02184120001039,253.02184120001039,253.02184120001039,253.02184120001039,253.37162920000264,253.37162920000264,253.37162920000264,253.37162920000264,253.37162920000264,253.37162920000264,253.37162920000264,253.37162920000264,253.37162920000264,20,2,"[0.03163790004327893, 0.14771380001911893]","[0.04340790002606809, 0.1978201000019908]",253.37162920000264,253.59965190000366,1000,253.59965190000366,1000,1000,1000,1000,1,num_2,0.4036227000178769,,27,14,2026-03-05_14h14.28.475,2026A_exp2,2022.2.4,59.9590839097315,
1000,1,3.7,3.7,1,0,87,87,25,,,,,254.02227000001585,254.67283170000883,254.67283170000883,255.17405779997353,315,45,255.17405779997353,255.17405779997353,255.17405779997353,255.17405779997353,255.17405779997353,255.17405779997353,255.17405779997353,255.17405779997353,255.17405779997353,255.54038749996107,255.54038749996107,255.54038749996107,255.54038749996107,255.54038749996107,255.54038749996107,255.54038749996107,255.54038749996107,255.54038749996107,22,1,[0.3672012999886647],[0.36720650002826005],255.54038749996107,255.742145599972,1000,255.742145599972,1000,1000,1000,1000,1,num_2,0.7243297999957576,,27,14,2026-03-05_14h14.28.475,2026A_exp2,2022.2.4,59.9590839097315,
1,0,0.0,0.0,1,0,88,88,56,,,,,256.4914596999879,257.142045399989,257.142045399989,257.6431684999843,315,315,257.6431684999843,257.6431684999843,257.6431684999843,257.6431684999843,257.6431684999843,257.6431684999843,257.6431684999843,257.6431684999843,257.6431684999843,257.9928321999614,257.9928321999614,257.9928321999614,257.9928321999614,257.9928321999614,257.9928321999614,257.9928321999614,257.9928321999614,257.9928321999614,17,1,[0.28384440002264455],[0.3505176000180654],257.9928321999614,258.1931358000147,0.0,258.1931358000147,0,0.0,0,1,1000,num_1,0.6173402999993414,,27,14,2026-03-05_14h14.28.475,2026A_exp2,2022.2.4,59.9590839097315,
1,0,4.9,0.0,0,0,89,89,47,,,,,258.8269366999739,259.47756079997635,259.47756079997635,259.9619462999981,315,315,259.9619462999981,259.9619462999981,259.9619462999981,259.9619462999981,259.9619462999981,259.9619462999981,259.9619462999981,259.9619462999981,259.9619462999981,260.32840579998447,260.32840579998447,260.32840579998447,260.32840579998447,260.32840579998447,260.32840579998447,260.32840579998447,260.32840579998447,260.32840579998447,3,2,"[0.017327699984889477, 0.06686039996566251]","[0.03348240000195801, 0.3668409999809228]",260.32840579998447,260.52861779998057,4.9,260.5452067999868,1,4.9,1,1,1000,num_4,0.5618512999499217,,27,14,2026-03-05_14h14.28.475,2026A_exp2,2022.2.4,59.9590839097315,
,,,,,,,,,,,,,,,,,,,,,,,,,,,,,,,,,,,,,,,,,,,,,,,,,,,,261.1327075000154,,,,,,,
