validity,detectorcomp,contrastCW,contrastCCW,precueCWorCCW,block_80trials.thisRepN,block_80trials.thisTrialN,block_80trials.thisN,block_80trials.thisIndex,etRecord.started,etRecord.stopped,text.started,text.stopped,text_4.started,text_4.stopped,text_6.started,text_6.stopped,oriCW,oriCCW,roi_2.started,grating_UR.started,grating_UL.started,grating_LR.started,grating_LL.started,noise_UR.started,noise_UL.started,noise_LR.started,noise_LL.started,roi_2.stopped,grating_UR.stopped,grating_UL.stopped,grating_LR.stopped,grating_LL.stopped,noise_UR.stopped,noise_UL.stopped,noise_LR.stopped,noise_LL.stopped,outframe,roi_2.numLooks,roi_2.timesOn,roi_2.timesOff,text_2.started,text_2.stopped,probedcontrast,key_resp.started,respdetect,relevantContrast,correctDetect,TorFdetect,respCWorCCW,key_resp.keys,key_resp.rt,feedback_display_.started,participantNo,blockNo,date,expName,psychopyVersion,frameRate,
0,0,4.9,0.0,1,0,0,0,26,3.589998232200742e-05,3.589998232200742e-05,51.34021280001616,53.34328530001221,53.34328530001221,53.9772788999835,53.9772788999835,54.49811470002169,45,45,54.49811470002169,54.49811470002169,54.49811470002169,54.49811470002169,54.49811470002169,54.49811470002169,54.49811470002169,54.49811470002169,54.49811470002169,54.84482110000681,54.84482110000681,54.84482110000681,54.84482110000681,54.84482110000681,54.84482110000681,54.84482110000681,54.84482110000681,54.84482110000681,0,1,[0.0009065999765880406],[0.3680672999471426],54.84482110000681,55.04497019998962,4.9,55.04497019998962,1,4.9,1,1,1000,num_4,0.6207656000042334,,27,15,2026-03-05_14h19.14.996,2026A_exp2,2022.2.4,60.19628806510952,
1000,1,0.0,0.0,0,0,1,1,13,,,,,55.6955213000183,56.34638870001072,56.34638870001072,56.8307207999751,45,45,56.8307207999751,56.8307207999751,56.8307207999751,56.8307207999751,56.8307207999751,56.8307207999751,56.8307207999751,56.8307207999751,56.8307207999751,57.197086600004695,57.197086600004695,57.197086600004695,57.197086600004695,57.197086600004695,57.197086600004695,57.197086600004695,57.197086600004695,57.197086600004695,23,0,,,57.197086600004695,57.40231330000097,1000,57.40231330000097,1000,1000,1000,1000,0,num_3,0.5834625999559648,,27,15,2026-03-05_14h19.14.996,2026A_exp2,2022.2.4,60.19628806510952,
1,0,6.1,3.7,1,0,2,2,16,,,,,58.014843599987216,58.66541179997148,58.66541179997148,59.1664758999832,315,45,59.1664758999832,59.1664758999832,59.1664758999832,59.1664758999832,59.1664758999832,59.1664758999832,59.1664758999832,59.1664758999832,59.1664758999832,59.53275559999747,59.53275559999747,59.53275559999747,59.53275559999747,59.53275559999747,59.53275559999747,59.53275559999747,59.53275559999747,59.53275559999747,0,1,[0.0013955000322312117],[0.36730780004290864],59.53275559999747,59.73310860001948,3.7,59.73310860001948,0,3.7,1,0,1000,num_1,0.5012574999709614,,27,15,2026-03-05_14h19.14.996,2026A_exp2,2022.2.4,60.19628806510952,
1000,1,0.0,0.0,1,0,3,3,63,,,,,60.250295599980745,60.90098099998431,60.90098099998431,61.40208919998258,315,45,61.40208919998258,61.40208919998258,61.40208919998258,61.40208919998258,61.40208919998258,61.40208919998258,61.40208919998258,61.40208919998258,61.40208919998258,61.75181240000529,61.75181240000529,61.75181240000529,61.75181240000529,61.75181240000529,61.75181240000529,61.75181240000529,61.75181240000529,61.75181240000529,15,2,"[0.0012663999805226922, 0.11674829997355118]","[0.10019730002386495, 0.13359809998655692]",61.75181240000529,61.95373790001031,1000,61.95373790001031,1000,1000,1000,1000,1,num_2,0.5129924999782816,,27,15,2026-03-05_14h19.14.996,2026A_exp2,2022.2.4,60.19628806510952,
1000,1,0.0,0.0,1,0,4,4,34,,,,,62.485948299989104,63.13651809998555,63.13651809998555,63.637667100003455,315,45,63.637667100003455,63.637667100003455,63.637667100003455,63.637667100003455,63.637667100003455,63.637667100003455,63.637667100003455,63.637667100003455,63.637667100003455,64.00394189998042,64.00394189998042,64.00394189998042,64.00394189998042,64.00394189998042,64.00394189998042,64.00394189998042,64.00394189998042,64.00394189998042,0,1,[0.0012410000199452043],[0.3666114000370726],64.00394189998042,64.20416329998989,1000,64.20416329998989,1000,1000,1000,1000,0,num_3,0.46161930001107976,,27,15,2026-03-05_14h19.14.996,2026A_exp2,2022.2.4,60.19628806510952,
1000,1,6.1,6.1,0,0,5,5,87,,,,,64.68796609999845,65.3220539999893,65.3220539999893,65.82311019999906,315,315,65.82311019999906,65.82311019999906,65.82311019999906,65.82311019999906,65.82311019999906,65.82311019999906,65.82311019999906,65.82311019999906,65.82311019999906,66.18948190001538,66.18948190001538,66.18948190001538,66.18948190001538,66.18948190001538,66.18948190001538,66.18948190001538,66.18948190001538,66.18948190001538,23,0,,,66.18948190001538,66.39160799997626,1000,66.39160799997626,1000,1000,1000,1000,1,num_2,0.40235789999132976,,27,15,2026-03-05_14h19.14.996,2026A_exp2,2022.2.4,60.19628806510952,
1000,1,0.0,0.0,0,0,6,6,2,,,,,66.82345540000824,67.47408790001646,67.47408790001646,67.97534499998437,315,45,67.97534499998437,67.97534499998437,67.97534499998437,67.97534499998437,67.97534499998437,67.97534499998437,67.97534499998437,67.97534499998437,67.97534499998437,68.34171389997937,68.34171389997937,68.34171389997937,68.34171389997937,68.34171389997937,68.34171389997937,68.34171389997937,68.34171389997937,68.34171389997937,0,1,[0.0012351000332273543],[0.3671665000147186],68.34171389997937,68.57039830001304,1000,68.57039830001304,1000,1000,1000,1000,0,num_3,0.5440720000187866,,27,15,2026-03-05_14h19.14.996,2026A_exp2,2022.2.4,60.19628806510952,
1000,1,4.9,0.0,0,0,7,7,45,,,,,69.14233719999902,69.79315420001512,69.79315420001512,70.29435390001163,315,45,70.29435390001163,70.29435390001163,70.29435390001163,70.29435390001163,70.29435390001163,70.29435390001163,70.29435390001163,70.29435390001163,70.29435390001163,70.66071339999326,70.66071339999326,70.66071339999326,70.66071339999326,70.66071339999326,70.66071339999326,70.66071339999326,70.66071339999326,70.66071339999326,0,1,[0.0015363999991677701],[0.3667093000258319],70.66071339999326,70.86289659998147,1000,70.86289659998147,1000,1000,1000,1000,0,num_3,0.4594651000224985,,27,15,2026-03-05_14h19.14.996,2026A_exp2,2022.2.4,60.19628806510952,
1,0,0.0,3.7,0,0,8,8,76,,,,,71.34456850000424,71.99523900001077,71.99523900001077,72.49642229999881,315,315,72.49642229999881,72.49642229999881,72.49642229999881,72.49642229999881,72.49642229999881,72.49642229999881,72.49642229999881,72.49642229999881,72.49642229999881,72.86292759998469,72.86292759998469,72.86292759998469,72.86292759998469,72.86292759998469,72.86292759998469,72.86292759998469,72.86292759998469,72.86292759998469,0,1,[0.0012178000179119408],[0.36716490000253543],72.86292759998469,73.06308019999415,0.0,73.06308019999415,0,0.0,0,1,1000,num_1,0.9399575000279583,,27,15,2026-03-05_14h19.14.996,2026A_exp2,2022.2.4,60.19628806510952,
1000,1,0.0,4.9,0,0,9,9,23,,,,,74.03054359997623,74.6812897999771,74.6812897999771,75.16582090000156,315,315,75.16582090000156,75.16582090000156,75.16582090000156,75.16582090000156,75.16582090000156,75.16582090000156,75.16582090000156,75.16582090000156,75.16582090000156,75.5322135000024,75.5322135000024,75.5322135000024,75.5322135000024,75.5322135000024,75.5322135000024,75.5322135000024,75.5322135000024,75.5322135000024,23,0,,,75.5322135000024,75.73434299998917,1000,75.73434299998917,1000,1000,1000,1000,1,num_2,0.4199518000241369,,27,15,2026-03-05_14h19.14.996,2026A_exp2,2022.2.4,60.19628806510952,
1,0,6.1,3.7,1,0,10,10,83,,,,,76.18277999997372,76.83346599998185,76.83346599998185,77.33466579997912,315,315,77.33466579997912,77.33466579997912,77.33466579997912,77.33466579997912,77.33466579997912,77.33466579997912,77.33466579997912,77.33466579997912,77.33466579997912,77.70101439999416,77.70101439999416,77.70101439999416,77.70101439999416,77.70101439999416,77.70101439999416,77.70101439999416,77.70101439999416,77.70101439999416,0,1,[0.0012218000483699143],[0.3672865000553429],77.70101439999416,77.90117749996716,3.7,77.90117749996716,0,3.7,1,0,1000,num_1,0.4690143999760039,,27,15,2026-03-05_14h19.14.996,2026A_exp2,2022.2.4,60.19628806510952,
1,0,0.0,4.9,1,0,11,11,41,,,,,78.40159590000985,79.05238289997214,79.05238289997214,79.55359769996721,315,45,79.55359769996721,79.55359769996721,79.55359769996721,79.55359769996721,79.55359769996721,79.55359769996721,79.55359769996721,79.55359769996721,79.55359769996721,79.90325009997468,79.90325009997468,79.90325009997468,79.90325009997468,79.90325009997468,79.90325009997468,79.90325009997468,79.90325009997468,79.90325009997468,0,1,[0.0008020999957807362],[0.35132949997205287],79.90325009997468,80.1034908000147,4.9,80.1034908000147,1,4.9,1,1,1000,num_4,0.6909269000170752,,27,15,2026-03-05_14h19.14.996,2026A_exp2,2022.2.4,60.19628806510952,
1000,1,0.0,4.9,1,0,12,12,57,,,,,80.82078539999202,81.47151279996615,81.47151279996615,81.9726471999893,315,45,81.9726471999893,81.9726471999893,81.9726471999893,81.9726471999893,81.9726471999893,81.9726471999893,81.9726471999893,81.9726471999893,81.9726471999893,82.32230399997206,82.32230399997206,82.32230399997206,82.32230399997206,82.32230399997206,82.32230399997206,82.32230399997206,82.32230399997206,82.32230399997206,0,1,[0.0012011000071652234],[0.35048189997905865],82.32230399997206,82.55172759998823,1000,82.55172759998823,1000,1000,1000,1000,1,num_2,0.40196190000278875,,27,15,2026-03-05_14h19.14.996,2026A_exp2,2022.2.4,60.19628806510952,
1,0,0.0,4.9,1,0,13,13,73,,,,,82.97289530001581,83.62369059998309,83.62369059998309,84.12481840001419,315,45,84.12481840001419,84.12481840001419,84.12481840001419,84.12481840001419,84.12481840001419,84.12481840001419,84.12481840001419,84.12481840001419,84.12481840001419,84.49122119997628,84.49122119997628,84.49122119997628,84.49122119997628,84.49122119997628,84.49122119997628,84.49122119997628,84.49122119997628,84.49122119997628,7,3,"[0.001213699986692518, 0.2507114000036381, 0.2836391000309959]","[0.23388600000180304, 0.2669938000035472, 0.31713009998202324]",84.49122119997628,84.69131759996526,4.9,84.69131759996526,1,4.9,1,1,1000,num_4,0.4955850000260398,,27,15,2026-03-05_14h19.14.996,2026A_exp2,2022.2.4,60.19628806510952,
0,0,0.0,4.9,0,0,14,14,65,,,,,85.20848909998313,85.8592657999834,85.8592657999834,86.34372220002115,315,45,86.34372220002115,86.34372220002115,86.34372220002115,86.34372220002115,86.34372220002115,86.34372220002115,86.34372220002115,86.34372220002115,86.34372220002115,86.71002980001504,86.71002980001504,86.71002980001504,86.71002980001504,86.71002980001504,86.71002980001504,86.71002980001504,86.71002980001504,86.71002980001504,23,0,,,86.71002980001504,86.9102436999674,4.9,86.9102436999674,1,4.9,1,1,1000,num_4,0.5322784000309184,,27,15,2026-03-05_14h19.14.996,2026A_exp2,2022.2.4,60.19628806510952,
1,0,0.0,0.0,1,0,15,15,20,,,,,87.46062700002221,88.11137739999685,88.11137739999685,88.59592940000584,45,45,88.59592940000584,88.59592940000584,88.59592940000584,88.59592940000584,88.59592940000584,88.59592940000584,88.59592940000584,88.59592940000584,88.59592940000584,88.96215629996732,88.96215629996732,88.96215629996732,88.96215629996732,88.96215629996732,88.96215629996732,88.96215629996732,88.96215629996732,88.96215629996732,0,1,[0.001252200047019869],[0.36716550000710413],88.96215629996732,89.16255940002156,0.0,89.16255940002156,1,0.0,0,0,1000,num_4,0.5200416999869049,,27,15,2026-03-05_14h19.14.996,2026A_exp2,2022.2.4,60.19628806510952,
0,0,6.1,4.9,1,0,16,16,42,,,,,89.71290159999626,90.36371790000703,90.36371790000703,90.86482070002239,315,45,90.86482070002239,90.86482070002239,90.86482070002239,90.86482070002239,90.86482070002239,90.86482070002239,90.86482070002239,90.86482070002239,90.86482070002239,91.21456350001972,91.21456350001972,91.21456350001972,91.21456350001972,91.21456350001972,91.21456350001972,91.21456350001972,91.21456350001972,91.21456350001972,2,2,"[0.0013153000036254525, 0.13354660000186414]","[0.11645930004306138, 0.3505072999978438]",91.21456350001972,91.4148198000039,6.1,91.4148198000039,1,6.1,1,1,1000,num_4,0.7556991000310518,,27,15,2026-03-05_14h19.14.996,2026A_exp2,2022.2.4,60.19628806510952,
1,0,0.0,0.0,0,0,17,17,6,,,,,92.19912020000629,92.85159079998266,92.85159079998266,93.35082390002208,315,45,93.35082390002208,93.35082390002208,93.35082390002208,93.35082390002208,93.35082390002208,93.35082390002208,93.35082390002208,93.35082390002208,93.35082390002208,93.7170524999965,93.7170524999965,93.7170524999965,93.7170524999965,93.7170524999965,93.7170524999965,93.7170524999965,93.7170524999965,93.7170524999965,9,5,"[0.03338249999796972, 0.11676900001475587, 0.1502866999944672, 0.18345840001711622, 0.3670331999892369]","[0.05012109997915104, 0.13352989999111742, 0.1668482999666594, 0.35028269997565076, 0.36703809996834025]",93.7170524999965,93.91720349999378,0.0,93.91720349999378,0,0.0,0,1,1000,num_1,0.8607047999976203,,27,15,2026-03-05_14h19.14.996,2026A_exp2,2022.2.4,60.19628806510952,
0,0,0.0,4.9,1,0,18,18,33,,,,,94.8013079999946,95.45199879998108,95.45199879998108,95.9364074000041,45,45,95.9364074000041,95.9364074000041,95.9364074000041,95.9364074000041,95.9364074000041,95.9364074000041,95.9364074000041,95.9364074000041,95.9364074000041,96.30301570001757,96.30301570001757,96.30301570001757,96.30301570001757,96.30301570001757,96.30301570001757,96.30301570001757,96.30301570001757,96.30301570001757,18,2,"[0.0012530999956652522, 0.06678949994966388]","[0.0334393999655731, 0.1168636999791488]",96.30301570001757,96.50308100000257,0.0,96.50308100000257,0,0.0,0,1,1000,num_1,0.5953095999429934,,27,15,2026-03-05_14h19.14.996,2026A_exp2,2022.2.4,60.19628806510952,
1,0,4.9,6.1,1,0,19,19,36,,,,,97.12041079998016,97.77108689997112,97.77108689997112,98.25561489997199,45,315,98.25561489997199,98.25561489997199,98.25561489997199,98.25561489997199,98.25561489997199,98.25561489997199,98.25561489997199,98.25561489997199,98.25561489997199,98.62198599998374,98.62198599998374,98.62198599998374,98.62198599998374,98.62198599998374,98.62198599998374,98.62198599998374,98.62198599998374,98.62198599998374,18,1,[0.3005775000201538],[0.36740570003166795],98.62198599998374,98.82213659997797,6.1,98.82213659997797,1,6.1,1,1,1000,num_4,0.5089414999820292,,27,15,2026-03-05_14h19.14.996,2026A_exp2,2022.2.4,60.19628806510952,
1000,1,3.7,4.9,0,0,20,20,25,,,,,99.35590480000246,100.006560800015,100.006560800015,100.49099560000468,315,45,100.49099560000468,100.49099560000468,100.49099560000468,100.49099560000468,100.49099560000468,100.49099560000468,100.49099560000468,100.49099560000468,100.49099560000468,100.85759179998422,100.85759179998422,100.85759179998422,100.85759179998422,100.85759179998422,100.85759179998422,100.85759179998422,100.85759179998422,100.85759179998422,22,1,[0.001215500000398606],[0.017175400047563016],100.85759179998422,101.0594834999647,1000,101.0594834999647,1000,1000,1000,1000,1,num_2,0.7902734000235796,,27,15,2026-03-05_14h19.14.996,2026A_exp2,2022.2.4,60.19628806510952,
1,0,4.9,4.9,1,0,21,21,18,,,,,101.87513910001144,102.52586539997719,102.52586539997719,103.02703300002031,45,45,103.02703300002031,103.02703300002031,103.02703300002031,103.02703300002031,103.02703300002031,103.02703300002031,103.02703300002031,103.02703300002031,103.02703300002031,103.39344489999348,103.39344489999348,103.39344489999348,103.39344489999348,103.39344489999348,103.39344489999348,103.39344489999348,103.39344489999348,103.39344489999348,0,1,[0.0012031999649479985],[0.3671823999611661],103.39344489999348,103.59347889997298,4.9,103.59347889997298,1,4.9,1,1,1000,num_4,0.6481366999796592,,27,15,2026-03-05_14h19.14.996,2026A_exp2,2022.2.4,60.19628806510952,
0,0,0.0,0.0,1,0,22,22,80,,,,,104.26095209998311,104.9115662999684,104.9115662999684,105.39583399996627,45,45,105.39583399996627,105.39583399996627,105.39583399996627,105.39583399996627,105.39583399996627,105.39583399996627,105.39583399996627,105.39583399996627,105.39583399996627,105.76245579996612,105.76245579996612,105.76245579996612,105.76245579996612,105.76245579996612,105.76245579996612,105.76245579996612,105.76245579996612,105.76245579996612,23,0,,,105.76245579996612,105.96264889999293,0.0,105.96264889999293,1,0.0,0,0,1000,num_4,0.7038799999863841,,27,15,2026-03-05_14h19.14.996,2026A_exp2,2022.2.4,60.19628806510952,
1000,1,4.9,0.0,0,0,23,23,12,,,,,106.69662359997164,107.34734330000356,107.34734330000356,107.83182809996651,45,315,107.83182809996651,107.83182809996651,107.83182809996651,107.83182809996651,107.83182809996651,107.83182809996651,107.83182809996651,107.83182809996651,107.83182809996651,108.1982373999781,108.1982373999781,108.1982373999781,108.1982373999781,108.1982373999781,108.1982373999781,108.1982373999781,108.1982373999781,108.1982373999781,23,0,,,108.1982373999781,108.40066739998292,1000,108.40066739998292,1000,1000,1000,1000,0,num_3,0.5382073999498971,,27,15,2026-03-05_14h19.14.996,2026A_exp2,2022.2.4,60.19628806510952,
1000,1,0.0,3.7,0,0,24,24,50,,,,,108.96566059999168,109.6164473000099,109.6164473000099,110.11729520000517,45,315,110.11729520000517,110.11729520000517,110.11729520000517,110.11729520000517,110.11729520000517,110.11729520000517,110.11729520000517,110.11729520000517,110.11729520000517,110.48383859999012,110.48383859999012,110.48383859999012,110.48383859999012,110.48383859999012,110.48383859999012,110.48383859999012,110.48383859999012,110.48383859999012,4,2,"[0.0011966999736614525, 0.300391299999319]","[0.26713649998418987, 0.33377139997901395]",110.48383859999012,110.68578120000893,1000,110.68578120000893,1000,1000,1000,1000,1,num_2,0.4205332999699749,,27,15,2026-03-05_14h19.14.996,2026A_exp2,2022.2.4,60.19628806510952,
1000,1,3.7,3.7,1,0,25,25,54,,,,,111.13438549998682,111.78503829997499,111.78503829997499,112.29537969996454,315,45,112.29537969996454,112.29537969996454,112.29537969996454,112.29537969996454,112.29537969996454,112.29537969996454,112.29537969996454,112.29537969996454,112.29537969996454,112.65269929997157,112.65269929997157,112.65269929997157,112.65269929997157,112.65269929997157,112.65269929997157,112.65269929997157,112.65269929997157,112.65269929997157,5,5,"[0.003409299999475479, 0.04180160001851618, 0.1154009000165388, 0.23148770001716912, 0.2817558000097051]","[0.02637380000669509, 0.08558690000791103, 0.19816410000203177, 0.26489789999322966, 0.36503690003883094]",112.65269929997157,112.85484119999455,1000,112.85484119999455,1000,1000,1000,1000,1,num_2,0.3792397999786772,,27,15,2026-03-05_14h19.14.996,2026A_exp2,2022.2.4,60.19628806510952,
1,0,6.1,0.0,0,0,26,26,77,,,,,113.25342600001022,113.90397240000311,113.90397240000311,114.40505190001568,315,315,114.40505190001568,114.40505190001568,114.40505190001568,114.40505190001568,114.40505190001568,114.40505190001568,114.40505190001568,114.40505190001568,114.40505190001568,114.7548342999653,114.7548342999653,114.7548342999653,114.7548342999653,114.7548342999653,114.7548342999653,114.7548342999653,114.7548342999653,114.7548342999653,22,0,,,114.7548342999653,114.95479809999233,6.1,114.97151910001412,1,6.1,1,1,1000,num_4,0.5668396999826655,,27,15,2026-03-05_14h19.14.996,2026A_exp2,2022.2.4,60.19628806510952,
1,0,0.0,0.0,0,0,27,27,22,,,,,115.55542869999772,116.20626060001086,116.20626060001086,116.69068010000046,315,45,116.69068010000046,116.69068010000046,116.69068010000046,116.69068010000046,116.69068010000046,116.69068010000046,116.69068010000046,116.69068010000046,116.69068010000046,117.05705250002211,117.05705250002211,117.05705250002211,117.05705250002211,117.05705250002211,117.05705250002211,117.05705250002211,117.05705250002211,117.05705250002211,23,0,,,117.05705250002211,117.25734379998175,0.0,117.25734379998175,1,0.0,0,0,1000,num_4,0.5764180999831297,,27,15,2026-03-05_14h19.14.996,2026A_exp2,2022.2.4,60.19628806510952,
1,0,0.0,3.7,0,0,28,28,64,,,,,117.85791740001878,118.50853950000601,118.50853950000601,119.0094698999892,315,45,119.0094698999892,119.0094698999892,119.0094698999892,119.0094698999892,119.0094698999892,119.0094698999892,119.0094698999892,119.0094698999892,119.0094698999892,119.3760269000195,119.3760269000195,119.3760269000195,119.3760269000195,119.3760269000195,119.3760269000195,119.3760269000195,119.3760269000195,119.3760269000195,13,5,"[0.06637680000858381, 0.18346349999774247, 0.2167695999960415, 0.2836109999916516, 0.3670210000127554]","[0.0832380999927409, 0.20017999998526648, 0.26688150002155453, 0.3502567000105046, 0.367026399995666]",119.3760269000195,119.5762442999985,0.0,119.5762442999985,0,0.0,0,1,1000,num_1,0.6500696999719366,,27,15,2026-03-05_14h19.14.996,2026A_exp2,2022.2.4,60.19628806510952,
0,0,0.0,6.1,1,0,29,29,46,,,,,120.24346029997105,120.8942768999841,120.8942768999841,121.3785354999709,315,315,121.3785354999709,121.3785354999709,121.3785354999709,121.3785354999709,121.3785354999709,121.3785354999709,121.3785354999709,121.3785354999709,121.3785354999709,121.74527030001627,121.74527030001627,121.74527030001627,121.74527030001627,121.74527030001627,121.74527030001627,121.74527030001627,121.74527030001627,121.74527030001627,23,0,,,121.74527030001627,121.94533550000051,0.0,121.94533550000051,0,0.0,0,1,1000,num_1,0.6248229000484571,,27,15,2026-03-05_14h19.14.996,2026A_exp2,2022.2.4,60.19628806510952,
1,0,3.7,3.7,0,0,30,30,60,,,,,122.59759479999775,123.24623849999625,123.24623849999625,123.74744830001146,45,45,123.74744830001146,123.74744830001146,123.74744830001146,123.74744830001146,123.74744830001146,123.74744830001146,123.74744830001146,123.74744830001146,123.74744830001146,124.11402939999243,124.11402939999243,124.11402939999243,124.11402939999243,124.11402939999243,124.11402939999243,124.11402939999243,124.11402939999243,124.11402939999243,9,8,"[0.0007174999918788671, 0.033575600013136864, 0.06693859997903928, 0.13366380002116784, 0.18414500000653788, 0.25050359999295324, 0.3187474000151269, 0.35062109999125823]","[0.017305799992755055, 0.05016119999345392, 0.11687039997195825, 0.15043089998653159, 0.23383819998707622, 0.3003401000169106, 0.3340864999918267, 0.3681685000192374]",124.11402939999243,124.31405799998902,3.7,124.31405799998902,0,3.7,1,0,1000,num_1,0.6716419000294991,,27,15,2026-03-05_14h19.14.996,2026A_exp2,2022.2.4,60.19628806510952,
1,0,4.9,0.0,0,0,31,31,47,,,,,125.01476360001834,125.64877139998134,125.64877139998134,126.1506491000182,45,45,126.1506491000182,126.1506491000182,126.1506491000182,126.1506491000182,126.1506491000182,126.1506491000182,126.1506491000182,126.1506491000182,126.1506491000182,126.51604329998372,126.51604329998372,126.51604329998372,126.51604329998372,126.51604329998372,126.51604329998372,126.51604329998372,126.51604329998372,126.51604329998372,0,1,[0.0007857999880798161],[0.3670993000268936],126.51604329998372,126.71629219996976,4.9,126.71629219996976,1,4.9,1,1,1000,num_4,0.5254328000009991,,27,15,2026-03-05_14h19.14.996,2026A_exp2,2022.2.4,60.19628806510952,
1000,1,0.0,3.7,1,0,32,32,67,,,,,127.26695339998696,127.90077319997363,127.90077319997363,128.40196509996895,45,315,128.40196509996895,128.40196509996895,128.40196509996895,128.40196509996895,128.40196509996895,128.40196509996895,128.40196509996895,128.40196509996895,128.40196509996895,128.76845789997606,128.76845789997606,128.76845789997606,128.76845789997606,128.76845789997606,128.76845789997606,128.76845789997606,128.76845789997606,128.76845789997606,23,0,,,128.76845789997606,128.96889660001034,1000,128.96889660001034,1000,1000,1000,1000,1,num_2,0.6174061999772675,,27,15,2026-03-05_14h19.14.996,2026A_exp2,2022.2.4,60.19628806510952,
1000,1,0.0,0.0,1,0,33,33,44,,,,,129.60288989997935,130.25358660001075,130.25358660001075,130.7547198999673,45,315,130.7547198999673,130.7547198999673,130.7547198999673,130.7547198999673,130.7547198999673,130.7547198999673,130.7547198999673,130.7547198999673,130.7547198999673,131.1211917999899,131.1211917999899,131.1211917999899,131.1211917999899,131.1211917999899,131.1211917999899,131.1211917999899,131.1211917999899,131.1211917999899,2,2,"[0.001234699971973896, 0.050081799970939755]","[0.017237299995031208, 0.36703129997476935]",131.1211917999899,131.32347629999276,1000,131.32347629999276,1000,1000,1000,1000,1,num_2,0.43886699998984113,,27,15,2026-03-05_14h19.14.996,2026A_exp2,2022.2.4,60.19628806510952,
0,0,6.1,6.1,1,0,34,34,48,,,,,131.78833820001455,132.43907959997887,132.43907959997887,132.9400552000152,45,315,132.9400552000152,132.9400552000152,132.9400552000152,132.9400552000152,132.9400552000152,132.9400552000152,132.9400552000152,132.9400552000152,132.9400552000152,133.306634699984,133.306634699984,133.306634699984,133.306634699984,133.306634699984,133.306634699984,133.306634699984,133.306634699984,133.306634699984,17,5,"[0.0012866000179201365, 0.05016030004480854, 0.11690170003566891, 0.2336992000346072, 0.267083500046283]","[0.03344740002648905, 0.06690750003326684, 0.15023590001510456, 0.25049340003170073, 0.2837574000004679]",133.306634699984,133.50681130000157,6.1,133.50681130000157,0,6.1,1,0,1000,num_1,0.7189439999638125,,27,15,2026-03-05_14h19.14.996,2026A_exp2,2022.2.4,60.19628806510952,
1,0,3.7,0.0,0,0,35,35,10,,,,,134.25767939997604,134.90830750000896,134.90830750000896,135.3927089999779,315,45,135.3927089999779,135.3927089999779,135.3927089999779,135.3927089999779,135.3927089999779,135.3927089999779,135.3927089999779,135.3927089999779,135.3927089999779,135.7591439000098,135.7591439000098,135.7591439000098,135.7591439000098,135.7591439000098,135.7591439000098,135.7591439000098,135.7591439000098,135.7591439000098,23,0,,,135.7591439000098,135.95917079999344,3.7,135.95917079999344,1,3.7,1,1,1000,num_4,0.7315502999699675,,27,15,2026-03-05_14h19.14.996,2026A_exp2,2022.2.4,60.19628806510952,
1,0,0.0,3.7,1,0,36,36,30,,,,,136.70989960001316,137.36064979998628,137.36064979998628,137.84510899998713,45,45,137.84510899998713,137.84510899998713,137.84510899998713,137.84510899998713,137.84510899998713,137.84510899998713,137.84510899998713,137.84510899998713,137.84510899998713,138.21152479999,138.21152479999,138.21152479999,138.21152479999,138.21152479999,138.21152479999,138.21152479999,138.21152479999,138.21152479999,23,0,,,138.21152479999,138.41193399997428,3.7,138.41193399997428,1,3.7,1,1,1000,num_4,1.125961699988693,,27,15,2026-03-05_14h19.14.996,2026A_exp2,2022.2.4,60.19628806510952,
1000,1,0.0,0.0,1,0,37,37,35,,,,,139.5633665000205,140.19687899999553,140.19687899999553,140.69778430002043,315,45,140.69778430002043,140.69778430002043,140.69778430002043,140.69778430002043,140.69778430002043,140.69778430002043,140.69778430002043,140.69778430002043,140.69778430002043,141.0644741000142,141.0644741000142,141.0644741000142,141.0644741000142,141.0644741000142,141.0644741000142,141.0644741000142,141.0644741000142,141.0644741000142,15,5,"[0.050348800024949014, 0.15045449999161065, 0.20054779999190941, 0.2504859000327997, 0.28385379997780547]","[0.06708730000536889, 0.16718889999901876, 0.2171628000214696, 0.26732099999208003, 0.3506857000174932]",141.0644741000142,141.29223879997153,1000,141.29223879997153,1000,1000,1000,1000,0,num_3,0.541849999979604,,27,15,2026-03-05_14h19.14.996,2026A_exp2,2022.2.4,60.19628806510952,
1000,1,0.0,6.1,0,0,38,38,27,,,,,141.86526839999715,142.5251165999798,142.5251165999798,143.0169082999928,315,45,143.0169082999928,143.0169082999928,143.0169082999928,143.0169082999928,143.0169082999928,143.0169082999928,143.0169082999928,143.0169082999928,143.0169082999928,143.36674879997736,143.36674879997736,143.36674879997736,143.36674879997736,143.36674879997736,143.36674879997736,143.36674879997736,143.36674879997736,143.36674879997736,20,1,[0.20041990000754595],[0.2337752000312321],143.36674879997736,143.56894600001397,1000,143.58360090001952,1000,1000,1000,1000,1,num_2,0.4267922999570146,,27,15,2026-03-05_14h19.14.996,2026A_exp2,2022.2.4,60.19628806510952,
1,0,0.0,0.0,0,0,39,39,85,,,,,144.03385890001664,144.68471960001625,144.68471960001625,145.18557269999292,45,315,145.18557269999292,145.18557269999292,145.18557269999292,145.18557269999292,145.18557269999292,145.18557269999292,145.18557269999292,145.18557269999292,145.18557269999292,145.55220829998143,145.55220829998143,145.55220829998143,145.55220829998143,145.55220829998143,145.55220829998143,145.55220829998143,145.55220829998143,145.55220829998143,23,0,,,145.55220829998143,145.75240369996754,0.0,145.75240369996754,1,0.0,0,0,1000,num_4,0.817972099990584,,27,15,2026-03-05_14h19.14.996,2026A_exp2,2022.2.4,60.19628806510952,
1000,1,0.0,0.0,0,0,40,40,79,,,,,146.58649179997155,147.23712399997748,147.23712399997748,147.72165000002133,315,315,147.72165000002133,147.72165000002133,147.72165000002133,147.72165000002133,147.72165000002133,147.72165000002133,147.72165000002133,147.72165000002133,147.72165000002133,148.0879041000153,148.0879041000153,148.0879041000153,148.0879041000153,148.0879041000153,148.0879041000153,148.0879041000153,148.0879041000153,148.0879041000153,23,0,,,148.0879041000153,148.2902177000069,1000,148.2902177000069,1000,1000,1000,1000,0,num_3,0.6315224000136368,,27,15,2026-03-05_14h19.14.996,2026A_exp2,2022.2.4,60.19628806510952,
1000,1,6.1,4.9,1,0,41,41,15,,,,,148.9388314000098,149.58959679998225,149.58959679998225,150.09078979998594,45,315,150.09078979998594,150.09078979998594,150.09078979998594,150.09078979998594,150.09078979998594,150.09078979998594,150.09078979998594,150.09078979998594,150.09078979998594,150.4404776999727,150.4404776999727,150.4404776999727,150.4404776999727,150.4404776999727,150.4404776999727,150.4404776999727,150.4404776999727,150.4404776999727,22,0,,,150.4404776999727,150.64247989997966,1000,150.65743309998652,1000,1000,1000,1000,0,num_3,0.5857126999762841,,27,15,2026-03-05_14h19.14.996,2026A_exp2,2022.2.4,60.19628806510952,
0,0,0.0,0.0,1,0,42,42,14,,,,,151.27462420001393,151.92528460000176,151.92528460000176,152.42653300001984,45,315,152.42653300001984,152.42653300001984,152.42653300001984,152.42653300001984,152.42653300001984,152.42653300001984,152.42653300001984,152.42653300001984,152.42653300001984,152.79274710000027,152.79274710000027,152.79274710000027,152.79274710000027,152.79274710000027,152.79274710000027,152.79274710000027,152.79274710000027,152.79274710000027,23,0,,,152.79274710000027,152.99301239999477,0.0,152.99301239999477,1,0.0,0,0,1000,num_4,0.6816256999736652,,27,15,2026-03-05_14h19.14.996,2026A_exp2,2022.2.4,60.19628806510952,
1000,1,3.7,0.0,1,0,43,43,38,,,,,153.69383910001488,154.3443492000224,154.3443492000224,154.84548590000486,45,315,154.84548590000486,154.84548590000486,154.84548590000486,154.84548590000486,154.84548590000486,154.84548590000486,154.84548590000486,154.84548590000486,154.84548590000486,155.21164649998536,155.21164649998536,155.21164649998536,155.21164649998536,155.21164649998536,155.21164649998536,155.21164649998536,155.21164649998536,155.21164649998536,23,0,,,155.21164649998536,155.41394689999288,1000,155.41394689999288,1000,1000,1000,1000,0,num_3,0.4445677999756299,,27,15,2026-03-05_14h19.14.996,2026A_exp2,2022.2.4,60.19628806510952,
1,0,0.0,0.0,1,0,44,44,4,,,,,155.87913529999787,156.52982110000448,156.52982110000448,157.03103389998432,45,45,157.03103389998432,157.03103389998432,157.03103389998432,157.03103389998432,157.03103389998432,157.03103389998432,157.03103389998432,157.03103389998432,157.03103389998432,157.39735230000224,157.39735230000224,157.39735230000224,157.39735230000224,157.39735230000224,157.39735230000224,157.39735230000224,157.39735230000224,157.39735230000224,0,1,[0.001201000006403774],[0.3671870999969542],157.39735230000224,157.59762319998117,0.0,157.59762319998117,0,0.0,0,1,1000,num_1,0.5411761999712326,,27,15,2026-03-05_14h19.14.996,2026A_exp2,2022.2.4,60.19628806510952,
1000,1,6.1,0.0,0,0,45,45,21,,,,,158.16470399999525,158.8154939999804,158.8154939999804,159.2998541999841,315,315,159.2998541999841,159.2998541999841,159.2998541999841,159.2998541999841,159.2998541999841,159.2998541999841,159.2998541999841,159.2998541999841,159.2998541999841,159.66631010000128,159.66631010000128,159.66631010000128,159.66631010000128,159.66631010000128,159.66631010000128,159.66631010000128,159.66631010000128,159.66631010000128,23,0,,,159.66631010000128,159.86824739997974,1000,159.86824739997974,1000,1000,1000,1000,0,num_3,0.4464217000058852,,27,15,2026-03-05_14h19.14.996,2026A_exp2,2022.2.4,60.19628806510952,
1,0,4.9,6.1,0,0,46,46,29,,,,,160.33355330000632,160.98428330000024,160.98428330000024,161.48536400002195,315,45,161.48536400002195,161.48536400002195,161.48536400002195,161.48536400002195,161.48536400002195,161.48536400002195,161.48536400002195,161.48536400002195,161.48536400002195,161.85180429997854,161.85180429997854,161.85180429997854,161.85180429997854,161.85180429997854,161.85180429997854,161.85180429997854,161.85180429997854,161.85180429997854,10,5,"[0.0007515999604947865, 0.08408649999182671, 0.13414879998890683, 0.26753199996892363, 0.35088189999805763]","[0.033840599993709475, 0.11742169997887686, 0.184129299945198, 0.3340675999643281, 0.36759459995664656]",161.85180429997854,162.0520982000162,4.9,162.0520982000162,0,4.9,1,0,1000,num_1,0.662715999991633,,27,15,2026-03-05_14h19.14.996,2026A_exp2,2022.2.4,60.19628806510952,
1000,1,3.7,0.0,0,0,47,47,81,,,,,162.73600169998826,163.38666660001036,163.38666660001036,163.8710856999969,45,315,163.8710856999969,163.8710856999969,163.8710856999969,163.8710856999969,163.8710856999969,163.8710856999969,163.8710856999969,163.8710856999969,163.8710856999969,164.23762829997577,164.23762829997577,164.23762829997577,164.23762829997577,164.23762829997577,164.23762829997577,164.23762829997577,164.23762829997577,164.23762829997577,23,0,,,164.23762829997577,164.4396828999743,1000,164.4396828999743,1000,1000,1000,1000,0,num_3,0.45805150002706796,,27,15,2026-03-05_14h19.14.996,2026A_exp2,2022.2.4,60.19628806510952,
0,0,3.7,3.7,1,0,48,48,62,,,,,164.92150429997128,165.57209109998075,165.57209109998075,166.07328660000348,315,315,166.07328660000348,166.07328660000348,166.07328660000348,166.07328660000348,166.07328660000348,166.07328660000348,166.07328660000348,166.07328660000348,166.07328660000348,166.43966289999662,166.43966289999662,166.43966289999662,166.43966289999662,166.43966289999662,166.43966289999662,166.43966289999662,166.43966289999662,166.43966289999662,0,1,[0.0012042999733239412],[0.36719419999280944],166.43966289999662,166.6398633000208,3.7,166.6398633000208,0,3.7,1,0,1000,num_1,0.6026232999865897,,27,15,2026-03-05_14h19.14.996,2026A_exp2,2022.2.4,60.19628806510952,
1000,1,4.9,0.0,1,0,49,49,56,,,,,167.2737995000207,167.92467989999568,167.92467989999568,168.40909139998257,315,315,168.40909139998257,168.40909139998257,168.40909139998257,168.40909139998257,168.40909139998257,168.40909139998257,168.40909139998257,168.40909139998257,168.40909139998257,168.7758087000111,168.7758087000111,168.7758087000111,168.7758087000111,168.7758087000111,168.7758087000111,168.7758087000111,168.7758087000111,168.7758087000111,23,0,,,168.7758087000111,168.97750249999808,1000,168.97750249999808,1000,1000,1000,1000,0,num_3,0.3850889999885112,,27,15,2026-03-05_14h19.14.996,2026A_exp2,2022.2.4,60.19628806510952,
1,0,4.9,3.7,1,0,50,50,71,,,,,169.3926859999774,170.04333630000474,170.04333630000474,170.54437249997864,315,315,170.54437249997864,170.54437249997864,170.54437249997864,170.54437249997864,170.54437249997864,170.54437249997864,170.54437249997864,170.54437249997864,170.54437249997864,170.91098669997882,170.91098669997882,170.91098669997882,170.91098669997882,170.91098669997882,170.91098669997882,170.91098669997882,170.91098669997882,170.91098669997882,22,1,[0.2834732999908738],[0.3003799999714829],170.91098669997882,171.11123009998119,3.7,171.11123009998119,1,3.7,1,1,1000,num_4,0.7791436000261456,,27,15,2026-03-05_14h19.14.996,2026A_exp2,2022.2.4,60.19628806510952,
1,0,0.0,0.0,1,0,51,51,59,,,,,171.9118267999729,172.57363280002028,172.57363280002028,173.04698199999984,315,315,173.04698199999984,173.04698199999984,173.04698199999984,173.04698199999984,173.04698199999984,173.04698199999984,173.04698199999984,173.04698199999984,173.04698199999984,173.41344510001363,173.41344510001363,173.41344510001363,173.41344510001363,173.41344510001363,173.41344510001363,173.41344510001363,173.41344510001363,173.41344510001363,23,0,,,173.41344510001363,173.6136352000176,0.0,173.6136352000176,0,0.0,0,1,1000,num_1,0.4130697000073269,,27,15,2026-03-05_14h19.14.996,2026A_exp2,2022.2.4,60.19628806510952,
1,0,0.0,0.0,0,0,52,52,39,,,,,174.04756490001455,174.6980603999691,174.6980603999691,175.1825094000087,315,45,175.1825094000087,175.1825094000087,175.1825094000087,175.1825094000087,175.1825094000087,175.1825094000087,175.1825094000087,175.1825094000087,175.1825094000087,175.54885520000244,175.54885520000244,175.54885520000244,175.54885520000244,175.54885520000244,175.54885520000244,175.54885520000244,175.54885520000244,175.54885520000244,23,0,,,175.54885520000244,175.7491291000042,0.0,175.7491291000042,1,0.0,0,0,1000,num_4,0.6457851000013761,,27,15,2026-03-05_14h19.14.996,2026A_exp2,2022.2.4,60.19628806510952,
1,0,0.0,0.0,0,0,53,53,11,,,,,176.41637539997464,177.06706349999877,177.06706349999877,177.56819540000288,45,45,177.56819540000288,177.56819540000288,177.56819540000288,177.56819540000288,177.56819540000288,177.56819540000288,177.56819540000288,177.56819540000288,177.56819540000288,177.91774509998504,177.91774509998504,177.91774509998504,177.91774509998504,177.91774509998504,177.91774509998504,177.91774509998504,177.91774509998504,177.91774509998504,22,0,,,177.91774509998504,178.11804540001322,0.0,178.11804540001322,1,0.0,0,0,1000,num_4,0.5396191999898292,,27,15,2026-03-05_14h19.14.996,2026A_exp2,2022.2.4,60.19628806510952,
1,0,0.0,6.1,1,0,54,54,5,,,,,178.685202499968,179.33595759997843,179.33595759997843,179.8203693999676,315,45,179.8203693999676,179.8203693999676,179.8203693999676,179.8203693999676,179.8203693999676,179.8203693999676,179.8203693999676,179.8203693999676,179.8203693999676,180.18695940001635,180.18695940001635,180.18695940001635,180.18695940001635,180.18695940001635,180.18695940001635,180.18695940001635,180.18695940001635,180.18695940001635,23,0,,,180.18695940001635,180.39993539999705,6.1,180.39993539999705,1,6.1,1,1,1000,num_4,0.410495100019034,,27,15,2026-03-05_14h19.14.996,2026A_exp2,2022.2.4,60.19628806510952,
1000,1,0.0,3.7,1,0,55,55,82,,,,,180.8373923000181,181.48816359997727,181.48816359997727,181.98922290001065,45,315,181.98922290001065,181.98922290001065,181.98922290001065,181.98922290001065,181.98922290001065,181.98922290001065,181.98922290001065,181.98922290001065,181.98922290001065,182.35564680001698,182.35564680001698,182.35564680001698,182.35564680001698,182.35564680001698,182.35564680001698,182.35564680001698,182.35564680001698,182.35564680001698,23,0,,,182.35564680001698,182.55762029998004,1000,182.55762029998004,1000,1000,1000,1000,0,num_3,0.8847078999970108,,27,15,2026-03-05_14h19.14.996,2026A_exp2,2022.2.4,60.19628806510952,
1000,1,3.7,6.1,1,0,56,56,43,,,,,183.47339870000724,184.1240048999898,184.1240048999898,184.62519619998056,315,315,184.62519619998056,184.62519619998056,184.62519619998056,184.62519619998056,184.62519619998056,184.62519619998056,184.62519619998056,184.62519619998056,184.62519619998056,184.97492910001893,184.97492910001893,184.97492910001893,184.97492910001893,184.97492910001893,184.97492910001893,184.97492910001893,184.97492910001893,184.97492910001893,22,0,,,184.97492910001893,185.17731559998356,1000,185.17731559998356,1000,1000,1000,1000,1,num_2,0.6006959999795072,,27,15,2026-03-05_14h19.14.996,2026A_exp2,2022.2.4,60.19628806510952,
1,0,6.1,6.1,0,0,57,57,89,,,,,185.8090749999974,186.45967459998792,186.45967459998792,186.96080820000498,315,45,186.96080820000498,186.96080820000498,186.96080820000498,186.96080820000498,186.96080820000498,186.96080820000498,186.96080820000498,186.96080820000498,186.96080820000498,187.32731319998857,187.32731319998857,187.32731319998857,187.32731319998857,187.32731319998857,187.32731319998857,187.32731319998857,187.32731319998857,187.32731319998857,22,1,[0.300388700037729],[0.31711790000554174],187.32731319998857,187.52753349998966,6.1,187.52753349998966,0,6.1,1,0,1000,num_1,0.6827720999717712,,27,15,2026-03-05_14h19.14.996,2026A_exp2,2022.2.4,60.19628806510952,
1000,1,0.0,3.7,1,0,58,58,1,,,,,188.2280235000071,188.87885959999403,188.87885959999403,189.36325369996484,315,45,189.36325369996484,189.36325369996484,189.36325369996484,189.36325369996484,189.36325369996484,189.36325369996484,189.36325369996484,189.36325369996484,189.36325369996484,189.7297698999755,189.7297698999755,189.7297698999755,189.7297698999755,189.7297698999755,189.7297698999755,189.7297698999755,189.7297698999755,189.7297698999755,23,0,,,189.7297698999755,189.9299343000166,1000,189.9299343000166,1000,1000,1000,1000,1,num_2,0.41638259997125715,,27,15,2026-03-05_14h19.14.996,2026A_exp2,2022.2.4,60.19628806510952,
1000,1,4.9,0.0,0,0,59,59,37,,,,,190.36369610001566,191.01439540000865,191.01439540000865,191.49884309998015,315,45,191.49884309998015,191.49884309998015,191.49884309998015,191.49884309998015,191.49884309998015,191.49884309998015,191.49884309998015,191.49884309998015,191.49884309998015,191.86503709998215,191.86503709998215,191.86503709998215,191.86503709998215,191.86503709998215,191.86503709998215,191.86503709998215,191.86503709998215,191.86503709998215,22,1,[0.3338456000201404],[0.35058480000589043],191.86503709998215,192.06742009997834,1000,192.06742009997834,1000,1000,1000,1000,0,num_3,0.4230105000315234,,27,15,2026-03-05_14h19.14.996,2026A_exp2,2022.2.4,60.19628806510952,
1000,1,0.0,0.0,1,0,60,60,88,,,,,192.5160320000141,193.1663819999667,193.1663819999667,193.65088540001307,315,315,193.65088540001307,193.65088540001307,193.65088540001307,193.65088540001307,193.65088540001307,193.65088540001307,193.65088540001307,193.65088540001307,193.65088540001307,194.01740900002187,194.01740900002187,194.01740900002187,194.01740900002187,194.01740900002187,194.01740900002187,194.01740900002187,194.01740900002187,194.01740900002187,23,0,,,194.01740900002187,194.21950020000804,1000,194.21950020000804,1000,1000,1000,1000,1,num_2,0.5271371999988332,,27,15,2026-03-05_14h19.14.996,2026A_exp2,2022.2.4,60.19628806510952,
1,0,6.1,6.1,1,0,61,61,49,,,,,194.76794519997202,195.41875780001283,195.41875780001283,195.9199453999754,315,45,195.9199453999754,195.9199453999754,195.9199453999754,195.9199453999754,195.9199453999754,195.9199453999754,195.9199453999754,195.9199453999754,195.9199453999754,196.28638980002142,196.28638980002142,196.28638980002142,196.28638980002142,196.28638980002142,196.28638980002142,196.28638980002142,196.28638980002142,196.28638980002142,23,0,,,196.28638980002142,196.48645729996497,6.1,196.48645729996497,1,6.1,1,1,1000,num_4,0.7315442999824882,,27,15,2026-03-05_14h19.14.996,2026A_exp2,2022.2.4,60.19628806510952,
1,0,0.0,0.0,0,0,62,62,32,,,,,197.23711509996792,197.887917199987,197.887917199987,198.37232670001686,315,315,198.37232670001686,198.37232670001686,198.37232670001686,198.37232670001686,198.37232670001686,198.37232670001686,198.37232670001686,198.37232670001686,198.37232670001686,198.73873520002235,198.73873520002235,198.73873520002235,198.73873520002235,198.73873520002235,198.73873520002235,198.73873520002235,198.73873520002235,198.73873520002235,23,0,,,198.73873520002235,198.9389027999714,0.0,198.9389027999714,0,0.0,0,1,1000,num_1,0.5266560000018217,,27,15,2026-03-05_14h19.14.996,2026A_exp2,2022.2.4,60.19628806510952,
1,0,0.0,0.0,1,0,63,63,58,,,,,199.48927510000067,200.12331599998288,200.12331599998288,200.62443249998614,45,315,200.62443249998614,200.62443249998614,200.62443249998614,200.62443249998614,200.62443249998614,200.62443249998614,200.62443249998614,200.62443249998614,200.62443249998614,200.9909613999771,200.9909613999771,200.9909613999771,200.9909613999771,200.9909613999771,200.9909613999771,200.9909613999771,200.9909613999771,200.9909613999771,23,0,,,200.9909613999771,201.19117239996558,0.0,201.19117239996558,0,0.0,0,1,1000,num_1,0.9386156999971718,,27,15,2026-03-05_14h19.14.996,2026A_exp2,2022.2.4,60.19628806510952,
1,0,0.0,0.0,0,0,64,64,61,,,,,202.1590869000065,202.80928019998828,202.80928019998828,203.29386069998145,45,45,203.29386069998145,203.29386069998145,203.29386069998145,203.29386069998145,203.29386069998145,203.29386069998145,203.29386069998145,203.29386069998145,203.29386069998145,203.66037499997765,203.66037499997765,203.66037499997765,203.66037499997765,203.66037499997765,203.66037499997765,203.66037499997765,203.66037499997765,203.66037499997765,23,0,,,203.66037499997765,203.8604711999651,0.0,203.8604711999651,1,0.0,0,0,1000,num_4,0.6932857999927364,,27,15,2026-03-05_14h19.14.996,2026A_exp2,2022.2.4,60.19628806510952,
1,0,6.1,0.0,1,0,65,65,17,,,,,204.57778290001443,205.228638999979,205.228638999979,205.71298140002182,315,45,205.71298140002182,205.71298140002182,205.71298140002182,205.71298140002182,205.71298140002182,205.71298140002182,205.71298140002182,205.71298140002182,205.71298140002182,206.07928040000843,206.07928040000843,206.07928040000843,206.07928040000843,206.07928040000843,206.07928040000843,206.07928040000843,206.07928040000843,206.07928040000843,23,0,,,206.07928040000843,206.27969679998932,0.0,206.27969679998932,0,0.0,0,1,1000,num_1,0.49865059996955097,,27,15,2026-03-05_14h19.14.996,2026A_exp2,2022.2.4,60.19628806510952,
1000,1,6.1,6.1,1,0,66,66,53,,,,,206.79664780001622,207.4475000000093,207.4475000000093,207.93184849998215,315,315,207.93184849998215,207.93184849998215,207.93184849998215,207.93184849998215,207.93184849998215,207.93184849998215,207.93184849998215,207.93184849998215,207.93184849998215,208.2983676000149,208.2983676000149,208.2983676000149,208.2983676000149,208.2983676000149,208.2983676000149,208.2983676000149,208.2983676000149,208.2983676000149,23,0,,,208.2983676000149,208.50011249998352,1000,208.50011249998352,1000,1000,1000,1000,1,num_2,0.5588208999834023,,27,15,2026-03-05_14h19.14.996,2026A_exp2,2022.2.4,60.19628806510952,
1000,1,3.7,0.0,0,0,67,67,55,,,,,209.0822808999801,209.73306319996482,209.73306319996482,210.23415699996985,45,315,210.23415699996985,210.23415699996985,210.23415699996985,210.23415699996985,210.23415699996985,210.23415699996985,210.23415699996985,210.23415699996985,210.23415699996985,210.60045650001848,210.60045650001848,210.60045650001848,210.60045650001848,210.60045650001848,210.60045650001848,210.60045650001848,210.60045650001848,210.60045650001848,23,0,,,210.60045650001848,210.802442300017,1000,210.802442300017,1000,1000,1000,1000,0,num_3,0.4401455999468453,,27,15,2026-03-05_14h19.14.996,2026A_exp2,2022.2.4,60.19628806510952,
1,0,3.7,6.1,1,0,68,68,75,,,,,211.2677873999928,211.91848190000746,211.91848190000746,212.4196735000005,315,315,212.4196735000005,212.4196735000005,212.4196735000005,212.4196735000005,212.4196735000005,212.4196735000005,212.4196735000005,212.4196735000005,212.4196735000005,212.7861344999983,212.7861344999983,212.7861344999983,212.7861344999983,212.7861344999983,212.7861344999983,212.7861344999983,212.7861344999983,212.7861344999983,20,1,[0.0011957999668084085],[0.05034899996826425],212.7861344999983,212.9863438999746,6.1,212.9863438999746,1,6.1,1,1,1000,num_4,0.5278799000079744,,27,15,2026-03-05_14h19.14.996,2026A_exp2,2022.2.4,60.19628806510952,
1000,1,4.9,0.0,1,0,69,69,74,,,,,213.53678069997113,214.18748690001667,214.18748690001667,214.67201300000306,45,315,214.67201300000306,214.67201300000306,214.67201300000306,214.67201300000306,214.67201300000306,214.67201300000306,214.67201300000306,214.67201300000306,214.67201300000306,215.03827770001953,215.03827770001953,215.03827770001953,215.03827770001953,215.03827770001953,215.03827770001953,215.03827770001953,215.03827770001953,215.03827770001953,23,0,,,215.03827770001953,215.2403081000084,1000,215.25518350000493,1000,1000,1000,1000,0,num_3,0.5079185999929905,,27,15,2026-03-05_14h19.14.996,2026A_exp2,2022.2.4,60.19628806510952,
1,0,3.7,0.0,0,0,70,70,3,,,,,215.78928700002143,216.43979769997532,216.43979769997532,216.92413689999375,315,45,216.92413689999375,216.92413689999375,216.92413689999375,216.92413689999375,216.92413689999375,216.92413689999375,216.92413689999375,216.92413689999375,216.92413689999375,217.29048429999966,217.29048429999966,217.29048429999966,217.29048429999966,217.29048429999966,217.29048429999966,217.29048429999966,217.29048429999966,217.29048429999966,23,0,,,217.29048429999966,217.5018164999783,3.7,217.5018164999783,0,3.7,1,0,1000,num_1,1.2366140999947675,,27,15,2026-03-05_14h19.14.996,2026A_exp2,2022.2.4,60.19628806510952,
1000,1,0.0,4.9,1,0,71,71,72,,,,,218.7585178000154,219.40913310000906,219.40913310000906,219.9104837999912,45,45,219.9104837999912,219.9104837999912,219.9104837999912,219.9104837999912,219.9104837999912,219.9104837999912,219.9104837999912,219.9104837999912,219.9104837999912,220.2601074000122,220.2601074000122,220.2601074000122,220.2601074000122,220.2601074000122,220.2601074000122,220.2601074000122,220.2601074000122,220.2601074000122,22,0,,,220.2601074000122,220.46246910002083,1000,220.4771867999807,1000,1000,1000,1000,1,num_2,0.30935220001265407,,27,15,2026-03-05_14h19.14.996,2026A_exp2,2022.2.4,60.19628806510952,
1,0,0.0,0.0,1,0,72,72,66,,,,,220.8107408999931,221.46136040001875,221.46136040001875,221.96253109996906,45,45,221.96253109996906,221.96253109996906,221.96253109996906,221.96253109996906,221.96253109996906,221.96253109996906,221.96253109996906,221.96253109996906,221.96253109996906,222.32899259997066,222.32899259997066,222.32899259997066,222.32899259997066,222.32899259997066,222.32899259997066,222.32899259997066,222.32899259997066,222.32899259997066,20,1,[0.2503838000120595],[0.30067520000739023],222.32899259997066,222.52917970001,0.0,222.52917970001,1,0.0,0,0,1000,num_4,1.0164353999425657,,27,15,2026-03-05_14h19.14.996,2026A_exp2,2022.2.4,60.19628806510952,
1,0,3.7,0.0,0,0,73,73,9,,,,,223.5632867999957,224.21418599999743,224.21418599999743,224.698622099997,315,315,224.698622099997,224.698622099997,224.698622099997,224.698622099997,224.698622099997,224.698622099997,224.698622099997,224.698622099997,224.698622099997,225.06506829999853,225.06506829999853,225.06506829999853,225.06506829999853,225.06506829999853,225.06506829999853,225.06506829999853,225.06506829999853,225.06506829999853,18,5,"[0.03358779998961836, 0.08363139996072277, 0.15019489999394864, 0.2668254000018351, 0.3670038999989629]","[0.050127899972721934, 0.10010149999288842, 0.16694480000296608, 0.28366159996949136, 0.3670084999757819]",225.06506829999853,225.2652565999888,3.7,225.2652565999888,1,3.7,1,1,1000,num_4,0.6732651000493206,,27,15,2026-03-05_14h19.14.996,2026A_exp2,2022.2.4,60.19628806510952,
1,0,3.7,3.7,0,0,74,74,8,,,,,225.96585619996767,226.61651720001828,226.61651720001828,227.11776589998044,45,315,227.11776589998044,227.11776589998044,227.11776589998044,227.11776589998044,227.11776589998044,227.11776589998044,227.11776589998044,227.11776589998044,227.11776589998044,227.46750410000095,227.46750410000095,227.46750410000095,227.46750410000095,227.46750410000095,227.46750410000095,227.46750410000095,227.46750410000095,227.46750410000095,21,1,[0.3170481999986805],[0.3337136000045575],227.46750410000095,227.6673327999888,3.7,227.6673327999888,0,3.7,1,0,1000,num_1,0.711336099950131,,27,15,2026-03-05_14h19.14.996,2026A_exp2,2022.2.4,60.19628806510952,
1000,1,6.1,4.9,1,0,75,75,86,,,,,228.40150530001847,229.05244120000862,229.05244120000862,229.5366293999832,315,45,229.5366293999832,229.5366293999832,229.5366293999832,229.5366293999832,229.5366293999832,229.5366293999832,229.5366293999832,229.5366293999832,229.5366293999832,229.9033255999675,229.9033255999675,229.9033255999675,229.9033255999675,229.9033255999675,229.9033255999675,229.9033255999675,229.9033255999675,229.9033255999675,0,1,[0.001214599993545562],[0.3672371000284329],229.9033255999675,230.10479700000724,1000,230.10479700000724,1000,1000,1000,1000,0,num_3,0.5288147999672219,,27,15,2026-03-05_14h19.14.996,2026A_exp2,2022.2.4,60.19628806510952,
1000,1,0.0,0.0,0,0,76,76,24,,,,,230.6538626999827,231.3045803999994,231.3045803999994,231.8057884000009,45,315,231.8057884000009,231.8057884000009,231.8057884000009,231.8057884000009,231.8057884000009,231.8057884000009,231.8057884000009,231.8057884000009,231.8057884000009,232.17220299999462,232.17220299999462,232.17220299999462,232.17220299999462,232.17220299999462,232.17220299999462,232.17220299999462,232.17220299999462,232.17220299999462,23,0,,,232.17220299999462,232.37467390001984,1000,232.37467390001984,1000,1000,1000,1000,0,num_3,0.436124200001359,,27,15,2026-03-05_14h19.14.996,2026A_exp2,2022.2.4,60.19628806510952,
1000,1,3.7,0.0,1,0,77,77,19,,,,,232.83940890000667,233.49005159997614,233.49005159997614,233.99143210001057,45,315,233.99143210001057,233.99143210001057,233.99143210001057,233.99143210001057,233.99143210001057,233.99143210001057,233.99143210001057,233.99143210001057,233.99143210001057,234.35771910002222,234.35771910002222,234.35771910002222,234.35771910002222,234.35771910002222,234.35771910002222,234.35771910002222,234.35771910002222,234.35771910002222,23,0,,,234.35771910002222,234.5600871000206,1000,234.5600871000206,1000,1000,1000,1000,0,num_3,0.3142185999895446,,27,15,2026-03-05_14h19.14.996,2026A_exp2,2022.2.4,60.19628806510952,
0,0,4.9,6.1,1,0,78,78,70,,,,,234.8914514000062,235.54218509997008,235.54218509997008,236.04317449999508,45,45,236.04317449999508,236.04317449999508,236.04317449999508,236.04317449999508,236.04317449999508,236.04317449999508,236.04317449999508,236.04317449999508,236.04317449999508,236.40980039996793,236.40980039996793,236.40980039996793,236.40980039996793,236.40980039996793,236.40980039996793,236.40980039996793,236.40980039996793,236.40980039996793,23,0,,,236.40980039996793,236.6099022999988,4.9,236.6099022999988,0,4.9,1,0,1000,num_1,0.7359969000099227,,27,15,2026-03-05_14h19.14.996,2026A_exp2,2022.2.4,60.19628806510952,
1000,1,3.7,0.0,1,0,79,79,78,,,,,237.37741770001594,238.01136930001667,238.01136930001667,238.51250750001054,315,315,238.51250750001054,238.51250750001054,238.51250750001054,238.51250750001054,238.51250750001054,238.51250750001054,238.51250750001054,238.51250750001054,238.51250750001054,238.87887620000402,238.87887620000402,238.87887620000402,238.87887620000402,238.87887620000402,238.87887620000402,238.87887620000402,238.87887620000402,238.87887620000402,4,4,"[0.01753339997958392, 0.21709120000014082, 0.3339704999816604, 0.36725459998706356]","[0.2004581000073813, 0.317143100022804, 0.35073950001969934, 0.3672591000213288]",238.87887620000402,239.08108699996956,1000,239.08108699996956,1000,1000,1000,1000,1,num_2,0.6579433000297286,,27,15,2026-03-05_14h19.14.996,2026A_exp2,2022.2.4,60.19628806510952,
1,0,4.9,4.9,0,0,80,80,28,,,,,239.76288439997006,240.41381769999862,240.41381769999862,240.91481290000957,45,45,240.91481290000957,240.91481290000957,240.91481290000957,240.91481290000957,240.91481290000957,240.91481290000957,240.91481290000957,240.91481290000957,240.91481290000957,241.28114819998154,241.28114819998154,241.28114819998154,241.28114819998154,241.28114819998154,241.28114819998154,241.28114819998154,241.28114819998154,241.28114819998154,23,0,,,241.28114819998154,241.48143709998112,4.9,241.48143709998112,0,4.9,1,0,1000,num_1,0.9362821999820881,,27,15,2026-03-05_14h19.14.996,2026A_exp2,2022.2.4,60.19628806510952,
1000,1,4.9,0.0,1,0,81,81,84,,,,,242.44911789998878,243.09968240000308,243.09968240000308,243.58421429997543,315,45,243.58421429997543,243.58421429997543,243.58421429997543,243.58421429997543,243.58421429997543,243.58421429997543,243.58421429997543,243.58421429997543,243.58421429997543,243.95059730001958,243.95059730001958,243.95059730001958,243.95059730001958,243.95059730001958,243.95059730001958,243.95059730001958,243.95059730001958,243.95059730001958,23,0,,,243.95059730001958,244.1521994000068,1000,244.1521994000068,1000,1000,1000,1000,0,num_3,0.4098822999512777,,27,15,2026-03-05_14h19.14.996,2026A_exp2,2022.2.4,60.19628806510952,
1000,1,0.0,0.0,1,0,82,82,68,,,,,244.58756479999283,245.23506909998832,245.23506909998832,245.7363606999861,315,315,245.7363606999861,245.7363606999861,245.7363606999861,245.7363606999861,245.7363606999861,245.7363606999861,245.7363606999861,245.7363606999861,245.7363606999861,246.10260089999065,246.10260089999065,246.10260089999065,246.10260089999065,246.10260089999065,246.10260089999065,246.10260089999065,246.10260089999065,246.10260089999065,23,0,,,246.10260089999065,246.30455780000193,1000,246.30455780000193,1000,1000,1000,1000,0,num_3,0.4733282999950461,,27,15,2026-03-05_14h19.14.996,2026A_exp2,2022.2.4,60.19628806510952,
1,0,0.0,3.7,0,0,83,83,31,,,,,246.80348940001568,247.45384420000482,247.45384420000482,247.95514550001826,45,45,247.95514550001826,247.95514550001826,247.95514550001826,247.95514550001826,247.95514550001826,247.95514550001826,247.95514550001826,247.95514550001826,247.95514550001826,248.32163439999567,248.32163439999567,248.32163439999567,248.32163439999567,248.32163439999567,248.32163439999567,248.32163439999567,248.32163439999567,248.32163439999567,23,0,,,248.32163439999567,248.5218647000147,0.0,248.5218647000147,0,0.0,0,1,1000,num_1,0.5612498000264168,,27,15,2026-03-05_14h19.14.996,2026A_exp2,2022.2.4,60.19628806510952,
1000,1,3.7,0.0,1,0,84,84,52,,,,,249.10554540000157,249.7564502999885,249.7564502999885,250.24088629998732,45,45,250.24088629998732,250.24088629998732,250.24088629998732,250.24088629998732,250.24088629998732,250.24088629998732,250.24088629998732,250.24088629998732,250.24088629998732,250.60736620001262,250.60736620001262,250.60736620001262,250.60736620001262,250.60736620001262,250.60736620001262,250.60736620001262,250.60736620001262,250.60736620001262,23,0,,,250.60736620001262,250.80924139998388,1000,250.80924139998388,1000,1000,1000,1000,0,num_3,0.34492970001883805,,27,15,2026-03-05_14h19.14.996,2026A_exp2,2022.2.4,60.19628806510952,
1000,1,6.1,0.0,0,0,85,85,69,,,,,251.17441540001892,251.82508929999312,251.82508929999312,252.32616649998818,315,315,252.32616649998818,252.32616649998818,252.32616649998818,252.32616649998818,252.32616649998818,252.32616649998818,252.32616649998818,252.32616649998818,252.32616649998818,252.67602800001623,252.67602800001623,252.67602800001623,252.67602800001623,252.67602800001623,252.67602800001623,252.67602800001623,252.67602800001623,252.67602800001623,12,4,"[0.017234899976756424, 0.21706779999658465, 0.2504027999821119, 0.31701780000003055]","[0.08358659996883944, 0.23385550000239164, 0.30011369998101145, 0.35087209998164326]",252.67602800001623,252.8918399999966,1000,252.8918399999966,1000,1000,1000,1000,0,num_3,0.3428303999826312,,27,15,2026-03-05_14h19.14.996,2026A_exp2,2022.2.4,60.19628806510952,
1,0,3.7,0.0,0,0,86,86,7,,,,,253.25977070000954,253.91044080001302,253.91044080001302,254.41173489997163,45,315,254.41173489997163,254.41173489997163,254.41173489997163,254.41173489997163,254.41173489997163,254.41173489997163,254.41173489997163,254.41173489997163,254.41173489997163,254.7780391999986,254.7780391999986,254.7780391999986,254.7780391999986,254.7780391999986,254.7780391999986,254.7780391999986,254.7780391999986,254.7780391999986,23,0,,,254.7780391999986,254.97831969999243,3.7,254.97831969999243,1,3.7,1,1,1000,num_4,0.7360963999526575,,27,15,2026-03-05_14h19.14.996,2026A_exp2,2022.2.4,60.19628806510952,
1,0,6.1,0.0,0,0,87,87,51,,,,,255.74561320000794,256.3962746000034,256.3962746000034,256.88095730001805,315,315,256.88095730001805,256.88095730001805,256.88095730001805,256.88095730001805,256.88095730001805,256.88095730001805,256.88095730001805,256.88095730001805,256.88095730001805,257.2473868000088,257.2473868000088,257.2473868000088,257.2473868000088,257.2473868000088,257.2473868000088,257.2473868000088,257.2473868000088,257.2473868000088,22,1,[0.1351079999585636],[0.15166499995393679],257.2473868000088,257.4493302999763,6.1,257.4493302999763,1,6.1,1,1,1000,num_4,0.5843256999505684,,27,15,2026-03-05_14h19.14.996,2026A_exp2,2022.2.4,60.19628806510952,
0,0,0.0,4.9,1,0,88,88,0,,,,,258.06487890001154,258.7168313000002,258.7168313000002,259.2326758999843,315,315,259.2326758999843,259.2326758999843,259.2326758999843,259.2326758999843,259.2326758999843,259.2326758999843,259.2326758999843,259.2326758999843,259.2326758999843,259.582757199998,259.582757199998,259.582757199998,259.582757199998,259.582757199998,259.582757199998,259.582757199998,259.582757199998,259.582757199998,23,0,,,259.582757199998,259.78309430001536,0.0,259.78309430001536,0,0.0,0,1,1000,num_1,0.6035425000009127,,27,15,2026-03-05_14h19.14.996,2026A_exp2,2022.2.4,60.19628806510952,
1000,1,4.9,3.7,0,0,89,89,40,,,,,260.4023108999827,261.05124659999274,261.05124659999274,261.55224220000673,45,45,261.55224220000673,261.55224220000673,261.55224220000673,261.55224220000673,261.55224220000673,261.55224220000673,261.55224220000673,261.55224220000673,261.55224220000673,261.9185642999946,261.9185642999946,261.9185642999946,261.9185642999946,261.9185642999946,261.9185642999946,261.9185642999946,261.9185642999946,261.9185642999946,21,1,[0.0012491000234149396],[0.03365160000976175],261.9185642999946,262.1208856999874,1000,262.1208856999874,1000,1000,1000,1000,0,num_3,0.449293999990914,,27,15,2026-03-05_14h19.14.996,2026A_exp2,2022.2.4,60.19628806510952,
,,,,,,,,,,,,,,,,,,,,,,,,,,,,,,,,,,,,,,,,,,,,,,,,,,,,262.59398960002,,,,,,,
