validity,detectorcomp,contrastCW,contrastCCW,precueCWorCCW,block_80trials.thisRepN,block_80trials.thisTrialN,block_80trials.thisN,block_80trials.thisIndex,etRecord.started,etRecord.stopped,text.started,text.stopped,text_4.started,text_4.stopped,text_6.started,text_6.stopped,oriCW,oriCCW,roi_2.started,grating_UR.started,grating_UL.started,grating_LR.started,grating_LL.started,noise_UR.started,noise_UL.started,noise_LR.started,noise_LL.started,roi_2.stopped,grating_UR.stopped,grating_UL.stopped,grating_LR.stopped,grating_LL.stopped,noise_UR.stopped,noise_UL.stopped,noise_LR.stopped,noise_LL.stopped,outframe,roi_2.numLooks,roi_2.timesOn,roi_2.timesOff,text_2.started,text_2.stopped,probedcontrast,key_resp.started,respdetect,relevantContrast,correctDetect,TorFdetect,respCWorCCW,key_resp.keys,key_resp.rt,feedback_display_.started,participantNo,blockNo,date,expName,psychopyVersion,frameRate,
1,0,0.0,3.7,1,0,0,0,66,7.95999076217413e-05,7.95999076217413e-05,54.637224099831656,56.641862999880686,56.641862999880686,57.27465399983339,57.27465399983339,57.802839200012386,45,315,57.802839200012386,57.802839200012386,57.802839200012386,57.802839200012386,57.802839200012386,57.802839200012386,57.802839200012386,57.802839200012386,57.802839200012386,58.141227499814704,58.141227499814704,58.141227499814704,58.141227499814704,58.141227499814704,58.141227499814704,58.141227499814704,58.141227499814704,58.141227499814704,0,1,[0.0011903000995516777],[0.36516190017573535],58.141227499814704,58.34147859993391,3.7,58.34147859993391,1,3.7,1,1,1000,num_4,3.528633499983698,,35,2,2026-03-13_13h18.09.221,2026A_exp2,2022.2.4,59.98325266006243,
1,0,0.0,0.0,0,0,1,1,63,,,,,61.89523239992559,62.545907399849966,62.545907399849966,63.0302910997998,45,315,63.0302910997998,63.0302910997998,63.0302910997998,63.0302910997998,63.0302910997998,63.0302910997998,63.0302910997998,63.0302910997998,63.0302910997998,63.396830999990925,63.396830999990925,63.396830999990925,63.396830999990925,63.396830999990925,63.396830999990925,63.396830999990925,63.396830999990925,63.396830999990925,19,2,"[0.001217900076881051, 0.233684099977836]","[0.05030240002088249, 0.25051210005767643]",63.396830999990925,63.59688019985333,0.0,63.59688019985333,0,0.0,0,1,1000,num_1,0.6012014001607895,,35,2,2026-03-13_13h18.09.221,2026A_exp2,2022.2.4,59.98325266006243,
1,0,0.0,6.1,0,0,2,2,11,,,,,64.21416589990258,64.84834069991484,64.84834069991484,65.34923179983161,45,315,65.34923179983161,65.34923179983161,65.34923179983161,65.34923179983161,65.34923179983161,65.34923179983161,65.34923179983161,65.34923179983161,65.34923179983161,65.71579309995286,65.71579309995286,65.71579309995286,65.71579309995286,65.71579309995286,65.71579309995286,65.71579309995286,65.71579309995286,65.71579309995286,23,0,,,65.71579309995286,65.91594329988584,0.0,65.91594329988584,0,0.0,0,1,1000,num_1,0.7387248002924025,,35,2,2026-03-13_13h18.09.221,2026A_exp2,2022.2.4,59.98325266006243,
1,0,4.9,0.0,1,0,3,3,8,,,,,66.68340119998902,67.31741050002165,67.31741050002165,67.81844879989512,45,45,67.81844879989512,67.81844879989512,67.81844879989512,67.81844879989512,67.81844879989512,67.81844879989512,67.81844879989512,67.81844879989512,67.81844879989512,68.18474569986574,68.18474569986574,68.18474569986574,68.18474569986574,68.18474569986574,68.18474569986574,68.18474569986574,68.18474569986574,68.18474569986574,23,0,,,68.18474569986574,68.3973176998552,0.0,68.3973176998552,1,0.0,0,0,1000,num_4,4.320129300002009,,35,2,2026-03-13_13h18.09.221,2026A_exp2,2022.2.4,59.98325266006243,
1,0,4.9,0.0,1,0,4,4,38,,,,,72.73942109989002,73.390178399859,73.390178399859,73.87440109997988,45,315,73.87440109997988,73.87440109997988,73.87440109997988,73.87440109997988,73.87440109997988,73.87440109997988,73.87440109997988,73.87440109997988,73.87440109997988,74.24094619997777,74.24094619997777,74.24094619997777,74.24094619997777,74.24094619997777,74.24094619997777,74.24094619997777,74.24094619997777,74.24094619997777,15,3,"[0.01729279989376664, 0.05004990007728338, 0.283605600008741]","[0.03359110001474619, 0.10022110003046691, 0.35063589992932975]",74.24094619997777,74.44109129998833,0.0,74.44109129998833,0,0.0,0,1,1000,num_1,0.7563348000403494,,35,2,2026-03-13_13h18.09.221,2026A_exp2,2022.2.4,59.98325266006243,
1000,1,4.9,0.0,1,0,5,5,5,,,,,75.22512229997665,75.85925739980303,75.85925739980303,76.3601694998797,45,45,76.3601694998797,76.3601694998797,76.3601694998797,76.3601694998797,76.3601694998797,76.3601694998797,76.3601694998797,76.3601694998797,76.3601694998797,76.72682139999233,76.72682139999233,76.72682139999233,76.72682139999233,76.72682139999233,76.72682139999233,76.72682139999233,76.72682139999233,76.72682139999233,23,0,,,76.72682139999233,76.9317031998653,1000,76.9317031998653,1000,1000,1000,1000,1,num_2,1.3057752002496272,,35,2,2026-03-13_13h18.09.221,2026A_exp2,2022.2.4,59.98325266006243,
1000,1,0.0,0.0,0,0,6,6,15,,,,,78.2616935998667,78.9123064999003,78.9123064999003,79.41336769983172,315,45,79.41336769983172,79.41336769983172,79.41336769983172,79.41336769983172,79.41336769983172,79.41336769983172,79.41336769983172,79.41336769983172,79.41336769983172,79.77986559993587,79.77986559993587,79.77986559993587,79.77986559993587,79.77986559993587,79.77986559993587,79.77986559993587,79.77986559993587,79.77986559993587,2,3,"[0.0012433999218046665, 0.08329190011136234, 0.2838161999825388]","[0.050016399938613176, 0.26714079990051687, 0.36715569999068975]",79.77986559993587,79.98237849981524,1000,79.98237849981524,1000,1000,1000,1000,1,num_2,1.1110102999955416,,35,2,2026-03-13_13h18.09.221,2026A_exp2,2022.2.4,59.98325266006243,
1000,1,4.9,0.0,1,0,7,7,72,,,,,81.11447389982641,81.76532959984615,81.76532959984615,82.26611909992062,45,315,82.26611909992062,82.26611909992062,82.26611909992062,82.26611909992062,82.26611909992062,82.26611909992062,82.26611909992062,82.26611909992062,82.26611909992062,82.63268459984101,82.63268459984101,82.63268459984101,82.63268459984101,82.63268459984101,82.63268459984101,82.63268459984101,82.63268459984101,82.63268459984101,10,3,"[0.1170159000903368, 0.21703180018812418, 0.3670858000405133]","[0.20038980012759566, 0.3338209001813084, 0.3670905001927167]",82.63268459984101,82.83429129980505,1000,82.83429129980505,1000,1000,1000,1000,0,num_3,0.7315695001743734,,35,2,2026-03-13_13h18.09.221,2026A_exp2,2022.2.4,59.98325266006243,
1,0,0.0,6.1,1,0,8,8,36,,,,,83.58351639984176,84.23421889985912,84.23421889985912,84.73525969986804,45,315,84.73525969986804,84.73525969986804,84.73525969986804,84.73525969986804,84.73525969986804,84.73525969986804,84.73525969986804,84.73525969986804,84.73525969986804,85.10180599987507,85.10180599987507,85.10180599987507,85.10180599987507,85.10180599987507,85.10180599987507,85.10180599987507,85.10180599987507,85.10180599987507,23,0,,,85.10180599987507,85.30210569989868,6.1,85.30210569989868,1,6.1,1,1,1000,num_4,0.7689871999900788,,35,2,2026-03-13_13h18.09.221,2026A_exp2,2022.2.4,59.98325266006243,
0,0,0.0,6.1,0,0,9,9,7,,,,,86.10270899999887,86.75348740001209,86.75348740001209,87.2378289999906,45,315,87.2378289999906,87.2378289999906,87.2378289999906,87.2378289999906,87.2378289999906,87.2378289999906,87.2378289999906,87.2378289999906,87.2378289999906,87.60432759998366,87.60432759998366,87.60432759998366,87.60432759998366,87.60432759998366,87.60432759998366,87.60432759998366,87.60432759998366,87.60432759998366,22,1,[0.36664239992387593],[0.36664529982954264],87.60432759998366,87.80444769980386,6.1,87.80444769980386,0,6.1,1,0,1000,num_1,0.7052678000181913,,35,2,2026-03-13_13h18.09.221,2026A_exp2,2022.2.4,59.98325266006243,
1000,1,0.0,3.7,1,0,10,10,47,,,,,88.53840029984713,89.18918819981627,89.18918819981627,89.67356579983607,45,315,89.67356579983607,89.67356579983607,89.67356579983607,89.67356579983607,89.67356579983607,89.67356579983607,89.67356579983607,89.67356579983607,89.67356579983607,90.04009399982169,90.04009399982169,90.04009399982169,90.04009399982169,90.04009399982169,90.04009399982169,90.04009399982169,90.04009399982169,90.04009399982169,4,4,"[0.0012141999322921038, 0.050205899868160486, 0.08357469993643463, 0.15032059978693724]","[0.01722319982945919, 0.06678209989331663, 0.13346659997478127, 0.3670454998500645]",90.04009399982169,90.24212369997986,1000,90.24212369997986,1000,1000,1000,1000,1,num_2,0.8761895000934601,,35,2,2026-03-13_13h18.09.221,2026A_exp2,2022.2.4,59.98325266006243,
1,0,0.0,0.0,1,0,11,11,87,,,,,91.14114269986749,91.79169259988703,91.79169259988703,92.29310499993153,45,45,92.29310499993153,92.29310499993153,92.29310499993153,92.29310499993153,92.29310499993153,92.29310499993153,92.29310499993153,92.29310499993153,92.29310499993153,92.65927469986491,92.65927469986491,92.65927469986491,92.65927469986491,92.65927469986491,92.65927469986491,92.65927469986491,92.65927469986491,92.65927469986491,5,4,"[0.001208599889650941, 0.0835541000124067, 0.15024759992957115, 0.3005410998594016]","[0.033494999865069985, 0.11684379982762039, 0.2835390998516232, 0.36714539979584515]",92.65927469986491,92.85954849980772,0.0,92.85954849980772,0,0.0,0,1,1000,num_1,0.995130100287497,,35,2,2026-03-13_13h18.09.221,2026A_exp2,2022.2.4,59.98325266006243,
1000,1,0.0,0.0,1,0,12,12,67,,,,,93.87706749979407,94.52787290001288,94.52787290001288,95.01236849999987,45,45,95.01236849999987,95.01236849999987,95.01236849999987,95.01236849999987,95.01236849999987,95.01236849999987,95.01236849999987,95.01236849999987,95.01236849999987,95.37880710000172,95.37880710000172,95.37880710000172,95.37880710000172,95.37880710000172,95.37880710000172,95.37880710000172,95.37880710000172,95.37880710000172,19,3,"[0.05008880002424121, 0.11677750013768673, 0.3169470999855548]","[0.0835156999528408, 0.13331830012612045, 0.33424960006959736]",95.37880710000172,95.58084319997579,1000,95.58084319997579,1000,1000,1000,1000,1,num_2,1.1531532001681626,,35,2,2026-03-13_13h18.09.221,2026A_exp2,2022.2.4,59.98325266006243,
1,0,4.9,0.0,0,0,13,13,58,,,,,96.76349349995144,97.4139272000175,97.4139272000175,97.91520429984666,315,45,97.91520429984666,97.91520429984666,97.91520429984666,97.91520429984666,97.91520429984666,97.91520429984666,97.91520429984666,97.91520429984666,97.91520429984666,98.28159859986044,98.28159859986044,98.28159859986044,98.28159859986044,98.28159859986044,98.28159859986044,98.28159859986044,98.28159859986044,98.28159859986044,22,1,[0.3168850000947714],[0.33365929988212883],98.28159859986044,98.48182519990951,4.9,98.48182519990951,1,4.9,1,1,1000,num_4,1.2043197001330554,,35,2,2026-03-13_13h18.09.221,2026A_exp2,2022.2.4,59.98325266006243,
1000,1,4.9,0.0,0,0,14,14,54,,,,,99.71662189997733,100.36695809988305,100.36695809988305,100.85154960001819,45,315,100.85154960001819,100.85154960001819,100.85154960001819,100.85154960001819,100.85154960001819,100.85154960001819,100.85154960001819,100.85154960001819,100.85154960001819,101.2179641998373,101.2179641998373,101.2179641998373,101.2179641998373,101.2179641998373,101.2179641998373,101.2179641998373,101.2179641998373,101.2179641998373,9,6,"[0.01752569992095232, 0.05028610001318157, 0.08362989989109337, 0.13389059994369745, 0.1670390998478979, 0.30063509987667203]","[0.03362349979579449, 0.06715859984979033, 0.11699529993347824, 0.15044699981808662, 0.2505016999784857, 0.3672281999606639]",101.2179641998373,101.41996679990552,1000,101.41996679990552,1000,1000,1000,1000,0,num_3,0.7454448000062257,,35,2,2026-03-13_13h18.09.221,2026A_exp2,2022.2.4,59.98325266006243,
1,0,0.0,0.0,0,0,15,15,29,,,,,102.18563979980536,102.83626399980858,102.83626399980858,103.33722689980641,45,45,103.33722689980641,103.33722689980641,103.33722689980641,103.33722689980641,103.33722689980641,103.33722689980641,103.33722689980641,103.33722689980641,103.33722689980641,103.70380509993993,103.70380509993993,103.70380509993993,103.70380509993993,103.70380509993993,103.70380509993993,103.70380509993993,103.70380509993993,103.70380509993993,15,6,"[0.1002267999574542, 0.13355430006049573, 0.18362800008617342, 0.21715459995903075, 0.30020539998076856, 0.35048669995740056]","[0.11696629994548857, 0.15039149997755885, 0.20032169995829463, 0.26713340007700026, 0.3168828999623656, 0.36707459995523095]",103.70380509993993,103.90411669993773,0.0,103.90411669993773,0,0.0,0,1,1000,num_1,1.2296832001302391,,35,2,2026-03-13_13h18.09.221,2026A_exp2,2022.2.4,59.98325266006243,
1000,1,3.7,4.9,1,0,16,16,44,,,,,105.15498789981939,105.80574540002272,105.80574540002272,106.29017659998499,315,45,106.29017659998499,106.29017659998499,106.29017659998499,106.29017659998499,106.29017659998499,106.29017659998499,106.29017659998499,106.29017659998499,106.29017659998499,106.65674180001952,106.65674180001952,106.65674180001952,106.65674180001952,106.65674180001952,106.65674180001952,106.65674180001952,106.65674180001952,106.65674180001952,19,3,"[0.03355209995061159, 0.15027019986882806, 0.31704029999673367]","[0.04991659987717867, 0.18365239980630577, 0.3338748998939991]",106.65674180001952,106.85867189988494,1000,106.85867189988494,1000,1000,1000,1000,1,num_2,0.787591400090605,,35,2,2026-03-13_13h18.09.221,2026A_exp2,2022.2.4,59.98325266006243,
1000,1,0.0,0.0,0,0,17,17,81,,,,,107.67426029988565,108.32502230000682,108.32502230000682,108.82629979983903,315,45,108.82629979983903,108.82629979983903,108.82629979983903,108.82629979983903,108.82629979983903,108.82629979983903,108.82629979983903,108.82629979983903,108.82629979983903,109.19236979982816,109.19236979982816,109.19236979982816,109.19236979982816,109.19236979982816,109.19236979982816,109.19236979982816,109.19236979982816,109.19236979982816,15,4,"[0.03376119979657233, 0.06690309988334775, 0.15026859985664487, 0.3672307999804616]","[0.05031790002249181, 0.13368109986186028, 0.18367099994793534, 0.36723540001548827]",109.19236979982816,109.39557139994577,1000,109.39557139994577,1000,1000,1000,1000,1,num_2,0.9552367001306266,,35,2,2026-03-13_13h18.09.221,2026A_exp2,2022.2.4,59.98325266006243,
1,0,3.7,0.0,0,0,18,18,65,,,,,110.37690869998187,111.02774779987521,111.02774779987521,111.52890039980412,315,315,111.52890039980412,111.52890039980412,111.52890039980412,111.52890039980412,111.52890039980412,111.52890039980412,111.52890039980412,111.52890039980412,111.52890039980412,111.89521739981137,111.89521739981137,111.89521739981137,111.89521739981137,111.89521739981137,111.89521739981137,111.89521739981137,111.89521739981137,111.89521739981137,17,3,"[0.18369760015048087, 0.26706079998984933, 0.3003784001339227]","[0.21685610013082623, 0.2836510001216084, 0.3504415999632329]",111.89521739981137,112.09541359986179,3.7,112.09541359986179,0,3.7,1,0,1000,num_1,0.6543376001063734,,35,2,2026-03-13_13h18.09.221,2026A_exp2,2022.2.4,59.98325266006243,
0,0,6.1,3.7,1,0,19,19,49,,,,,112.77944479999132,113.43020999990404,113.43020999990404,113.91445609997027,45,45,113.91445609997027,113.91445609997027,113.91445609997027,113.91445609997027,113.91445609997027,113.91445609997027,113.91445609997027,113.91445609997027,113.91445609997027,114.28111769980751,114.28111769980751,114.28111769980751,114.28111769980751,114.28111769980751,114.28111769980751,114.28111769980751,114.28111769980751,114.28111769980751,17,4,"[0.10051589994691312, 0.18361139995977283, 0.25034360005520284, 0.3338339999318123]","[0.1366948001086712, 0.21696100011467934, 0.26718239998444915, 0.35069010010920465]",114.28111769980751,114.4813118998427,6.1,114.4813118998427,1,6.1,1,1,1000,num_4,0.7882220002356917,,35,2,2026-03-13_13h18.09.221,2026A_exp2,2022.2.4,59.98325266006243,
0,0,4.9,0.0,1,0,20,20,25,,,,,115.29849860002287,115.94925239984877,115.94925239984877,116.43364509986714,45,315,116.43364509986714,116.43364509986714,116.43364509986714,116.43364509986714,116.43364509986714,116.43364509986714,116.43364509986714,116.43364509986714,116.43364509986714,116.80010909982957,116.80010909982957,116.80010909982957,116.80010909982957,116.80010909982957,116.80010909982957,116.80010909982957,116.80010909982957,116.80010909982957,23,0,,,116.80010909982957,117.00033319997601,4.9,117.00033319997601,1,4.9,1,1,1000,num_4,0.7415619001258165,,35,2,2026-03-13_13h18.09.221,2026A_exp2,2022.2.4,59.98325266006243,
1000,1,3.7,0.0,0,0,21,21,57,,,,,117.76761989993975,118.41834309999831,118.41834309999831,118.90278669982217,315,45,118.90278669982217,118.90278669982217,118.90278669982217,118.90278669982217,118.90278669982217,118.90278669982217,118.90278669982217,118.90278669982217,118.90278669982217,119.26935580000281,119.26935580000281,119.26935580000281,119.26935580000281,119.26935580000281,119.26935580000281,119.26935580000281,119.26935580000281,119.26935580000281,23,0,,,119.26935580000281,119.47102389996871,1000,119.47102389996871,1000,1000,1000,1000,0,num_3,1.1182552000973374,,35,2,2026-03-13_13h18.09.221,2026A_exp2,2022.2.4,59.98325266006243,
1000,1,4.9,0.0,1,0,22,22,22,,,,,120.6207037998829,121.27124509983696,121.27124509983696,121.75580859999172,315,45,121.75580859999172,121.75580859999172,121.75580859999172,121.75580859999172,121.75580859999172,121.75580859999172,121.75580859999172,121.75580859999172,121.75580859999172,122.12200309988111,122.12200309988111,122.12200309988111,122.12200309988111,122.12200309988111,122.12200309988111,122.12200309988111,122.12200309988111,122.12200309988111,22,1,[0.05024020001292229],[0.06675060000270605],122.12200309988111,122.32232749997638,1000,122.33904049987905,1000,1000,1000,1000,1,num_2,0.7873098999261856,,35,2,2026-03-13_13h18.09.221,2026A_exp2,2022.2.4,59.98325266006243,
1,0,0.0,6.1,0,0,23,23,34,,,,,123.15649859979749,123.8071401999332,123.8071401999332,124.30834579980001,45,45,124.30834579980001,124.30834579980001,124.30834579980001,124.30834579980001,124.30834579980001,124.30834579980001,124.30834579980001,124.30834579980001,124.30834579980001,124.67474339995533,124.67474339995533,124.67474339995533,124.67474339995533,124.67474339995533,124.67474339995533,124.67474339995533,124.67474339995533,124.67474339995533,11,4,"[0.11632589995861053, 0.15023889997974038, 0.25033429986797273, 0.3507122998125851]","[0.13346289983019233, 0.23348539997823536, 0.3339850998017937, 0.36727809999138117]",124.67474339995533,124.87494429992512,0.0,124.87494429992512,0,0.0,0,1,1000,num_1,0.6667351999785751,,35,2,2026-03-13_13h18.09.221,2026A_exp2,2022.2.4,59.98325266006243,
1000,1,0.0,4.9,1,0,24,24,79,,,,,125.55878189997748,126.20960599998944,126.20960599998944,126.6939634999726,315,45,126.6939634999726,126.6939634999726,126.6939634999726,126.6939634999726,126.6939634999726,126.6939634999726,126.6939634999726,126.6939634999726,126.6939634999726,127.06047709984705,127.06047709984705,127.06047709984705,127.06047709984705,127.06047709984705,127.06047709984705,127.06047709984705,127.06047709984705,127.06047709984705,18,4,"[0.13354619988240302, 0.18364119995385408, 0.23364059999585152, 0.3503920999355614]","[0.15015959995798767, 0.20023219985887408, 0.267020900035277, 0.36700590001419187]",127.06047709984705,127.2627059998922,1000,127.2627059998922,1000,1000,1000,1000,1,num_2,1.0718843000940979,,35,2,2026-03-13_13h18.09.221,2026A_exp2,2022.2.4,59.98325266006243,
1000,1,0.0,0.0,1,0,25,25,27,,,,,128.36192429997027,129.01262669987045,129.01262669987045,129.49681199993938,45,315,129.49681199993938,129.49681199993938,129.49681199993938,129.49681199993938,129.49681199993938,129.49681199993938,129.49681199993938,129.49681199993938,129.49681199993938,129.86324879992753,129.86324879992753,129.86324879992753,129.86324879992753,129.86324879992753,129.86324879992753,129.86324879992753,129.86324879992753,129.86324879992753,20,2,"[0.20040520001202822, 0.30046349996700883]","[0.21697019995190203, 0.333749599987641]",129.86324879992753,130.0654957999941,1000,130.0654957999941,1000,1000,1000,1000,1,num_2,2.155995100038126,,35,2,2026-03-13_13h18.09.221,2026A_exp2,2022.2.4,59.98325266006243,
1000,1,6.1,0.0,1,0,26,26,30,,,,,132.2488694000058,132.89968669996597,132.89968669996597,133.40081599983387,315,315,133.40081599983387,133.40081599983387,133.40081599983387,133.40081599983387,133.40081599983387,133.40081599983387,133.40081599983387,133.40081599983387,133.40081599983387,133.76716369995847,133.76716369995847,133.76716369995847,133.76716369995847,133.76716369995847,133.76716369995847,133.76716369995847,133.76716369995847,133.76716369995847,19,1,[0.250270799966529],[0.3004530998878181],133.76716369995847,133.9691364997998,1000,133.9691364997998,1000,1000,1000,1000,0,num_3,2.6053716000169516,,35,2,2026-03-13_13h18.09.221,2026A_exp2,2022.2.4,59.98325266006243,
1,0,0.0,3.7,0,0,27,27,61,,,,,136.60327999992296,137.2539007999003,137.2539007999003,137.75512569979765,315,315,137.75512569979765,137.75512569979765,137.75512569979765,137.75512569979765,137.75512569979765,137.75512569979765,137.75512569979765,137.75512569979765,137.75512569979765,138.104697200004,138.104697200004,138.104697200004,138.104697200004,138.104697200004,138.104697200004,138.104697200004,138.104697200004,138.104697200004,22,0,,,138.104697200004,138.30506739998236,0.0,138.30506739998236,0,0.0,0,1,1000,num_1,0.7244116000365466,,35,2,2026-03-13_13h18.09.221,2026A_exp2,2022.2.4,59.98325266006243,
1000,1,0.0,0.0,1,0,28,28,33,,,,,139.0556268999353,139.70645699999295,139.70645699999295,140.19080929993652,315,45,140.19080929993652,140.19080929993652,140.19080929993652,140.19080929993652,140.19080929993652,140.19080929993652,140.19080929993652,140.19080929993652,140.19080929993652,140.55729869985953,140.55729869985953,140.55729869985953,140.55729869985953,140.55729869985953,140.55729869985953,140.55729869985953,140.55729869985953,140.55729869985953,23,0,,,140.55729869985953,140.7633014000021,1000,140.7633014000021,1000,1000,1000,1000,1,num_2,4.507242599967867,,35,2,2026-03-13_13h18.09.221,2026A_exp2,2022.2.4,59.98325266006243,
1,0,0.0,4.9,1,0,29,29,53,,,,,145.29528039996512,145.94597449991852,145.94597449991852,146.44708259985782,45,315,146.44708259985782,146.44708259985782,146.44708259985782,146.44708259985782,146.44708259985782,146.44708259985782,146.44708259985782,146.44708259985782,146.44708259985782,146.81354669993743,146.81354669993743,146.81354669993743,146.81354669993743,146.81354669993743,146.81354669993743,146.81354669993743,146.81354669993743,146.81354669993743,1,2,"[0.0012272000312805176, 0.35035900003276765]","[0.33379629999399185, 0.3671033999416977]",146.81354669993743,147.01362879993394,4.9,147.01362879993394,1,4.9,1,1,1000,num_4,0.6638496001251042,,35,2,2026-03-13_13h18.09.221,2026A_exp2,2022.2.4,59.98325266006243,
1000,1,0.0,6.1,0,0,30,30,37,,,,,147.69753449992277,148.34842599998228,148.34842599998228,148.8327478999272,45,45,148.8327478999272,148.8327478999272,148.8327478999272,148.8327478999272,148.8327478999272,148.8327478999272,148.8327478999272,148.8327478999272,148.8327478999272,149.19900879985653,149.19900879985653,149.19900879985653,149.19900879985653,149.19900879985653,149.19900879985653,149.19900879985653,149.19900879985653,149.19900879985653,23,0,,,149.19900879985653,149.401471799938,1000,149.401471799938,1000,1000,1000,1000,0,num_3,1.0447509000077844,,35,2,2026-03-13_13h18.09.221,2026A_exp2,2022.2.4,59.98325266006243,
1,0,0.0,4.9,0,0,31,31,4,,,,,150.46704669995233,151.11783439991996,151.11783439991996,151.61889569996856,45,315,151.61889569996856,151.61889569996856,151.61889569996856,151.61889569996856,151.61889569996856,151.61889569996856,151.61889569996856,151.61889569996856,151.61889569996856,151.98523899982683,151.98523899982683,151.98523899982683,151.98523899982683,151.98523899982683,151.98523899982683,151.98523899982683,151.98523899982683,151.98523899982683,22,1,[0.0012389000039547682],[0.01726359990425408],151.98523899982683,152.1856044998858,0.0,152.1856044998858,0,0.0,0,1,1000,num_1,0.6929374001920223,,35,2,2026-03-13_13h18.09.221,2026A_exp2,2022.2.4,59.98325266006243,
1,0,0.0,6.1,0,0,32,32,60,,,,,152.9027912998572,153.55354769993573,153.55354769993573,154.0380373999942,315,315,154.0380373999942,154.0380373999942,154.0380373999942,154.0380373999942,154.0380373999942,154.0380373999942,154.0380373999942,154.0380373999942,154.0380373999942,154.404427499976,154.404427499976,154.404427499976,154.404427499976,154.404427499976,154.404427499976,154.404427499976,154.404427499976,154.404427499976,22,1,[0.3339701001532376],[0.3505545000080019],154.404427499976,154.60442160000093,0.0,154.60442160000093,0,0.0,0,1,1000,num_1,2.169553100131452,,35,2,2026-03-13_13h18.09.221,2026A_exp2,2022.2.4,59.98325266006243,
1,0,3.7,0.0,0,0,33,33,3,,,,,156.7900349998381,157.4407275998965,157.4407275998965,157.92535359994508,45,45,157.92535359994508,157.92535359994508,157.92535359994508,157.92535359994508,157.92535359994508,157.92535359994508,157.92535359994508,157.92535359994508,157.92535359994508,158.2916509998031,158.2916509998031,158.2916509998031,158.2916509998031,158.2916509998031,158.2916509998031,158.2916509998031,158.2916509998031,158.2916509998031,23,0,,,158.2916509998031,158.49181499984115,3.7,158.49181499984115,1,3.7,1,1,1000,num_4,0.9779046000912786,,35,2,2026-03-13_13h18.09.221,2026A_exp2,2022.2.4,59.98325266006243,
1000,1,3.7,0.0,1,0,34,34,48,,,,,159.49265949986875,160.12679039989598,160.12679039989598,160.62797599984333,315,45,160.62797599984333,160.62797599984333,160.62797599984333,160.62797599984333,160.62797599984333,160.62797599984333,160.62797599984333,160.62797599984333,160.62797599984333,160.9943539998494,160.9943539998494,160.9943539998494,160.9943539998494,160.9943539998494,160.9943539998494,160.9943539998494,160.9943539998494,160.9943539998494,2,3,"[0.0012165999505668879, 0.0835079001262784, 0.3171099000610411]","[0.06684090010821819, 0.3002947000786662, 0.36705400003120303]",160.9943539998494,161.19622179982252,1000,161.19622179982252,1000,1000,1000,1000,0,num_3,2.6578763001598418,,35,2,2026-03-13_13h18.09.221,2026A_exp2,2022.2.4,59.98325266006243,
1000,1,0.0,3.7,0,0,35,35,78,,,,,163.8806427998934,164.53122209990397,164.53122209990397,165.0322788998019,315,315,165.0322788998019,165.0322788998019,165.0322788998019,165.0322788998019,165.0322788998019,165.0322788998019,165.0322788998019,165.0322788998019,165.0322788998019,165.39875269983895,165.39875269983895,165.39875269983895,165.39875269983895,165.39875269983895,165.39875269983895,165.39875269983895,165.39875269983895,165.39875269983895,14,4,"[0.15040879999287426, 0.23388119996525347, 0.3172245998866856, 0.3673383998684585]","[0.2006131000816822, 0.2839488999452442, 0.3507487000897527, 0.3673427999019623]",165.39875269983895,165.60119529999793,1000,165.60119529999793,1000,1000,1000,1000,1,num_2,0.6531193002592772,,35,2,2026-03-13_13h18.09.221,2026A_exp2,2022.2.4,59.98325266006243,
1000,1,6.1,0.0,1,0,36,36,69,,,,,166.28303679986857,166.9336627998855,166.9336627998855,167.43467609980144,315,45,167.43467609980144,167.43467609980144,167.43467609980144,167.43467609980144,167.43467609980144,167.43467609980144,167.43467609980144,167.43467609980144,167.43467609980144,167.80125189991668,167.80125189991668,167.80125189991668,167.80125189991668,167.80125189991668,167.80125189991668,167.80125189991668,167.80125189991668,167.80125189991668,17,3,"[0.1504135001450777, 0.23368370020762086, 0.26731960009783506]","[0.20033480017445982, 0.25050600012764335, 0.3004812002182007]",167.80125189991668,168.0026381998323,1000,168.0026381998323,1000,1000,1000,1000,0,num_3,0.6429938001092523,,35,2,2026-03-13_13h18.09.221,2026A_exp2,2022.2.4,59.98325266006243,
1,0,0.0,0.0,1,0,37,37,6,,,,,168.66856099991128,169.31938769994304,169.31938769994304,169.82052139984444,45,45,169.82052139984444,169.82052139984444,169.82052139984444,169.82052139984444,169.82052139984444,169.82052139984444,169.82052139984444,169.82052139984444,169.82052139984444,170.1868357998319,170.1868357998319,170.1868357998319,170.1868357998319,170.1868357998319,170.1868357998319,170.1868357998319,170.1868357998319,170.1868357998319,17,4,"[0.017418300034478307, 0.18347469996660948, 0.30033460003323853, 0.3505006998311728]","[0.03352979989722371, 0.23331120004877448, 0.31725049996748567, 0.36724289995618165]",170.1868357998319,170.38700159988366,0.0,170.38700159988366,1,0.0,0,0,1000,num_4,3.5637738001532853,,35,2,2026-03-13_13h18.09.221,2026A_exp2,2022.2.4,59.98325266006243,
1000,1,6.1,0.0,0,0,38,38,82,,,,,173.97387290000916,174.62469640001655,174.62469640001655,175.10895969998091,45,45,175.10895969998091,175.10895969998091,175.10895969998091,175.10895969998091,175.10895969998091,175.10895969998091,175.10895969998091,175.10895969998091,175.10895969998091,175.47539139981382,175.47539139981382,175.47539139981382,175.47539139981382,175.47539139981382,175.47539139981382,175.47539139981382,175.47539139981382,175.47539139981382,23,0,,,175.47539139981382,175.67762729991227,1000,175.67762729991227,1000,1000,1000,1000,0,num_3,0.5925612000282854,,35,2,2026-03-13_13h18.09.221,2026A_exp2,2022.2.4,59.98325266006243,
1000,1,0.0,6.1,1,0,39,39,62,,,,,176.29317949991673,176.94548180000857,176.94548180000857,177.428055399796,45,45,177.428055399796,177.428055399796,177.428055399796,177.428055399796,177.428055399796,177.428055399796,177.428055399796,177.428055399796,177.428055399796,177.79449049988762,177.79449049988762,177.79449049988762,177.79449049988762,177.79449049988762,177.79449049988762,177.79449049988762,177.79449049988762,177.79449049988762,5,2,"[0.03348099999129772, 0.10014889994636178]","[0.05007959995418787, 0.3668671001214534]",177.79449049988762,178.0154192999471,1000,178.0154192999471,1000,1000,1000,1000,1,num_2,0.6143511002883315,,35,2,2026-03-13_13h18.09.221,2026A_exp2,2022.2.4,59.98325266006243,
1000,1,3.7,4.9,1,0,40,40,46,,,,,178.6453075997997,179.29602979985066,179.29602979985066,179.79716559988447,45,315,179.79716559988447,179.79716559988447,179.79716559988447,179.79716559988447,179.79716559988447,179.79716559988447,179.79716559988447,179.79716559988447,179.79716559988447,180.16342739993706,180.16342739993706,180.16342739993706,180.16342739993706,180.16342739993706,180.16342739993706,180.16342739993706,180.16342739993706,180.16342739993706,6,3,"[0.001182400155812502, 0.05017500021494925, 0.36743840016424656]","[0.01742940000258386, 0.3004394001327455, 0.3674442002084106]",180.16342739993706,180.36515460000373,1000,180.36515460000373,1000,1000,1000,1000,1,num_2,0.48066000011749566,,35,2,2026-03-13_13h18.09.221,2026A_exp2,2022.2.4,59.98325266006243,
1,0,3.7,0.0,1,0,41,41,19,,,,,180.8642759998329,181.51488509983756,181.51488509983756,182.01587689993903,315,315,182.01587689993903,182.01587689993903,182.01587689993903,182.01587689993903,182.01587689993903,182.01587689993903,182.01587689993903,182.01587689993903,182.01587689993903,182.38226259988733,182.38226259988733,182.38226259988733,182.38226259988733,182.38226259988733,182.38226259988733,182.38226259988733,182.38226259988733,182.38226259988733,18,1,[0.30017159995622933],[0.3670633998699486],182.38226259988733,182.58248450001702,0.0,182.58248450001702,0,0.0,0,1,1000,num_1,1.0558835002593696,,35,2,2026-03-13_13h18.09.221,2026A_exp2,2022.2.4,59.98325266006243,
1,0,3.7,6.1,0,0,42,42,55,,,,,183.66697769984603,184.3175762000028,184.3175762000028,184.8017396000214,315,315,184.8017396000214,184.8017396000214,184.8017396000214,184.8017396000214,184.8017396000214,184.8017396000214,184.8017396000214,184.8017396000214,184.8017396000214,185.16835079994053,185.16835079994053,185.16835079994053,185.16835079994053,185.16835079994053,185.16835079994053,185.16835079994053,185.16835079994053,185.16835079994053,23,0,,,185.16835079994053,185.36867649992928,3.7,185.36867649992928,0,3.7,1,0,1000,num_1,2.4609212002251297,,35,2,2026-03-13_13h18.09.221,2026A_exp2,2022.2.4,59.98325266006243,
1000,1,0.0,6.1,1,0,43,43,88,,,,,187.8543064999394,188.50512009998783,188.50512009998783,188.98966209986247,45,45,188.98966209986247,188.98966209986247,188.98966209986247,188.98966209986247,188.98966209986247,188.98966209986247,188.98966209986247,188.98966209986247,188.98966209986247,189.35604249988683,189.35604249988683,189.35604249988683,189.35604249988683,189.35604249988683,189.35604249988683,189.35604249988683,189.35604249988683,189.35604249988683,23,0,,,189.35604249988683,189.558089699829,1000,189.558089699829,1000,1000,1000,1000,1,num_2,0.688339700223878,,35,2,2026-03-13_13h18.09.221,2026A_exp2,2022.2.4,59.98325266006243,
1000,1,4.9,6.1,1,0,44,44,28,,,,,190.27347399992868,190.92433589999564,190.92433589999564,191.42548429989256,315,315,191.42548429989256,191.42548429989256,191.42548429989256,191.42548429989256,191.42548429989256,191.42548429989256,191.42548429989256,191.42548429989256,191.42548429989256,191.79182749986649,191.79182749986649,191.79182749986649,191.79182749986649,191.79182749986649,191.79182749986649,191.79182749986649,191.79182749986649,191.79182749986649,17,5,"[0.08348739985376596, 0.16687209997326136, 0.23362339986488223, 0.2670617999974638, 0.3171460998710245]","[0.09990769997239113, 0.1836773999966681, 0.250398299889639, 0.30050689983181655, 0.33373949979431927]",191.79182749986649,191.9937974999193,1000,191.9937974999193,1000,1000,1000,1000,1,num_2,0.636688900180161,,35,2,2026-03-13_13h18.09.221,2026A_exp2,2022.2.4,59.98325266006243,
1,0,0.0,6.1,1,0,45,45,40,,,,,192.6592405999545,193.30997549998574,193.30997549998574,193.8111868998967,315,45,193.8111868998967,193.8111868998967,193.8111868998967,193.8111868998967,193.8111868998967,193.8111868998967,193.8111868998967,193.8111868998967,193.8111868998967,194.1609087998513,194.1609087998513,194.1609087998513,194.1609087998513,194.1609087998513,194.1609087998513,194.1609087998513,194.1609087998513,194.1609087998513,22,0,,,194.1609087998513,194.36101270001382,6.1,194.37776069995016,0,6.1,1,0,1000,num_1,1.1879422001075,,35,2,2026-03-13_13h18.09.221,2026A_exp2,2022.2.4,59.98325266006243,
1000,1,3.7,6.1,0,0,46,46,0,,,,,195.59571229992434,196.24649659986608,196.24649659986608,196.73089709994383,45,315,196.73089709994383,196.73089709994383,196.73089709994383,196.73089709994383,196.73089709994383,196.73089709994383,196.73089709994383,196.73089709994383,196.73089709994383,197.09721699985676,197.09721699985676,197.09721699985676,197.09721699985676,197.09721699985676,197.09721699985676,197.09721699985676,197.09721699985676,197.09721699985676,23,0,,,197.09721699985676,197.29719389998354,1000,197.29719389998354,1000,1000,1000,1000,0,num_3,0.8045789999887347,,35,2,2026-03-13_13h18.09.221,2026A_exp2,2022.2.4,59.98325266006243,
1000,1,0.0,4.9,1,0,47,47,31,,,,,198.13144959998317,198.78220659983344,198.78220659983344,199.28327749995515,45,315,199.28327749995515,199.28327749995515,199.28327749995515,199.28327749995515,199.28327749995515,199.28327749995515,199.28327749995515,199.28327749995515,199.28327749995515,199.64964359998703,199.64964359998703,199.64964359998703,199.64964359998703,199.64964359998703,199.64964359998703,199.64964359998703,199.64964359998703,199.64964359998703,23,0,,,199.64964359998703,199.85169819998555,1000,199.85169819998555,1000,1000,1000,1000,1,num_2,0.6176622002385557,,35,2,2026-03-13_13h18.09.221,2026A_exp2,2022.2.4,59.98325266006243,
1,0,3.7,0.0,0,0,48,48,42,,,,,200.50045229983516,201.1512148999609,201.1512148999609,201.65227289986797,315,45,201.65227289986797,201.65227289986797,201.65227289986797,201.65227289986797,201.65227289986797,201.65227289986797,201.65227289986797,201.65227289986797,201.65227289986797,202.0187412998639,202.0187412998639,202.0187412998639,202.0187412998639,202.0187412998639,202.0187412998639,202.0187412998639,202.0187412998639,202.0187412998639,21,2,"[0.0175048999954015, 0.1338776999618858]","[0.03358719986863434, 0.15029999986290932]",202.0187412998639,202.21889209980145,3.7,202.21889209980145,0,3.7,1,0,1000,num_1,1.0747599999886006,,35,2,2026-03-13_13h18.09.221,2026A_exp2,2022.2.4,59.98325266006243,
1000,1,6.1,0.0,1,0,49,49,68,,,,,203.31980059994385,203.9707082998939,203.9707082998939,204.45502240001224,315,45,204.45502240001224,204.45502240001224,204.45502240001224,204.45502240001224,204.45502240001224,204.45502240001224,204.45502240001224,204.45502240001224,204.45502240001224,204.82156499987468,204.82156499987468,204.82156499987468,204.82156499987468,204.82156499987468,204.82156499987468,204.82156499987468,204.82156499987468,204.82156499987468,23,0,,,204.82156499987468,205.02195099997334,1000,205.02195099997334,1000,1000,1000,1000,1,num_2,0.6241336001548916,,35,2,2026-03-13_13h18.09.221,2026A_exp2,2022.2.4,59.98325266006243,
1000,1,0.0,0.0,0,0,50,50,86,,,,,205.67229899996892,206.32277329987846,206.32277329987846,206.82415809994563,315,45,206.82415809994563,206.82415809994563,206.82415809994563,206.82415809994563,206.82415809994563,206.82415809994563,206.82415809994563,206.82415809994563,206.82415809994563,207.1738976999186,207.1738976999186,207.1738976999186,207.1738976999186,207.1738976999186,207.1738976999186,207.1738976999186,207.1738976999186,207.1738976999186,21,1,[0.06700869998894632],[0.08328920020721853],207.1738976999186,207.3757447998505,1000,207.3907858999446,1000,1000,1000,1000,0,num_3,0.5671386001631618,,35,2,2026-03-13_13h18.09.221,2026A_exp2,2022.2.4,59.98325266006243,
1,0,0.0,3.7,0,0,51,51,35,,,,,207.97459309990518,208.62536689988337,208.62536689988337,209.1262112997938,45,315,209.1262112997938,209.1262112997938,209.1262112997938,209.1262112997938,209.1262112997938,209.1262112997938,209.1262112997938,209.1262112997938,209.1262112997938,209.49291479983367,209.49291479983367,209.49291479983367,209.49291479983367,209.49291479983367,209.49291479983367,209.49291479983367,209.49291479983367,209.49291479983367,23,0,,,209.49291479983367,209.69300279999152,0.0,209.69300279999152,0,0.0,0,1,1000,num_1,1.2251913000363857,,35,2,2026-03-13_13h18.09.221,2026A_exp2,2022.2.4,59.98325266006243,
1000,1,0.0,0.0,0,0,52,52,74,,,,,210.94454629998654,211.59500669990666,211.59500669990666,212.0794335999526,315,45,212.0794335999526,212.0794335999526,212.0794335999526,212.0794335999526,212.0794335999526,212.0794335999526,212.0794335999526,212.0794335999526,212.0794335999526,212.44582929997705,212.44582929997705,212.44582929997705,212.44582929997705,212.44582929997705,212.44582929997705,212.44582929997705,212.44582929997705,212.44582929997705,23,0,,,212.44582929997705,212.64791059982963,1000,212.64791059982963,1000,1000,1000,1000,1,num_2,0.8143378000240773,,35,2,2026-03-13_13h18.09.221,2026A_exp2,2022.2.4,59.98325266006243,
1,0,3.7,0.0,1,0,53,53,50,,,,,213.4801248998847,214.130533099873,214.130533099873,214.63197799981572,315,45,214.63197799981572,214.63197799981572,214.63197799981572,214.63197799981572,214.63197799981572,214.63197799981572,214.63197799981572,214.63197799981572,214.63197799981572,214.9982351998333,214.9982351998333,214.9982351998333,214.9982351998333,214.9982351998333,214.9982351998333,214.9982351998333,214.9982351998333,214.9982351998333,23,0,,,214.9982351998333,215.19839889998548,0.0,215.19839889998548,0,0.0,0,1,1000,num_1,1.1672405002173036,,35,2,2026-03-13_13h18.09.221,2026A_exp2,2022.2.4,59.98325266006243,
1,0,6.1,0.0,0,0,54,54,56,,,,,216.38310320000164,217.03548079985194,217.03548079985194,217.5180728000123,315,315,217.5180728000123,217.5180728000123,217.5180728000123,217.5180728000123,217.5180728000123,217.5180728000123,217.5180728000123,217.5180728000123,217.5180728000123,217.88439489994198,217.88439489994198,217.88439489994198,217.88439489994198,217.88439489994198,217.88439489994198,217.88439489994198,217.88439489994198,217.88439489994198,23,0,,,217.88439489994198,218.08484109980054,6.1,218.08484109980054,1,6.1,1,1,1000,num_4,0.784761100076139,,35,2,2026-03-13_13h18.09.221,2026A_exp2,2022.2.4,59.98325266006243,
1000,1,0.0,0.0,0,0,55,55,85,,,,,218.88546629995108,219.53625599993393,219.53625599993393,220.0206162999384,315,45,220.0206162999384,220.0206162999384,220.0206162999384,220.0206162999384,220.0206162999384,220.0206162999384,220.0206162999384,220.0206162999384,220.0206162999384,220.38713199994527,220.38713199994527,220.38713199994527,220.38713199994527,220.38713199994527,220.38713199994527,220.38713199994527,220.38713199994527,220.38713199994527,23,0,,,220.38713199994527,220.58927519991994,1000,220.58927519991994,1000,1000,1000,1000,1,num_2,2.3209797001909465,,35,2,2026-03-13_13h18.09.221,2026A_exp2,2022.2.4,59.98325266006243,
1000,1,0.0,0.0,1,0,56,56,23,,,,,222.9395059000235,223.59029109985568,223.59029109985568,224.09145419998094,45,45,224.09145419998094,224.09145419998094,224.09145419998094,224.09145419998094,224.09145419998094,224.09145419998094,224.09145419998094,224.09145419998094,224.09145419998094,224.457775299903,224.457775299903,224.457775299903,224.457775299903,224.457775299903,224.457775299903,224.457775299903,224.457775299903,224.457775299903,19,2,"[0.03367540007457137, 0.2171394000761211]","[0.05031459988094866, 0.2671928000636399]",224.457775299903,224.6598125998862,1000,224.6598125998862,1000,1000,1000,1000,0,num_3,1.2181633000727743,,35,2,2026-03-13_13h18.09.221,2026A_exp2,2022.2.4,59.98325266006243,
1000,1,0.0,0.0,0,0,57,57,18,,,,,225.90924449986778,226.560127499979,226.560127499979,227.06105789984576,315,45,227.06105789984576,227.06105789984576,227.06105789984576,227.06105789984576,227.06105789984576,227.06105789984576,227.06105789984576,227.06105789984576,227.06105789984576,227.41081789997406,227.41081789997406,227.41081789997406,227.41081789997406,227.41081789997406,227.41081789997406,227.41081789997406,227.41081789997406,227.41081789997406,20,1,[0.1835944999475032],[0.21703530009835958],227.41081789997406,227.61267539998516,1000,227.61267539998516,1000,1000,1000,1000,0,num_3,0.6967261000536382,,35,2,2026-03-13_13h18.09.221,2026A_exp2,2022.2.4,59.98325266006243,
1,0,6.1,4.9,0,0,58,58,39,,,,,228.32831419981085,228.978927699849,228.978927699849,229.4802319998853,45,45,229.4802319998853,229.4802319998853,229.4802319998853,229.4802319998853,229.4802319998853,229.4802319998853,229.4802319998853,229.4802319998853,229.4802319998853,229.84658849984407,229.84658849984407,229.84658849984407,229.84658849984407,229.84658849984407,229.84658849984407,229.84658849984407,229.84658849984407,229.84658849984407,23,0,,,229.84658849984407,230.04682119982317,6.1,230.04682119982317,1,6.1,1,1,1000,num_4,1.3344904002733529,,35,2,2026-03-13_13h18.09.221,2026A_exp2,2022.2.4,59.98325266006243,
1000,1,0.0,4.9,1,0,59,59,59,,,,,231.39793029986322,232.0487048998475,232.0487048998475,232.5330395998899,45,315,232.5330395998899,232.5330395998899,232.5330395998899,232.5330395998899,232.5330395998899,232.5330395998899,232.5330395998899,232.5330395998899,232.5330395998899,232.89959919988178,232.89959919988178,232.89959919988178,232.89959919988178,232.89959919988178,232.89959919988178,232.89959919988178,232.89959919988178,232.89959919988178,21,1,[0.017234800150617957],[0.05024710018187761],232.89959919988178,233.09954949980602,1000,233.1161640000064,1000,1000,1000,1000,1,num_2,0.7140536000952125,,35,2,2026-03-13_13h18.09.221,2026A_exp2,2022.2.4,59.98325266006243,
0,0,0.0,0.0,1,0,60,60,71,,,,,233.85054179979488,234.5011688999366,234.5011688999366,235.00223269988783,315,45,235.00223269988783,235.00223269988783,235.00223269988783,235.00223269988783,235.00223269988783,235.00223269988783,235.00223269988783,235.00223269988783,235.00223269988783,235.36874779989012,235.36874779989012,235.36874779989012,235.36874779989012,235.36874779989012,235.36874779989012,235.36874779989012,235.36874779989012,235.36874779989012,22,1,[0.13326759985648096],[0.14960030000656843],235.36874779989012,235.56880659982562,0.0,235.56880659982562,1,0.0,0,0,1000,num_4,1.3652108001988381,,35,2,2026-03-13_13h18.09.221,2026A_exp2,2022.2.4,59.98325266006243,
1,0,3.7,3.7,0,0,61,61,13,,,,,236.9534616000019,237.60433040000498,237.60433040000498,238.08875619992614,315,45,238.08875619992614,238.08875619992614,238.08875619992614,238.08875619992614,238.08875619992614,238.08875619992614,238.08875619992614,238.08875619992614,238.08875619992614,238.45506219984964,238.45506219984964,238.45506219984964,238.45506219984964,238.45506219984964,238.45506219984964,238.45506219984964,238.45506219984964,238.45506219984964,18,4,"[0.03366769989952445, 0.06685149995610118, 0.18319180002436042, 0.30022630002349615]","[0.05021259980276227, 0.10030129994265735, 0.20017339987680316, 0.3168037999421358]",238.45506219984964,238.65534039982595,3.7,238.65534039982595,0,3.7,1,0,1000,num_1,1.0140283999498934,,35,2,2026-03-13_13h18.09.221,2026A_exp2,2022.2.4,59.98325266006243,
1,0,0.0,0.0,0,0,62,62,1,,,,,239.68957549985498,240.34040939994156,240.34040939994156,240.8248344999738,315,315,240.8248344999738,240.8248344999738,240.8248344999738,240.8248344999738,240.8248344999738,240.8248344999738,240.8248344999738,240.8248344999738,240.8248344999738,241.19122259994037,241.19122259994037,241.19122259994037,241.19122259994037,241.19122259994037,241.19122259994037,241.19122259994037,241.19122259994037,241.19122259994037,16,5,"[0.05017719999887049, 0.08354160003364086, 0.13372550019994378, 0.26713740010745823, 0.350665400037542]","[0.06703260005451739, 0.10002100002020597, 0.16699850000441074, 0.3004910000599921, 0.36729290010407567]",241.19122259994037,241.3913612999022,0.0,241.3913612999022,0,0.0,0,1,1000,num_1,0.8620966000016779,,35,2,2026-03-13_13h18.09.221,2026A_exp2,2022.2.4,59.98325266006243,
1,0,0.0,6.1,1,0,63,63,52,,,,,242.2754567998927,242.926177599933,242.926177599933,243.41072479984723,315,45,243.41072479984723,243.41072479984723,243.41072479984723,243.41072479984723,243.41072479984723,243.41072479984723,243.41072479984723,243.41072479984723,243.41072479984723,243.77703379979357,243.77703379979357,243.77703379979357,243.77703379979357,243.77703379979357,243.77703379979357,243.77703379979357,243.77703379979357,243.77703379979357,20,3,"[0.1503137000836432, 0.233706200029701, 0.3170163999311626]","[0.1670758998952806, 0.25026579992845654, 0.3337246000301093]",243.77703379979357,243.97738049994223,6.1,243.97738049994223,1,6.1,1,1,1000,num_4,0.7567895001266152,,35,2,2026-03-13_13h18.09.221,2026A_exp2,2022.2.4,59.98325266006243,
1,0,6.1,4.9,0,0,64,64,24,,,,,244.76139179989696,245.41217439994216,245.41217439994216,245.89651179988869,45,45,245.89651179988869,245.89651179988869,245.89651179988869,245.89651179988869,245.89651179988869,245.89651179988869,245.89651179988869,245.89651179988869,245.89651179988869,246.26291109994054,246.26291109994054,246.26291109994054,246.26291109994054,246.26291109994054,246.26291109994054,246.26291109994054,246.26291109994054,246.26291109994054,20,2,"[0.0012251001317054033, 0.15018220013007522]","[0.03335479996167123, 0.1666652001440525]",246.26291109994054,246.46307799988426,6.1,246.46307799988426,1,6.1,1,1,1000,num_4,0.6233485001139343,,35,2,2026-03-13_13h18.09.221,2026A_exp2,2022.2.4,59.98325266006243,
1000,1,0.0,4.9,1,0,65,65,76,,,,,247.11362289986573,247.76432610000484,247.76432610000484,248.24883559998125,45,45,248.24883559998125,248.24883559998125,248.24883559998125,248.24883559998125,248.24883559998125,248.24883559998125,248.24883559998125,248.24883559998125,248.24883559998125,248.6150781000033,248.6150781000033,248.6150781000033,248.6150781000033,248.6150781000033,248.6150781000033,248.6150781000033,248.6150781000033,248.6150781000033,11,5,"[0.050248200073838234, 0.13369280006736517, 0.21710090013220906, 0.2837760001420975, 0.33372290013357997]","[0.08363800006918609, 0.20026820013299584, 0.2502047000452876, 0.30047850008122623, 0.36679300013929605]",248.6150781000033,248.81665989989415,1000,248.81665989989415,1000,1000,1000,1000,1,num_2,0.6377475000917912,,35,2,2026-03-13_13h18.09.221,2026A_exp2,2022.2.4,59.98325266006243,
1000,1,0.0,0.0,1,0,66,66,12,,,,,249.48288669995964,250.13337539997883,250.13337539997883,250.63467549998313,315,45,250.63467549998313,250.63467549998313,250.63467549998313,250.63467549998313,250.63467549998313,250.63467549998313,250.63467549998313,250.63467549998313,250.63467549998313,251.00113440002315,251.00113440002315,251.00113440002315,251.00113440002315,251.00113440002315,251.00113440002315,251.00113440002315,251.00113440002315,251.00113440002315,17,3,"[0.05061379983089864, 0.2674624999053776, 0.3209641999565065]","[0.08397539984434843, 0.30373769998550415, 0.35422639991156757]",251.00113440002315,251.2167377998121,1000,251.2167377998121,1000,1000,1000,1000,1,num_2,1.356776000233367,,35,2,2026-03-13_13h18.09.221,2026A_exp2,2022.2.4,59.98325266006243,
1000,1,6.1,6.1,1,0,67,67,77,,,,,252.60250469995663,253.253178199986,253.253178199986,253.75436799996532,315,45,253.75436799996532,253.75436799996532,253.75436799996532,253.75436799996532,253.75436799996532,253.75436799996532,253.75436799996532,253.75436799996532,253.75436799996532,254.12081489991397,254.12081489991397,254.12081489991397,254.12081489991397,254.12081489991397,254.12081489991397,254.12081489991397,254.12081489991397,254.12081489991397,14,5,"[0.03337329998612404, 0.10014309990219772, 0.1668028999119997, 0.23353439988568425, 0.3336699998471886]","[0.06673129997216165, 0.13347509992308915, 0.18363299989141524, 0.2836498999968171, 0.3503095000050962]",254.12081489991397,254.32292809989303,1000,254.32292809989303,1000,1000,1000,1000,1,num_2,1.0984439000021666,,35,2,2026-03-13_13h18.09.221,2026A_exp2,2022.2.4,59.98325266006243,
1000,1,0.0,3.7,0,0,68,68,51,,,,,255.43875660002232,256.08945369999856,256.08945369999856,256.5902801998891,315,45,256.5902801998891,256.5902801998891,256.5902801998891,256.5902801998891,256.5902801998891,256.5902801998891,256.5902801998891,256.5902801998891,256.5902801998891,256.9569426998496,256.9569426998496,256.9569426998496,256.9569426998496,256.9569426998496,256.9569426998496,256.9569426998496,256.9569426998496,256.9569426998496,19,3,"[0.20052370009943843, 0.2670198001433164, 0.3676060000434518]","[0.21696430002339184, 0.30051560001447797, 0.3676107001956552]",256.9569426998496,257.157996899914,1000,257.157996899914,1000,1000,1000,1000,0,num_3,1.0718390000984073,,35,2,2026-03-13_13h18.09.221,2026A_exp2,2022.2.4,59.98325266006243,
1000,1,3.7,0.0,0,0,69,69,2,,,,,258.2582515999675,258.9089538999833,258.9089538999833,259.4100532999728,45,315,259.4100532999728,259.4100532999728,259.4100532999728,259.4100532999728,259.4100532999728,259.4100532999728,259.4100532999728,259.4100532999728,259.4100532999728,259.77636719984,259.77636719984,259.77636719984,259.77636719984,259.77636719984,259.77636719984,259.77636719984,259.77636719984,259.77636719984,15,4,"[0.001202200073748827, 0.10009289998561144, 0.26711570005863905, 0.3672571999486536]","[0.05028839991427958, 0.11687329993583262, 0.31705920002423227, 0.36726219998672605]",259.77636719984,259.9783052999992,1000,259.9783052999992,1000,1000,1000,1000,1,num_2,0.6995536000467837,,35,2,2026-03-13_13h18.09.221,2026A_exp2,2022.2.4,59.98325266006243,
1000,1,6.1,0.0,1,0,70,70,75,,,,,260.6938858998474,261.34473149990663,261.34473149990663,261.84588379994966,45,45,261.84588379994966,261.84588379994966,261.84588379994966,261.84588379994966,261.84588379994966,261.84588379994966,261.84588379994966,261.84588379994966,261.84588379994966,262.1956127998419,262.1956127998419,262.1956127998419,262.1956127998419,262.1956127998419,262.1956127998419,262.1956127998419,262.1956127998419,262.1956127998419,16,3,"[0.0012560999020934105, 0.18358740000985563, 0.35027950000949204]","[0.03340239985845983, 0.23361829994246364, 0.3502847000490874]",262.1956127998419,262.39779699989595,1000,262.39779699989595,1000,1000,1000,1000,0,num_3,0.6325159000698477,,35,2,2026-03-13_13h18.09.221,2026A_exp2,2022.2.4,59.98325266006243,
1000,1,0.0,0.0,0,0,71,71,64,,,,,263.0463152998127,263.697292199824,263.697292199824,264.19800470001064,45,45,264.19800470001064,264.19800470001064,264.19800470001064,264.19800470001064,264.19800470001064,264.19800470001064,264.19800470001064,264.19800470001064,264.19800470001064,264.5644592999015,264.5644592999015,264.5644592999015,264.5644592999015,264.5644592999015,264.5644592999015,264.5644592999015,264.5644592999015,264.5644592999015,17,3,"[0.11697439989075065, 0.233694699825719, 0.2838063999079168]","[0.15038769994862378, 0.2671354999765754, 0.31708649988286197]",264.5644592999015,264.76481399987824,1000,264.76481399987824,1000,1000,1000,1000,1,num_2,1.3534377000760287,,35,2,2026-03-13_13h18.09.221,2026A_exp2,2022.2.4,59.98325266006243,
1000,1,6.1,0.0,1,0,72,72,16,,,,,266.14943779981695,266.80015129991807,266.80015129991807,267.3012957999017,45,315,267.3012957999017,267.3012957999017,267.3012957999017,267.3012957999017,267.3012957999017,267.3012957999017,267.3012957999017,267.3012957999017,267.3012957999017,267.6510560999159,267.6510560999159,267.6510560999159,267.6510560999159,267.6510560999159,267.6510560999159,267.6510560999159,267.6510560999159,267.6510560999159,21,1,[0.1172781998757273],[0.13343949988484383],267.6510560999159,267.8530301998835,1000,267.8530301998835,1000,1000,1000,1000,0,num_3,0.8489673000294715,,35,2,2026-03-13_13h18.09.221,2026A_exp2,2022.2.4,59.98325266006243,
1000,1,0.0,6.1,0,0,73,73,9,,,,,268.7186197999399,269.3694456999656,269.3694456999656,269.87043619994074,45,315,269.87043619994074,269.87043619994074,269.87043619994074,269.87043619994074,269.87043619994074,269.87043619994074,269.87043619994074,269.87043619994074,269.87043619994074,270.2368574999273,270.2368574999273,270.2368574999273,270.2368574999273,270.2368574999273,270.2368574999273,270.2368574999273,270.2368574999273,270.2368574999273,12,5,"[0.05005749990232289, 0.10016530007123947, 0.16688139992766082, 0.2335950001142919, 0.3333841999992728]","[0.06680430006235838, 0.15026500006206334, 0.21690470003522933, 0.2503671001177281, 0.3668992000166327]",270.2368574999273,270.43900819984265,1000,270.43900819984265,1000,1000,1000,1000,1,num_2,0.751213800162077,,35,2,2026-03-13_13h18.09.221,2026A_exp2,2022.2.4,59.98325266006243,
1,0,0.0,4.9,1,0,74,74,21,,,,,271.221113699954,271.87171530001797,271.87171530001797,272.3729145999532,315,45,272.3729145999532,272.3729145999532,272.3729145999532,272.3729145999532,272.3729145999532,272.3729145999532,272.3729145999532,272.3729145999532,272.3729145999532,272.73947609984316,272.73947609984316,272.73947609984316,272.73947609984316,272.73947609984316,272.73947609984316,272.73947609984316,272.73947609984316,272.73947609984316,15,5,"[0.03350059990771115, 0.08349949982948601, 0.1169417998753488, 0.18364529986865819, 0.28368999995291233]","[0.06692659994587302, 0.10020329989492893, 0.15030650002881885, 0.21710559981875122, 0.3005792999174446]",272.73947609984316,272.9397223999258,4.9,272.9397223999258,0,4.9,1,0,1000,num_1,0.9695886999834329,,35,2,2026-03-13_13h18.09.221,2026A_exp2,2022.2.4,59.98325266006243,
1000,1,0.0,0.0,0,0,75,75,80,,,,,273.94037889991887,274.5914466998074,274.5914466998074,275.0756279998459,315,315,275.0756279998459,275.0756279998459,275.0756279998459,275.0756279998459,275.0756279998459,275.0756279998459,275.0756279998459,275.0756279998459,275.0756279998459,275.4419368999079,275.4419368999079,275.4419368999079,275.4419368999079,275.4419368999079,275.4419368999079,275.4419368999079,275.4419368999079,275.4419368999079,23,0,,,275.4419368999079,275.64390259981155,1000,275.64390259981155,1000,1000,1000,1000,0,num_3,2.9858812000602484,,35,2,2026-03-13_13h18.09.221,2026A_exp2,2022.2.4,59.98325266006243,
1,0,6.1,0.0,0,0,76,76,70,,,,,278.64525009994395,279.2959975998383,279.2959975998383,279.79703159979545,315,315,279.79703159979545,279.79703159979545,279.79703159979545,279.79703159979545,279.79703159979545,279.79703159979545,279.79703159979545,279.79703159979545,279.79703159979545,280.1634146999568,280.1634146999568,280.1634146999568,280.1634146999568,280.1634146999568,280.1634146999568,280.1634146999568,280.1634146999568,280.1634146999568,23,0,,,280.1634146999568,280.3636764998082,6.1,280.3636764998082,1,6.1,1,1,1000,num_4,0.7305191000923514,,35,2,2026-03-13_13h18.09.221,2026A_exp2,2022.2.4,59.98325266006243,
1000,1,3.7,4.9,1,0,77,77,43,,,,,281.1143316999078,281.7497150998097,281.7497150998097,282.2495293999091,45,45,282.2495293999091,282.2495293999091,282.2495293999091,282.2495293999091,282.2495293999091,282.2495293999091,282.2495293999091,282.2495293999091,282.2495293999091,282.6158195999451,282.6158195999451,282.6158195999451,282.6158195999451,282.6158195999451,282.6158195999451,282.6158195999451,282.6158195999451,282.6158195999451,11,3,"[0.08363040001131594, 0.20041220006532967, 0.28367860009893775]","[0.15029120002873242, 0.23380209994502366, 0.36724879988469183]",282.6158195999451,282.81781669985503,1000,282.81781669985503,1000,1000,1000,1000,1,num_2,0.7643305999226868,,35,2,2026-03-13_13h18.09.221,2026A_exp2,2022.2.4,59.98325266006243,
1000,1,6.1,0.0,0,0,78,78,14,,,,,283.60013779997826,284.25087019987404,284.25087019987404,284.75208849995397,45,45,284.75208849995397,284.75208849995397,284.75208849995397,284.75208849995397,284.75208849995397,284.75208849995397,284.75208849995397,284.75208849995397,284.75208849995397,285.1018610999454,285.1018610999454,285.1018610999454,285.1018610999454,285.1018610999454,285.1018610999454,285.1018610999454,285.1018610999454,285.1018610999454,22,0,,,285.1018610999454,285.30375229986385,1000,285.30375229986385,1000,1000,1000,1000,0,num_3,0.5898003000766039,,35,2,2026-03-13_13h18.09.221,2026A_exp2,2022.2.4,59.98325266006243,
1000,1,4.9,0.0,0,0,79,79,26,,,,,285.91918720002286,286.56996019999497,286.56996019999497,287.07108669984154,45,315,287.07108669984154,287.07108669984154,287.07108669984154,287.07108669984154,287.07108669984154,287.07108669984154,287.07108669984154,287.07108669984154,287.07108669984154,287.4375795999076,287.4375795999076,287.4375795999076,287.4375795999076,287.4375795999076,287.4375795999076,287.4375795999076,287.4375795999076,287.4375795999076,23,0,,,287.4375795999076,287.6394815999083,1000,287.6394815999083,1000,1000,1000,1000,0,num_3,0.5899128001183271,,35,2,2026-03-13_13h18.09.221,2026A_exp2,2022.2.4,59.98325266006243,
1,0,0.0,3.7,1,0,80,80,41,,,,,288.25493159983307,288.9056074998807,288.9056074998807,289.4067425997928,315,45,289.4067425997928,289.4067425997928,289.4067425997928,289.4067425997928,289.4067425997928,289.4067425997928,289.4067425997928,289.4067425997928,289.4067425997928,289.7731289998628,289.7731289998628,289.7731289998628,289.7731289998628,289.7731289998628,289.7731289998628,289.7731289998628,289.7731289998628,289.7731289998628,23,0,,,289.7731289998628,289.97937630000524,3.7,289.97937630000524,1,3.7,1,1,1000,num_4,0.8903860000427812,,35,2,2026-03-13_13h18.09.221,2026A_exp2,2022.2.4,59.98325266006243,
1000,1,3.7,0.0,0,0,81,81,45,,,,,290.89147999999113,291.5422274998855,291.5422274998855,292.0467479999643,315,315,292.0467479999643,292.0467479999643,292.0467479999643,292.0467479999643,292.0467479999643,292.0467479999643,292.0467479999643,292.0467479999643,292.0467479999643,292.4090662000235,292.4090662000235,292.4090662000235,292.4090662000235,292.4090662000235,292.4090662000235,292.4090662000235,292.4090662000235,292.4090662000235,19,3,"[0.2659869999624789, 0.3326354001183063, 0.3660363999661058]","[0.29924550000578165, 0.3492386001162231, 0.36604130011983216]",292.4090662000235,292.6105917999521,1000,292.6105917999521,1000,1000,1000,1000,0,num_3,0.7874463000334799,,35,2,2026-03-13_13h18.09.221,2026A_exp2,2022.2.4,59.98325266006243,
1000,1,4.9,6.1,0,0,82,82,20,,,,,293.42677569994703,294.0774095999077,294.0774095999077,294.5618739000056,315,45,294.5618739000056,294.5618739000056,294.5618739000056,294.5618739000056,294.5618739000056,294.5618739000056,294.5618739000056,294.5618739000056,294.5618739000056,294.9281997999642,294.9281997999642,294.9281997999642,294.9281997999642,294.9281997999642,294.9281997999642,294.9281997999642,294.9281997999642,294.9281997999642,23,0,,,294.9281997999642,295.1287481999025,1000,295.1287481999025,1000,1000,1000,1000,1,num_2,0.6374921000096947,,35,2,2026-03-13_13h18.09.221,2026A_exp2,2022.2.4,59.98325266006243,
1,0,0.0,0.0,1,0,83,83,73,,,,,295.7959817999508,296.44624219997786,296.44624219997786,296.94758209981956,45,315,296.94758209981956,296.94758209981956,296.94758209981956,296.94758209981956,296.94758209981956,296.94758209981956,296.94758209981956,296.94758209981956,296.94758209981956,297.297270399984,297.297270399984,297.297270399984,297.297270399984,297.297270399984,297.297270399984,297.297270399984,297.297270399984,297.297270399984,22,0,,,297.297270399984,297.49748659995385,0.0,297.49748659995385,1,0.0,0,0,1000,num_4,0.8207672999706119,,35,2,2026-03-13_13h18.09.221,2026A_exp2,2022.2.4,59.98325266006243,
0,0,0.0,0.0,1,0,84,84,89,,,,,298.3482623999007,298.9990429999307,298.9990429999307,299.48350749979727,45,45,299.48350749979727,299.48350749979727,299.48350749979727,299.48350749979727,299.48350749979727,299.48350749979727,299.48350749979727,299.48350749979727,299.48350749979727,299.8498641999904,299.8498641999904,299.8498641999904,299.8498641999904,299.8498641999904,299.8498641999904,299.8498641999904,299.8498641999904,299.8498641999904,23,0,,,299.8498641999904,300.0501304999925,0.0,300.0501304999925,0,0.0,0,1,1000,num_1,1.7242783003021032,,35,2,2026-03-13_13h18.09.221,2026A_exp2,2022.2.4,59.98325266006243,
0,0,0.0,3.7,1,0,85,85,10,,,,,301.8018652999308,302.45251889992505,302.45251889992505,302.9369498998858,315,45,302.9369498998858,302.9369498998858,302.9369498998858,302.9369498998858,302.9369498998858,302.9369498998858,302.9369498998858,302.9369498998858,302.9369498998858,303.30317179998383,303.30317179998383,303.30317179998383,303.30317179998383,303.30317179998383,303.30317179998383,303.30317179998383,303.30317179998383,303.30317179998383,20,3,"[0.050242000026628375, 0.1835900000296533, 0.250432200031355]","[0.06672979984432459, 0.20025700004771352, 0.2670036999043077]",303.30317179998383,303.50341219990514,0.0,303.50341219990514,1,0.0,0,0,1000,num_4,1.5826547001488507,,35,2,2026-03-13_13h18.09.221,2026A_exp2,2022.2.4,59.98325266006243,
1000,1,0.0,0.0,0,0,86,86,83,,,,,305.1049271998927,305.7557521997951,305.7557521997951,306.2400133998599,45,315,306.2400133998599,306.2400133998599,306.2400133998599,306.2400133998599,306.2400133998599,306.2400133998599,306.2400133998599,306.2400133998599,306.2400133998599,306.60667729983106,306.60667729983106,306.60667729983106,306.60667729983106,306.60667729983106,306.60667729983106,306.60667729983106,306.60667729983106,306.60667729983106,23,0,,,306.60667729983106,306.8083758999128,1000,306.8083758999128,1000,1000,1000,1000,0,num_3,0.7820570999756455,,35,2,2026-03-13_13h18.09.221,2026A_exp2,2022.2.4,59.98325266006243,
1000,1,3.7,6.1,0,0,87,87,84,,,,,307.60752029996365,308.25820609997027,308.25820609997027,308.759568199981,45,45,308.759568199981,308.759568199981,308.759568199981,308.759568199981,308.759568199981,308.759568199981,308.759568199981,308.759568199981,308.759568199981,309.12580529996194,309.12580529996194,309.12580529996194,309.12580529996194,309.12580529996194,309.12580529996194,309.12580529996194,309.12580529996194,309.12580529996194,10,4,"[0.0013812000397592783, 0.06604749988764524, 0.2498085000552237, 0.367040199926123]","[0.04979049996472895, 0.13341529993340373, 0.33379060006700456, 0.3670455999672413]",309.12580529996194,309.3279841998592,1000,309.3279841998592,1000,1000,1000,1000,1,num_2,0.7664090001489967,,35,2,2026-03-13_13h18.09.221,2026A_exp2,2022.2.4,59.98325266006243,
1000,1,0.0,0.0,0,0,88,88,17,,,,,310.1100556999445,310.76083759986795,310.76083759986795,311.26188879995607,45,315,311.26188879995607,311.26188879995607,311.26188879995607,311.26188879995607,311.26188879995607,311.26188879995607,311.26188879995607,311.26188879995607,311.26188879995607,311.6288489999715,311.6288489999715,311.6288489999715,311.6288489999715,311.6288489999715,311.6288489999715,311.6288489999715,311.6288489999715,311.6288489999715,23,0,,,311.6288489999715,311.83026349986903,1000,311.83026349986903,1000,1000,1000,1000,0,num_3,0.6314278000500053,,35,2,2026-03-13_13h18.09.221,2026A_exp2,2022.2.4,59.98325266006243,
1000,1,4.9,3.7,0,0,89,89,32,,,,,312.4793328999076,313.1297134999186,313.1297134999186,313.63081389991567,315,45,313.63081389991567,313.63081389991567,313.63081389991567,313.63081389991567,313.63081389991567,313.63081389991567,313.63081389991567,313.63081389991567,313.63081389991567,313.9973996998742,313.9973996998742,313.9973996998742,313.9973996998742,313.9973996998742,313.9973996998742,313.9973996998742,313.9973996998742,313.9973996998742,18,2,"[0.0012378999963402748, 0.16722350008785725]","[0.05004430003464222, 0.18390970001928508]",313.9973996998742,314.19961469992995,1000,314.19961469992995,1000,1000,1000,1000,1,num_2,0.6307098001707345,,35,2,2026-03-13_13h18.09.221,2026A_exp2,2022.2.4,59.98325266006243,
,,,,,,,,,,,,,,,,,,,,,,,,,,,,,,,,,,,,,,,,,,,,,,,,,,,,314.8565369998105,,,,,,,
