validity,detectorcomp,contrastCW,contrastCCW,precueCWorCCW,block_80trials.thisRepN,block_80trials.thisTrialN,block_80trials.thisN,block_80trials.thisIndex,etRecord.started,etRecord.stopped,text.started,text.stopped,text_4.started,text_4.stopped,text_6.started,text_6.stopped,oriCW,oriCCW,roi_2.started,grating_UR.started,grating_UL.started,grating_LR.started,grating_LL.started,noise_UR.started,noise_UL.started,noise_LR.started,noise_LL.started,roi_2.stopped,grating_UR.stopped,grating_UL.stopped,grating_LR.stopped,grating_LL.stopped,noise_UR.stopped,noise_UL.stopped,noise_LR.stopped,noise_LL.stopped,outframe,roi_2.numLooks,roi_2.timesOn,roi_2.timesOff,text_2.started,text_2.stopped,probedcontrast,key_resp.started,respdetect,relevantContrast,correctDetect,TorFdetect,respCWorCCW,key_resp.keys,key_resp.rt,feedback_display_.started,participantNo,blockNo,date,expName,psychopyVersion,frameRate,
1000,1,0.0,0.0,1,0,0,0,3,5.8099860325455666e-05,5.8099860325455666e-05,47.179649899946526,49.18383909994736,49.18383909994736,49.81613270007074,49.81613270007074,50.34002160001546,45,315,50.34002160001546,50.34002160001546,50.34002160001546,50.34002160001546,50.34002160001546,50.34002160001546,50.34002160001546,50.34002160001546,50.34002160001546,50.683690999867395,50.683690999867395,50.683690999867395,50.683690999867395,50.683690999867395,50.683690999867395,50.683690999867395,50.683690999867395,50.683690999867395,0,1,[0.0009677000343799591],[0.36566099990159273],50.683690999867395,50.891489499947056,1000,50.891489499947056,1000,1000,1000,1000,0,num_3,0.5183319000061601,,31,13,2026-03-12_14h27.14.057,2026A_exp2,2022.2.4,59.94017969175549,
1000,1,6.1,0.0,0,0,1,1,58,,,,,51.434669399866834,52.085254800040275,52.085254800040275,52.5864005999174,315,45,52.5864005999174,52.5864005999174,52.5864005999174,52.5864005999174,52.5864005999174,52.5864005999174,52.5864005999174,52.5864005999174,52.5864005999174,52.93613999988884,52.93613999988884,52.93613999988884,52.93613999988884,52.93613999988884,52.93613999988884,52.93613999988884,52.93613999988884,52.93613999988884,0,1,[0.0012475000694394112],[0.3505737001542002],52.93613999988884,53.13803260005079,1000,53.13803260005079,1000,1000,1000,1000,0,num_3,0.3512746002525091,,31,13,2026-03-12_14h27.14.057,2026A_exp2,2022.2.4,59.94017969175549,
0,0,6.1,3.7,0,0,2,2,49,,,,,53.519969099899754,54.170708700083196,54.170708700083196,54.671841399976984,45,315,54.671841399976984,54.671841399976984,54.671841399976984,54.671841399976984,54.671841399976984,54.671841399976984,54.671841399976984,54.671841399976984,54.671841399976984,55.03824430005625,55.03824430005625,55.03824430005625,55.03824430005625,55.03824430005625,55.03824430005625,55.03824430005625,55.03824430005625,55.03824430005625,0,1,[0.0011982000432908535],[0.3672495000064373],55.03824430005625,55.23832380003296,3.7,55.23832380003296,1,3.7,1,1,1000,num_4,0.9312073001638055,,31,13,2026-03-12_14h27.14.057,2026A_exp2,2022.2.4,59.94017969175549,
1000,1,6.1,0.0,1,0,3,3,79,,,,,56.18923330004327,56.83984460006468,56.83984460006468,57.34115900006145,315,315,57.34115900006145,57.34115900006145,57.34115900006145,57.34115900006145,57.34115900006145,57.34115900006145,57.34115900006145,57.34115900006145,57.34115900006145,57.69087180006318,57.69087180006318,57.69087180006318,57.69087180006318,57.69087180006318,57.69087180006318,57.69087180006318,57.69087180006318,57.69087180006318,0,1,[0.0013073000591248274],[0.35071210004389286],57.69087180006318,57.89279549987987,1000,57.89279549987987,1000,1000,1000,1000,0,num_3,0.3735605999827385,,31,13,2026-03-12_14h27.14.057,2026A_exp2,2022.2.4,59.94017969175549,
1000,1,0.0,0.0,1,0,4,4,56,,,,,58.29146569990553,58.942195599898696,58.942195599898696,59.443145300028846,315,45,59.443145300028846,59.443145300028846,59.443145300028846,59.443145300028846,59.443145300028846,59.443145300028846,59.443145300028846,59.443145300028846,59.443145300028846,59.809210000094026,59.809210000094026,59.809210000094026,59.809210000094026,59.809210000094026,59.809210000094026,59.809210000094026,59.809210000094026,59.809210000094026,0,1,[0.0012129999231547117],[0.3674377999268472],59.809210000094026,60.011727900011465,1000,60.011727900011465,1000,1000,1000,1000,0,num_3,0.3259843001142144,,31,13,2026-03-12_14h27.14.057,2026A_exp2,2022.2.4,59.94017969175549,
1000,1,0.0,0.0,1,0,5,5,55,,,,,60.360335800098255,61.01077300007455,61.01077300007455,61.512041199952364,45,315,61.512041199952364,61.512041199952364,61.512041199952364,61.512041199952364,61.512041199952364,61.512041199952364,61.512041199952364,61.512041199952364,61.512041199952364,61.86150719993748,61.86150719993748,61.86150719993748,61.86150719993748,61.86150719993748,61.86150719993748,61.86150719993748,61.86150719993748,61.86150719993748,0,1,[0.001257200026884675],[0.3505241998936981],61.86150719993748,62.0640177000314,1000,62.0640177000314,1000,1000,1000,1000,1,num_2,0.4178798000793904,,31,13,2026-03-12_14h27.14.057,2026A_exp2,2022.2.4,59.94017969175549,
1,0,0.0,0.0,1,0,6,6,83,,,,,62.512366000097245,63.16307849995792,63.16307849995792,63.67949489993043,45,315,63.67949489993043,63.67949489993043,63.67949489993043,63.67949489993043,63.67949489993043,63.67949489993043,63.67949489993043,63.67949489993043,63.67949489993043,64.0306583000347,64.0306583000347,64.0306583000347,64.0306583000347,64.0306583000347,64.0306583000347,64.0306583000347,64.0306583000347,64.0306583000347,0,1,[0.0041766001377254725],[0.36393370013684034],64.0306583000347,64.23088419996202,0.0,64.23088419996202,0,0.0,0,1,1000,num_1,0.9384894000831991,,31,13,2026-03-12_14h27.14.057,2026A_exp2,2022.2.4,59.94017969175549,
1000,1,0.0,0.0,0,0,7,7,65,,,,,65.19820689992048,65.84900110005401,65.84900110005401,66.35025879996829,315,45,66.35025879996829,66.35025879996829,66.35025879996829,66.35025879996829,66.35025879996829,66.35025879996829,66.35025879996829,66.35025879996829,66.35025879996829,66.69989910000004,66.69989910000004,66.69989910000004,66.69989910000004,66.69989910000004,66.69989910000004,66.69989910000004,66.69989910000004,66.69989910000004,0,1,[0.0007655001245439053],[0.3508040001615882],66.69989910000004,66.90201109996997,1000,66.90201109996997,1000,1000,1000,1000,0,num_3,0.45970780006609857,,31,13,2026-03-12_14h27.14.057,2026A_exp2,2022.2.4,59.94017969175549,
1000,1,4.9,3.7,1,0,8,8,78,,,,,67.38378129992634,68.0346309999004,68.0346309999004,68.53570330003276,45,45,68.53570330003276,68.53570330003276,68.53570330003276,68.53570330003276,68.53570330003276,68.53570330003276,68.53570330003276,68.53570330003276,68.53570330003276,68.90208390005864,68.90208390005864,68.90208390005864,68.90208390005864,68.90208390005864,68.90208390005864,68.90208390005864,68.90208390005864,68.90208390005864,0,1,[0.0012181999627500772],[0.36718439985997975],68.90208390005864,69.10426920000464,1000,69.10426920000464,1000,1000,1000,1000,0,num_3,0.361386300297454,,31,13,2026-03-12_14h27.14.057,2026A_exp2,2022.2.4,59.94017969175549,
0,0,6.1,0.0,1,0,9,9,52,,,,,69.4858319000341,70.13655410008505,70.13655410008505,70.63773329998367,45,315,70.63773329998367,70.63773329998367,70.63773329998367,70.63773329998367,70.63773329998367,70.63773329998367,70.63773329998367,70.63773329998367,70.63773329998367,71.00388680002652,71.00388680002652,71.00388680002652,71.00388680002652,71.00388680002652,71.00388680002652,71.00388680002652,71.00388680002652,71.00388680002652,0,1,[0.001302200136706233],[0.36681310017593205],71.00388680002652,71.20404389989562,6.1,71.20404389989562,1,6.1,1,1,1000,num_4,0.7103844003286213,,31,13,2026-03-12_14h27.14.057,2026A_exp2,2022.2.4,59.94017969175549,
0,0,6.1,0.0,0,0,10,10,41,,,,,71.93822330003604,72.58905380009674,72.58905380009674,73.07353689987212,45,315,73.07353689987212,73.07353689987212,73.07353689987212,73.07353689987212,73.07353689987212,73.07353689987212,73.07353689987212,73.07353689987212,73.07353689987212,73.43968850001693,73.43968850001693,73.43968850001693,73.43968850001693,73.43968850001693,73.43968850001693,73.43968850001693,73.43968850001693,73.43968850001693,0,1,[0.0012248000130057335],[0.3668531998991966],73.43968850001693,73.65314619988203,0.0,73.65314619988203,0,0.0,0,1,1000,num_1,0.6773524000309408,,31,13,2026-03-12_14h27.14.057,2026A_exp2,2022.2.4,59.94017969175549,
1000,1,0.0,0.0,0,0,11,11,89,,,,,74.35776779986918,75.00826240004972,75.00826240004972,75.50917460001074,45,45,75.50917460001074,75.50917460001074,75.50917460001074,75.50917460001074,75.50917460001074,75.50917460001074,75.50917460001074,75.50917460001074,75.50917460001074,75.8757058000192,75.8757058000192,75.8757058000192,75.8757058000192,75.8757058000192,75.8757058000192,75.8757058000192,75.8757058000192,75.8757058000192,3,3,"[0.0012397000100463629, 0.050245200050994754, 0.1167675000615418]","[0.03347590006887913, 0.08356120018288493, 0.36714790016412735]",75.8757058000192,76.0779452000279,1000,76.0779452000279,1000,1000,1000,1000,0,num_3,0.4676563001703471,,31,13,2026-03-12_14h27.14.057,2026A_exp2,2022.2.4,59.94017969175549,
1,0,0.0,6.1,1,0,12,12,19,,,,,76.57627169997431,77.22671280009672,77.22671280009672,77.7280591998715,45,45,77.7280591998715,77.7280591998715,77.7280591998715,77.7280591998715,77.7280591998715,77.7280591998715,77.7280591998715,77.7280591998715,77.7280591998715,78.09441510005854,78.09441510005854,78.09441510005854,78.09441510005854,78.09441510005854,78.09441510005854,78.09441510005854,78.09441510005854,78.09441510005854,0,1,[0.0012141000479459763],[0.3670452998485416],78.09441510005854,78.29485659999773,6.1,78.29485659999773,1,6.1,1,1,1000,num_4,0.6757024000398815,,31,13,2026-03-12_14h27.14.057,2026A_exp2,2022.2.4,59.94017969175549,
1000,1,0.0,6.1,1,0,13,13,74,,,,,78.99534870008938,79.64603699999861,79.64603699999861,80.13059150008485,45,315,80.13059150008485,80.13059150008485,80.13059150008485,80.13059150008485,80.13059150008485,80.13059150008485,80.13059150008485,80.13059150008485,80.13059150008485,80.49693079991266,80.49693079991266,80.49693079991266,80.49693079991266,80.49693079991266,80.49693079991266,80.49693079991266,80.49693079991266,80.49693079991266,17,3,"[0.20031480002216995, 0.25046660006046295, 0.36703470000065863]","[0.21687899995595217, 0.3169658000115305, 0.3670383000280708]",80.49693079991266,80.69915349991061,1000,80.69915349991061,1000,1000,1000,1000,1,num_2,0.5748148001730442,,31,13,2026-03-12_14h27.14.057,2026A_exp2,2022.2.4,59.94017969175549,
1000,1,0.0,0.0,1,0,14,14,29,,,,,81.29817819991149,81.94845420005731,81.94845420005731,82.44942929991521,315,45,82.44942929991521,82.44942929991521,82.44942929991521,82.44942929991521,82.44942929991521,82.44942929991521,82.44942929991521,82.44942929991521,82.44942929991521,82.81598230008967,82.81598230008967,82.81598230008967,82.81598230008967,82.81598230008967,82.81598230008967,82.81598230008967,82.81598230008967,82.81598230008967,0,1,[0.0008862998802214861],[0.3677356999833137],82.81598230008967,83.01636260002851,1000,83.01636260002851,1000,1000,1000,1000,0,num_3,0.47378720017150044,,31,13,2026-03-12_14h27.14.057,2026A_exp2,2022.2.4,59.94017969175549,
0,0,3.7,4.9,0,0,15,15,77,,,,,83.51649839989841,84.16736630001105,84.16736630001105,84.66836369992234,45,45,84.66836369992234,84.66836369992234,84.66836369992234,84.66836369992234,84.66836369992234,84.66836369992234,84.66836369992234,84.66836369992234,84.66836369992234,85.03490000008605,85.03490000008605,85.03490000008605,85.03490000008605,85.03490000008605,85.03490000008605,85.03490000008605,85.03490000008605,85.03490000008605,0,1,[0.001209900015965104],[0.36707539996132255],85.03490000008605,85.2349940999411,4.9,85.2349940999411,1,4.9,1,1,1000,num_4,0.7585849999450147,,31,13,2026-03-12_14h27.14.057,2026A_exp2,2022.2.4,59.94017969175549,
1,0,0.0,4.9,0,0,16,16,70,,,,,86.01891490002163,86.65281890006736,86.65281890006736,87.16818020003848,45,45,87.16818020003848,87.16818020003848,87.16818020003848,87.16818020003848,87.16818020003848,87.16818020003848,87.16818020003848,87.16818020003848,87.16818020003848,87.52067460003309,87.52067460003309,87.52067460003309,87.52067460003309,87.52067460003309,87.52067460003309,87.52067460003309,87.52067460003309,87.52067460003309,0,1,[0.0039744998794049025],[0.36435969988815486],87.52067460003309,87.72093779989518,0.0,87.72093779989518,0,0.0,0,1,1000,num_1,0.9531891001388431,,31,13,2026-03-12_14h27.14.057,2026A_exp2,2022.2.4,59.94017969175549,
1000,1,0.0,0.0,0,0,17,17,7,,,,,88.70525659993291,89.33906719996594,89.33906719996594,89.84014769992791,315,315,89.84014769992791,89.84014769992791,89.84014769992791,89.84014769992791,89.84014769992791,89.84014769992791,89.84014769992791,89.84014769992791,89.84014769992791,90.20663039991632,90.20663039991632,90.20663039991632,90.20663039991632,90.20663039991632,90.20663039991632,90.20663039991632,90.20663039991632,90.20663039991632,0,1,[0.0012290000449866056],[0.36734470003284514],90.20663039991632,90.40716070006602,1000,90.40716070006602,1000,1000,1000,1000,0,num_3,0.6592196000274271,,31,13,2026-03-12_14h27.14.057,2026A_exp2,2022.2.4,59.94017969175549,
1000,1,3.7,6.1,1,0,18,18,75,,,,,91.09087949991226,91.74266109988093,91.74266109988093,92.2469593998976,45,315,92.2469593998976,92.2469593998976,92.2469593998976,92.2469593998976,92.2469593998976,92.2469593998976,92.2469593998976,92.2469593998976,92.2469593998976,92.60873549990356,92.60873549990356,92.60873549990356,92.60873549990356,92.60873549990356,92.60873549990356,92.60873549990356,92.60873549990356,92.60873549990356,0,1,[0.0024302999954670668],[0.36596429999917746],92.60873549990356,92.8093429999426,1000,92.8093429999426,1000,1000,1000,1000,1,num_2,0.48018470010720193,,31,13,2026-03-12_14h27.14.057,2026A_exp2,2022.2.4,59.94017969175549,
1,0,4.9,6.1,0,0,19,19,82,,,,,93.30961590004154,93.96244210004807,93.96244210004807,94.46163260005414,45,45,94.46163260005414,94.46163260005414,94.46163260005414,94.46163260005414,94.46163260005414,94.46163260005414,94.46163260005414,94.46163260005414,94.46163260005414,94.82789189997129,94.82789189997129,94.82789189997129,94.82789189997129,94.82789189997129,94.82789189997129,94.82789189997129,94.82789189997129,94.82789189997129,0,1,[0.0013611000031232834],[0.3668343999888748],94.82789189997129,95.02811639988795,4.9,95.02811639988795,1,4.9,1,1,1000,num_4,1.0221841000020504,,31,13,2026-03-12_14h27.14.057,2026A_exp2,2022.2.4,59.94017969175549,
1,0,0.0,6.1,0,0,20,20,24,,,,,96.07910680002533,96.72991180000827,96.72991180000827,97.21452430007048,45,45,97.21452430007048,97.21452430007048,97.21452430007048,97.21452430007048,97.21452430007048,97.21452430007048,97.21452430007048,97.21452430007048,97.21452430007048,97.58066629990935,97.58066629990935,97.58066629990935,97.58066629990935,97.58066629990935,97.58066629990935,97.58066629990935,97.58066629990935,97.58066629990935,23,0,,,97.58066629990935,97.78090319992043,0.0,97.78090319992043,1,0.0,0,0,1000,num_4,1.50931779993698,,31,13,2026-03-12_14h27.14.057,2026A_exp2,2022.2.4,59.94017969175549,
1,0,0.0,0.0,1,0,21,21,38,,,,,99.31739520002156,99.96642640000209,99.96642640000209,100.46761230006814,315,315,100.46761230006814,100.46761230006814,100.46761230006814,100.46761230006814,100.46761230006814,100.46761230006814,100.46761230006814,100.46761230006814,100.46761230006814,100.8339219999034,100.8339219999034,100.8339219999034,100.8339219999034,100.8339219999034,100.8339219999034,100.8339219999034,100.8339219999034,100.8339219999034,23,0,,,100.8339219999034,101.03410320007242,0.0,101.03410320007242,0,0.0,0,1,1000,num_1,0.6244889001827687,,31,13,2026-03-12_14h27.14.057,2026A_exp2,2022.2.4,59.94017969175549,
1,0,3.7,0.0,0,0,22,22,26,,,,,101.68476080009714,102.33549520000815,102.33549520000815,102.81987560004927,315,45,102.81987560004927,102.81987560004927,102.81987560004927,102.81987560004927,102.81987560004927,102.81987560004927,102.81987560004927,102.81987560004927,102.81987560004927,103.18640240002424,103.18640240002424,103.18640240002424,103.18640240002424,103.18640240002424,103.18640240002424,103.18640240002424,103.18640240002424,103.18640240002424,12,4,"[0.10020509990863502, 0.16686520003713667, 0.30054460000246763, 0.3700741999782622]","[0.11682719993405044, 0.2839118998963386, 0.33380199992097914, 0.3700920999981463]",103.18640240002424,103.38653589994647,3.7,103.38653589994647,1,3.7,1,1,1000,num_4,0.6153413001447916,,31,13,2026-03-12_14h27.14.057,2026A_exp2,2022.2.4,59.94017969175549,
1,0,0.0,0.0,0,0,23,23,80,,,,,104.02106310008094,104.67107979999855,104.67107979999855,105.17222069995478,315,315,105.17222069995478,105.17222069995478,105.17222069995478,105.17222069995478,105.17222069995478,105.17222069995478,105.17222069995478,105.17222069995478,105.17222069995478,105.53874569991603,105.53874569991603,105.53874569991603,105.53874569991603,105.53874569991603,105.53874569991603,105.53874569991603,105.53874569991603,105.53874569991603,23,0,,,105.53874569991603,105.73875360004604,0.0,105.73875360004604,0,0.0,0,1,1000,num_1,0.7266516999807209,,31,13,2026-03-12_14h27.14.057,2026A_exp2,2022.2.4,59.94017969175549,
1,0,3.7,0.0,1,0,24,24,30,,,,,106.48967269994318,107.14031119993888,107.14031119993888,107.62477239989676,45,315,107.62477239989676,107.62477239989676,107.62477239989676,107.62477239989676,107.62477239989676,107.62477239989676,107.62477239989676,107.62477239989676,107.62477239989676,107.99116070009768,107.99116070009768,107.99116070009768,107.99116070009768,107.99116070009768,107.99116070009768,107.99116070009768,107.99116070009768,107.99116070009768,14,2,"[0.21696759993210435, 0.2504086000844836]","[0.2335952001158148, 0.3672678000293672]",107.99116070009768,108.1913717999123,0.0,108.1913717999123,0,0.0,0,1,1000,num_1,0.6899694001767784,,31,13,2026-03-12_14h27.14.057,2026A_exp2,2022.2.4,59.94017969175549,
1,0,4.9,0.0,0,0,25,25,66,,,,,108.90857609990053,109.55909430002794,109.55909430002794,110.04385869996622,315,45,110.04385869996622,110.04385869996622,110.04385869996622,110.04385869996622,110.04385869996622,110.04385869996622,110.04385869996622,110.04385869996622,110.04385869996622,110.41026500007138,110.41026500007138,110.41026500007138,110.41026500007138,110.41026500007138,110.41026500007138,110.41026500007138,110.41026500007138,110.41026500007138,0,1,[0.0012211001012474298],[0.36706470022909343],110.41026500007138,110.61040239990689,4.9,110.61040239990689,1,4.9,1,1,1000,num_4,0.592153999954462,,31,13,2026-03-12_14h27.14.057,2026A_exp2,2022.2.4,59.94017969175549,
1,0,0.0,0.0,1,0,26,26,31,,,,,111.22742390003987,111.88022470008582,111.88022470008582,112.3626792000141,315,315,112.3626792000141,112.3626792000141,112.3626792000141,112.3626792000141,112.3626792000141,112.3626792000141,112.3626792000141,112.3626792000141,112.3626792000141,112.72921069990844,112.72921069990844,112.72921069990844,112.72921069990844,112.72921069990844,112.72921069990844,112.72921069990844,112.72921069990844,112.72921069990844,0,1,[0.001671799924224615],[0.36677690013311803],112.72921069990844,112.92932930006646,0.0,112.92932930006646,0,0.0,0,1,1000,num_1,0.4887220000382513,,31,13,2026-03-12_14h27.14.057,2026A_exp2,2022.2.4,59.94017969175549,
1000,1,0.0,0.0,0,0,27,27,72,,,,,113.44647599989548,114.0972158999648,114.0972158999648,114.58152200002223,45,45,114.58152200002223,114.58152200002223,114.58152200002223,114.58152200002223,114.58152200002223,114.58152200002223,114.58152200002223,114.58152200002223,114.58152200002223,114.94812839990482,114.94812839990482,114.94812839990482,114.94812839990482,114.94812839990482,114.94812839990482,114.94812839990482,114.94812839990482,114.94812839990482,0,1,[0.0012489000800997019],[0.36715810000896454],114.94812839990482,115.15013259998523,1000,115.15013259998523,1000,1000,1000,1000,0,num_3,0.8831363001372665,,31,13,2026-03-12_14h27.14.057,2026A_exp2,2022.2.4,59.94017969175549,
1000,1,4.9,0.0,1,0,28,28,67,,,,,116.04907680000179,116.69984759995714,116.69984759995714,117.184144299943,45,45,117.184144299943,117.184144299943,117.184144299943,117.184144299943,117.184144299943,117.184144299943,117.184144299943,117.184144299943,117.184144299943,117.55059890006669,117.55059890006669,117.55059890006669,117.55059890006669,117.55059890006669,117.55059890006669,117.55059890006669,117.55059890006669,117.55059890006669,0,1,[0.0012038000859320164],[0.36665010009892285],117.55059890006669,117.7524315000046,1000,117.7524315000046,1000,1000,1000,1000,0,num_3,0.5131692001596093,,31,13,2026-03-12_14h27.14.057,2026A_exp2,2022.2.4,59.94017969175549,
1000,1,0.0,6.1,1,0,29,29,13,,,,,118.28467709990218,118.93543859990314,118.93543859990314,119.43659189995378,315,45,119.43659189995378,119.43659189995378,119.43659189995378,119.43659189995378,119.43659189995378,119.43659189995378,119.43659189995378,119.43659189995378,119.43659189995378,119.8031168000307,119.8031168000307,119.8031168000307,119.8031168000307,119.8031168000307,119.8031168000307,119.8031168000307,119.8031168000307,119.8031168000307,13,4,"[0.0012356000952422619, 0.10033869999460876, 0.1671498001087457, 0.2006389000453055]","[0.08383310004137456, 0.13379110000096262, 0.18373070005327463, 0.23400860000401735]",119.8031168000307,120.00481160008349,1000,120.00481160008349,1000,1000,1000,1000,1,num_2,0.4936041000764817,,31,13,2026-03-12_14h27.14.057,2026A_exp2,2022.2.4,59.94017969175549,
1000,1,0.0,4.9,0,0,30,30,0,,,,,120.52022589999251,121.17086800001562,121.17086800001562,121.67206849996,45,315,121.67206849996,121.67206849996,121.67206849996,121.67206849996,121.67206849996,121.67206849996,121.67206849996,121.67206849996,121.67206849996,122.03847609995864,122.03847609995864,122.03847609995864,122.03847609995864,122.03847609995864,122.03847609995864,122.03847609995864,122.03847609995864,122.03847609995864,14,5,"[0.017374200047925115, 0.0835547000169754, 0.15027239988557994, 0.28349449997767806, 0.3337147000711411]","[0.033594900043681264, 0.1169630999211222, 0.1669272999279201, 0.316762899979949, 0.3671269998885691]",122.03847609995864,122.24047379987314,1000,122.24047379987314,1000,1000,1000,1000,1,num_2,0.36966180009767413,,31,13,2026-03-12_14h27.14.057,2026A_exp2,2022.2.4,59.94017969175549,
0,0,0.0,3.7,1,0,31,31,53,,,,,122.63899979996495,123.28964970004745,123.28964970004745,123.79079160001129,315,45,123.79079160001129,123.79079160001129,123.79079160001129,123.79079160001129,123.79079160001129,123.79079160001129,123.79079160001129,123.79079160001129,123.79079160001129,124.15717689995654,124.15717689995654,124.15717689995654,124.15717689995654,124.15717689995654,124.15717689995654,124.15717689995654,124.15717689995654,124.15717689995654,0,1,[0.001281399978324771],[0.3675871000159532],124.15717689995654,124.35740919993259,0.0,124.35740919993259,0,0.0,0,1,1000,num_1,0.6523453001864254,,31,13,2026-03-12_14h27.14.057,2026A_exp2,2022.2.4,59.94017969175549,
1000,1,0.0,3.7,0,0,32,32,63,,,,,125.04118849989027,125.69218420004472,125.69218420004472,126.1766753999982,45,45,126.1766753999982,126.1766753999982,126.1766753999982,126.1766753999982,126.1766753999982,126.1766753999982,126.1766753999982,126.1766753999982,126.1766753999982,126.54306739987805,126.54306739987805,126.54306739987805,126.54306739987805,126.54306739987805,126.54306739987805,126.54306739987805,126.54306739987805,126.54306739987805,0,1,[0.0012430001515895128],[0.36715689999982715],126.54306739987805,126.74429859989323,1000,126.74429859989323,1000,1000,1000,1000,1,num_2,1.0810408999677747,,31,13,2026-03-12_14h27.14.057,2026A_exp2,2022.2.4,59.94017969175549,
1000,1,0.0,6.1,0,0,33,33,20,,,,,127.84421580005437,128.49495680001564,128.49495680001564,128.99594930000603,45,45,128.99594930000603,128.99594930000603,128.99594930000603,128.99594930000603,128.99594930000603,128.99594930000603,128.99594930000603,128.99594930000603,128.99594930000603,129.36247959989123,129.36247959989123,129.36247959989123,129.36247959989123,129.36247959989123,129.36247959989123,129.36247959989123,129.36247959989123,129.36247959989123,0,1,[0.0012163000646978617],[0.36713130003772676],129.36247959989123,129.5647859000601,1000,129.5647859000601,1000,1000,1000,1000,1,num_2,0.453552900115028,,31,13,2026-03-12_14h27.14.057,2026A_exp2,2022.2.4,59.94017969175549,
1000,1,0.0,3.7,1,0,34,34,4,,,,,130.0463918999303,130.69714240008034,130.69714240008034,131.1983753000386,315,45,131.1983753000386,131.1983753000386,131.1983753000386,131.1983753000386,131.1983753000386,131.1983753000386,131.1983753000386,131.1983753000386,131.1983753000386,131.56469879997894,131.56469879997894,131.56469879997894,131.56469879997894,131.56469879997894,131.56469879997894,131.56469879997894,131.56469879997894,131.56469879997894,0,1,[0.0007189000025391579],[0.367916899966076],131.56469879997894,131.76652710000053,1000,131.76652710000053,1000,1000,1000,1000,1,num_2,0.4185821001883596,,31,13,2026-03-12_14h27.14.057,2026A_exp2,2022.2.4,59.94017969175549,
1,0,0.0,0.0,0,0,35,35,87,,,,,132.2152084999252,132.86605439987034,132.86605439987034,133.36719439993612,315,315,133.36719439993612,133.36719439993612,133.36719439993612,133.36719439993612,133.36719439993612,133.36719439993612,133.36719439993612,133.36719439993612,133.36719439993612,133.7334737998899,133.7334737998899,133.7334737998899,133.7334737998899,133.7334737998899,133.7334737998899,133.7334737998899,133.7334737998899,133.7334737998899,0,1,[0.0012352000921964645],[0.36715300008654594],133.7334737998899,133.93366810004227,0.0,133.93366810004227,0,0.0,0,1,1000,num_1,0.5084123001433909,,31,13,2026-03-12_14h27.14.057,2026A_exp2,2022.2.4,59.94017969175549,
1000,1,0.0,3.7,0,0,36,36,23,,,,,134.46747169992886,135.11831000004895,135.11831000004895,135.60272180009633,45,315,135.60272180009633,135.60272180009633,135.60272180009633,135.60272180009633,135.60272180009633,135.60272180009633,135.60272180009633,135.60272180009633,135.60272180009633,135.96907039987855,135.96907039987855,135.96907039987855,135.96907039987855,135.96907039987855,135.96907039987855,135.96907039987855,135.96907039987855,135.96907039987855,0,1,[0.0012439999263733625],[0.3674029998946935],135.96907039987855,136.17122190003283,1000,136.17122190003283,1000,1000,1000,1000,0,num_3,0.9022127001080662,,31,13,2026-03-12_14h27.14.057,2026A_exp2,2022.2.4,59.94017969175549,
1000,1,4.9,6.1,1,0,37,37,5,,,,,137.10348649998195,137.75425680004992,137.75425680004992,138.2554496000521,315,45,138.2554496000521,138.2554496000521,138.2554496000521,138.2554496000521,138.2554496000521,138.2554496000521,138.2554496000521,138.2554496000521,138.2554496000521,138.6217747000046,138.6217747000046,138.6217747000046,138.6217747000046,138.6217747000046,138.6217747000046,138.6217747000046,138.6217747000046,138.6217747000046,6,1,[0.10047539998777211],[0.36753689986653626],138.6217747000046,138.82400749996305,1000,138.82400749996305,1000,1000,1000,1000,1,num_2,0.5225148000754416,,31,13,2026-03-12_14h27.14.057,2026A_exp2,2022.2.4,59.94017969175549,
1000,1,6.1,3.7,1,0,38,38,11,,,,,139.3724505000282,140.02320219995454,140.02320219995454,140.52395220007747,315,315,140.52395220007747,140.52395220007747,140.52395220007747,140.52395220007747,140.52395220007747,140.52395220007747,140.52395220007747,140.52395220007747,140.52395220007747,140.8906735999044,140.8906735999044,140.8906735999044,140.8906735999044,140.8906735999044,140.8906735999044,140.8906735999044,140.8906735999044,140.8906735999044,0,1,[0.0007431001868098974],[0.367605600040406],140.8906735999044,141.09083639993332,1000,141.09083639993332,1000,1000,1000,1000,0,num_3,0.45436220010742545,,31,13,2026-03-12_14h27.14.057,2026A_exp2,2022.2.4,59.94017969175549,
1,0,3.7,0.0,0,0,39,39,10,,,,,141.57454130006954,142.22539380006492,142.22539380006492,142.73908929992467,315,45,142.73908929992467,142.73908929992467,142.73908929992467,142.73908929992467,142.73908929992467,142.73908929992467,142.73908929992467,142.73908929992467,142.73908929992467,143.0928803998977,143.0928803998977,143.0928803998977,143.0928803998977,143.0928803998977,143.0928803998977,143.0928803998977,143.0928803998977,143.0928803998977,9,3,"[0.004209399921819568, 0.23066579992882907, 0.36423849989660084]","[0.1972968999762088, 0.24744549999013543, 0.36424339981749654]",143.0928803998977,143.29302989994176,3.7,143.29302989994176,0,3.7,1,0,1000,num_1,1.5490622001234442,,31,13,2026-03-12_14h27.14.057,2026A_exp2,2022.2.4,59.94017969175549,
1000,1,4.9,0.0,1,0,40,40,12,,,,,144.8613231999334,145.49531390005723,145.49531390005723,145.99618000001647,315,315,145.99618000001647,145.99618000001647,145.99618000001647,145.99618000001647,145.99618000001647,145.99618000001647,145.99618000001647,145.99618000001647,145.99618000001647,146.3629783000797,146.3629783000797,146.3629783000797,146.3629783000797,146.3629783000797,146.3629783000797,146.3629783000797,146.3629783000797,146.3629783000797,0,1,[0.0007964998949319124],[0.36677760002203286],146.3629783000797,146.56310110003687,1000,146.56310110003687,1000,1000,1000,1000,0,num_3,0.49429330020211637,,31,13,2026-03-12_14h27.14.057,2026A_exp2,2022.2.4,59.94017969175549,
1000,1,3.7,4.9,1,0,41,41,71,,,,,147.0801168999169,147.73076659999788,147.73076659999788,148.23188779992051,45,45,148.23188779992051,148.23188779992051,148.23188779992051,148.23188779992051,148.23188779992051,148.23188779992051,148.23188779992051,148.23188779992051,148.23188779992051,148.59825700009242,148.59825700009242,148.59825700009242,148.59825700009242,148.59825700009242,148.59825700009242,148.59825700009242,148.59825700009242,148.59825700009242,0,1,[0.0012952000834047794],[0.36692080018110573],148.59825700009242,148.80047590006143,1000,148.80047590006143,1000,1000,1000,1000,1,num_2,0.6331635001115501,,31,13,2026-03-12_14h27.14.057,2026A_exp2,2022.2.4,59.94017969175549,
1000,1,4.9,0.0,0,0,42,42,50,,,,,149.44913710001856,150.0999109998811,150.0999109998811,150.60106820007786,315,45,150.60106820007786,150.60106820007786,150.60106820007786,150.60106820007786,150.60106820007786,150.60106820007786,150.60106820007786,150.60106820007786,150.60106820007786,150.9674696000293,150.9674696000293,150.9674696000293,150.9674696000293,150.9674696000293,150.9674696000293,150.9674696000293,150.9674696000293,150.9674696000293,0,1,[0.0012452001683413982],[0.3672999001573771],150.9674696000293,151.169749799883,1000,151.169749799883,1000,1000,1000,1000,0,num_3,0.39153050002641976,,31,13,2026-03-12_14h27.14.057,2026A_exp2,2022.2.4,59.94017969175549,
1000,1,3.7,0.0,0,0,43,43,69,,,,,151.58468020008877,152.23541359999217,152.23541359999217,152.736406999873,45,315,152.736406999873,152.736406999873,152.736406999873,152.736406999873,152.736406999873,152.736406999873,152.736406999873,152.736406999873,152.736406999873,153.102870099945,153.102870099945,153.102870099945,153.102870099945,153.102870099945,153.102870099945,153.102870099945,153.102870099945,153.102870099945,0,1,[0.0012147000525146723],[0.36743989982642233],153.102870099945,153.3058630998712,1000,153.3058630998712,1000,1000,1000,1000,0,num_3,0.6954801001120359,,31,13,2026-03-12_14h27.14.057,2026A_exp2,2022.2.4,59.94017969175549,
1,0,0.0,0.0,1,0,44,44,6,,,,,154.0203865999356,154.6709944999311,154.6709944999311,155.18613140005618,45,45,155.18613140005618,155.18613140005618,155.18613140005618,155.18613140005618,155.18613140005618,155.18613140005618,155.18613140005618,155.18613140005618,155.18613140005618,155.53843079996295,155.53843079996295,155.53843079996295,155.53843079996295,155.53843079996295,155.53843079996295,155.53843079996295,155.53843079996295,155.53843079996295,1,2,"[0.004334399942308664, 0.13179929996840656]","[0.11510719987563789, 0.3653231000062078]",155.53843079996295,155.73891399987042,0.0,155.73891399987042,0,0.0,0,1,1000,num_1,0.7352551000658423,,31,13,2026-03-12_14h27.14.057,2026A_exp2,2022.2.4,59.94017969175549,
0,0,4.9,0.0,0,0,45,45,40,,,,,156.5062996998895,157.15684679988772,157.15684679988772,157.64140930003487,315,315,157.64140930003487,157.64140930003487,157.64140930003487,157.64140930003487,157.64140930003487,157.64140930003487,157.64140930003487,157.64140930003487,157.64140930003487,158.00787179986946,158.00787179986946,158.00787179986946,158.00787179986946,158.00787179986946,158.00787179986946,158.00787179986946,158.00787179986946,158.00787179986946,0,1,[0.001296499976888299],[0.3668319999706],158.00787179986946,158.20787089993246,0.0,158.20787089993246,0,0.0,0,1,1000,num_1,0.8262297001201659,,31,13,2026-03-12_14h27.14.057,2026A_exp2,2022.2.4,59.94017969175549,
1,0,4.9,0.0,1,0,46,46,34,,,,,159.05868929997087,159.7094761999324,159.7094761999324,160.19382170005701,45,45,160.19382170005701,160.19382170005701,160.19382170005701,160.19382170005701,160.19382170005701,160.19382170005701,160.19382170005701,160.19382170005701,160.19382170005701,160.5604016999714,160.5604016999714,160.5604016999714,160.5604016999714,160.5604016999714,160.5604016999714,160.5604016999714,160.5604016999714,160.5604016999714,5,2,"[0.06680079991929233, 0.11687719984911382]","[0.08339349995367229, 0.36705669993534684]",160.5604016999714,160.76041559991427,0.0,160.76041559991427,0,0.0,0,1,1000,num_1,0.7370569002814591,,31,13,2026-03-12_14h27.14.057,2026A_exp2,2022.2.4,59.94017969175549,
1,0,6.1,6.1,1,0,47,47,47,,,,,161.5279302999843,162.17871410003863,162.17871410003863,162.67980529996566,315,315,162.67980529996566,162.67980529996566,162.67980529996566,162.67980529996566,162.67980529996566,162.67980529996566,162.67980529996566,162.67980529996566,162.67980529996566,163.0295647000894,163.0295647000894,163.0295647000894,163.0295647000894,163.0295647000894,163.0295647000894,163.0295647000894,163.0295647000894,163.0295647000894,18,2,"[0.0012046999763697386, 0.3170555999968201]","[0.05019280011765659, 0.33379609999246895]",163.0295647000894,163.22972170007415,6.1,163.22972170007415,1,6.1,1,1,1000,num_4,0.619724300224334,,31,13,2026-03-12_14h27.14.057,2026A_exp2,2022.2.4,59.94017969175549,
0,0,6.1,0.0,1,0,48,48,25,,,,,163.88020389992744,164.53100199997425,164.53100199997425,165.01535029988736,45,315,165.01535029988736,165.01535029988736,165.01535029988736,165.01535029988736,165.01535029988736,165.01535029988736,165.01535029988736,165.01535029988736,165.01535029988736,165.38165950006805,165.38165950006805,165.38165950006805,165.38165950006805,165.38165950006805,165.38165950006805,165.38165950006805,165.38165950006805,165.38165950006805,4,4,"[0.001246199943125248, 0.2671979998704046, 0.31704190000891685, 0.36705160001292825]","[0.25055220001377165, 0.2836325999815017, 0.3503999998793006, 0.36705649993382394]",165.38165950006805,165.58211379987188,6.1,165.58211379987188,1,6.1,1,1,1000,num_4,0.6513574002310634,,31,13,2026-03-12_14h27.14.057,2026A_exp2,2022.2.4,59.94017969175549,
1,0,4.9,4.9,1,0,49,49,9,,,,,166.24931390001439,166.90006859996356,166.90006859996356,167.38445829995908,315,45,167.38445829995908,167.38445829995908,167.38445829995908,167.38445829995908,167.38445829995908,167.38445829995908,167.38445829995908,167.38445829995908,167.38445829995908,167.75085929990746,167.75085929990746,167.75085929990746,167.75085929990746,167.75085929990746,167.75085929990746,167.75085929990746,167.75085929990746,167.75085929990746,17,4,"[0.21694010007195175, 0.2670700999442488, 0.316995499888435, 0.36701279995031655]","[0.2502564999740571, 0.2837056000716984, 0.3338315999135375, 0.3670175999868661]",167.75085929990746,167.95102509995922,4.9,167.95102509995922,1,4.9,1,1,1000,num_4,0.7955172001384199,,31,13,2026-03-12_14h27.14.057,2026A_exp2,2022.2.4,59.94017969175549,
1000,1,0.0,0.0,0,0,50,50,57,,,,,168.76844440004788,169.41910699987784,169.41910699987784,169.90371329989284,315,45,169.90371329989284,169.90371329989284,169.90371329989284,169.90371329989284,169.90371329989284,169.90371329989284,169.90371329989284,169.90371329989284,169.90371329989284,170.27002299996093,170.27002299996093,170.27002299996093,170.27002299996093,170.27002299996093,170.27002299996093,170.27002299996093,170.27002299996093,170.27002299996093,23,0,,,170.27002299996093,170.47205960005522,1000,170.47205960005522,1000,1000,1000,1000,1,num_2,0.7295920001342893,,31,13,2026-03-12_14h27.14.057,2026A_exp2,2022.2.4,59.94017969175549,
1000,1,0.0,6.1,0,0,51,51,61,,,,,171.22087730001658,171.87137559987605,171.87137559987605,172.3727333000861,45,45,172.3727333000861,172.3727333000861,172.3727333000861,172.3727333000861,172.3727333000861,172.3727333000861,172.3727333000861,172.3727333000861,172.3727333000861,172.73905960004777,172.73905960004777,172.73905960004777,172.73905960004777,172.73905960004777,172.73905960004777,172.73905960004777,172.73905960004777,172.73905960004777,0,1,[0.0012264000251889229],[0.3672990999184549],172.73905960004777,172.94149999995716,1000,172.94149999995716,1000,1000,1000,1000,1,num_2,0.4357998000923544,,31,13,2026-03-12_14h27.14.057,2026A_exp2,2022.2.4,59.94017969175549,
1000,1,0.0,4.9,1,0,52,52,37,,,,,173.40638810000382,174.0571634999942,174.0571634999942,174.55828809994273,315,315,174.55828809994273,174.55828809994273,174.55828809994273,174.55828809994273,174.55828809994273,174.55828809994273,174.55828809994273,174.55828809994273,174.55828809994273,174.92487099999562,174.92487099999562,174.92487099999562,174.92487099999562,174.92487099999562,174.92487099999562,174.92487099999562,174.92487099999562,174.92487099999562,22,1,[0.3003700999543071],[0.3170369998551905],174.92487099999562,175.12678040005267,1000,175.12678040005267,1000,1000,1000,1000,1,num_2,0.4989913001190871,,31,13,2026-03-12_14h27.14.057,2026A_exp2,2022.2.4,59.94017969175549,
1000,1,6.1,4.9,0,0,53,53,81,,,,,175.64198499987833,176.29254930000752,176.29254930000752,176.79396849987097,315,315,176.79396849987097,176.79396849987097,176.79396849987097,176.79396849987097,176.79396849987097,176.79396849987097,176.79396849987097,176.79396849987097,176.79396849987097,177.160314100096,177.160314100096,177.160314100096,177.160314100096,177.160314100096,177.160314100096,177.160314100096,177.160314100096,177.160314100096,23,0,,,177.160314100096,177.36321770003997,1000,177.36321770003997,1000,1000,1000,1000,0,num_3,0.5818189999554306,,31,13,2026-03-12_14h27.14.057,2026A_exp2,2022.2.4,59.94017969175549,
1,0,6.1,0.0,0,0,54,54,85,,,,,177.96101389988326,178.59504069993272,178.59504069993272,179.09623540006578,315,45,179.09623540006578,179.09623540006578,179.09623540006578,179.09623540006578,179.09623540006578,179.09623540006578,179.09623540006578,179.09623540006578,179.09623540006578,179.46260929992422,179.46260929992422,179.46260929992422,179.46260929992422,179.46260929992422,179.46260929992422,179.46260929992422,179.46260929992422,179.46260929992422,4,2,"[0.033531100023537874, 0.15030750003643334]","[0.11706860014237463, 0.3674182000104338]",179.46260929992422,179.66292089992203,6.1,179.66292089992203,1,6.1,1,1,1000,num_4,0.7872089000884444,,31,13,2026-03-12_14h27.14.057,2026A_exp2,2022.2.4,59.94017969175549,
1000,1,4.9,3.7,0,0,55,55,28,,,,,180.48013049992733,181.130966699915,181.130966699915,181.61540920007974,45,315,181.61540920007974,181.61540920007974,181.61540920007974,181.61540920007974,181.61540920007974,181.61540920007974,181.61540920007974,181.61540920007974,181.61540920007974,181.9816453999374,181.9816453999374,181.9816453999374,181.9816453999374,181.9816453999374,181.9816453999374,181.9816453999374,181.9816453999374,181.9816453999374,22,1,[0.36671760003082454],[0.366722300183028],181.9816453999374,182.18413639999926,1000,182.18413639999926,1000,1000,1000,1000,0,num_3,0.7135565001517534,,31,13,2026-03-12_14h27.14.057,2026A_exp2,2022.2.4,59.94017969175549,
1000,1,6.1,0.0,0,0,56,56,27,,,,,182.91593850008212,183.5666928999126,183.5666928999126,184.06840019999072,45,315,184.06840019999072,184.06840019999072,184.06840019999072,184.06840019999072,184.06840019999072,184.06840019999072,184.06840019999072,184.06840019999072,184.06840019999072,184.43427919992246,184.43427919992246,184.43427919992246,184.43427919992246,184.43427919992246,184.43427919992246,184.43427919992246,184.43427919992246,184.43427919992246,10,1,[0.16717069991864264],[0.36724149994552135],184.43427919992246,184.63602790003642,1000,184.63602790003642,1000,1000,1000,1000,0,num_3,0.4381319002714008,,31,13,2026-03-12_14h27.14.057,2026A_exp2,2022.2.4,59.94017969175549,
1000,1,4.9,0.0,1,0,57,57,48,,,,,185.1014775999356,185.75224249996245,185.75224249996245,186.25325000006706,315,315,186.25325000006706,186.25325000006706,186.25325000006706,186.25325000006706,186.25325000006706,186.25325000006706,186.25325000006706,186.25325000006706,186.25325000006706,186.61974280001596,186.61974280001596,186.61974280001596,186.61974280001596,186.61974280001596,186.61974280001596,186.61974280001596,186.61974280001596,186.61974280001596,0,1,[0.001241000136360526],[0.3671899000182748],186.61974280001596,186.82185130007565,1000,186.82185130007565,1000,1000,1000,1000,0,num_3,0.5718656999524683,,31,13,2026-03-12_14h27.14.057,2026A_exp2,2022.2.4,59.94017969175549,
1000,1,0.0,0.0,1,0,58,58,2,,,,,187.42045390000567,188.0713557000272,188.0713557000272,188.5722888999153,45,45,188.5722888999153,188.5722888999153,188.5722888999153,188.5722888999153,188.5722888999153,188.5722888999153,188.5722888999153,188.5722888999153,188.5722888999153,188.9387964999769,188.9387964999769,188.9387964999769,188.9387964999769,188.9387964999769,188.9387964999769,188.9387964999769,188.9387964999769,188.9387964999769,0,1,[0.0012036000844091177],[0.3671309999190271],188.9387964999769,189.14078300003894,1000,189.14078300003894,1000,1000,1000,1000,0,num_3,0.5328824000898749,,31,13,2026-03-12_14h27.14.057,2026A_exp2,2022.2.4,59.94017969175549,
1000,1,3.7,3.7,0,0,59,59,59,,,,,189.68972879997455,190.34002000000328,190.34002000000328,190.84128029993735,45,45,190.84128029993735,190.84128029993735,190.84128029993735,190.84128029993735,190.84128029993735,190.84128029993735,190.84128029993735,190.84128029993735,190.84128029993735,191.19066359987482,191.19066359987482,191.19066359987482,191.19066359987482,191.19066359987482,191.19066359987482,191.19066359987482,191.19066359987482,191.19066359987482,15,3,"[0.0012427999172359705, 0.100605099927634, 0.21633239998482168]","[0.08364610001444817, 0.11674589989706874, 0.23310910002328455]",191.19066359987482,191.39125479990616,1000,191.4081335000228,1000,1000,1000,1000,1,num_2,0.7290625001769513,,31,13,2026-03-12_14h27.14.057,2026A_exp2,2022.2.4,59.94017969175549,
1,0,0.0,0.0,1,0,60,60,33,,,,,192.15837479988113,192.80930590000935,192.80930590000935,193.31581810000353,315,45,193.31581810000353,193.31581810000353,193.31581810000353,193.31581810000353,193.31581810000353,193.31581810000353,193.31581810000353,193.31581810000353,193.31581810000353,193.67684950004332,193.67684950004332,193.67684950004332,193.67684950004332,193.67684950004332,193.67684950004332,193.67684950004332,193.67684950004332,193.67684950004332,0,1,[0.0026101998519152403],[0.36603079992346466],193.67684950004332,193.87703479989432,0.0,193.87703479989432,0,0.0,0,1,1000,num_1,0.8205478000454605,,31,13,2026-03-12_14h27.14.057,2026A_exp2,2022.2.4,59.94017969175549,
1000,1,3.7,0.0,0,0,61,61,86,,,,,194.72783059999347,195.37851190008223,195.37851190008223,195.86283469991758,315,45,195.86283469991758,195.86283469991758,195.86283469991758,195.86283469991758,195.86283469991758,195.86283469991758,195.86283469991758,195.86283469991758,195.86283469991758,196.2293980999384,196.2293980999384,196.2293980999384,196.2293980999384,196.2293980999384,196.2293980999384,196.2293980999384,196.2293980999384,196.2293980999384,16,3,"[0.033257899805903435, 0.10006259987130761, 0.23352789995260537]","[0.06679699989035726, 0.15013229986652732, 0.26702019991353154]",196.2293980999384,196.43156849988736,1000,196.43156849988736,1000,1000,1000,1000,0,num_3,0.48970010015182197,,31,13,2026-03-12_14h27.14.057,2026A_exp2,2022.2.4,59.94017969175549,
1,0,0.0,6.1,1,0,62,62,46,,,,,196.9466875998769,197.59733900008723,197.59733900008723,198.0982723000925,315,45,198.0982723000925,198.0982723000925,198.0982723000925,198.0982723000925,198.0982723000925,198.0982723000925,198.0982723000925,198.0982723000925,198.0982723000925,198.44827509997413,198.44827509997413,198.44827509997413,198.44827509997413,198.44827509997413,198.44827509997413,198.44827509997413,198.44827509997413,198.44827509997413,21,1,[0.35063340002670884],[0.350637000054121],198.44827509997413,198.6484956999775,6.1,198.66503020003438,1,6.1,1,1,1000,num_4,0.968218200141564,,31,13,2026-03-12_14h27.14.057,2026A_exp2,2022.2.4,59.94017969175549,
1000,1,3.7,0.0,0,0,63,63,35,,,,,199.64927980001085,200.3001325998921,200.3001325998921,200.78464070009068,45,315,200.78464070009068,200.78464070009068,200.78464070009068,200.78464070009068,200.78464070009068,200.78464070009068,200.78464070009068,200.78464070009068,200.78464070009068,201.1510050999932,201.1510050999932,201.1510050999932,201.1510050999932,201.1510050999932,201.1510050999932,201.1510050999932,201.1510050999932,201.1510050999932,23,0,,,201.1510050999932,201.35287770000286,1000,201.35287770000286,1000,1000,1000,1000,0,num_3,0.600648800143972,,31,13,2026-03-12_14h27.14.057,2026A_exp2,2022.2.4,59.94017969175549,
1000,1,0.0,0.0,0,0,64,64,62,,,,,201.98510370007716,202.6357978999149,202.6357978999149,203.136923099868,315,315,203.136923099868,203.136923099868,203.136923099868,203.136923099868,203.136923099868,203.136923099868,203.136923099868,203.136923099868,203.136923099868,203.50328669999726,203.50328669999726,203.50328669999726,203.50328669999726,203.50328669999726,203.50328669999726,203.50328669999726,203.50328669999726,203.50328669999726,14,1,[0.23361130012199283],[0.3673334999475628],203.50328669999726,203.70548140001483,1000,203.70548140001483,1000,1000,1000,1000,0,num_3,0.7526593999937177,,31,13,2026-03-12_14h27.14.057,2026A_exp2,2022.2.4,59.94017969175549,
1000,1,0.0,6.1,0,0,65,65,16,,,,,204.48752399999648,205.13823739998043,205.13823739998043,205.63945079990663,315,45,205.63945079990663,205.63945079990663,205.63945079990663,205.63945079990663,205.63945079990663,205.63945079990663,205.63945079990663,205.63945079990663,205.63945079990663,206.0058176999446,206.0058176999446,206.0058176999446,206.0058176999446,206.0058176999446,206.0058176999446,206.0058176999446,206.0058176999446,206.0058176999446,1,2,"[0.0012467000633478165, 0.05010860017500818]","[0.033584900200366974, 0.36702760006301105]",206.0058176999446,206.20595149998553,1000,206.20595149998553,1000,1000,1000,1000,1,num_2,0.4120471002534032,,31,13,2026-03-12_14h27.14.057,2026A_exp2,2022.2.4,59.94017969175549,
1000,1,3.7,6.1,0,0,66,66,60,,,,,206.63981429999694,207.29049549996853,207.29049549996853,207.77492400002666,45,315,207.77492400002666,207.77492400002666,207.77492400002666,207.77492400002666,207.77492400002666,207.77492400002666,207.77492400002666,207.77492400002666,207.77492400002666,208.14091240009293,208.14091240009293,208.14091240009293,208.14091240009293,208.14091240009293,208.14091240009293,208.14091240009293,208.14091240009293,208.14091240009293,19,1,[0.3336877999827266],[0.36690909997560084],208.14091240009293,208.34318009996787,1000,208.34318009996787,1000,1000,1000,1000,1,num_2,0.547012000111863,,31,13,2026-03-12_14h27.14.057,2026A_exp2,2022.2.4,59.94017969175549,
1000,1,0.0,6.1,1,0,67,67,42,,,,,208.9085580999963,209.55935140000656,209.55935140000656,210.0604479999747,315,315,210.0604479999747,210.0604479999747,210.0604479999747,210.0604479999747,210.0604479999747,210.0604479999747,210.0604479999747,210.0604479999747,210.0604479999747,210.42690530000255,210.42690530000255,210.42690530000255,210.42690530000255,210.42690530000255,210.42690530000255,210.42690530000255,210.42690530000255,210.42690530000255,4,1,[0.06670790002681315],[0.36707639996893704],210.42690530000255,210.6288528998848,1000,210.6288528998848,1000,1000,1000,1000,1,num_2,0.4771169002633542,,31,13,2026-03-12_14h27.14.057,2026A_exp2,2022.2.4,59.94017969175549,
1000,1,6.1,4.9,0,0,68,68,51,,,,,211.12773870001547,211.77818390005268,211.77818390005268,212.26267590001225,45,315,212.26267590001225,212.26267590001225,212.26267590001225,212.26267590001225,212.26267590001225,212.26267590001225,212.26267590001225,212.26267590001225,212.26267590001225,212.62912849988788,212.62912849988788,212.62912849988788,212.62912849988788,212.62912849988788,212.62912849988788,212.62912849988788,212.62912849988788,212.62912849988788,0,1,[0.0012435999233275652],[0.36722050001844764],212.62912849988788,212.83123250002973,1000,212.83123250002973,1000,1000,1000,1000,0,num_3,0.4268887999933213,,31,13,2026-03-12_14h27.14.057,2026A_exp2,2022.2.4,59.94017969175549,
1000,1,4.9,6.1,0,0,69,69,36,,,,,213.27961499989033,213.93011499987915,213.93011499987915,214.4317326999735,45,45,214.4317326999735,214.4317326999735,214.4317326999735,214.4317326999735,214.4317326999735,214.4317326999735,214.4317326999735,214.4317326999735,214.4317326999735,214.78152749990113,214.78152749990113,214.78152749990113,214.78152749990113,214.78152749990113,214.78152749990113,214.78152749990113,214.78152749990113,214.78152749990113,20,2,"[0.049420799827203155, 0.35035599977709353]","[0.06583189987577498, 0.350358999799937]",214.78152749990113,214.9823205000721,1000,214.9979139000643,1000,1000,1000,1000,0,num_3,0.5153254002798349,,31,13,2026-03-12_14h27.14.057,2026A_exp2,2022.2.4,59.94017969175549,
1,0,0.0,4.9,0,0,70,70,32,,,,,215.5317494000774,216.18221880006604,216.18221880006604,216.66699599986896,315,45,216.66699599986896,216.66699599986896,216.66699599986896,216.66699599986896,216.66699599986896,216.66699599986896,216.66699599986896,216.66699599986896,216.66699599986896,217.0331154000014,217.0331154000014,217.0331154000014,217.0331154000014,217.0331154000014,217.0331154000014,217.0331154000014,217.0331154000014,217.0331154000014,22,1,[0.28311510011553764],[0.3003731002099812],217.0331154000014,217.2345529999584,0.0,217.2345529999584,0,0.0,0,1,1000,num_1,0.7194725000299513,,31,13,2026-03-12_14h27.14.057,2026A_exp2,2022.2.4,59.94017969175549,
0,0,0.0,0.0,1,0,71,71,44,,,,,217.98444929998368,218.61879199999385,218.61879199999385,219.11941129993647,315,315,219.11941129993647,219.11941129993647,219.11941129993647,219.11941129993647,219.11941129993647,219.11941129993647,219.11941129993647,219.11941129993647,219.11941129993647,219.4857284000609,219.4857284000609,219.4857284000609,219.4857284000609,219.4857284000609,219.4857284000609,219.4857284000609,219.4857284000609,219.4857284000609,0,1,[0.0009159999899566174],[0.36739880009554327],219.4857284000609,219.68606780003756,0.0,219.68606780003756,0,0.0,0,1,1000,num_1,0.5870783000718802,,31,13,2026-03-12_14h27.14.057,2026A_exp2,2022.2.4,59.94017969175549,
0,0,3.7,0.0,1,0,72,72,1,,,,,220.30329789989628,220.95411569997668,220.95411569997668,221.4384292999748,45,45,221.4384292999748,221.4384292999748,221.4384292999748,221.4384292999748,221.4384292999748,221.4384292999748,221.4384292999748,221.4384292999748,221.4384292999748,221.8049121000804,221.8049121000804,221.8049121000804,221.8049121000804,221.8049121000804,221.8049121000804,221.8049121000804,221.8049121000804,221.8049121000804,23,0,,,221.8049121000804,222.00521879992448,3.7,222.00521879992448,0,3.7,1,0,1000,num_1,0.748745399992913,,31,13,2026-03-12_14h27.14.057,2026A_exp2,2022.2.4,59.94017969175549,
1,0,0.0,4.9,0,0,73,73,14,,,,,222.77243930008262,223.42327299993485,223.42327299993485,223.9076417000033,315,45,223.9076417000033,223.9076417000033,223.9076417000033,223.9076417000033,223.9076417000033,223.9076417000033,223.9076417000033,223.9076417000033,223.9076417000033,224.2741662999615,224.2741662999615,224.2741662999615,224.2741662999615,224.2741662999615,224.2741662999615,224.2741662999615,224.2741662999615,224.2741662999615,23,0,,,224.2741662999615,224.4744416999165,0.0,224.4744416999165,0,0.0,0,1,1000,num_1,0.7919459000695497,,31,13,2026-03-12_14h27.14.057,2026A_exp2,2022.2.4,59.94017969175549,
0,0,0.0,0.0,0,0,74,74,15,,,,,225.29190569999628,225.94240850000642,225.94240850000642,226.44343860005029,45,45,226.44343860005029,226.44343860005029,226.44343860005029,226.44343860005029,226.44343860005029,226.44343860005029,226.44343860005029,226.44343860005029,226.44343860005029,226.8095617000945,226.8095617000945,226.8095617000945,226.8095617000945,226.8095617000945,226.8095617000945,226.8095617000945,226.8095617000945,226.8095617000945,23,0,,,226.8095617000945,227.01012900006026,0.0,227.01012900006026,0,0.0,0,1,1000,num_1,0.863009599968791,,31,13,2026-03-12_14h27.14.057,2026A_exp2,2022.2.4,59.94017969175549,
1000,1,0.0,0.0,0,0,75,75,64,,,,,227.8945293999277,228.5450395999942,228.5450395999942,229.02950079995207,45,315,229.02950079995207,229.02950079995207,229.02950079995207,229.02950079995207,229.02950079995207,229.02950079995207,229.02950079995207,229.02950079995207,229.02950079995207,229.3959906999953,229.3959906999953,229.3959906999953,229.3959906999953,229.3959906999953,229.3959906999953,229.3959906999953,229.3959906999953,229.3959906999953,23,0,,,229.3959906999953,229.59824409987777,1000,229.59824409987777,1000,1000,1000,1000,0,num_3,0.8272254001349211,,31,13,2026-03-12_14h27.14.057,2026A_exp2,2022.2.4,59.94017969175549,
1000,1,0.0,0.0,0,0,76,76,45,,,,,230.44674859987572,231.09758830000646,231.09758830000646,231.59873170009814,45,45,231.59873170009814,231.59873170009814,231.59873170009814,231.59873170009814,231.59873170009814,231.59873170009814,231.59873170009814,231.59873170009814,231.59873170009814,231.96512009995058,231.96512009995058,231.96512009995058,231.96512009995058,231.96512009995058,231.96512009995058,231.96512009995058,231.96512009995058,231.96512009995058,0,1,[0.0012062001042068005],[0.367310400120914],231.96512009995058,232.16759749990888,1000,232.16759749990888,1000,1000,1000,1000,0,num_3,0.4907392000313848,,31,13,2026-03-12_14h27.14.057,2026A_exp2,2022.2.4,59.94017969175549,
1000,1,0.0,3.7,0,0,77,77,21,,,,,232.68232150003314,233.3331393999979,233.3331393999979,233.83404079987668,315,315,233.83404079987668,233.83404079987668,233.83404079987668,233.83404079987668,233.83404079987668,233.83404079987668,233.83404079987668,233.83404079987668,233.83404079987668,234.20072049996816,234.20072049996816,234.20072049996816,234.20072049996816,234.20072049996816,234.20072049996816,234.20072049996816,234.20072049996816,234.20072049996816,0,1,[0.001281099859625101],[0.36745979986153543],234.20072049996816,234.40308479988016,1000,234.40308479988016,1000,1000,1000,1000,1,num_2,0.3914618000853807,,31,13,2026-03-12_14h27.14.057,2026A_exp2,2022.2.4,59.94017969175549,
1000,1,3.7,0.0,0,0,78,78,39,,,,,234.8178348999936,235.46863380004652,235.46863380004652,235.96946029993705,45,45,235.96946029993705,235.96946029993705,235.96946029993705,235.96946029993705,235.96946029993705,235.96946029993705,235.96946029993705,235.96946029993705,235.96946029993705,236.33609679993242,236.33609679993242,236.33609679993242,236.33609679993242,236.33609679993242,236.33609679993242,236.33609679993242,236.33609679993242,236.33609679993242,0,1,[0.0007678000256419182],[0.3670787001028657],236.33609679993242,236.53610390005633,1000,236.53610390005633,1000,1000,1000,1000,0,num_3,0.3779419001657516,,31,13,2026-03-12_14h27.14.057,2026A_exp2,2022.2.4,59.94017969175549,
0,0,3.7,0.0,0,0,79,79,18,,,,,236.9366329999175,237.58744759997353,237.58744759997353,238.08863130002283,315,315,238.08863130002283,238.08863130002283,238.08863130002283,238.08863130002283,238.08863130002283,238.08863130002283,238.08863130002283,238.08863130002283,238.08863130002283,238.4548822999932,238.4548822999932,238.4548822999932,238.4548822999932,238.4548822999932,238.4548822999932,238.4548822999932,238.4548822999932,238.4548822999932,0,1,[0.0010029999539256096],[0.3669261001050472],238.4548822999932,238.65499809989706,0.0,238.65499809989706,0,0.0,0,1,1000,num_1,0.8506796001456678,,31,13,2026-03-12_14h27.14.057,2026A_exp2,2022.2.4,59.94017969175549,
1000,1,0.0,0.0,1,0,80,80,73,,,,,239.52246490004472,240.17319489992224,240.17319489992224,240.6577876000665,315,45,240.6577876000665,240.6577876000665,240.6577876000665,240.6577876000665,240.6577876000665,240.6577876000665,240.6577876000665,240.6577876000665,240.6577876000665,241.0242164998781,241.0242164998781,241.0242164998781,241.0242164998781,241.0242164998781,241.0242164998781,241.0242164998781,241.0242164998781,241.0242164998781,3,2,"[0.03342969994992018, 0.08346350002102554]","[0.06725779990665615, 0.3670262999366969]",241.0242164998781,241.22483529988676,1000,241.22483529988676,1000,1000,1000,1000,0,num_3,0.8164635000284761,,31,13,2026-03-12_14h27.14.057,2026A_exp2,2022.2.4,59.94017969175549,
1,0,3.7,6.1,1,0,81,81,68,,,,,242.05863079987466,242.70920079993084,242.70920079993084,243.21019660006277,45,315,243.21019660006277,243.21019660006277,243.21019660006277,243.21019660006277,243.21019660006277,243.21019660006277,243.21019660006277,243.21019660006277,243.21019660006277,243.57671350007877,243.57671350007877,243.57671350007877,243.57671350007877,243.57671350007877,243.57671350007877,243.57671350007877,243.57671350007877,243.57671350007877,4,2,"[0.033488300163298845, 0.18374270014464855]","[0.15039240010082722, 0.367080100113526]",243.57671350007877,243.77699719998054,6.1,243.77699719998054,1,6.1,1,1,1000,num_4,0.5602683001197875,,31,13,2026-03-12_14h27.14.057,2026A_exp2,2022.2.4,59.94017969175549,
1,0,6.1,0.0,1,0,82,82,17,,,,,244.36078760004602,245.01176379993558,245.01176379993558,245.49593039997853,315,45,245.49593039997853,245.49593039997853,245.49593039997853,245.49593039997853,245.49593039997853,245.49593039997853,245.49593039997853,245.49593039997853,245.49593039997853,245.86246429989114,245.86246429989114,245.86246429989114,245.86246429989114,245.86246429989114,245.86246429989114,245.86246429989114,245.86246429989114,245.86246429989114,23,0,,,245.86246429989114,246.06255159992725,0.0,246.06255159992725,1,0.0,0,0,1000,num_4,1.2511519000399858,,31,13,2026-03-12_14h27.14.057,2026A_exp2,2022.2.4,59.94017969175549,
1000,1,0.0,3.7,0,0,83,83,43,,,,,247.33041310007684,247.9809580000583,247.9809580000583,248.4821426998824,315,45,248.4821426998824,248.4821426998824,248.4821426998824,248.4821426998824,248.4821426998824,248.4821426998824,248.4821426998824,248.4821426998824,248.4821426998824,248.8320126000326,248.8320126000326,248.8320126000326,248.8320126000326,248.8320126000326,248.8320126000326,248.8320126000326,248.8320126000326,248.8320126000326,19,2,"[0.23448739992454648, 0.33429759996943176]","[0.2509972997941077, 0.3512572997715324]",248.8320126000326,249.03405950008892,1000,249.03405950008892,1000,1000,1000,1000,1,num_2,0.8478557001799345,,31,13,2026-03-12_14h27.14.057,2026A_exp2,2022.2.4,59.94017969175549,
1,0,0.0,4.9,1,0,84,84,54,,,,,249.89967749989592,250.55035299994051,250.55035299994051,251.0512190000154,315,315,251.0512190000154,251.0512190000154,251.0512190000154,251.0512190000154,251.0512190000154,251.0512190000154,251.0512190000154,251.0512190000154,251.0512190000154,251.40106300008483,251.40106300008483,251.40106300008483,251.40106300008483,251.40106300008483,251.40106300008483,251.40106300008483,251.40106300008483,251.40106300008483,0,1,[0.0007421998307108879],[0.35098999994806945],251.40106300008483,251.60147599992342,4.9,251.60147599992342,1,4.9,1,1,1000,num_4,0.5604678001254797,,31,13,2026-03-12_14h27.14.057,2026A_exp2,2022.2.4,59.94017969175549,
1000,1,6.1,6.1,1,0,85,85,22,,,,,252.18515709997155,252.8359904999379,252.8359904999379,253.32045420003124,315,315,253.32045420003124,253.32045420003124,253.32045420003124,253.32045420003124,253.32045420003124,253.32045420003124,253.32045420003124,253.32045420003124,253.32045420003124,253.686863000039,253.686863000039,253.686863000039,253.686863000039,253.686863000039,253.686863000039,253.686863000039,253.686863000039,253.686863000039,23,0,,,253.686863000039,253.8886742000468,1000,253.8886742000468,1000,1000,1000,1000,1,num_2,0.9689144000876695,,31,13,2026-03-12_14h27.14.057,2026A_exp2,2022.2.4,59.94017969175549,
1000,1,0.0,3.7,0,0,86,86,76,,,,,254.88791060005315,255.538632000098,255.538632000098,256.0396926999092,45,315,256.0396926999092,256.0396926999092,256.0396926999092,256.0396926999092,256.0396926999092,256.0396926999092,256.0396926999092,256.0396926999092,256.0396926999092,256.4061056000646,256.4061056000646,256.4061056000646,256.4061056000646,256.4061056000646,256.4061056000646,256.4061056000646,256.4061056000646,256.4061056000646,1,2,"[0.0012566999066621065, 0.11712299985811114]","[0.10028099990449846, 0.36726779979653656]",256.4061056000646,256.6085276999511,1000,256.6085276999511,1000,1000,1000,1000,1,num_2,0.45685989991761744,,31,13,2026-03-12_14h27.14.057,2026A_exp2,2022.2.4,59.94017969175549,
0,0,4.9,0.0,0,0,87,87,84,,,,,257.0902362000197,257.740798200015,257.740798200015,258.2420576000586,315,45,258.2420576000586,258.2420576000586,258.2420576000586,258.2420576000586,258.2420576000586,258.2420576000586,258.2420576000586,258.2420576000586,258.2420576000586,258.60855060000904,258.60855060000904,258.60855060000904,258.60855060000904,258.60855060000904,258.60855060000904,258.60855060000904,258.60855060000904,258.60855060000904,18,3,"[0.03348179999738932, 0.1668801000341773, 0.3501774000469595]","[0.05011370009742677, 0.18373259995132685, 0.36684249993413687]",258.60855060000904,258.8085793000646,0.0,258.8085793000646,0,0.0,0,1,1000,num_1,1.1764297999907285,,31,13,2026-03-12_14h27.14.057,2026A_exp2,2022.2.4,59.94017969175549,
1000,1,0.0,3.7,1,0,88,88,88,,,,,260.009819699917,260.6605650000274,260.6605650000274,261.14485529996455,45,315,261.14485529996455,261.14485529996455,261.14485529996455,261.14485529996455,261.14485529996455,261.14485529996455,261.14485529996455,261.14485529996455,261.14485529996455,261.5113530000672,261.5113530000672,261.5113530000672,261.5113530000672,261.5113530000672,261.5113530000672,261.5113530000672,261.5113530000672,261.5113530000672,4,2,"[0.01729190000332892, 0.08350829989649355]","[0.05018969997763634, 0.36715589999221265]",261.5113530000672,261.71314350003377,1000,261.71314350003377,1000,1000,1000,1000,1,num_2,0.5287651002872735,,31,13,2026-03-12_14h27.14.057,2026A_exp2,2022.2.4,59.94017969175549,
1000,1,0.0,4.9,0,0,89,89,8,,,,,262.2619702999946,262.91280719987117,262.91280719987117,263.41364789986983,315,45,263.41364789986983,263.41364789986983,263.41364789986983,263.41364789986983,263.41364789986983,263.41364789986983,263.41364789986983,263.41364789986983,263.41364789986983,263.7802577998955,263.7802577998955,263.7802577998955,263.7802577998955,263.7802577998955,263.7802577998955,263.7802577998955,263.7802577998955,263.7802577998955,6,1,[0.10038139997050166],[0.36725329980254173],263.7802577998955,263.982609000057,1000,263.982609000057,1000,1000,1000,1000,1,num_2,0.44243620010092854,,31,13,2026-03-12_14h27.14.057,2026A_exp2,2022.2.4,59.94017969175549,
,,,,,,,,,,,,,,,,,,,,,,,,,,,,,,,,,,,,,,,,,,,,,,,,,,,,264.45620970008895,,,,,,,
