validity,detectorcomp,contrastCW,contrastCCW,precueCWorCCW,block_80trials.thisRepN,block_80trials.thisTrialN,block_80trials.thisN,block_80trials.thisIndex,etRecord.started,etRecord.stopped,text.started,text.stopped,text_4.started,text_4.stopped,text_6.started,text_6.stopped,oriCW,oriCCW,roi_2.started,grating_UR.started,grating_UL.started,grating_LR.started,grating_LL.started,noise_UR.started,noise_UL.started,noise_LR.started,noise_LL.started,roi_2.stopped,grating_UR.stopped,grating_UL.stopped,grating_LR.stopped,grating_LL.stopped,noise_UR.stopped,noise_UL.stopped,noise_LR.stopped,noise_LL.stopped,outframe,roi_2.numLooks,roi_2.timesOn,roi_2.timesOff,text_2.started,text_2.stopped,probedcontrast,key_resp.started,respdetect,relevantContrast,correctDetect,TorFdetect,respCWorCCW,key_resp.keys,key_resp.rt,feedback_display_.started,participantNo,blockNo,date,expName,psychopyVersion,frameRate,
1000,1,6.1,0.0,1,0,0,0,68,3.100000321865082e-05,3.100000321865082e-05,56.56930490001105,58.57178350002505,58.57178350002505,59.20579700008966,59.20579700008966,59.72677950002253,315,315,59.72677950002253,59.72677950002253,59.72677950002253,59.72677950002253,59.72677950002253,59.72677950002253,59.72677950002253,59.72677950002253,59.72677950002253,60.07351000001654,60.07351000001654,60.07351000001654,60.07351000001654,60.07351000001654,60.07351000001654,60.07351000001654,60.07351000001654,60.07351000001654,23,0,,,60.07351000001654,60.280885600019246,1000,60.280885600019246,1000,1000,1000,1000,0,num_3,0.3653582998085767,,32,10,2026-03-12_16h00.36.557,2026A_exp2,2022.2.4,59.88188901083835,
1000,1,6.1,0.0,1,0,1,1,69,,,,,60.67393290018663,61.30796750006266,61.30796750006266,61.809175700182095,45,315,61.809175700182095,61.809175700182095,61.809175700182095,61.809175700182095,61.809175700182095,61.809175700182095,61.809175700182095,61.809175700182095,61.809175700182095,62.175823600031435,62.175823600031435,62.175823600031435,62.175823600031435,62.175823600031435,62.175823600031435,62.175823600031435,62.175823600031435,62.175823600031435,0,1,[0.001209900015965104],[0.3670541001483798],62.175823600031435,62.37759570009075,1000,62.37759570009075,1000,1000,1000,1000,0,num_3,0.3010600998532027,,32,10,2026-03-12_16h00.36.557,2026A_exp2,2022.2.4,59.88188901083835,
1,0,0.0,6.1,0,0,2,2,11,,,,,62.70945980004035,63.36002160003409,63.36002160003409,63.86121310014278,315,315,63.86121310014278,63.86121310014278,63.86121310014278,63.86121310014278,63.86121310014278,63.86121310014278,63.86121310014278,63.86121310014278,63.86121310014278,64.22739350004122,64.22739350004122,64.22739350004122,64.22739350004122,64.22739350004122,64.22739350004122,64.22739350004122,64.22739350004122,64.22739350004122,19,1,[0.0009482998866587877],[0.06667119986377656],64.22739350004122,64.42774000018835,0.0,64.42774000018835,0,0.0,0,1,1000,num_1,0.6358667998574674,,32,10,2026-03-12_16h00.36.557,2026A_exp2,2022.2.4,59.88188901083835,
1000,1,0.0,6.1,1,0,3,3,62,,,,,65.0949174000416,65.74582500010729,65.74582500010729,66.23024360020645,45,315,66.23024360020645,66.23024360020645,66.23024360020645,66.23024360020645,66.23024360020645,66.23024360020645,66.23024360020645,66.23024360020645,66.23024360020645,66.59666520007886,66.59666520007886,66.59666520007886,66.59666520007886,66.59666520007886,66.59666520007886,66.59666520007886,66.59666520007886,66.59666520007886,0,1,[0.0012213001027703285],[0.3671061999630183],66.59666520007886,66.79936669999734,1000,66.79936669999734,1000,1000,1000,1000,1,num_2,0.719588200096041,,32,10,2026-03-12_16h00.36.557,2026A_exp2,2022.2.4,59.88188901083835,
1000,1,0.0,0.0,1,0,4,4,23,,,,,67.54747760016471,68.19822520017624,68.19822520017624,68.69938690005802,315,45,68.69938690005802,68.69938690005802,68.69938690005802,68.69938690005802,68.69938690005802,68.69938690005802,68.69938690005802,68.69938690005802,68.69938690005802,69.04912940016948,69.04912940016948,69.04912940016948,69.04912940016948,69.04912940016948,69.04912940016948,69.04912940016948,69.04912940016948,69.04912940016948,22,0,,,69.04912940016948,69.24981840001419,1000,69.2664015002083,1000,1000,1000,1000,0,num_3,1.1005174997262657,,32,10,2026-03-12_16h00.36.557,2026A_exp2,2022.2.4,59.88188901083835,
1,0,0.0,6.1,0,0,5,5,34,,,,,70.38371790014207,71.03431470016949,71.03431470016949,71.53561850008555,45,315,71.53561850008555,71.53561850008555,71.53561850008555,71.53561850008555,71.53561850008555,71.53561850008555,71.53561850008555,71.53561850008555,71.53561850008555,71.90197570016608,71.90197570016608,71.90197570016608,71.90197570016608,71.90197570016608,71.90197570016608,71.90197570016608,71.90197570016608,71.90197570016608,23,0,,,71.90197570016608,72.10218090005219,0.0,72.10218090005219,0,0.0,0,1,1000,num_1,0.5933499997481704,,32,10,2026-03-12_16h00.36.557,2026A_exp2,2022.2.4,59.88188901083835,
1000,1,0.0,4.9,1,0,6,6,31,,,,,72.7194913001731,73.36980370013043,73.36980370013043,73.85465150000528,45,315,73.85465150000528,73.85465150000528,73.85465150000528,73.85465150000528,73.85465150000528,73.85465150000528,73.85465150000528,73.85465150000528,73.85465150000528,74.22071060002781,74.22071060002781,74.22071060002781,74.22071060002781,74.22071060002781,74.22071060002781,74.22071060002781,74.22071060002781,74.22071060002781,23,0,,,74.22071060002781,74.4232729000505,1000,74.4232729000505,1000,1000,1000,1000,1,num_2,0.5830937998834997,,32,10,2026-03-12_16h00.36.557,2026A_exp2,2022.2.4,59.88188901083835,
1,0,4.9,0.0,0,0,7,7,58,,,,,75.02169210021384,75.67247150000185,75.67247150000185,76.17340370011516,315,45,76.17340370011516,76.17340370011516,76.17340370011516,76.17340370011516,76.17340370011516,76.17340370011516,76.17340370011516,76.17340370011516,76.17340370011516,76.53995270002633,76.53995270002633,76.53995270002633,76.53995270002633,76.53995270002633,76.53995270002633,76.53995270002633,76.53995270002633,76.53995270002633,13,4,"[0.0012370999902486801, 0.20060630002990365, 0.2503720000386238, 0.2838391999248415]","[0.017464400036260486, 0.2336677999701351, 0.26719199982471764, 0.36717660003341734]",76.53995270002633,76.74009230011143,4.9,76.74009230011143,1,4.9,1,1,1000,num_4,0.690651600016281,,32,10,2026-03-12_16h00.36.557,2026A_exp2,2022.2.4,59.88188901083835,
1000,1,0.0,0.0,0,0,8,8,18,,,,,77.4573410002049,78.10818100022152,78.10818100022152,78.59251040010713,45,45,78.59251040010713,78.59251040010713,78.59251040010713,78.59251040010713,78.59251040010713,78.59251040010713,78.59251040010713,78.59251040010713,78.59251040010713,78.95904540014453,78.95904540014453,78.95904540014453,78.95904540014453,78.95904540014453,78.95904540014453,78.95904540014453,78.95904540014453,78.95904540014453,0,1,[0.0012393000070005655],[0.3671945999376476],78.95904540014453,79.16120350011624,1000,79.16120350011624,1000,1000,1000,1000,1,num_2,0.7412779999431223,,32,10,2026-03-12_16h00.36.557,2026A_exp2,2022.2.4,59.88188901083835,
1000,1,0.0,0.0,0,0,9,9,64,,,,,79.92654020013288,80.57699339999817,80.57699339999817,81.07843770016916,45,45,81.07843770016916,81.07843770016916,81.07843770016916,81.07843770016916,81.07843770016916,81.07843770016916,81.07843770016916,81.07843770016916,81.07843770016916,81.44480930012651,81.44480930012651,81.44480930012651,81.44480930012651,81.44480930012651,81.44480930012651,81.44480930012651,81.44480930012651,81.44480930012651,0,1,[0.0012366001028567553],[0.36684140004217625],81.44480930012651,81.64655630011111,1000,81.64655630011111,1000,1000,1000,1000,0,num_3,0.5927641000598669,,32,10,2026-03-12_16h00.36.557,2026A_exp2,2022.2.4,59.88188901083835,
1000,1,3.7,0.0,0,0,10,10,45,,,,,82.26245390018448,82.91280100005679,82.91280100005679,83.39745880011469,45,315,83.39745880011469,83.39745880011469,83.39745880011469,83.39745880011469,83.39745880011469,83.39745880011469,83.39745880011469,83.39745880011469,83.39745880011469,83.76353140012361,83.76353140012361,83.76353140012361,83.76353140012361,83.76353140012361,83.76353140012361,83.76353140012361,83.76353140012361,83.76353140012361,7,4,"[0.0012145000509917736, 0.15004750015214086, 0.21682240022346377, 0.30023780022747815]","[0.13348010019399226, 0.20009080017916858, 0.28353640018031, 0.3166478001512587]",83.76353140012361,83.96409780019894,1000,83.96409780019894,1000,1000,1000,1000,0,num_3,0.36289999983273447,,32,10,2026-03-12_16h00.36.557,2026A_exp2,2022.2.4,59.88188901083835,
1,0,6.1,0.0,0,0,11,11,56,,,,,84.3475557002239,84.99844450014643,84.99844450014643,85.49940060009249,315,45,85.49940060009249,85.49940060009249,85.49940060009249,85.49940060009249,85.49940060009249,85.49940060009249,85.49940060009249,85.49940060009249,85.49940060009249,85.8659674001392,85.8659674001392,85.8659674001392,85.8659674001392,85.8659674001392,85.8659674001392,85.8659674001392,85.8659674001392,85.8659674001392,0,1,[0.0012781000696122646],[0.3674284000881016],85.8659674001392,86.06601520022377,6.1,86.06601520022377,1,6.1,1,1,1000,num_4,0.5812917998991907,,32,10,2026-03-12_16h00.36.557,2026A_exp2,2022.2.4,59.88188901083835,
1,0,0.0,3.7,0,0,12,12,61,,,,,86.66650030016899,87.31740760011598,87.31740760011598,87.8016542000696,45,315,87.8016542000696,87.8016542000696,87.8016542000696,87.8016542000696,87.8016542000696,87.8016542000696,87.8016542000696,87.8016542000696,87.8016542000696,88.16814280021936,88.16814280021936,88.16814280021936,88.16814280021936,88.16814280021936,88.16814280021936,88.16814280021936,88.16814280021936,88.16814280021936,10,3,"[0.0010522999800741673, 0.10020980006083846, 0.2504084000829607]","[0.050086600007489324, 0.21669279993511736, 0.3005412998609245]",88.16814280021936,88.3683389001526,0.0,88.3683389001526,0,0.0,0,1,1000,num_1,0.9349676000420004,,32,10,2026-03-12_16h00.36.557,2026A_exp2,2022.2.4,59.88188901083835,
0,0,0.0,6.1,0,0,13,13,7,,,,,89.31929100002162,89.96986270020716,89.96986270020716,90.45451980014332,45,315,90.45451980014332,90.45451980014332,90.45451980014332,90.45451980014332,90.45451980014332,90.45451980014332,90.45451980014332,90.45451980014332,90.45451980014332,90.82088640006259,90.82088640006259,90.82088640006259,90.82088640006259,90.82088640006259,90.82088640006259,90.82088640006259,90.82088640006259,90.82088640006259,8,2,"[0.11683119996450841, 0.1503431999590248]","[0.13368039997294545, 0.36695810011588037]",90.82088640006259,91.02098400006071,6.1,91.02098400006071,1,6.1,1,1,1000,num_4,0.5144964000210166,,32,10,2026-03-12_16h00.36.557,2026A_exp2,2022.2.4,59.88188901083835,
1000,1,4.9,6.1,0,0,14,14,20,,,,,91.5548076000996,92.20562810008414,92.20562810008414,92.69003570009954,315,45,92.69003570009954,92.69003570009954,92.69003570009954,92.69003570009954,92.69003570009954,92.69003570009954,92.69003570009954,92.69003570009954,92.69003570009954,93.05640140012838,93.05640140012838,93.05640140012838,93.05640140012838,93.05640140012838,93.05640140012838,93.05640140012838,93.05640140012838,93.05640140012838,0,1,[0.0012056000996381044],[0.3672267999500036],93.05640140012838,93.25872230017558,1000,93.25872230017558,1000,1000,1000,1000,0,num_3,0.6201220997609198,,32,10,2026-03-12_16h00.36.557,2026A_exp2,2022.2.4,59.88188901083835,
1000,1,0.0,0.0,0,0,15,15,85,,,,,93.90707800001837,94.55787510005757,94.55787510005757,95.04223030013964,45,45,95.04223030013964,95.04223030013964,95.04223030013964,95.04223030013964,95.04223030013964,95.04223030013964,95.04223030013964,95.04223030013964,95.04223030013964,95.40860460000113,95.40860460000113,95.40860460000113,95.40860460000113,95.40860460000113,95.40860460000113,95.40860460000113,95.40860460000113,95.40860460000113,20,2,"[0.0012155999429523945, 0.3004709999077022]","[0.03349930001422763, 0.3170814998447895]",95.40860460000113,95.61060000001453,1000,95.61060000001453,1000,1000,1000,1000,1,num_2,0.7729051997885108,,32,10,2026-03-12_16h00.36.557,2026A_exp2,2022.2.4,59.88188901083835,
1,0,0.0,6.1,1,0,16,16,36,,,,,96.40979380020872,97.0604305001907,97.0604305001907,97.56145959999412,315,315,97.56145959999412,97.56145959999412,97.56145959999412,97.56145959999412,97.56145959999412,97.56145959999412,97.56145959999412,97.56145959999412,97.56145959999412,97.92803320009261,97.92803320009261,97.92803320009261,97.92803320009261,97.92803320009261,97.92803320009261,97.92803320009261,97.92803320009261,97.92803320009261,23,0,,,97.92803320009261,98.12809700006619,6.1,98.12809700006619,1,6.1,1,1,1000,num_4,0.6861293998081237,,32,10,2026-03-12_16h00.36.557,2026A_exp2,2022.2.4,59.88188901083835,
1000,1,0.0,4.9,1,0,17,17,76,,,,,98.84544230019674,99.47956140013412,99.47956140013412,99.98066680016927,45,315,99.98066680016927,99.98066680016927,99.98066680016927,99.98066680016927,99.98066680016927,99.98066680016927,99.98066680016927,99.98066680016927,99.98066680016927,100.3470074001234,100.3470074001234,100.3470074001234,100.3470074001234,100.3470074001234,100.3470074001234,100.3470074001234,100.3470074001234,100.3470074001234,23,0,,,100.3470074001234,100.57044000015594,1000,100.57044000015594,1000,1000,1000,1000,1,num_2,0.4279738001059741,,32,10,2026-03-12_16h00.36.557,2026A_exp2,2022.2.4,59.88188901083835,
1,0,6.1,4.9,0,0,18,18,39,,,,,101.014292600099,101.66507510002702,101.66507510002702,102.16620490001515,315,45,102.16620490001515,102.16620490001515,102.16620490001515,102.16620490001515,102.16620490001515,102.16620490001515,102.16620490001515,102.16620490001515,102.16620490001515,102.51580030005425,102.51580030005425,102.51580030005425,102.51580030005425,102.51580030005425,102.51580030005425,102.51580030005425,102.51580030005425,102.51580030005425,22,0,,,102.51580030005425,102.7289951001294,6.1,102.7289951001294,1,6.1,1,1,1000,num_4,1.0702717998065054,,32,10,2026-03-12_16h00.36.557,2026A_exp2,2022.2.4,59.88188901083835,
1000,1,0.0,0.0,1,0,19,19,12,,,,,103.81705590011552,104.46766190021299,104.46766190021299,104.9521944001317,315,315,104.9521944001317,104.9521944001317,104.9521944001317,104.9521944001317,104.9521944001317,104.9521944001317,104.9521944001317,104.9521944001317,104.9521944001317,105.31875410000794,105.31875410000794,105.31875410000794,105.31875410000794,105.31875410000794,105.31875410000794,105.31875410000794,105.31875410000794,105.31875410000794,23,0,,,105.31875410000794,105.52059090021066,1000,105.52059090021066,1000,1000,1000,1000,1,num_2,0.5911481999792159,,32,10,2026-03-12_16h00.36.557,2026A_exp2,2022.2.4,59.88188901083835,
1000,1,0.0,3.7,0,0,20,20,78,,,,,106.13611760013737,106.78687320020981,106.78687320020981,107.28789730020799,45,45,107.28789730020799,107.28789730020799,107.28789730020799,107.28789730020799,107.28789730020799,107.28789730020799,107.28789730020799,107.28789730020799,107.28789730020799,107.63772050011903,107.63772050011903,107.63772050011903,107.63772050011903,107.63772050011903,107.63772050011903,107.63772050011903,107.63772050011903,107.63772050011903,20,2,"[0.08359339996241033, 0.15029760007746518]","[0.10016739997081459, 0.16697719995863736]",107.63772050011903,107.83920930000022,1000,107.85456920019351,1000,1000,1000,1000,1,num_2,0.4478459998499602,,32,10,2026-03-12_16h00.36.557,2026A_exp2,2022.2.4,59.88188901083835,
1000,1,0.0,4.9,1,0,21,21,79,,,,,108.32157470006496,108.97231350000948,108.97231350000948,109.47317320015281,45,45,109.47317320015281,109.47317320015281,109.47317320015281,109.47317320015281,109.47317320015281,109.47317320015281,109.47317320015281,109.47317320015281,109.47317320015281,109.83978080004454,109.83978080004454,109.83978080004454,109.83978080004454,109.83978080004454,109.83978080004454,109.83978080004454,109.83978080004454,109.83978080004454,23,0,,,109.83978080004454,110.04212180012837,1000,110.04212180012837,1000,1000,1000,1000,1,num_2,0.30938409990631044,,32,10,2026-03-12_16h00.36.557,2026A_exp2,2022.2.4,59.88188901083835,
1000,1,4.9,0.0,1,0,22,22,72,,,,,110.37361060013063,111.02431040001102,111.02431040001102,111.52547640004195,45,315,111.52547640004195,111.52547640004195,111.52547640004195,111.52547640004195,111.52547640004195,111.52547640004195,111.52547640004195,111.52547640004195,111.52547640004195,111.89186730002984,111.89186730002984,111.89186730002984,111.89186730002984,111.89186730002984,111.89186730002984,111.89186730002984,111.89186730002984,111.89186730002984,23,0,,,111.89186730002984,112.09405150008388,1000,112.09405150008388,1000,1000,1000,1000,0,num_3,0.40887749986723065,,32,10,2026-03-12_16h00.36.557,2026A_exp2,2022.2.4,59.88188901083835,
1000,1,0.0,0.0,1,0,23,23,67,,,,,112.52593640005216,113.17649650014937,113.17649650014937,113.67768390011042,315,315,113.67768390011042,113.67768390011042,113.67768390011042,113.67768390011042,113.67768390011042,113.67768390011042,113.67768390011042,113.67768390011042,113.67768390011042,114.02743290015496,114.02743290015496,114.02743290015496,114.02743290015496,114.02743290015496,114.02743290015496,114.02743290015496,114.02743290015496,114.02743290015496,22,0,,,114.02743290015496,114.22962000011466,1000,114.22962000011466,1000,1000,1000,1000,1,num_2,0.5529751998838037,,32,10,2026-03-12_16h00.36.557,2026A_exp2,2022.2.4,59.88188901083835,
1,0,0.0,0.0,1,0,24,24,6,,,,,114.81148720020428,115.46215520007536,115.46215520007536,115.96286640013568,45,315,115.96286640013568,115.96286640013568,115.96286640013568,115.96286640013568,115.96286640013568,115.96286640013568,115.96286640013568,115.96286640013568,115.96286640013568,116.32970580016263,116.32970580016263,116.32970580016263,116.32970580016263,116.32970580016263,116.32970580016263,116.32970580016263,116.32970580016263,116.32970580016263,23,0,,,116.32970580016263,116.5299595000688,0.0,116.5299595000688,0,0.0,0,1,1000,num_1,0.9650825997814536,,32,10,2026-03-12_16h00.36.557,2026A_exp2,2022.2.4,59.88188901083835,
1,0,3.7,0.0,1,0,25,25,19,,,,,117.51405270001851,118.16481139999814,118.16481139999814,118.64920380013064,45,45,118.64920380013064,118.64920380013064,118.64920380013064,118.64920380013064,118.64920380013064,118.64920380013064,118.64920380013064,118.64920380013064,118.64920380013064,119.01554900011979,119.01554900011979,119.01554900011979,119.01554900011979,119.01554900011979,119.01554900011979,119.01554900011979,119.01554900011979,119.01554900011979,23,0,,,119.01554900011979,119.21586630004458,0.0,119.21586630004458,0,0.0,0,1,1000,num_1,0.7594377000350505,,32,10,2026-03-12_16h00.36.557,2026A_exp2,2022.2.4,59.88188901083835,
1,0,0.0,4.9,0,0,26,26,4,,,,,120.00004030019045,120.65072400006466,120.65072400006466,121.13515340001322,45,315,121.13515340001322,121.13515340001322,121.13515340001322,121.13515340001322,121.13515340001322,121.13515340001322,121.13515340001322,121.13515340001322,121.13515340001322,121.5015418000985,121.5015418000985,121.5015418000985,121.5015418000985,121.5015418000985,121.5015418000985,121.5015418000985,121.5015418000985,121.5015418000985,19,2,"[0.000803900184109807, 0.3674120001960546]","[0.05035230005159974, 0.3674163001123816]",121.5015418000985,121.70173700014129,0.0,121.70173700014129,1,0.0,0,0,1000,num_4,0.7213494000025094,,32,10,2026-03-12_16h00.36.557,2026A_exp2,2022.2.4,59.88188901083835,
1000,1,6.1,0.0,0,0,27,27,14,,,,,122.45238050003536,123.10302290017717,123.10302290017717,123.58721760008484,45,45,123.58721760008484,123.58721760008484,123.58721760008484,123.58721760008484,123.58721760008484,123.58721760008484,123.58721760008484,123.58721760008484,123.58721760008484,123.95388200017624,123.95388200017624,123.95388200017624,123.95388200017624,123.95388200017624,123.95388200017624,123.95388200017624,123.95388200017624,123.95388200017624,16,5,"[0.0008757999166846275, 0.05018149991519749, 0.10029760003089905, 0.21709629986435175, 0.3503993998747319]","[0.017277099890634418, 0.08354169991798699, 0.11688999994657934, 0.25049140001647174, 0.3672561999410391]",123.95388200017624,124.15396890020929,1000,124.15396890020929,1000,1000,1000,1000,0,num_3,0.6365994999650866,,32,10,2026-03-12_16h00.36.557,2026A_exp2,2022.2.4,59.88188901083835,
1000,1,0.0,0.0,0,0,28,28,80,,,,,124.80495820008218,125.45562420017086,125.45562420017086,125.95656990003772,315,45,125.95656990003772,125.95656990003772,125.95656990003772,125.95656990003772,125.95656990003772,125.95656990003772,125.95656990003772,125.95656990003772,125.95656990003772,126.32301040017046,126.32301040017046,126.32301040017046,126.32301040017046,126.32301040017046,126.32301040017046,126.32301040017046,126.32301040017046,126.32301040017046,23,0,,,126.32301040017046,126.53420270001516,1000,126.53420270001516,1000,1000,1000,1000,0,num_3,1.1049940998200327,,32,10,2026-03-12_16h00.36.557,2026A_exp2,2022.2.4,59.88188901083835,
1000,1,0.0,0.0,0,0,29,29,15,,,,,127.65757430018857,128.30833720020019,128.30833720020019,128.80934140016325,45,315,128.80934140016325,128.80934140016325,128.80934140016325,128.80934140016325,128.80934140016325,128.80934140016325,128.80934140016325,128.80934140016325,128.80934140016325,129.17580780014396,129.17580780014396,129.17580780014396,129.17580780014396,129.17580780014396,129.17580780014396,129.17580780014396,129.17580780014396,129.17580780014396,23,0,,,129.17580780014396,129.37604560004547,1000,129.37604560004547,1000,1000,1000,1000,1,num_2,0.46258139982819557,,32,10,2026-03-12_16h00.36.557,2026A_exp2,2022.2.4,59.88188901083835,
1,0,0.0,3.7,1,0,30,30,41,,,,,129.8598309000954,130.51049170014448,130.51049170014448,131.01165420003235,45,315,131.01165420003235,131.01165420003235,131.01165420003235,131.01165420003235,131.01165420003235,131.01165420003235,131.01165420003235,131.01165420003235,131.01165420003235,131.37795700016432,131.37795700016432,131.37795700016432,131.37795700016432,131.37795700016432,131.37795700016432,131.37795700016432,131.37795700016432,131.37795700016432,23,0,,,131.37795700016432,131.5783633000683,3.7,131.5783633000683,1,3.7,1,1,1000,num_4,0.8362343998160213,,32,10,2026-03-12_16h00.36.557,2026A_exp2,2022.2.4,59.88188901083835,
1000,1,4.9,0.0,0,0,31,31,54,,,,,132.44571300013922,133.09651960013434,133.09651960013434,133.58092960016802,315,45,133.58092960016802,133.58092960016802,133.58092960016802,133.58092960016802,133.58092960016802,133.58092960016802,133.58092960016802,133.58092960016802,133.58092960016802,133.9473254000768,133.9473254000768,133.9473254000768,133.9473254000768,133.9473254000768,133.9473254000768,133.9473254000768,133.9473254000768,133.9473254000768,23,0,,,133.9473254000768,134.14929269999266,1000,134.14929269999266,1000,1000,1000,1000,0,num_3,0.529704499989748,,32,10,2026-03-12_16h00.36.557,2026A_exp2,2022.2.4,59.88188901083835,
1,0,4.9,0.0,1,0,32,32,8,,,,,134.69798660022207,135.34879220020957,135.34879220020957,135.8496673000045,315,315,135.8496673000045,135.8496673000045,135.8496673000045,135.8496673000045,135.8496673000045,135.8496673000045,135.8496673000045,135.8496673000045,135.8496673000045,136.21631430019625,136.21631430019625,136.21631430019625,136.21631430019625,136.21631430019625,136.21631430019625,136.21631430019625,136.21631430019625,136.21631430019625,23,0,,,136.21631430019625,136.41650640009902,0.0,136.41650640009902,0,0.0,0,1,1000,num_1,0.830208099912852,,32,10,2026-03-12_16h00.36.557,2026A_exp2,2022.2.4,59.88188901083835,
1,0,0.0,0.0,0,0,33,33,1,,,,,137.26723880018108,137.91794070019387,137.91794070019387,138.40234200004488,45,45,138.40234200004488,138.40234200004488,138.40234200004488,138.40234200004488,138.40234200004488,138.40234200004488,138.40234200004488,138.40234200004488,138.40234200004488,138.76869850000367,138.76869850000367,138.76869850000367,138.76869850000367,138.76869850000367,138.76869850000367,138.76869850000367,138.76869850000367,138.76869850000367,23,0,,,138.76869850000367,138.96896590013057,0.0,138.96896590013057,0,0.0,0,1,1000,num_1,0.6854101999197155,,32,10,2026-03-12_16h00.36.557,2026A_exp2,2022.2.4,59.88188901083835,
1,0,3.7,0.0,1,0,34,34,50,,,,,139.6862659000326,140.3370777000673,140.3370777000673,140.82150200009346,315,315,140.82150200009346,140.82150200009346,140.82150200009346,140.82150200009346,140.82150200009346,140.82150200009346,140.82150200009346,140.82150200009346,140.82150200009346,141.18791380012408,141.18791380012408,141.18791380012408,141.18791380012408,141.18791380012408,141.18791380012408,141.18791380012408,141.18791380012408,141.18791380012408,22,1,[0.08342570019885898],[0.10027970001101494],141.18791380012408,141.38864870020188,0.0,141.38864870020188,0,0.0,0,1,1000,num_1,0.4108066000044346,,32,10,2026-03-12_16h00.36.557,2026A_exp2,2022.2.4,59.88188901083835,
1000,1,0.0,6.1,0,0,35,35,37,,,,,141.8216794000473,142.47254300001077,142.47254300001077,142.95684620016254,45,45,142.95684620016254,142.95684620016254,142.95684620016254,142.95684620016254,142.95684620016254,142.95684620016254,142.95684620016254,142.95684620016254,142.95684620016254,143.32339690020308,143.32339690020308,143.32339690020308,143.32339690020308,143.32339690020308,143.32339690020308,143.32339690020308,143.32339690020308,143.32339690020308,22,1,[0.01737449993379414],[0.03328610002063215],143.32339690020308,143.5257700001821,1000,143.5257700001821,1000,1000,1000,1000,1,num_2,0.8493085999507457,,32,10,2026-03-12_16h00.36.557,2026A_exp2,2022.2.4,59.88188901083835,
1000,1,4.9,0.0,0,0,36,36,26,,,,,144.39126460021362,145.04170739999972,145.04170739999972,145.54271660000086,315,315,145.54271660000086,145.54271660000086,145.54271660000086,145.54271660000086,145.54271660000086,145.54271660000086,145.54271660000086,145.54271660000086,145.54271660000086,145.90898410021327,145.90898410021327,145.90898410021327,145.90898410021327,145.90898410021327,145.90898410021327,145.90898410021327,145.90898410021327,145.90898410021327,21,1,[0.08328849985264242],[0.11652369983494282],145.90898410021327,146.11132060014643,1000,146.11132060014643,1000,1000,1000,1000,0,num_3,0.423091699834913,,32,10,2026-03-12_16h00.36.557,2026A_exp2,2022.2.4,59.88188901083835,
1000,1,0.0,0.0,1,0,37,37,27,,,,,146.55985409999266,147.2105771000497,147.2105771000497,147.71174910012633,45,45,147.71174910012633,147.71174910012633,147.71174910012633,147.71174910012633,147.71174910012633,147.71174910012633,147.71174910012633,147.71174910012633,147.71174910012633,148.0614263000898,148.0614263000898,148.0614263000898,148.0614263000898,148.0614263000898,148.0614263000898,148.0614263000898,148.0614263000898,148.0614263000898,22,0,,,148.0614263000898,148.26207320019603,1000,148.27853510016575,1000,1000,1000,1000,1,num_2,0.26392449997365475,,32,10,2026-03-12_16h00.36.557,2026A_exp2,2022.2.4,59.88188901083835,
1000,1,3.7,4.9,1,0,38,38,44,,,,,148.56181370001286,149.21259020012803,149.21259020012803,149.71367420000024,315,315,149.71367420000024,149.71367420000024,149.71367420000024,149.71367420000024,149.71367420000024,149.71367420000024,149.71367420000024,149.71367420000024,149.71367420000024,150.06317600002512,150.06317600002512,150.06317600002512,150.06317600002512,150.06317600002512,150.06317600002512,150.06317600002512,150.06317600002512,150.06317600002512,15,1,[0.0011708999518305063],[0.1166664999909699],150.06317600002512,150.2653027002234,1000,150.28039010008797,1000,1000,1000,1000,1,num_2,0.34245239989832044,,32,10,2026-03-12_16h00.36.557,2026A_exp2,2022.2.4,59.88188901083835,
1000,1,4.9,0.0,1,0,39,39,22,,,,,150.64724469999783,151.29799940017983,151.29799940017983,151.79910720000044,315,315,151.79910720000044,151.79910720000044,151.79910720000044,151.79910720000044,151.79910720000044,151.79910720000044,151.79910720000044,151.79910720000044,151.79910720000044,152.16557130008005,152.16557130008005,152.16557130008005,152.16557130008005,152.16557130008005,152.16557130008005,152.16557130008005,152.16557130008005,152.16557130008005,23,0,,,152.16557130008005,152.36754350014962,1000,152.36754350014962,1000,1000,1000,1000,0,num_3,0.4789451998658478,,32,10,2026-03-12_16h00.36.557,2026A_exp2,2022.2.4,59.88188901083835,
0,0,4.9,0.0,1,0,40,40,25,,,,,152.86606330005452,153.51686140010133,153.51686140010133,154.01778530003503,45,45,154.01778530003503,154.01778530003503,154.01778530003503,154.01778530003503,154.01778530003503,154.01778530003503,154.01778530003503,154.01778530003503,154.01778530003503,154.3842971001286,154.3842971001286,154.3842971001286,154.3842971001286,154.3842971001286,154.3842971001286,154.3842971001286,154.3842971001286,154.3842971001286,23,0,,,154.3842971001286,154.58466110005975,4.9,154.58466110005975,1,4.9,1,1,1000,num_4,0.6620132999960333,,32,10,2026-03-12_16h00.36.557,2026A_exp2,2022.2.4,59.88188901083835,
1,0,0.0,0.0,1,0,41,41,87,,,,,155.26845120009966,155.91925430018455,155.91925430018455,156.4036979000084,315,45,156.4036979000084,156.4036979000084,156.4036979000084,156.4036979000084,156.4036979000084,156.4036979000084,156.4036979000084,156.4036979000084,156.4036979000084,156.77020160015672,156.77020160015672,156.77020160015672,156.77020160015672,156.77020160015672,156.77020160015672,156.77020160015672,156.77020160015672,156.77020160015672,23,0,,,156.77020160015672,156.9702932999935,0.0,156.9702932999935,1,0.0,0,0,1000,num_4,0.5562573000788689,,32,10,2026-03-12_16h00.36.557,2026A_exp2,2022.2.4,59.88188901083835,
1,0,6.1,4.9,0,0,42,42,24,,,,,157.5541023002006,158.2049501000438,158.2049501000438,158.70378680014983,315,315,158.70378680014983,158.70378680014983,158.70378680014983,158.70378680014983,158.70378680014983,158.70378680014983,158.70378680014983,158.70378680014983,158.70378680014983,159.0557936001569,159.0557936001569,159.0557936001569,159.0557936001569,159.0557936001569,159.0557936001569,159.0557936001569,159.0557936001569,159.0557936001569,23,0,,,159.0557936001569,159.25591950002126,6.1,159.25591950002126,1,6.1,1,1,1000,num_4,0.45462549990043044,,32,10,2026-03-12_16h00.36.557,2026A_exp2,2022.2.4,59.88188901083835,
1000,1,0.0,0.0,0,0,43,43,83,,,,,159.73969490011223,160.39044850016944,160.39044850016944,160.874906900106,315,45,160.874906900106,160.874906900106,160.874906900106,160.874906900106,160.874906900106,160.874906900106,160.874906900106,160.874906900106,160.874906900106,161.24119110009633,161.24119110009633,161.24119110009633,161.24119110009633,161.24119110009633,161.24119110009633,161.24119110009633,161.24119110009633,161.24119110009633,3,1,[0.001213999930769205],[0.3333723000250757],161.24119110009633,161.443101500161,1000,161.443101500161,1000,1000,1000,1000,1,num_2,0.6516629997640848,,32,10,2026-03-12_16h00.36.557,2026A_exp2,2022.2.4,59.88188901083835,
1000,1,3.7,0.0,0,0,44,44,2,,,,,162.12540140002966,162.77606320008636,162.77606320008636,163.27716840012,45,315,163.27716840012,163.27716840012,163.27716840012,163.27716840012,163.27716840012,163.27716840012,163.27716840012,163.27716840012,163.27716840012,163.64372280007228,163.64372280007228,163.64372280007228,163.64372280007228,163.64372280007228,163.64372280007228,163.64372280007228,163.64372280007228,163.64372280007228,23,0,,,163.64372280007228,163.84543420001864,1000,163.84543420001864,1000,1000,1000,1000,0,num_3,0.32977189985103905,,32,10,2026-03-12_16h00.36.557,2026A_exp2,2022.2.4,59.88188901083835,
1000,1,0.0,6.1,1,0,45,45,88,,,,,164.19411600008607,164.84481260017492,164.84481260017492,165.34597190003842,45,45,165.34597190003842,165.34597190003842,165.34597190003842,165.34597190003842,165.34597190003842,165.34597190003842,165.34597190003842,165.34597190003842,165.34597190003842,165.71229160018265,165.71229160018265,165.71229160018265,165.71229160018265,165.71229160018265,165.71229160018265,165.71229160018265,165.71229160018265,165.71229160018265,23,0,,,165.71229160018265,165.93348600016907,1000,165.93348600016907,1000,1000,1000,1000,1,num_2,0.28130739997141063,,32,10,2026-03-12_16h00.36.557,2026A_exp2,2022.2.4,59.88188901083835,
0,0,6.1,3.7,1,0,46,46,49,,,,,166.2464563001413,166.89696929999627,166.89696929999627,167.38139250013046,315,315,167.38139250013046,167.38139250013046,167.38139250013046,167.38139250013046,167.38139250013046,167.38139250013046,167.38139250013046,167.38139250013046,167.38139250013046,167.74776480020955,167.74776480020955,167.74776480020955,167.74776480020955,167.74776480020955,167.74776480020955,167.74776480020955,167.74776480020955,167.74776480020955,12,7,"[0.0012876000255346298, 0.06682840012945235, 0.10023530013859272, 0.18346319999545813, 0.2336200000718236, 0.2671509000938386, 0.33374380017630756]","[0.017386100022122264, 0.08361140009947121, 0.16703330003656447, 0.20046350010670722, 0.25044530001468956, 0.3006107001565397, 0.3506899999920279]",167.74776480020955,167.94807270006277,6.1,167.94807270006277,1,6.1,1,1,1000,num_4,0.738959799753502,,32,10,2026-03-12_16h00.36.557,2026A_exp2,2022.2.4,59.88188901083835,
1,0,0.0,0.0,1,0,47,47,73,,,,,168.71518450020812,169.3494433001615,169.3494433001615,169.85050010005943,315,315,169.85050010005943,169.85050010005943,169.85050010005943,169.85050010005943,169.85050010005943,169.85050010005943,169.85050010005943,169.85050010005943,169.85050010005943,170.2170065001119,170.2170065001119,170.2170065001119,170.2170065001119,170.2170065001119,170.2170065001119,170.2170065001119,170.2170065001119,170.2170065001119,23,0,,,170.2170065001119,170.41706990008242,0.0,170.41706990008242,1,0.0,0,0,1000,num_4,0.5739092996809632,,32,10,2026-03-12_16h00.36.557,2026A_exp2,2022.2.4,59.88188901083835,
0,0,0.0,3.7,1,0,48,48,10,,,,,171.017710900167,171.66830010013655,171.66830010013655,172.152699300088,45,315,172.152699300088,172.152699300088,172.152699300088,172.152699300088,172.152699300088,172.152699300088,172.152699300088,172.152699300088,172.152699300088,172.51917179999873,172.51917179999873,172.51917179999873,172.51917179999873,172.51917179999873,172.51917179999873,172.51917179999873,172.51917179999873,172.51917179999873,13,4,"[0.001210200134664774, 0.05032020015642047, 0.15033029997721314, 0.2670408000703901]","[0.017387500032782555, 0.10051150014624, 0.21703590010292828, 0.30048259999603033]",172.51917179999873,172.7192957000807,0.0,172.7192957000807,0,0.0,0,1,1000,num_1,1.7994070998393,,32,10,2026-03-12_16h00.36.557,2026A_exp2,2022.2.4,59.88188901083835,
1,0,0.0,3.7,0,0,49,49,35,,,,,174.5377935001161,175.18859610008076,175.18859610008076,175.67288990016095,315,45,175.67288990016095,175.67288990016095,175.67288990016095,175.67288990016095,175.67288990016095,175.67288990016095,175.67288990016095,175.67288990016095,175.67288990016095,176.03937050001696,176.03937050001696,176.03937050001696,176.03937050001696,176.03937050001696,176.03937050001696,176.03937050001696,176.03937050001696,176.03937050001696,14,9,"[0.0012101000174880028, 0.033694599987939, 0.06690079998224974, 0.10034030000679195, 0.18354110000655055, 0.21710949996486306, 0.24990819999948144, 0.2836283000651747, 0.33373149996623397]","[0.017344400053843856, 0.05019240011461079, 0.0835945000872016, 0.11703340010717511, 0.20037340000271797, 0.23373210011050105, 0.2668349000159651, 0.31704250001348555, 0.35051349992863834]",176.03937050001696,176.23955960012972,0.0,176.23955960012972,0,0.0,0,1,1000,num_1,0.5192511000204831,,32,10,2026-03-12_16h00.36.557,2026A_exp2,2022.2.4,59.88188901083835,
1000,1,6.1,0.0,0,0,50,50,82,,,,,176.79004720016383,177.43385080015287,177.43385080015287,177.94101080019027,45,45,177.94101080019027,177.94101080019027,177.94101080019027,177.94101080019027,177.94101080019027,177.94101080019027,177.94101080019027,177.94101080019027,177.94101080019027,178.29183800006285,178.29183800006285,178.29183800006285,178.29183800006285,178.29183800006285,178.29183800006285,178.29183800006285,178.29183800006285,178.29183800006285,22,1,[0.34853789978660643],[0.3652878999710083],178.29183800006285,178.50429970002733,1000,178.50429970002733,1000,1000,1000,1000,0,num_3,0.6219885998871177,,32,10,2026-03-12_16h00.36.557,2026A_exp2,2022.2.4,59.88188901083835,
1000,1,3.7,6.1,0,0,51,51,84,,,,,179.14270810014568,179.7930391000118,179.7930391000118,180.27764170011505,45,45,180.27764170011505,180.27764170011505,180.27764170011505,180.27764170011505,180.27764170011505,180.27764170011505,180.27764170011505,180.27764170011505,180.27764170011505,180.64402430015616,180.64402430015616,180.64402430015616,180.64402430015616,180.64402430015616,180.64402430015616,180.64402430015616,180.64402430015616,180.64402430015616,12,5,"[0.017448500031605363, 0.066877500154078, 0.16693850001320243, 0.2503990000113845, 0.31718210014514625]","[0.05014960002154112, 0.11696470016613603, 0.20023360010236502, 0.2838549001608044, 0.3504566000774503]",180.64402430015616,180.84630370000377,1000,180.84630370000377,1000,1000,1000,1000,0,num_3,0.5521410999353975,,32,10,2026-03-12_16h00.36.557,2026A_exp2,2022.2.4,59.88188901083835,
1,0,3.7,3.7,0,0,52,52,13,,,,,181.42816320015118,182.07878990005702,182.07878990005702,182.5632436000742,45,45,182.5632436000742,182.5632436000742,182.5632436000742,182.5632436000742,182.5632436000742,182.5632436000742,182.5632436000742,182.5632436000742,182.5632436000742,182.92963070003316,182.92963070003316,182.92963070003316,182.92963070003316,182.92963070003316,182.92963070003316,182.92963070003316,182.92963070003316,182.92963070003316,21,2,"[0.08348529995419085, 0.30033360002562404]","[0.10015239985659719, 0.3168964998330921]",182.92963070003316,183.12969140009955,3.7,183.12969140009955,1,3.7,1,1,1000,num_4,0.7815059998538345,,32,10,2026-03-12_16h00.36.557,2026A_exp2,2022.2.4,59.88188901083835,
1,0,0.0,6.1,1,0,53,53,40,,,,,183.93038900010288,184.56467660004273,184.56467660004273,185.0655817000661,45,315,185.0655817000661,185.0655817000661,185.0655817000661,185.0655817000661,185.0655817000661,185.0655817000661,185.0655817000661,185.0655817000661,185.0655817000661,185.43214850011282,185.43214850011282,185.43214850011282,185.43214850011282,185.43214850011282,185.43214850011282,185.43214850011282,185.43214850011282,185.43214850011282,23,0,,,185.43214850011282,185.6438987001311,6.1,185.6438987001311,1,6.1,1,1,1000,num_4,0.5389069998636842,,32,10,2026-03-12_16h00.36.557,2026A_exp2,2022.2.4,59.88188901083835,
1000,1,0.0,0.0,0,0,54,54,81,,,,,186.19947680016048,186.8545964001678,186.8545964001678,187.33455450017937,315,45,187.33455450017937,187.33455450017937,187.33455450017937,187.33455450017937,187.33455450017937,187.33455450017937,187.33455450017937,187.33455450017937,187.33455450017937,187.7012751000002,187.7012751000002,187.7012751000002,187.7012751000002,187.7012751000002,187.7012751000002,187.7012751000002,187.7012751000002,187.7012751000002,23,0,,,187.7012751000002,187.90333330002613,1000,187.90333330002613,1000,1000,1000,1000,1,num_2,0.8320199998561293,,32,10,2026-03-12_16h00.36.557,2026A_exp2,2022.2.4,59.88188901083835,
1000,1,0.0,0.0,0,0,55,55,17,,,,,188.7519977001939,189.40257370006293,189.40257370006293,189.90379020012915,45,45,189.90379020012915,189.90379020012915,189.90379020012915,189.90379020012915,189.90379020012915,189.90379020012915,189.90379020012915,189.90379020012915,189.90379020012915,190.2701129000634,190.2701129000634,190.2701129000634,190.2701129000634,190.2701129000634,190.2701129000634,190.2701129000634,190.2701129000634,190.2701129000634,19,3,"[0.20019339979626238, 0.2668669999111444, 0.3169942998792976]","[0.21698879986070096, 0.30046439985744655, 0.33388389996252954]",190.2701129000634,190.47236280003563,1000,190.47236280003563,1000,1000,1000,1000,0,num_3,0.5900638997554779,,32,10,2026-03-12_16h00.36.557,2026A_exp2,2022.2.4,59.88188901083835,
1000,1,3.7,4.9,1,0,56,56,46,,,,,191.08772650011815,191.7384210000746,191.7384210000746,192.23958789999597,45,45,192.23958789999597,192.23958789999597,192.23958789999597,192.23958789999597,192.23958789999597,192.23958789999597,192.23958789999597,192.23958789999597,192.23958789999597,192.58921920019202,192.58921920019202,192.58921920019202,192.58921920019202,192.58921920019202,192.58921920019202,192.58921920019202,192.58921920019202,192.58921920019202,22,0,,,192.58921920019202,192.7914863000624,1000,192.8062415001914,1000,1000,1000,1000,1,num_2,0.3770526999142021,,32,10,2026-03-12_16h00.36.557,2026A_exp2,2022.2.4,59.88188901083835,
1,0,0.0,4.9,1,0,57,57,21,,,,,193.20653990004212,193.85726380022243,193.85726380022243,194.3584051001817,45,315,194.3584051001817,194.3584051001817,194.3584051001817,194.3584051001817,194.3584051001817,194.3584051001817,194.3584051001817,194.3584051001817,194.3584051001817,194.72474170010537,194.72474170010537,194.72474170010537,194.72474170010537,194.72474170010537,194.72474170010537,194.72474170010537,194.72474170010537,194.72474170010537,22,1,[0.18370739999227226],[0.20038920012302697],194.72474170010537,194.92501540016383,4.9,194.92501540016383,1,4.9,1,1,1000,num_4,1.3054843998979777,,32,10,2026-03-12_16h00.36.557,2026A_exp2,2022.2.4,59.88188901083835,
1000,1,6.1,0.0,1,0,58,58,30,,,,,196.25934510002844,196.89348970004357,196.89348970004357,197.39470900013112,45,45,197.39470900013112,197.39470900013112,197.39470900013112,197.39470900013112,197.39470900013112,197.39470900013112,197.39470900013112,197.39470900013112,197.39470900013112,197.7607321999967,197.7607321999967,197.7607321999967,197.7607321999967,197.7607321999967,197.7607321999967,197.7607321999967,197.7607321999967,197.7607321999967,23,0,,,197.7607321999967,197.96327960002236,1000,197.96327960002236,1000,1000,1000,1000,0,num_3,0.5400666000787169,,32,10,2026-03-12_16h00.36.557,2026A_exp2,2022.2.4,59.88188901083835,
1000,1,3.7,0.0,0,0,59,59,57,,,,,198.52846830012277,199.1791155000683,199.1791155000683,199.680342100095,315,315,199.680342100095,199.680342100095,199.680342100095,199.680342100095,199.680342100095,199.680342100095,199.680342100095,199.680342100095,199.680342100095,200.04679760010913,200.04679760010913,200.04679760010913,200.04679760010913,200.04679760010913,200.04679760010913,200.04679760010913,200.04679760010913,200.04679760010913,23,0,,,200.04679760010913,200.2487959000282,1000,200.2487959000282,1000,1000,1000,1000,0,num_3,0.5974488998763263,,32,10,2026-03-12_16h00.36.557,2026A_exp2,2022.2.4,59.88188901083835,
1000,1,4.9,0.0,1,0,60,60,5,,,,,200.86427570017986,201.514577700058,201.514577700058,202.0160149000585,45,315,202.0160149000585,202.0160149000585,202.0160149000585,202.0160149000585,202.0160149000585,202.0160149000585,202.0160149000585,202.0160149000585,202.0160149000585,202.36576130008325,202.36576130008325,202.36576130008325,202.36576130008325,202.36576130008325,202.36576130008325,202.36576130008325,202.36576130008325,202.36576130008325,21,1,[0.15034070005640388],[0.16710279998369515],202.36576130008325,202.56780820013955,1000,202.56780820013955,1000,1000,1000,1000,0,num_3,0.7426588998641819,,32,10,2026-03-12_16h00.36.557,2026A_exp2,2022.2.4,59.88188901083835,
1,0,0.0,6.1,1,0,61,61,52,,,,,203.333374600159,203.98389000003226,203.98389000003226,204.48518850002438,45,45,204.48518850002438,204.48518850002438,204.48518850002438,204.48518850002438,204.48518850002438,204.48518850002438,204.48518850002438,204.48518850002438,204.48518850002438,204.85145550011657,204.85145550011657,204.85145550011657,204.85145550011657,204.85145550011657,204.85145550011657,204.85145550011657,204.85145550011657,204.85145550011657,23,0,,,204.85145550011657,205.05171210016124,6.1,205.05171210016124,1,6.1,1,1,1000,num_4,2.4124594999011606,,32,10,2026-03-12_16h00.36.557,2026A_exp2,2022.2.4,59.88188901083835,
1,0,0.0,3.7,1,0,62,62,66,,,,,207.4879731000401,208.13858920009807,208.13858920009807,208.63929320010357,315,315,208.63929320010357,208.63929320010357,208.63929320010357,208.63929320010357,208.63929320010357,208.63929320010357,208.63929320010357,208.63929320010357,208.63929320010357,209.00572330015711,209.00572330015711,209.00572330015711,209.00572330015711,209.00572330015711,209.00572330015711,209.00572330015711,209.00572330015711,209.00572330015711,19,2,"[0.1337129999883473, 0.2671435000374913]","[0.1836777999997139, 0.28364719985984266]",209.00572330015711,209.2059599000495,3.7,209.2059599000495,0,3.7,1,0,1000,num_1,1.4972254999447614,,32,10,2026-03-12_16h00.36.557,2026A_exp2,2022.2.4,59.88188901083835,
1,0,0.0,6.1,0,0,63,63,60,,,,,210.7241183000151,211.3747767000459,211.3747767000459,211.8592226000037,45,45,211.8592226000037,211.8592226000037,211.8592226000037,211.8592226000037,211.8592226000037,211.8592226000037,211.8592226000037,211.8592226000037,211.8592226000037,212.22558130021207,212.22558130021207,212.22558130021207,212.22558130021207,212.22558130021207,212.22558130021207,212.22558130021207,212.22558130021207,212.22558130021207,23,0,,,212.22558130021207,212.4258353000041,0.0,212.4258353000041,1,0.0,0,0,1000,num_4,0.8848077999427915,,32,10,2026-03-12_16h00.36.557,2026A_exp2,2022.2.4,59.88188901083835,
1000,1,4.9,3.7,0,0,64,64,32,,,,,213.32660850021057,213.97708830004558,213.97708830004558,214.4671568002086,45,315,214.4671568002086,214.4671568002086,214.4671568002086,214.4671568002086,214.4671568002086,214.4671568002086,214.4671568002086,214.4671568002086,214.4671568002086,214.8281012000516,214.8281012000516,214.8281012000516,214.8281012000516,214.8281012000516,214.8281012000516,214.8281012000516,214.8281012000516,214.8281012000516,17,4,"[0.022393600083887577, 0.06663520005531609, 0.10045680007897317, 0.18335269996896386]","[0.049917299998924136, 0.08350490010343492, 0.13333600014448166, 0.20010609994642437]",214.8281012000516,215.0416630001273,1000,215.0416630001273,1000,1000,1000,1000,0,num_3,0.5327363999094814,,32,10,2026-03-12_16h00.36.557,2026A_exp2,2022.2.4,59.88188901083835,
1000,1,0.0,3.7,0,0,65,65,51,,,,,215.59544890001416,216.2464167000726,216.2464167000726,216.74743780004792,45,315,216.74743780004792,216.74743780004792,216.74743780004792,216.74743780004792,216.74743780004792,216.74743780004792,216.74743780004792,216.74743780004792,216.74743780004792,217.1138585000299,217.1138585000299,217.1138585000299,217.1138585000299,217.1138585000299,217.1138585000299,217.1138585000299,217.1138585000299,217.1138585000299,11,3,"[0.0667850999161601, 0.2003709999844432, 0.28385180002078414]","[0.18370980001054704, 0.26709760003723204, 0.3004926999565214]",217.1138585000299,217.31581890000962,1000,217.31581890000962,1000,1000,1000,1000,1,num_2,0.7952996999956667,,32,10,2026-03-12_16h00.36.557,2026A_exp2,2022.2.4,59.88188901083835,
1,0,3.7,0.0,0,0,66,66,3,,,,,218.1314082001336,218.78215690003708,218.78215690003708,219.28334550000727,45,45,219.28334550000727,219.28334550000727,219.28334550000727,219.28334550000727,219.28334550000727,219.28334550000727,219.28334550000727,219.28334550000727,219.28334550000727,219.63304400001653,219.63304400001653,219.63304400001653,219.63304400001653,219.63304400001653,219.63304400001653,219.63304400001653,219.63304400001653,219.63304400001653,10,5,"[0.01747010019607842, 0.10022110003046691, 0.16700070002116263, 0.23371680011041462, 0.3338242000900209]","[0.08349640015512705, 0.1335558001883328, 0.18377560004591942, 0.26713729999028146, 0.35052260011434555]",219.63304400001653,219.8332357001491,3.7,219.8332357001491,1,3.7,1,1,1000,num_4,0.8621447999030352,,32,10,2026-03-12_16h00.36.557,2026A_exp2,2022.2.4,59.88188901083835,
1000,1,0.0,0.0,0,0,67,67,86,,,,,220.7173457001336,221.36796920001507,221.36796920001507,221.8524013001006,45,315,221.8524013001006,221.8524013001006,221.8524013001006,221.8524013001006,221.8524013001006,221.8524013001006,221.8524013001006,221.8524013001006,221.8524013001006,222.21884820004925,222.21884820004925,222.21884820004925,222.21884820004925,222.21884820004925,222.21884820004925,222.21884820004925,222.21884820004925,222.21884820004925,20,1,[0.06678229989483953],[0.11671319999732077],222.21884820004925,222.4397927999962,1000,222.4397927999962,1000,1000,1000,1000,1,num_2,1.2628536999691278,,32,10,2026-03-12_16h00.36.557,2026A_exp2,2022.2.4,59.88188901083835,
1000,1,4.9,6.1,1,0,68,68,28,,,,,223.72032830002718,224.3710977002047,224.3710977002047,224.8720901000779,45,315,224.8720901000779,224.8720901000779,224.8720901000779,224.8720901000779,224.8720901000779,224.8720901000779,224.8720901000779,224.8720901000779,224.8720901000779,225.23850670014508,225.23850670014508,225.23850670014508,225.23850670014508,225.23850670014508,225.23850670014508,225.23850670014508,225.23850670014508,225.23850670014508,23,0,,,225.23850670014508,225.4407129001338,1000,225.4407129001338,1000,1000,1000,1000,1,num_2,0.24563129991292953,,32,10,2026-03-12_16h00.36.557,2026A_exp2,2022.2.4,59.88188901083835,
1000,1,6.1,0.0,1,0,69,69,75,,,,,225.7059136000462,226.35649290005676,226.35649290005676,226.85758010018617,315,315,226.85758010018617,226.85758010018617,226.85758010018617,226.85758010018617,226.85758010018617,226.85758010018617,226.85758010018617,226.85758010018617,226.85758010018617,227.22388380020857,227.22388380020857,227.22388380020857,227.22388380020857,227.22388380020857,227.22388380020857,227.22388380020857,227.22388380020857,227.22388380020857,23,0,,,227.22388380020857,227.4257655001711,1000,227.4257655001711,1000,1000,1000,1000,0,num_3,0.7417441997677088,,32,10,2026-03-12_16h00.36.557,2026A_exp2,2022.2.4,59.88188901083835,
1000,1,0.0,6.1,0,0,70,70,9,,,,,228.1914159001317,228.84222030011006,228.84222030011006,229.34301300020888,315,315,229.34301300020888,229.34301300020888,229.34301300020888,229.34301300020888,229.34301300020888,229.34301300020888,229.34301300020888,229.34301300020888,229.34301300020888,229.70943500008434,229.70943500008434,229.70943500008434,229.70943500008434,229.70943500008434,229.70943500008434,229.70943500008434,229.70943500008434,229.70943500008434,10,6,"[0.0012030999641865492, 0.08330480009317398, 0.11624050000682473, 0.18287610006518662, 0.2670790001284331, 0.29968339996412396]","[0.05019650002941489, 0.10007830010727048, 0.16641200007870793, 0.24978299997746944, 0.2831220000516623, 0.31644099997356534]",229.70943500008434,229.91174130002037,1000,229.91174130002037,1000,1000,1000,1000,1,num_2,0.7107759998179972,,32,10,2026-03-12_16h00.36.557,2026A_exp2,2022.2.4,59.88188901083835,
0,0,0.0,0.0,1,0,71,71,71,,,,,230.64392570010386,231.29463660018519,231.29463660018519,231.7958207000047,45,45,231.7958207000047,231.7958207000047,231.7958207000047,231.7958207000047,231.7958207000047,231.7958207000047,231.7958207000047,231.7958207000047,231.7958207000047,232.1622574001085,232.1622574001085,232.1622574001085,232.1622574001085,232.1622574001085,232.1622574001085,232.1622574001085,232.1622574001085,232.1622574001085,23,0,,,232.1622574001085,232.3624373001512,0.0,232.3624373001512,1,0.0,0,0,1000,num_4,1.2046051998622715,,32,10,2026-03-12_16h00.36.557,2026A_exp2,2022.2.4,59.88188901083835,
1,0,0.0,0.0,0,0,72,72,29,,,,,233.59680110006593,234.24763330002315,234.24763330002315,234.73207090003416,45,315,234.73207090003416,234.73207090003416,234.73207090003416,234.73207090003416,234.73207090003416,234.73207090003416,234.73207090003416,234.73207090003416,234.73207090003416,235.0984136001207,235.0984136001207,235.0984136001207,235.0984136001207,235.0984136001207,235.0984136001207,235.0984136001207,235.0984136001207,235.0984136001207,14,3,"[0.10018280008807778, 0.23350309999659657, 0.3170537000987679]","[0.1837591000366956, 0.26691910019144416, 0.3499838002026081]",235.0984136001207,235.2985250002239,0.0,235.2985250002239,0,0.0,0,1,1000,num_1,0.3805241999216378,,32,10,2026-03-12_16h00.36.557,2026A_exp2,2022.2.4,59.88188901083835,
1000,1,6.1,0.0,1,0,73,73,16,,,,,235.6989406000357,236.3496909001842,236.3496909001842,236.8341628999915,45,315,236.8341628999915,236.8341628999915,236.8341628999915,236.8341628999915,236.8341628999915,236.8341628999915,236.8341628999915,236.8341628999915,236.8341628999915,237.20068880007602,237.20068880007602,237.20068880007602,237.20068880007602,237.20068880007602,237.20068880007602,237.20068880007602,237.20068880007602,237.20068880007602,23,0,,,237.20068880007602,237.40263910009526,1000,237.40263910009526,1000,1000,1000,1000,0,num_3,0.7721633999608457,,32,10,2026-03-12_16h00.36.557,2026A_exp2,2022.2.4,59.88188901083835,
1000,1,3.7,0.0,1,0,74,74,48,,,,,238.2018845002167,238.8521975001786,238.8521975001786,239.3532445000019,45,45,239.3532445000019,239.3532445000019,239.3532445000019,239.3532445000019,239.3532445000019,239.3532445000019,239.3532445000019,239.3532445000019,239.3532445000019,239.70313160005026,239.70313160005026,239.70313160005026,239.70313160005026,239.70313160005026,239.70313160005026,239.70313160005026,239.70313160005026,239.70313160005026,22,0,,,239.70313160005026,239.90534080006182,1000,239.90534080006182,1000,1000,1000,1000,0,num_3,0.49339329986833036,,32,10,2026-03-12_16h00.36.557,2026A_exp2,2022.2.4,59.88188901083835,
1,0,3.7,6.1,0,0,75,75,55,,,,,240.42023920011707,241.0711573001463,241.0711573001463,241.57223580009304,45,315,241.57223580009304,241.57223580009304,241.57223580009304,241.57223580009304,241.57223580009304,241.57223580009304,241.57223580009304,241.57223580009304,241.57223580009304,241.9219801002182,241.9219801002182,241.9219801002182,241.9219801002182,241.9219801002182,241.9219801002182,241.9219801002182,241.9219801002182,241.9219801002182,22,0,,,241.9219801002182,242.12214330001734,3.7,242.12214330001734,0,3.7,1,0,1000,num_1,0.7647738999221474,,32,10,2026-03-12_16h00.36.557,2026A_exp2,2022.2.4,59.88188901083835,
1000,1,0.0,4.9,1,0,76,76,59,,,,,242.90620349999517,243.55653880001046,243.55653880001046,244.0410002002027,315,45,244.0410002002027,244.0410002002027,244.0410002002027,244.0410002002027,244.0410002002027,244.0410002002027,244.0410002002027,244.0410002002027,244.0410002002027,244.4077777999919,244.4077777999919,244.4077777999919,244.4077777999919,244.4077777999919,244.4077777999919,244.4077777999919,244.4077777999919,244.4077777999919,17,4,"[0.05032279994338751, 0.1671955999918282, 0.20045779994688928, 0.2337718999478966]","[0.10009979992173612, 0.18365409993566573, 0.2169636997859925, 0.2506088998634368]",244.4077777999919,244.60982580017298,1000,244.60982580017298,1000,1000,1000,1000,1,num_2,0.22885219985619187,,32,10,2026-03-12_16h00.36.557,2026A_exp2,2022.2.4,59.88188901083835,
1000,1,0.0,3.7,1,0,77,77,47,,,,,244.85815070010722,245.50902940006927,245.50902940006927,246.01002940000035,45,45,246.01002940000035,246.01002940000035,246.01002940000035,246.01002940000035,246.01002940000035,246.01002940000035,246.01002940000035,246.01002940000035,246.01002940000035,246.37639600015245,246.37639600015245,246.37639600015245,246.37639600015245,246.37639600015245,246.37639600015245,246.37639600015245,246.37639600015245,246.37639600015245,23,0,,,246.37639600015245,246.58928510011174,1000,246.58928510011174,1000,1000,1000,1000,1,num_2,1.4261395998764783,,32,10,2026-03-12_16h00.36.557,2026A_exp2,2022.2.4,59.88188901083835,
1,0,6.1,0.0,0,0,78,78,70,,,,,248.04468670021743,248.69540420011617,248.69540420011617,249.1964243000839,315,315,249.1964243000839,249.1964243000839,249.1964243000839,249.1964243000839,249.1964243000839,249.1964243000839,249.1964243000839,249.1964243000839,249.1964243000839,249.56273980019614,249.56273980019614,249.56273980019614,249.56273980019614,249.56273980019614,249.56273980019614,249.56273980019614,249.56273980019614,249.56273980019614,16,2,"[0.10022090002894402, 0.20038100006058812]","[0.11692359996959567, 0.28382420004345477]",249.56273980019614,249.76311470009387,6.1,249.76311470009387,1,6.1,1,1,1000,num_4,0.6120693997945637,,32,10,2026-03-12_16h00.36.557,2026A_exp2,2022.2.4,59.88188901083835,
1,0,4.9,0.0,1,0,79,79,38,,,,,250.39708580006845,251.047788400203,251.047788400203,251.53221600013785,315,45,251.53221600013785,251.53221600013785,251.53221600013785,251.53221600013785,251.53221600013785,251.53221600013785,251.53221600013785,251.53221600013785,251.53221600013785,251.8986562001519,251.8986562001519,251.8986562001519,251.8986562001519,251.8986562001519,251.8986562001519,251.8986562001519,251.8986562001519,251.8986562001519,23,0,,,251.8986562001519,252.098811800126,0.0,252.098811800126,0,0.0,0,1,1000,num_1,0.3961636000312865,,32,10,2026-03-12_16h00.36.557,2026A_exp2,2022.2.4,59.88188901083835,
1,0,0.0,0.0,0,0,80,80,63,,,,,252.5158680002205,253.14986760006286,253.14986760006286,253.65083070006222,315,45,253.65083070006222,253.65083070006222,253.65083070006222,253.65083070006222,253.65083070006222,253.65083070006222,253.65083070006222,253.65083070006222,253.65083070006222,254.01735500013456,254.01735500013456,254.01735500013456,254.01735500013456,254.01735500013456,254.01735500013456,254.01735500013456,254.01735500013456,254.01735500013456,22,1,[0.06708989990875125],[0.08340119989588857],254.01735500013456,254.2174691001419,0.0,254.2174691001419,0,0.0,0,1,1000,num_1,0.6209174999967217,,32,10,2026-03-12_16h00.36.557,2026A_exp2,2022.2.4,59.88188901083835,
1000,1,0.0,0.0,1,0,81,81,33,,,,,254.8680931001436,255.51900460012257,255.51900460012257,256.0033430000767,315,315,256.0033430000767,256.0033430000767,256.0033430000767,256.0033430000767,256.0033430000767,256.0033430000767,256.0033430000767,256.0033430000767,256.0033430000767,256.369668800151,256.369668800151,256.369668800151,256.369668800151,256.369668800151,256.369668800151,256.369668800151,256.369668800151,256.369668800151,23,0,,,256.369668800151,256.56999290012754,1000,256.56999290012754,1000,1000,1000,1000,0,num_3,1.8842960000038147,,32,10,2026-03-12_16h00.36.557,2026A_exp2,2022.2.4,59.88188901083835,
1000,1,3.7,6.1,0,0,82,82,0,,,,,258.47175940009765,259.12249259999953,259.12249259999953,259.6236277001444,45,315,259.6236277001444,259.6236277001444,259.6236277001444,259.6236277001444,259.6236277001444,259.6236277001444,259.6236277001444,259.6236277001444,259.6236277001444,259.9900243000593,259.9900243000593,259.9900243000593,259.9900243000593,259.9900243000593,259.9900243000593,259.9900243000593,259.9900243000593,259.9900243000593,23,0,,,259.9900243000593,260.1919204001315,1000,260.1919204001315,1000,1000,1000,1000,0,num_3,0.8313079997897148,,32,10,2026-03-12_16h00.36.557,2026A_exp2,2022.2.4,59.88188901083835,
1,0,3.7,0.0,0,0,83,83,65,,,,,261.04095430020243,261.6916997001972,261.6916997001972,262.1927506001666,315,45,262.1927506001666,262.1927506001666,262.1927506001666,262.1927506001666,262.1927506001666,262.1927506001666,262.1927506001666,262.1927506001666,262.1927506001666,262.5592510001734,262.5592510001734,262.5592510001734,262.5592510001734,262.5592510001734,262.5592510001734,262.5592510001734,262.5592510001734,262.5592510001734,22,1,[0.0012389000039547682],[0.017293000128120184],262.5592510001734,262.75949600012973,3.7,262.75949600012973,1,3.7,1,1,1000,num_4,0.6632163997273892,,32,10,2026-03-12_16h00.36.557,2026A_exp2,2022.2.4,59.88188901083835,
1000,1,0.0,0.0,0,0,84,84,74,,,,,263.44357140013017,264.0940261001233,264.0940261001233,264.5785965002142,315,315,264.5785965002142,264.5785965002142,264.5785965002142,264.5785965002142,264.5785965002142,264.5785965002142,264.5785965002142,264.5785965002142,264.5785965002142,264.944901100127,264.944901100127,264.944901100127,264.944901100127,264.944901100127,264.944901100127,264.944901100127,264.944901100127,264.944901100127,12,4,"[0.0012413000222295523, 0.08341980003751814, 0.13358820020221174, 0.1669384001288563]","[0.06690040021203458, 0.11670650006271899, 0.15020080003887415, 0.23360140016302466]",264.944901100127,265.1471227000002,1000,265.1471227000002,1000,1000,1000,1000,1,num_2,0.7405990997795016,,32,10,2026-03-12_16h00.36.557,2026A_exp2,2022.2.4,59.88188901083835,
1,0,3.7,0.0,0,0,85,85,42,,,,,265.9125580000691,266.56334490003064,266.56334490003064,267.0643194001168,315,45,267.0643194001168,267.0643194001168,267.0643194001168,267.0643194001168,267.0643194001168,267.0643194001168,267.0643194001168,267.0643194001168,267.0643194001168,267.43075550021604,267.43075550021604,267.43075550021604,267.43075550021604,267.43075550021604,267.43075550021604,267.43075550021604,267.43075550021604,267.43075550021604,10,3,"[0.0012163999490439892, 0.050126600079238415, 0.133586399955675]","[0.01720150001347065, 0.11692010005936027, 0.2670869000721723]",267.43075550021604,267.6310640000738,3.7,267.6310640000738,1,3.7,1,1,1000,num_4,0.7839602997992188,,32,10,2026-03-12_16h00.36.557,2026A_exp2,2022.2.4,59.88188901083835,
1,0,0.0,4.9,1,0,86,86,53,,,,,268.43169820006005,269.0824527000077,269.0824527000077,269.56691510020755,45,315,269.56691510020755,269.56691510020755,269.56691510020755,269.56691510020755,269.56691510020755,269.56691510020755,269.56691510020755,269.56691510020755,269.56691510020755,269.9333203001879,269.9333203001879,269.9333203001879,269.9333203001879,269.9333203001879,269.9333203001879,269.9333203001879,269.9333203001879,269.9333203001879,2,2,"[0.0012165999505668879, 0.30038039991632104]","[0.28376660007052124, 0.3671726998873055]",269.9333203001879,270.13340819999576,4.9,270.13340819999576,1,4.9,1,1,1000,num_4,0.5770908000413328,,32,10,2026-03-12_16h00.36.557,2026A_exp2,2022.2.4,59.88188901083835,
1000,1,3.7,4.9,1,0,87,87,43,,,,,270.7339301002212,271.3847581001464,271.3847581001464,271.8690682000015,315,45,271.8690682000015,271.8690682000015,271.8690682000015,271.8690682000015,271.8690682000015,271.8690682000015,271.8690682000015,271.8690682000015,271.8690682000015,272.23552080010995,272.23552080010995,272.23552080010995,272.23552080010995,272.23552080010995,272.23552080010995,272.23552080010995,272.23552080010995,272.23552080010995,23,0,,,272.23552080010995,272.435811100062,1000,272.435811100062,1000,1000,1000,1000,1,num_2,0.7232347000390291,,32,10,2026-03-12_16h00.36.557,2026A_exp2,2022.2.4,59.88188901083835,
1000,1,6.1,6.1,1,0,88,88,77,,,,,273.18651600019075,273.8371652001515,273.8371652001515,274.3382291002199,45,315,274.3382291002199,274.3382291002199,274.3382291002199,274.3382291002199,274.3382291002199,274.3382291002199,274.3382291002199,274.3382291002199,274.3382291002199,274.70475820009597,274.70475820009597,274.70475820009597,274.70475820009597,274.70475820009597,274.70475820009597,274.70475820009597,274.70475820009597,274.70475820009597,22,1,[0.30067229992710054],[0.3173074000515044],274.70475820009597,274.9050834001973,1000,274.9050834001973,1000,1000,1000,1000,0,num_3,0.3973129999358207,,32,10,2026-03-12_16h00.36.557,2026A_exp2,2022.2.4,59.88188901083835,
0,0,0.0,0.0,1,0,89,89,89,,,,,275.3221171000041,275.9726976000238,275.9726976000238,276.4737261000555,315,45,276.4737261000555,276.4737261000555,276.4737261000555,276.4737261000555,276.4737261000555,276.4737261000555,276.4737261000555,276.4737261000555,276.4737261000555,276.82332170009613,276.82332170009613,276.82332170009613,276.82332170009613,276.82332170009613,276.82332170009613,276.82332170009613,276.82332170009613,276.82332170009613,22,0,,,276.82332170009613,277.02376630017534,0.0,277.02376630017534,0,0.0,0,1,1000,num_1,0.7593795999418944,,32,10,2026-03-12_16h00.36.557,2026A_exp2,2022.2.4,59.88188901083835,
,,,,,,,,,,,,,,,,,,,,,,,,,,,,,,,,,,,,,,,,,,,,,,,,,,,,277.8161059000995,,,,,,,
