validity,detectorcomp,contrastCW,contrastCCW,precueCWorCCW,block_80trials.thisRepN,block_80trials.thisTrialN,block_80trials.thisN,block_80trials.thisIndex,etRecord.started,etRecord.stopped,text.started,text.stopped,text_4.started,text_4.stopped,text_6.started,text_6.stopped,oriCW,oriCCW,roi_2.started,grating_UR.started,grating_UL.started,grating_LR.started,grating_LL.started,noise_UR.started,noise_UL.started,noise_LR.started,noise_LL.started,roi_2.stopped,grating_UR.stopped,grating_UL.stopped,grating_LR.stopped,grating_LL.stopped,noise_UR.stopped,noise_UL.stopped,noise_LR.stopped,noise_LL.stopped,outframe,roi_2.numLooks,roi_2.timesOn,roi_2.timesOff,text_2.started,text_2.stopped,probedcontrast,key_resp.started,respdetect,relevantContrast,correctDetect,TorFdetect,respCWorCCW,key_resp.keys,key_resp.rt,feedback_display_.started,participantNo,blockNo,date,expName,psychopyVersion,frameRate,
1000,1,3.7,6.1,0,0,0,0,81,3.709993325173855e-05,3.709993325173855e-05,46.434998699929565,48.43884090008214,48.43884090008214,49.0724967001006,49.0724967001006,49.59630350000225,315,45,49.59630350000225,49.59630350000225,49.59630350000225,49.59630350000225,49.59630350000225,49.59630350000225,49.59630350000225,49.59630350000225,49.59630350000225,49.93997019995004,49.93997019995004,49.93997019995004,49.93997019995004,49.93997019995004,49.93997019995004,49.93997019995004,49.93997019995004,49.93997019995004,0,1,[0.0012203999795019627],[0.3653633000794798],49.93997019995004,50.14810330001637,1000,50.14810330001637,1000,1000,1000,1000,1,num_2,0.7101654999423772,,31,8,2026-03-12_14h02.13.705,2026A_exp2,2022.2.4,59.78526331258374,
1000,1,3.7,0.0,0,0,1,1,37,,,,,50.874310800107196,51.52483649994247,51.52483649994247,52.02611110010184,45,315,52.02611110010184,52.02611110010184,52.02611110010184,52.02611110010184,52.02611110010184,52.02611110010184,52.02611110010184,52.02611110010184,52.02611110010184,52.39251819998026,52.39251819998026,52.39251819998026,52.39251819998026,52.39251819998026,52.39251819998026,52.39251819998026,52.39251819998026,52.39251819998026,0,1,[0.001228200038895011],[0.3672992999199778],52.39251819998026,52.594661799957976,1000,52.594661799957976,1000,1000,1000,1000,0,num_3,0.5277627999894321,,31,8,2026-03-12_14h02.13.705,2026A_exp2,2022.2.4,59.78526331258374,
1,0,6.1,0.0,0,0,2,2,24,,,,,53.143339100060984,53.793911800021306,53.793911800021306,54.29507609992288,315,315,54.29507609992288,54.29507609992288,54.29507609992288,54.29507609992288,54.29507609992288,54.29507609992288,54.29507609992288,54.29507609992288,54.29507609992288,54.661454800050706,54.661454800050706,54.661454800050706,54.661454800050706,54.661454800050706,54.661454800050706,54.661454800050706,54.661454800050706,54.661454800050706,0,1,[0.0012713000178337097],[0.36713090003468096],54.661454800050706,54.86171409999952,6.1,54.86171409999952,1,6.1,1,1,1000,num_4,0.7160933997947723,,31,8,2026-03-12_14h02.13.705,2026A_exp2,2022.2.4,59.78526331258374,
1000,1,4.9,4.9,1,0,3,3,26,,,,,55.59574129991233,56.24634939990938,56.24634939990938,56.7306292001158,45,45,56.7306292001158,56.7306292001158,56.7306292001158,56.7306292001158,56.7306292001158,56.7306292001158,56.7306292001158,56.7306292001158,56.7306292001158,57.09692499996163,57.09692499996163,57.09692499996163,57.09692499996163,57.09692499996163,57.09692499996163,57.09692499996163,57.09692499996163,57.09692499996163,0,1,[0.0010321000590920448],[0.3670403999276459],57.09692499996163,57.297218000050634,1000,57.297218000050634,1000,1000,1000,1000,0,num_3,0.8090464000124484,,31,8,2026-03-12_14h02.13.705,2026A_exp2,2022.2.4,59.78526331258374,
1000,1,4.9,4.9,1,0,4,4,85,,,,,58.13374130008742,58.78223149990663,58.78223149990663,59.28320119995624,45,315,59.28320119995624,59.28320119995624,59.28320119995624,59.28320119995624,59.28320119995624,59.28320119995624,59.28320119995624,59.28320119995624,59.28320119995624,59.64968040003441,59.64968040003441,59.64968040003441,59.64968040003441,59.64968040003441,59.64968040003441,59.64968040003441,59.64968040003441,59.64968040003441,0,1,[0.0012568000238388777],[0.3671244999859482],59.64968040003441,59.851569700054824,1000,59.851569700054824,1000,1000,1000,1000,1,num_2,0.6220090000424534,,31,8,2026-03-12_14h02.13.705,2026A_exp2,2022.2.4,59.78526331258374,
1000,1,4.9,3.7,1,0,5,5,14,,,,,60.50051219994202,61.15114689990878,61.15114689990878,61.6546595999971,315,45,61.6546595999971,61.6546595999971,61.6546595999971,61.6546595999971,61.6546595999971,61.6546595999971,61.6546595999971,61.6546595999971,61.6546595999971,62.018812499940395,62.018812499940395,62.018812499940395,62.018812499940395,62.018812499940395,62.018812499940395,62.018812499940395,62.018812499940395,62.018812499940395,0,1,[0.0007311999797821045],[0.36756580020301044],62.018812499940395,62.22103699995205,1000,62.22103699995205,1000,1000,1000,1000,0,num_3,0.564678099937737,,31,8,2026-03-12_14h02.13.705,2026A_exp2,2022.2.4,59.78526331258374,
1,0,6.1,0.0,1,0,6,6,54,,,,,62.80281989998184,63.45351210003719,63.45351210003719,63.95459400000982,315,45,63.95459400000982,63.95459400000982,63.95459400000982,63.95459400000982,63.95459400000982,63.95459400000982,63.95459400000982,63.95459400000982,63.95459400000982,64.3211173999589,64.3211173999589,64.3211173999589,64.3211173999589,64.3211173999589,64.3211173999589,64.3211173999589,64.3211173999589,64.3211173999589,0,1,[0.0012202998623251915],[0.36718269996345043],64.3211173999589,64.52129609999247,0.0,64.52129609999247,0,0.0,0,1,1000,num_1,0.8170157999265939,,31,8,2026-03-12_14h02.13.705,2026A_exp2,2022.2.4,59.78526331258374,
1000,1,0.0,3.7,1,0,7,7,43,,,,,65.35531229991466,66.00614019995555,66.00614019995555,66.49047999992035,45,45,66.49047999992035,66.49047999992035,66.49047999992035,66.49047999992035,66.49047999992035,66.49047999992035,66.49047999992035,66.49047999992035,66.49047999992035,66.85690500005148,66.85690500005148,66.85690500005148,66.85690500005148,66.85690500005148,66.85690500005148,66.85690500005148,66.85690500005148,66.85690500005148,0,1,[0.001213399926200509],[0.3671025999356061],66.85690500005148,67.0589666001033,1000,67.0589666001033,1000,1000,1000,1000,0,num_3,0.702595999930054,,31,8,2026-03-12_14h02.13.705,2026A_exp2,2022.2.4,59.78526331258374,
1000,1,6.1,3.7,0,0,8,8,61,,,,,67.7909886999987,68.44195919996127,68.44195919996127,68.94322800007649,315,315,68.94322800007649,68.94322800007649,68.94322800007649,68.94322800007649,68.94322800007649,68.94322800007649,68.94322800007649,68.94322800007649,68.94322800007649,69.29258150001988,69.29258150001988,69.29258150001988,69.29258150001988,69.29258150001988,69.29258150001988,69.29258150001988,69.29258150001988,69.29258150001988,0,1,[0.0012399000115692616],[0.3505839998833835],69.29258150001988,69.49330620002002,1000,69.49330620002002,1000,1000,1000,1000,0,num_3,0.5891884998418391,,31,8,2026-03-12_14h02.13.705,2026A_exp2,2022.2.4,59.78526331258374,
1,0,6.1,6.1,1,0,9,9,89,,,,,70.11007499997504,70.7608638999518,70.7608638999518,71.26188630005345,45,45,71.26188630005345,71.26188630005345,71.26188630005345,71.26188630005345,71.26188630005345,71.26188630005345,71.26188630005345,71.26188630005345,71.26188630005345,71.61159120011143,71.61159120011143,71.61159120011143,71.61159120011143,71.61159120011143,71.61159120011143,71.61159120011143,71.61159120011143,71.61159120011143,0,1,[0.001199499936774373],[0.35051619983278215],71.61159120011143,71.81209290004335,6.1,71.8285687000025,1,6.1,1,1,1000,num_4,0.8139261000324041,,31,8,2026-03-12_14h02.13.705,2026A_exp2,2022.2.4,59.78526331258374,
1,0,4.9,0.0,1,0,10,10,15,,,,,72.66273980005644,73.31337899994105,73.31337899994105,73.79772730008699,315,315,73.79772730008699,73.79772730008699,73.79772730008699,73.79772730008699,73.79772730008699,73.79772730008699,73.79772730008699,73.79772730008699,73.79772730008699,74.16431639995426,74.16431639995426,74.16431639995426,74.16431639995426,74.16431639995426,74.16431639995426,74.16431639995426,74.16431639995426,74.16431639995426,0,1,[0.001233300194144249],[0.3668907000683248],74.16431639995426,74.36438170005567,0.0,74.36438170005567,1,0.0,0,0,1000,num_4,1.1733927999157459,,31,8,2026-03-12_14h02.13.705,2026A_exp2,2022.2.4,59.78526331258374,
1000,1,6.1,4.9,1,0,11,11,76,,,,,75.5659050999675,76.2163136000745,76.2163136000745,76.70509750000201,315,45,76.70509750000201,76.70509750000201,76.70509750000201,76.70509750000201,76.70509750000201,76.70509750000201,76.70509750000201,76.70509750000201,76.70509750000201,77.06717219995335,77.06717219995335,77.06717219995335,77.06717219995335,77.06717219995335,77.06717219995335,77.06717219995335,77.06717219995335,77.06717219995335,0,1,[0.0025267000310122967],[0.36578820017166436],77.06717219995335,77.26966660004109,1000,77.26966660004109,1000,1000,1000,1000,0,num_3,0.6361902998760343,,31,8,2026-03-12_14h02.13.705,2026A_exp2,2022.2.4,59.78526331258374,
0,0,0.0,0.0,0,0,12,12,4,,,,,77.93467539991252,78.58523879991844,78.58523879991844,79.08626609994099,45,315,79.08626609994099,79.08626609994099,79.08626609994099,79.08626609994099,79.08626609994099,79.08626609994099,79.08626609994099,79.08626609994099,79.08626609994099,79.43607910000719,79.43607910000719,79.43607910000719,79.43607910000719,79.43607910000719,79.43607910000719,79.43607910000719,79.43607910000719,79.43607910000719,0,1,[0.0006991000846028328],[0.3512281998991966],79.43607910000719,79.63641060004011,0.0,79.63641060004011,0,0.0,0,1,1000,num_1,1.6210082001052797,,31,8,2026-03-12_14h02.13.705,2026A_exp2,2022.2.4,59.78526331258374,
1000,1,6.1,0.0,0,0,13,13,58,,,,,81.2880237000063,81.9387564000208,81.9387564000208,82.42305939993821,315,315,82.42305939993821,82.42305939993821,82.42305939993821,82.42305939993821,82.42305939993821,82.42305939993821,82.42305939993821,82.42305939993821,82.42305939993821,82.7895273999311,82.7895273999311,82.7895273999311,82.7895273999311,82.7895273999311,82.7895273999311,82.7895273999311,82.7895273999311,82.7895273999311,0,1,[0.0012238998897373676],[0.3672513999044895],82.7895273999311,82.99160790001042,1000,82.99160790001042,1000,1000,1000,1000,0,num_3,0.7229515998624265,,31,8,2026-03-12_14h02.13.705,2026A_exp2,2022.2.4,59.78526331258374,
1000,1,0.0,4.9,0,0,14,14,27,,,,,83.74045859999023,84.390956700081,84.390956700081,84.89219969999976,315,315,84.89219969999976,84.89219969999976,84.89219969999976,84.89219969999976,84.89219969999976,84.89219969999976,84.89219969999976,84.89219969999976,84.89219969999976,85.25868190010078,85.25868190010078,85.25868190010078,85.25868190010078,85.25868190010078,85.25868190010078,85.25868190010078,85.25868190010078,85.25868190010078,0,1,[0.0012620000634342432],[0.36692130006849766],85.25868190010078,85.46099540009163,1000,85.46099540009163,1000,1000,1000,1000,1,num_2,0.5807492998428643,,31,8,2026-03-12_14h02.13.705,2026A_exp2,2022.2.4,59.78526331258374,
1000,1,0.0,0.0,1,0,15,15,42,,,,,86.05933280009776,86.71017249999568,86.71017249999568,87.2110925000161,45,45,87.2110925000161,87.2110925000161,87.2110925000161,87.2110925000161,87.2110925000161,87.2110925000161,87.2110925000161,87.2110925000161,87.2110925000161,87.5775848000776,87.5775848000776,87.5775848000776,87.5775848000776,87.5775848000776,87.5775848000776,87.5775848000776,87.5775848000776,87.5775848000776,0,1,[0.0007833000272512436],[0.36684629996307194],87.5775848000776,87.77812650008127,1000,87.77812650008127,1000,1000,1000,1000,1,num_2,1.312764700036496,,31,8,2026-03-12_14h02.13.705,2026A_exp2,2022.2.4,59.78526331258374,
1000,1,0.0,0.0,0,0,16,16,41,,,,,89.11243350012228,89.76315120002255,89.76315120002255,90.26416720007546,315,315,90.26416720007546,90.26416720007546,90.26416720007546,90.26416720007546,90.26416720007546,90.26416720007546,90.26416720007546,90.26416720007546,90.26416720007546,90.63123499997891,90.63123499997891,90.63123499997891,90.63123499997891,90.63123499997891,90.63123499997891,90.63123499997891,90.63123499997891,90.63123499997891,0,1,[0.0012704001273959875],[0.3668162999674678],90.63123499997891,90.83299920009449,1000,90.83299920009449,1000,1000,1000,1000,1,num_2,0.7934576999396086,,31,8,2026-03-12_14h02.13.705,2026A_exp2,2022.2.4,59.78526331258374,
1,0,0.0,3.7,1,0,17,17,12,,,,,91.6482532999944,92.2990615000017,92.2990615000017,92.80016330000944,45,45,92.80016330000944,92.80016330000944,92.80016330000944,92.80016330000944,92.80016330000944,92.80016330000944,92.80016330000944,92.80016330000944,92.80016330000944,93.16646940005012,93.16646940005012,93.16646940005012,93.16646940005012,93.16646940005012,93.16646940005012,93.16646940005012,93.16646940005012,93.16646940005012,0,1,[0.0012079000007361174],[0.36717090010643005],93.16646940005012,93.36688810004853,3.7,93.36688810004853,1,3.7,1,1,1000,num_4,0.6665583001449704,,31,8,2026-03-12_14h02.13.705,2026A_exp2,2022.2.4,59.78526331258374,
1000,1,4.9,6.1,1,0,18,18,18,,,,,94.05069430009462,94.70136720011942,94.70136720011942,95.1858914999757,315,45,95.1858914999757,95.1858914999757,95.1858914999757,95.1858914999757,95.1858914999757,95.1858914999757,95.1858914999757,95.1858914999757,95.1858914999757,95.55223729996942,95.55223729996942,95.55223729996942,95.55223729996942,95.55223729996942,95.55223729996942,95.55223729996942,95.55223729996942,95.55223729996942,0,1,[0.0012101999018341303],[0.36718269996345043],95.55223729996942,95.75429860013537,1000,95.75429860013537,1000,1000,1000,1000,1,num_2,0.591307100141421,,31,8,2026-03-12_14h02.13.705,2026A_exp2,2022.2.4,59.78526331258374,
1000,1,6.1,0.0,0,0,19,19,8,,,,,96.36970939999446,97.02046489994973,97.02046489994973,97.52159549994394,315,45,97.52159549994394,97.52159549994394,97.52159549994394,97.52159549994394,97.52159549994394,97.52159549994394,97.52159549994394,97.52159549994394,97.52159549994394,97.88801120012067,97.88801120012067,97.88801120012067,97.88801120012067,97.88801120012067,97.88801120012067,97.88801120012067,97.88801120012067,97.88801120012067,0,1,[0.0012918999418616295],[0.3669681998435408],97.88801120012067,98.09059699997306,1000,98.09059699997306,1000,1000,1000,1000,0,num_3,0.503882999997586,,31,8,2026-03-12_14h02.13.705,2026A_exp2,2022.2.4,59.78526331258374,
1000,1,4.9,0.0,0,0,20,20,78,,,,,98.62212820001878,99.27273600012995,99.27273600012995,99.77366900001653,315,315,99.77366900001653,99.77366900001653,99.77366900001653,99.77366900001653,99.77366900001653,99.77366900001653,99.77366900001653,99.77366900001653,99.77366900001653,100.1402843000833,100.1402843000833,100.1402843000833,100.1402843000833,100.1402843000833,100.1402843000833,100.1402843000833,100.1402843000833,100.1402843000833,0,1,[0.0012211999855935574],[0.3672446000855416],100.1402843000833,100.34272890002467,1000,100.34272890002467,1000,1000,1000,1000,0,num_3,0.44329160009510815,,31,8,2026-03-12_14h02.13.705,2026A_exp2,2022.2.4,59.78526331258374,
1,0,0.0,4.9,1,0,21,21,36,,,,,100.80736960005015,101.45796780008823,101.45796780008823,101.95933529990725,45,45,101.95933529990725,101.95933529990725,101.95933529990725,101.95933529990725,101.95933529990725,101.95933529990725,101.95933529990725,101.95933529990725,101.95933529990725,102.30890520010144,102.30890520010144,102.30890520010144,102.30890520010144,102.30890520010144,102.30890520010144,102.30890520010144,102.30890520010144,102.30890520010144,0,1,[0.0012211999855935574],[0.35064440011046827],102.30890520010144,102.5092412000522,4.9,102.52585020009428,1,4.9,1,1,1000,num_4,0.484429300064221,,31,8,2026-03-12_14h02.13.705,2026A_exp2,2022.2.4,59.78526331258374,
1000,1,6.1,0.0,0,0,22,22,80,,,,,103.0263368000742,103.6771273999475,103.6771273999475,104.16148329991847,45,45,104.16148329991847,104.16148329991847,104.16148329991847,104.16148329991847,104.16148329991847,104.16148329991847,104.16148329991847,104.16148329991847,104.16148329991847,104.52801169990562,104.52801169990562,104.52801169990562,104.52801169990562,104.52801169990562,104.52801169990562,104.52801169990562,104.52801169990562,104.52801169990562,0,1,[0.0012159000616520643],[0.3671794000547379],104.52801169990562,104.72994649992324,1000,104.72994649992324,1000,1000,1000,1000,0,num_3,0.43184840003959835,,31,8,2026-03-12_14h02.13.705,2026A_exp2,2022.2.4,59.78526331258374,
1000,1,0.0,3.7,0,0,23,23,32,,,,,105.1785834999755,105.82237290008925,105.82237290008925,106.32122389995493,45,315,106.32122389995493,106.32122389995493,106.32122389995493,106.32122389995493,106.32122389995493,106.32122389995493,106.32122389995493,106.32122389995493,106.32122389995493,106.68008360010572,106.68008360010572,106.68008360010572,106.68008360010572,106.68008360010572,106.68008360010572,106.68008360010572,106.68008360010572,106.68008360010572,0,1,[0.0030132001265883446],[0.3650573999620974],106.68008360010572,106.88249700004235,1000,106.88249700004235,1000,1000,1000,1000,1,num_2,0.5274550002068281,,31,8,2026-03-12_14h02.13.705,2026A_exp2,2022.2.4,59.78526331258374,
1,0,3.7,3.7,1,0,24,24,64,,,,,107.43053060001694,108.08149760006927,108.08149760006927,108.58255570009351,45,315,108.58255570009351,108.58255570009351,108.58255570009351,108.58255570009351,108.58255570009351,108.58255570009351,108.58255570009351,108.58255570009351,108.58255570009351,108.94901270000264,108.94901270000264,108.94901270000264,108.94901270000264,108.94901270000264,108.94901270000264,108.94901270000264,108.94901270000264,108.94901270000264,0,1,[0.0012370999902486801],[0.36709149996750057],108.94901270000264,109.14911410002969,3.7,109.14911410002969,1,3.7,1,1,1000,num_4,0.5577531000599265,,31,8,2026-03-12_14h02.13.705,2026A_exp2,2022.2.4,59.78526331258374,
1000,1,0.0,0.0,0,0,25,25,5,,,,,109.73309649992734,110.38384480006061,110.38384480006061,110.86821960005909,45,315,110.86821960005909,110.86821960005909,110.86821960005909,110.86821960005909,110.86821960005909,110.86821960005909,110.86821960005909,110.86821960005909,110.86821960005909,111.23463770002127,111.23463770002127,111.23463770002127,111.23463770002127,111.23463770002127,111.23463770002127,111.23463770002127,111.23463770002127,111.23463770002127,0,1,[0.0012475999537855387],[0.3670634999871254],111.23463770002127,111.43495499994606,1000,111.43495499994606,1000,1000,1000,1000,0,num_3,0.8794257000554353,,31,8,2026-03-12_14h02.13.705,2026A_exp2,2022.2.4,59.78526331258374,
1,0,3.7,4.9,0,0,26,26,31,,,,,112.33560320013203,112.98627070011571,112.98627070011571,113.48755540000275,315,315,113.48755540000275,113.48755540000275,113.48755540000275,113.48755540000275,113.48755540000275,113.48755540000275,113.48755540000275,113.48755540000275,113.48755540000275,113.85398210003041,113.85398210003041,113.85398210003041,113.85398210003041,113.85398210003041,113.85398210003041,113.85398210003041,113.85398210003041,113.85398210003041,0,1,[0.0007285000756382942],[0.36735910014249384],113.85398210003041,114.05406540003605,3.7,114.05406540003605,0,3.7,1,0,1000,num_1,0.8837947000283748,,31,8,2026-03-12_14h02.13.705,2026A_exp2,2022.2.4,59.78526331258374,
1,0,0.0,0.0,0,0,27,27,29,,,,,114.95489090005867,115.60570670012385,115.60570670012385,116.09007390006445,315,45,116.09007390006445,116.09007390006445,116.09007390006445,116.09007390006445,116.09007390006445,116.09007390006445,116.09007390006445,116.09007390006445,116.09007390006445,116.45655940007418,116.45655940007418,116.45655940007418,116.45655940007418,116.45655940007418,116.45655940007418,116.45655940007418,116.45655940007418,116.45655940007418,0,1,[0.0012382999993860722],[0.3670992001425475],116.45655940007418,116.65669790003449,0.0,116.65669790003449,0,0.0,0,1,1000,num_1,0.8567671000491828,,31,8,2026-03-12_14h02.13.705,2026A_exp2,2022.2.4,59.78526331258374,
1,0,0.0,6.1,0,0,28,28,57,,,,,117.54077460011467,118.1749734999612,118.1749734999612,118.67605100013316,315,45,118.67605100013316,118.67605100013316,118.67605100013316,118.67605100013316,118.67605100013316,118.67605100013316,118.67605100013316,118.67605100013316,118.67605100013316,119.04239060007967,119.04239060007967,119.04239060007967,119.04239060007967,119.04239060007967,119.04239060007967,119.04239060007967,119.04239060007967,119.04239060007967,0,1,[0.0012048999778926373],[0.36728699994273484],119.04239060007967,119.24270850000903,0.0,119.24270850000903,0,0.0,0,1,1000,num_1,0.9027173998765647,,31,8,2026-03-12_14h02.13.705,2026A_exp2,2022.2.4,59.78526331258374,
1000,1,4.9,0.0,1,0,29,29,28,,,,,120.16022390010767,120.81081590009853,120.81081590009853,121.31766199995764,45,315,121.31766199995764,121.31766199995764,121.31766199995764,121.31766199995764,121.31766199995764,121.31766199995764,121.31766199995764,121.31766199995764,121.31766199995764,121.67812890000641,121.67812890000641,121.67812890000641,121.67812890000641,121.67812890000641,121.67812890000641,121.67812890000641,121.67812890000641,121.67812890000641,0,1,[0.002593700075522065],[0.36543069989420474],121.67812890000641,121.88040410005488,1000,121.88040410005488,1000,1000,1000,1000,0,num_3,1.2331506998743862,,31,8,2026-03-12_14h02.13.705,2026A_exp2,2022.2.4,59.78526331258374,
1,0,0.0,3.7,1,0,30,30,25,,,,,123.12991810007952,123.7807565999683,123.7807565999683,124.28715070011094,315,315,124.28715070011094,124.28715070011094,124.28715070011094,124.28715070011094,124.28715070011094,124.28715070011094,124.28715070011094,124.28715070011094,124.28715070011094,124.64808570011519,124.64808570011519,124.64808570011519,124.64808570011519,124.64808570011519,124.64808570011519,124.64808570011519,124.64808570011519,124.64808570011519,1,2,"[0.002652799943462014, 0.13153619994409382]","[0.11460279999300838, 0.3654956000391394]",124.64808570011519,124.84817919996567,3.7,124.84817919996567,1,3.7,1,1,1000,num_4,0.7538532000035048,,31,8,2026-03-12_14h02.13.705,2026A_exp2,2022.2.4,59.78526331258374,
1,0,4.9,0.0,0,0,31,31,23,,,,,125.632190000033,126.28299760003574,126.28299760003574,126.7675441999454,45,315,126.7675441999454,126.7675441999454,126.7675441999454,126.7675441999454,126.7675441999454,126.7675441999454,126.7675441999454,126.7675441999454,126.7675441999454,127.13357220008038,127.13357220008038,127.13357220008038,127.13357220008038,127.13357220008038,127.13357220008038,127.13357220008038,127.13357220008038,127.13357220008038,0,1,[0.001238799886777997],[0.36649749986827374],127.13357220008038,127.33407029998489,4.9,127.33407029998489,1,4.9,1,1,1000,num_4,0.7400803999044001,,31,8,2026-03-12_14h02.13.705,2026A_exp2,2022.2.4,59.78526331258374,
1000,1,3.7,3.7,1,0,32,32,46,,,,,128.10142179997638,128.75217760005035,128.75217760005035,129.2365677000489,45,315,129.2365677000489,129.2365677000489,129.2365677000489,129.2365677000489,129.2365677000489,129.2365677000489,129.2365677000489,129.2365677000489,129.2365677000489,129.60306320013478,129.60306320013478,129.60306320013478,129.60306320013478,129.60306320013478,129.60306320013478,129.60306320013478,129.60306320013478,129.60306320013478,0,1,[0.0012268999125808477],[0.3672962000127882],129.60306320013478,129.80502460012212,1000,129.80502460012212,1000,1000,1000,1000,1,num_2,0.5886376998387277,,31,8,2026-03-12_14h02.13.705,2026A_exp2,2022.2.4,59.78526331258374,
1000,1,3.7,0.0,1,0,33,33,44,,,,,130.42040639999323,131.0711799999699,131.0711799999699,131.57209990010597,45,45,131.57209990010597,131.57209990010597,131.57209990010597,131.57209990010597,131.57209990010597,131.57209990010597,131.57209990010597,131.57209990010597,131.57209990010597,131.93832750013098,131.93832750013098,131.93832750013098,131.93832750013098,131.93832750013098,131.93832750013098,131.93832750013098,131.93832750013098,131.93832750013098,0,1,[0.00124739995226264],[0.36645990004763007],131.93832750013098,132.1386420999188,1000,132.1386420999188,1000,1000,1000,1000,1,num_2,0.5357652998063713,,31,8,2026-03-12_14h02.13.705,2026A_exp2,2022.2.4,59.78526331258374,
1,0,0.0,0.0,1,0,34,34,53,,,,,132.68955680006184,133.3401721001137,133.3401721001137,133.84116140007973,315,315,133.84116140007973,133.84116140007973,133.84116140007973,133.84116140007973,133.84116140007973,133.84116140007973,133.84116140007973,133.84116140007973,133.84116140007973,134.20763959991746,134.20763959991746,134.20763959991746,134.20763959991746,134.20763959991746,134.20763959991746,134.20763959991746,134.20763959991746,134.20763959991746,4,3,"[0.0012417000252753496, 0.05018960009329021, 0.08352370001375675]","[0.017351100221276283, 0.06695350003428757, 0.36718940013088286]",134.20763959991746,134.40782970003784,0.0,134.40782970003784,1,0.0,0,0,1000,num_4,0.9067482000682503,,31,8,2026-03-12_14h02.13.705,2026A_exp2,2022.2.4,59.78526331258374,
0,0,3.7,3.7,0,0,35,35,63,,,,,135.34224490006454,135.9928981999401,135.9928981999401,136.4771088999696,45,315,136.4771088999696,136.4771088999696,136.4771088999696,136.4771088999696,136.4771088999696,136.4771088999696,136.4771088999696,136.4771088999696,136.4771088999696,136.84345629997551,136.84345629997551,136.84345629997551,136.84345629997551,136.84345629997551,136.84345629997551,136.84345629997551,136.84345629997551,136.84345629997551,0,1,[0.0012989998795092106],[0.36709599988535047],136.84345629997551,137.0437501000706,3.7,137.0437501000706,1,3.7,1,1,1000,num_4,0.9899555998854339,,31,8,2026-03-12_14h02.13.705,2026A_exp2,2022.2.4,59.78526331258374,
1000,1,4.9,4.9,0,0,36,36,34,,,,,138.06134080002084,138.71216879994608,138.71216879994608,139.19642990012653,315,45,139.19642990012653,139.19642990012653,139.19642990012653,139.19642990012653,139.19642990012653,139.19642990012653,139.19642990012653,139.19642990012653,139.19642990012653,139.56299540004693,139.56299540004693,139.56299540004693,139.56299540004693,139.56299540004693,139.56299540004693,139.56299540004693,139.56299540004693,139.56299540004693,0,1,[0.0012668000999838114],[0.3671172000467777],139.56299540004693,139.76506979996338,1000,139.76506979996338,1000,1000,1000,1000,0,num_3,0.6051479000598192,,31,8,2026-03-12_14h02.13.705,2026A_exp2,2022.2.4,59.78526331258374,
1000,1,3.7,4.9,0,0,37,37,13,,,,,140.39707780000754,141.04785210010596,141.04785210010596,141.5324359999504,45,315,141.5324359999504,141.5324359999504,141.5324359999504,141.5324359999504,141.5324359999504,141.5324359999504,141.5324359999504,141.5324359999504,141.5324359999504,141.89887979999185,141.89887979999185,141.89887979999185,141.89887979999185,141.89887979999185,141.89887979999185,141.89887979999185,141.89887979999185,141.89887979999185,0,1,[0.0012729000300168991],[0.3690149001777172],141.89887979999185,142.12157019996084,1000,142.12157019996084,1000,1000,1000,1000,1,num_2,0.43257510010153055,,31,8,2026-03-12_14h02.13.705,2026A_exp2,2022.2.4,59.78526331258374,
1,0,0.0,3.7,0,0,38,38,1,,,,,142.56931710010394,143.21659799991176,143.21659799991176,143.71759320003912,45,315,143.71759320003912,143.71759320003912,143.71759320003912,143.71759320003912,143.71759320003912,143.71759320003912,143.71759320003912,143.71759320003912,143.71759320003912,144.08420230005868,144.08420230005868,144.08420230005868,144.08420230005868,144.08420230005868,144.08420230005868,144.08420230005868,144.08420230005868,144.08420230005868,0,1,[0.001214900054037571],[0.3671232000924647],144.08420230005868,144.28442730009556,0.0,144.28442730009556,0,0.0,0,1,1000,num_1,0.7810380000155419,,31,8,2026-03-12_14h02.13.705,2026A_exp2,2022.2.4,59.78526331258374,
1,0,0.0,6.1,0,0,39,39,72,,,,,145.08507649996318,145.7357195999939,145.7357195999939,146.2370575000532,45,45,146.2370575000532,146.2370575000532,146.2370575000532,146.2370575000532,146.2370575000532,146.2370575000532,146.2370575000532,146.2370575000532,146.2370575000532,146.58652050001547,146.58652050001547,146.58652050001547,146.58652050001547,146.58652050001547,146.58652050001547,146.58652050001547,146.58652050001547,146.58652050001547,0,1,[0.0012079000007361174],[0.3503755999263376],146.58652050001547,146.78692939993925,0.0,146.78692939993925,0,0.0,0,1,1000,num_1,1.0308507999870926,,31,8,2026-03-12_14h02.13.705,2026A_exp2,2022.2.4,59.78526331258374,
1000,1,4.9,4.9,1,0,40,40,60,,,,,147.83798109996133,148.47426049993373,148.47426049993373,148.9730996999424,45,315,148.9730996999424,148.9730996999424,148.9730996999424,148.9730996999424,148.9730996999424,148.9730996999424,148.9730996999424,148.9730996999424,148.9730996999424,149.33940099994652,149.33940099994652,149.33940099994652,149.33940099994652,149.33940099994652,149.33940099994652,149.33940099994652,149.33940099994652,149.33940099994652,0,1,[0.001205699983984232],[0.3669745000079274],149.33940099994652,149.54178650001995,1000,149.54178650001995,1000,1000,1000,1000,1,num_2,0.5477533999364823,,31,8,2026-03-12_14h02.13.705,2026A_exp2,2022.2.4,59.78526331258374,
1,0,0.0,0.0,0,0,41,41,49,,,,,150.1067417000886,150.75745570007712,150.75745570007712,151.25867370003834,315,315,151.25867370003834,151.25867370003834,151.25867370003834,151.25867370003834,151.25867370003834,151.25867370003834,151.25867370003834,151.25867370003834,151.25867370003834,151.60830450011417,151.60830450011417,151.60830450011417,151.60830450011417,151.60830450011417,151.60830450011417,151.60830450011417,151.60830450011417,151.60830450011417,12,3,"[0.001232100185006857, 0.08365520020015538, 0.18372289999388158]","[0.017436800058931112, 0.13359330012463033, 0.283807200146839]",151.60830450011417,151.80862129991874,0.0,151.825140299974,0,0.0,0,1,1000,num_1,1.4404403001535684,,31,8,2026-03-12_14h02.13.705,2026A_exp2,2022.2.4,59.78526331258374,
0,0,3.7,6.1,1,0,42,42,17,,,,,153.29309960012324,153.94405480008572,153.94405480008572,154.42849340010434,315,45,154.42849340010434,154.42849340010434,154.42849340010434,154.42849340010434,154.42849340010434,154.42849340010434,154.42849340010434,154.42849340010434,154.42849340010434,154.7948656999506,154.7948656999506,154.7948656999506,154.7948656999506,154.7948656999506,154.7948656999506,154.7948656999506,154.7948656999506,154.7948656999506,0,1,[0.0013370001688599586],[0.3672655001282692],154.7948656999506,154.9950890999753,3.7,154.9950890999753,0,3.7,1,0,1000,num_1,1.4555684998631477,,31,8,2026-03-12_14h02.13.705,2026A_exp2,2022.2.4,59.78526331258374,
1000,1,0.0,0.0,0,0,43,43,47,,,,,156.47995810001157,157.14044090011157,157.14044090011157,157.61504600010812,315,45,157.61504600010812,157.61504600010812,157.61504600010812,157.61504600010812,157.61504600010812,157.61504600010812,157.61504600010812,157.61504600010812,157.61504600010812,157.98147120000795,157.98147120000795,157.98147120000795,157.98147120000795,157.98147120000795,157.98147120000795,157.98147120000795,157.98147120000795,157.98147120000795,0,1,[0.0012360000982880592],[0.3672586001921445],157.98147120000795,158.1832525001373,1000,158.1832525001373,1000,1000,1000,1000,0,num_3,0.5550381001085043,,31,8,2026-03-12_14h02.13.705,2026A_exp2,2022.2.4,59.78526331258374,
1000,1,0.0,3.7,1,0,44,44,75,,,,,158.76532010012306,159.4162129999604,159.4162129999604,159.9171772999689,315,45,159.9171772999689,159.9171772999689,159.9171772999689,159.9171772999689,159.9171772999689,159.9171772999689,159.9171772999689,159.9171772999689,159.9171772999689,160.26697160000913,160.26697160000913,160.26697160000913,160.26697160000913,160.26697160000913,160.26697160000913,160.26697160000913,160.26697160000913,160.26697160000913,0,1,[0.0011603999882936478],[0.3507083000149578],160.26697160000913,160.4693799999077,1000,160.484012800036,1000,1000,1000,1000,1,num_2,1.406131099909544,,31,8,2026-03-12_14h02.13.705,2026A_exp2,2022.2.4,59.78526331258374,
1000,1,6.1,0.0,1,0,45,45,79,,,,,161.91866290010512,162.56937370006926,162.56937370006926,163.0535385000985,315,45,163.0535385000985,163.0535385000985,163.0535385000985,163.0535385000985,163.0535385000985,163.0535385000985,163.0535385000985,163.0535385000985,163.0535385000985,163.42001440003514,163.42001440003514,163.42001440003514,163.42001440003514,163.42001440003514,163.42001440003514,163.42001440003514,163.42001440003514,163.42001440003514,5,2,"[0.0012471999507397413, 0.1332960999570787]","[0.09960059984587133, 0.33377210004255176]",163.42001440003514,163.62261490011588,1000,163.62261490011588,1000,1000,1000,1000,0,num_3,0.683316299924627,,31,8,2026-03-12_14h02.13.705,2026A_exp2,2022.2.4,59.78526331258374,
1000,1,3.7,0.0,1,0,46,46,21,,,,,164.3210331001319,164.97177310008556,164.97177310008556,165.4727555999998,45,45,165.4727555999998,165.4727555999998,165.4727555999998,165.4727555999998,165.4727555999998,165.4727555999998,165.4727555999998,165.4727555999998,165.4727555999998,165.8390395999886,165.8390395999886,165.8390395999886,165.8390395999886,165.8390395999886,165.8390395999886,165.8390395999886,165.8390395999886,165.8390395999886,7,3,"[0.06692439992912114, 0.13353869994170964, 0.18359559983946383]","[0.10018719988875091, 0.16702179983258247, 0.3663755999878049]",165.8390395999886,166.04181979992427,1000,166.04181979992427,1000,1000,1000,1000,0,num_3,0.6077894000336528,,31,8,2026-03-12_14h02.13.705,2026A_exp2,2022.2.4,59.78526331258374,
0,0,0.0,0.0,0,0,47,47,67,,,,,166.673277300084,167.3239406000357,167.3239406000357,167.8250484999735,45,45,167.8250484999735,167.8250484999735,167.8250484999735,167.8250484999735,167.8250484999735,167.8250484999735,167.8250484999735,167.8250484999735,167.8250484999735,168.19158899993636,168.19158899993636,168.19158899993636,168.19158899993636,168.19158899993636,168.19158899993636,168.19158899993636,168.19158899993636,168.19158899993636,3,4,"[0.0012455000542104244, 0.20021600020118058, 0.23369140014983714, 0.300353400176391]","[0.18353740009479225, 0.2170703001320362, 0.2836445001885295, 0.36714490014128387]",168.19158899993636,168.391785700107,0.0,168.391785700107,0,0.0,0,1,1000,num_1,0.8108566999435425,,31,8,2026-03-12_14h02.13.705,2026A_exp2,2022.2.4,59.78526331258374,
1,0,0.0,0.0,1,0,48,48,82,,,,,169.2258713999763,169.87661019992083,169.87661019992083,170.36091320007108,45,315,170.36091320007108,170.36091320007108,170.36091320007108,170.36091320007108,170.36091320007108,170.36091320007108,170.36091320007108,170.36091320007108,170.36091320007108,170.72749540000223,170.72749540000223,170.72749540000223,170.72749540000223,170.72749540000223,170.72749540000223,170.72749540000223,170.72749540000223,170.72749540000223,0,1,[0.0014090999029576778],[0.3669215999543667],170.72749540000223,170.92774820001796,0.0,170.92774820001796,0,0.0,0,1,1000,num_1,0.7140420000068843,,31,8,2026-03-12_14h02.13.705,2026A_exp2,2022.2.4,59.78526331258374,
1000,1,3.7,3.7,1,0,49,49,88,,,,,171.66147430008277,172.31246470008045,172.31246470008045,172.79682469996624,45,45,172.79682469996624,172.79682469996624,172.79682469996624,172.79682469996624,172.79682469996624,172.79682469996624,172.79682469996624,172.79682469996624,172.79682469996624,173.1632328000851,173.1632328000851,173.1632328000851,173.1632328000851,173.1632328000851,173.1632328000851,173.1632328000851,173.1632328000851,173.1632328000851,0,1,[0.0012223999947309494],[0.36692739999853075],173.1632328000851,173.365363500081,1000,173.365363500081,1000,1000,1000,1000,0,num_3,0.4765663000289351,,31,8,2026-03-12_14h02.13.705,2026A_exp2,2022.2.4,59.78526331258374,
1000,1,0.0,0.0,1,0,50,50,40,,,,,173.8638162999414,174.5146043000277,174.5146043000277,175.0156290999148,315,45,175.0156290999148,175.0156290999148,175.0156290999148,175.0156290999148,175.0156290999148,175.0156290999148,175.0156290999148,175.0156290999148,175.0156290999148,175.36544700013474,175.36544700013474,175.36544700013474,175.36544700013474,175.36544700013474,175.36544700013474,175.36544700013474,175.36544700013474,175.36544700013474,0,1,[0.0012765999417752028],[0.3504834999330342],175.36544700013474,175.56710899993777,1000,175.58207369991578,1000,1000,1000,1000,0,num_3,0.9554999999236315,,31,8,2026-03-12_14h02.13.705,2026A_exp2,2022.2.4,59.78526331258374,
1,0,0.0,4.9,0,0,51,51,35,,,,,176.56655979994684,177.20217570010573,177.20217570010573,177.71802229993045,315,315,177.71802229993045,177.71802229993045,177.71802229993045,177.71802229993045,177.71802229993045,177.71802229993045,177.71802229993045,177.71802229993045,177.71802229993045,178.08494880003855,178.08494880003855,178.08494880003855,178.08494880003855,178.08494880003855,178.08494880003855,178.08494880003855,178.08494880003855,178.08494880003855,2,2,"[0.000762800220400095, 0.11729660001583397]","[0.10019860020838678, 0.3699128001462668]",178.08494880003855,178.284982400015,0.0,178.284982400015,0,0.0,0,1,1000,num_1,1.0056291001383215,,31,8,2026-03-12_14h02.13.705,2026A_exp2,2022.2.4,59.78526331258374,
1,0,3.7,0.0,1,0,52,52,59,,,,,179.31926240003668,179.96996539994143,179.96996539994143,180.45434630010277,45,315,180.45434630010277,180.45434630010277,180.45434630010277,180.45434630010277,180.45434630010277,180.45434630010277,180.45434630010277,180.45434630010277,180.45434630010277,180.8208922999911,180.8208922999911,180.8208922999911,180.8208922999911,180.8208922999911,180.8208922999911,180.8208922999911,180.8208922999911,180.8208922999911,3,3,"[0.0012010999489575624, 0.0503048999235034, 0.2838262999430299]","[0.01723949983716011, 0.26674359990283847, 0.36734090000391006]",180.8208922999911,181.02112879999913,0.0,181.02112879999913,1,0.0,0,0,1000,num_4,0.9095626999624074,,31,8,2026-03-12_14h02.13.705,2026A_exp2,2022.2.4,59.78526331258374,
1000,1,3.7,0.0,1,0,53,53,33,,,,,181.95555080007762,182.58920269994996,182.58920269994996,183.09047710010782,315,315,183.09047710010782,183.09047710010782,183.09047710010782,183.09047710010782,183.09047710010782,183.09047710010782,183.09047710010782,183.09047710010782,183.09047710010782,183.45683789998293,183.45683789998293,183.45683789998293,183.45683789998293,183.45683789998293,183.45683789998293,183.45683789998293,183.45683789998293,183.45683789998293,0,1,[0.0012452001683413982],[0.3673078999854624],183.45683789998293,183.65882900008,1000,183.65882900008,1000,1000,1000,1000,0,num_3,0.6788141001015902,,31,8,2026-03-12_14h02.13.705,2026A_exp2,2022.2.4,59.78526331258374,
1,0,0.0,0.0,0,0,54,54,66,,,,,184.3576553000603,185.00841800007038,185.00841800007038,185.509446100099,45,45,185.509446100099,185.509446100099,185.509446100099,185.509446100099,185.509446100099,185.509446100099,185.509446100099,185.509446100099,185.509446100099,185.87599990004674,185.87599990004674,185.87599990004674,185.87599990004674,185.87599990004674,185.87599990004674,185.87599990004674,185.87599990004674,185.87599990004674,15,7,"[0.0012190002016723156, 0.05020200018770993, 0.08357370016165078, 0.13369829999282956, 0.18371450016275048, 0.2338257001247257, 0.2838802000042051]","[0.017302200198173523, 0.06692620017565787, 0.10030190018005669, 0.1501659001223743, 0.2003200000617653, 0.2672131999861449, 0.30047790007665753]",185.87599990004674,186.07606799993664,0.0,186.07606799993664,0,0.0,0,1,1000,num_1,0.9419374999124557,,31,8,2026-03-12_14h02.13.705,2026A_exp2,2022.2.4,59.78526331258374,
1000,1,0.0,0.0,1,0,55,55,71,,,,,187.0437324999366,187.6944627999328,187.6944627999328,188.17888940009288,315,45,188.17888940009288,188.17888940009288,188.17888940009288,188.17888940009288,188.17888940009288,188.17888940009288,188.17888940009288,188.17888940009288,188.17888940009288,188.54514349997044,188.54514349997044,188.54514349997044,188.54514349997044,188.54514349997044,188.54514349997044,188.54514349997044,188.54514349997044,188.54514349997044,15,6,"[0.017282200045883656, 0.05002809991128743, 0.08346710004843771, 0.15012419992126524, 0.26697380002588034, 0.3503582999110222]","[0.03347259992733598, 0.0668057999573648, 0.13354479987174273, 0.16697210003621876, 0.2836060000117868, 0.3670646999962628]",188.54514349997044,188.747428300092,1000,188.747428300092,1000,1000,1000,1000,0,num_3,0.5819493001326919,,31,8,2026-03-12_14h02.13.705,2026A_exp2,2022.2.4,59.78526331258374,
1000,1,6.1,6.1,0,0,56,56,50,,,,,189.3459694001358,189.99671049998142,189.99671049998142,190.49770339997485,45,45,190.49770339997485,190.49770339997485,190.49770339997485,190.49770339997485,190.49770339997485,190.49770339997485,190.49770339997485,190.49770339997485,190.49770339997485,190.86425750004128,190.86425750004128,190.86425750004128,190.86425750004128,190.86425750004128,190.86425750004128,190.86425750004128,190.86425750004128,190.86425750004128,5,3,"[0.033449299866333604, 0.10012199985794723, 0.23353570001199841]","[0.06676009995862842, 0.2167652000207454, 0.36710249981842935]",190.86425750004128,191.06598530011252,1000,191.06598530011252,1000,1000,1000,1000,0,num_3,0.49633110011927783,,31,8,2026-03-12_14h02.13.705,2026A_exp2,2022.2.4,59.78526331258374,
1,0,3.7,6.1,1,0,57,57,6,,,,,191.58144999993965,192.2323137000203,192.2323137000203,192.7334263001103,45,45,192.7334263001103,192.7334263001103,192.7334263001103,192.7334263001103,192.7334263001103,192.7334263001103,192.7334263001103,192.7334263001103,192.7334263001103,193.0831816000864,193.0831816000864,193.0831816000864,193.0831816000864,193.0831816000864,193.0831816000864,193.0831816000864,193.0831816000864,193.0831816000864,5,4,"[0.0011678000446408987, 0.06687010009773076, 0.10027840011753142, 0.23379430011846125]","[0.03365470003336668, 0.08372050011530519, 0.20060590002685785, 0.35069660004228354]",193.0831816000864,193.28336629993282,6.1,193.30008969991468,1,6.1,1,1,1000,num_4,0.6854949002154171,,31,8,2026-03-12_14h02.13.705,2026A_exp2,2022.2.4,59.78526331258374,
1000,1,0.0,0.0,1,0,58,58,62,,,,,194.01732230000198,194.66800780012272,194.66800780012272,195.15227019996382,315,45,195.15227019996382,195.15227019996382,195.15227019996382,195.15227019996382,195.15227019996382,195.15227019996382,195.15227019996382,195.15227019996382,195.15227019996382,195.5189295001328,195.5189295001328,195.5189295001328,195.5189295001328,195.5189295001328,195.5189295001328,195.5189295001328,195.5189295001328,195.5189295001328,0,1,[0.0012187999673187733],[0.3670559998136014],195.5189295001328,195.720958000049,1000,195.720958000049,1000,1000,1000,1000,0,num_3,0.7127664000727236,,31,8,2026-03-12_14h02.13.705,2026A_exp2,2022.2.4,59.78526331258374,
1000,1,0.0,0.0,1,0,59,59,70,,,,,196.45324630010873,197.1039676000364,197.1039676000364,197.60494660004042,315,45,197.60494660004042,197.60494660004042,197.60494660004042,197.60494660004042,197.60494660004042,197.60494660004042,197.60494660004042,197.60494660004042,197.60494660004042,197.97141300002113,197.97141300002113,197.97141300002113,197.97141300002113,197.97141300002113,197.97141300002113,197.97141300002113,197.97141300002113,197.97141300002113,0,1,[0.0012141000479459763],[0.36743399989791214],197.97141300002113,198.17401980003342,1000,198.17401980003342,1000,1000,1000,1000,0,num_3,0.8276129001751542,,31,8,2026-03-12_14h02.13.705,2026A_exp2,2022.2.4,59.78526331258374,
1000,1,0.0,4.9,0,0,60,60,9,,,,,199.02232669992372,199.67301920009777,199.67301920009777,200.17411440005526,45,45,200.17411440005526,200.17411440005526,200.17411440005526,200.17411440005526,200.17411440005526,200.17411440005526,200.17411440005526,200.17411440005526,200.17411440005526,200.5405794000253,200.5405794000253,200.5405794000253,200.5405794000253,200.5405794000253,200.5405794000253,200.5405794000253,200.5405794000253,200.5405794000253,2,3,"[0.0012475000694394112, 0.050068699987605214, 0.10026629990898073]","[0.03348580002784729, 0.08352910005487502, 0.3669332000426948]",200.5405794000253,200.74292290001176,1000,200.74292290001176,1000,1000,1000,1000,1,num_2,0.915519000031054,,31,8,2026-03-12_14h02.13.705,2026A_exp2,2022.2.4,59.78526331258374,
1,0,0.0,0.0,0,0,61,61,0,,,,,201.67494649998844,202.32559580006637,202.32559580006637,202.82675640005618,45,315,202.82675640005618,202.82675640005618,202.82675640005618,202.82675640005618,202.82675640005618,202.82675640005618,202.82675640005618,202.82675640005618,202.82675640005618,203.19320120010525,203.19320120010525,203.19320120010525,203.19320120010525,203.19320120010525,203.19320120010525,203.19320120010525,203.19320120010525,203.19320120010525,1,2,"[0.0012425000313669443, 0.08344880002550781]","[0.06690849992446601, 0.3670389000326395]",203.19320120010525,203.3934951000847,0.0,203.3934951000847,0,0.0,0,1,1000,num_1,0.8801090000197291,,31,8,2026-03-12_14h02.13.705,2026A_exp2,2022.2.4,59.78526331258374,
1,0,6.1,0.0,1,0,62,62,38,,,,,204.29450009996071,204.94494870002382,204.94494870002382,205.42953140009195,45,45,205.42953140009195,205.42953140009195,205.42953140009195,205.42953140009195,205.42953140009195,205.42953140009195,205.42953140009195,205.42953140009195,205.42953140009195,205.79587169992737,205.79587169992737,205.79587169992737,205.79587169992737,205.79587169992737,205.79587169992737,205.79587169992737,205.79587169992737,205.79587169992737,0,1,[0.001198899932205677],[0.36711050011217594],205.79587169992737,205.99619360012002,0.0,205.99619360012002,0,0.0,0,1,1000,num_1,1.7172594999428838,,31,8,2026-03-12_14h02.13.705,2026A_exp2,2022.2.4,59.78526331258374,
1000,1,0.0,4.9,1,0,63,63,73,,,,,207.73101609991863,208.365223800065,208.365223800065,208.8662179999519,45,45,208.8662179999519,208.8662179999519,208.8662179999519,208.8662179999519,208.8662179999519,208.8662179999519,208.8662179999519,208.8662179999519,208.8662179999519,209.23268850008026,209.23268850008026,209.23268850008026,209.23268850008026,209.23268850008026,209.23268850008026,209.23268850008026,209.23268850008026,209.23268850008026,0,1,[0.001196600031107664],[0.36701600020751357],209.23268850008026,209.43299260013737,1000,209.43299260013737,1000,1000,1000,1000,1,num_2,0.64189019985497,,31,8,2026-03-12_14h02.13.705,2026A_exp2,2022.2.4,59.78526331258374,
1000,1,4.9,0.0,1,0,64,64,7,,,,,210.10019990010187,210.7508251001127,210.7508251001127,211.25190829997882,315,45,211.25190829997882,211.25190829997882,211.25190829997882,211.25190829997882,211.25190829997882,211.25190829997882,211.25190829997882,211.25190829997882,211.25190829997882,211.61827800003812,211.61827800003812,211.61827800003812,211.61827800003812,211.61827800003812,211.61827800003812,211.61827800003812,211.61827800003812,211.61827800003812,0,1,[0.001298899995163083],[0.36701130005531013],211.61827800003812,211.82076720008627,1000,211.82076720008627,1000,1000,1000,1000,0,num_3,0.6617010000627488,,31,8,2026-03-12_14h02.13.705,2026A_exp2,2022.2.4,59.78526331258374,
1,0,3.7,4.9,0,0,65,65,84,,,,,212.50265550008044,213.1532845001202,213.1532845001202,213.65437999996357,315,315,213.65437999996357,213.65437999996357,213.65437999996357,213.65437999996357,213.65437999996357,213.65437999996357,213.65437999996357,213.65437999996357,213.65437999996357,214.0040764999576,214.0040764999576,214.0040764999576,214.0040764999576,214.0040764999576,214.0040764999576,214.0040764999576,214.0040764999576,214.0040764999576,1,2,"[0.0013459001202136278, 0.2169955000281334]","[0.20041260006837547, 0.35048200003802776]",214.0040764999576,214.2042193999514,3.7,214.2042193999514,1,3.7,1,1,1000,num_4,1.2138918000273407,,31,8,2026-03-12_14h02.13.705,2026A_exp2,2022.2.4,59.78526331258374,
1000,1,6.1,6.1,0,0,66,66,74,,,,,215.43883050000295,216.08944289991632,216.08944289991632,216.5739595000632,315,45,216.5739595000632,216.5739595000632,216.5739595000632,216.5739595000632,216.5739595000632,216.5739595000632,216.5739595000632,216.5739595000632,216.5739595000632,216.94023970002308,216.94023970002308,216.94023970002308,216.94023970002308,216.94023970002308,216.94023970002308,216.94023970002308,216.94023970002308,216.94023970002308,0,1,[0.0012089000083506107],[0.3672515999060124],216.94023970002308,217.14260859997012,1000,217.14260859997012,1000,1000,1000,1000,0,num_3,0.5629898998886347,,31,8,2026-03-12_14h02.13.705,2026A_exp2,2022.2.4,59.78526331258374,
1,0,4.9,0.0,0,0,67,67,87,,,,,217.72440430009738,218.37515039998107,218.37515039998107,218.87628139997832,315,315,218.87628139997832,218.87628139997832,218.87628139997832,218.87628139997832,218.87628139997832,218.87628139997832,218.87628139997832,218.87628139997832,218.87628139997832,219.22593439999036,219.22593439999036,219.22593439999036,219.22593439999036,219.22593439999036,219.22593439999036,219.22593439999036,219.22593439999036,219.22593439999036,0,1,[0.0012053998652845621],[0.3505818999838084],219.22593439999036,219.42614739993587,4.9,219.42614739993587,1,4.9,1,1,1000,num_4,0.7362164000514895,,31,8,2026-03-12_14h02.13.705,2026A_exp2,2022.2.4,59.78526331258374,
0,0,0.0,0.0,0,0,68,68,69,,,,,220.19348799996078,220.8442945999559,220.8442945999559,221.32866799994372,45,45,221.32866799994372,221.32866799994372,221.32866799994372,221.32866799994372,221.32866799994372,221.32866799994372,221.32866799994372,221.32866799994372,221.32866799994372,221.6951941999141,221.6951941999141,221.6951941999141,221.6951941999141,221.6951941999141,221.6951941999141,221.6951941999141,221.6951941999141,221.6951941999141,0,1,[0.0014923999551683664],[0.3666644000913948],221.6951941999141,221.8953657001257,0.0,221.8953657001257,0,0.0,0,1,1000,num_1,1.0747497000265867,,31,8,2026-03-12_14h02.13.705,2026A_exp2,2022.2.4,59.78526331258374,
1,0,0.0,3.7,0,0,69,69,2,,,,,222.99648480000906,223.6469149000477,223.6469149000477,224.14808870013803,315,45,224.14808870013803,224.14808870013803,224.14808870013803,224.14808870013803,224.14808870013803,224.14808870013803,224.14808870013803,224.14808870013803,224.14808870013803,224.51444109994918,224.51444109994918,224.51444109994918,224.51444109994918,224.51444109994918,224.51444109994918,224.51444109994918,224.51444109994918,224.51444109994918,0,1,[0.0012459000572562218],[0.3670139000751078],224.51444109994918,224.71468230010942,0.0,224.71468230010942,0,0.0,0,1,1000,num_1,0.9354344999883324,,31,8,2026-03-12_14h02.13.705,2026A_exp2,2022.2.4,59.78526331258374,
1,0,6.1,6.1,0,0,70,70,11,,,,,225.68210510001518,226.33303290000185,226.33303290000185,226.81750210002065,45,315,226.81750210002065,226.81750210002065,226.81750210002065,226.81750210002065,226.81750210002065,226.81750210002065,226.81750210002065,226.81750210002065,226.81750210002065,227.18387780012563,227.18387780012563,227.18387780012563,227.18387780012563,227.18387780012563,227.18387780012563,227.18387780012563,227.18387780012563,227.18387780012563,0,1,[0.001219599973410368],[0.367096200119704],227.18387780012563,227.38398670009337,6.1,227.38398670009337,1,6.1,1,1,1000,num_4,0.9145249000284821,,31,8,2026-03-12_14h02.13.705,2026A_exp2,2022.2.4,59.78526331258374,
1,0,6.1,3.7,0,0,71,71,86,,,,,228.3184337001294,228.95229719998315,228.95229719998315,229.4530541000422,315,315,229.4530541000422,229.4530541000422,229.4530541000422,229.4530541000422,229.4530541000422,229.4530541000422,229.4530541000422,229.4530541000422,229.4530541000422,229.8197965999134,229.8197965999134,229.8197965999134,229.8197965999134,229.8197965999134,229.8197965999134,229.8197965999134,229.8197965999134,229.8197965999134,0,1,[0.0012396001257002354],[0.36725400015711784],229.8197965999134,230.02012529992498,6.1,230.02012529992498,1,6.1,1,1,1000,num_4,0.5254875000100583,,31,8,2026-03-12_14h02.13.705,2026A_exp2,2022.2.4,59.78526331258374,
1000,1,6.1,3.7,1,0,72,72,45,,,,,230.57051829993725,231.22131259995513,231.22131259995513,231.70584479998797,45,315,231.70584479998797,231.70584479998797,231.70584479998797,231.70584479998797,231.70584479998797,231.70584479998797,231.70584479998797,231.70584479998797,231.70584479998797,232.07200270006433,232.07200270006433,232.07200270006433,232.07200270006433,232.07200270006433,232.07200270006433,232.07200270006433,232.07200270006433,232.07200270006433,2,3,"[0.001065900083631277, 0.11702200002036989, 0.2337738999631256]","[0.10002280003391206, 0.2171380000654608, 0.3673789999447763]",232.07200270006433,232.27330160001293,1000,232.27330160001293,1000,1000,1000,1000,1,num_2,0.6969373000320047,,31,8,2026-03-12_14h02.13.705,2026A_exp2,2022.2.4,59.78526331258374,
1,0,6.1,4.9,0,0,73,73,30,,,,,232.98969070008025,233.6402171999216,233.6402171999216,234.14142409991473,315,315,234.14142409991473,234.14142409991473,234.14142409991473,234.14142409991473,234.14142409991473,234.14142409991473,234.14142409991473,234.14142409991473,234.14142409991473,234.49144660006277,234.49144660006277,234.49144660006277,234.49144660006277,234.49144660006277,234.49144660006277,234.49144660006277,234.49144660006277,234.49144660006277,2,3,"[0.0012898000422865152, 0.18369209999218583, 0.350499700056389]","[0.16709810006432235, 0.33385549997910857, 0.3505040002055466]",234.49144660006277,234.69131350005046,6.1,234.70812300010584,1,6.1,1,1,1000,num_4,0.7978709999006242,,31,8,2026-03-12_14h02.13.705,2026A_exp2,2022.2.4,59.78526331258374,
1000,1,6.1,4.9,0,0,74,74,77,,,,,235.525453499984,236.1761968000792,236.1761968000792,236.67741389991716,45,315,236.67741389991716,236.67741389991716,236.67741389991716,236.67741389991716,236.67741389991716,236.67741389991716,236.67741389991716,236.67741389991716,236.67741389991716,237.02729610004462,237.02729610004462,237.02729610004462,237.02729610004462,237.02729610004462,237.02729610004462,237.02729610004462,237.02729610004462,237.02729610004462,2,2,"[0.0012981998734176159, 0.20037089986726642]","[0.16690149996429682, 0.34999840008094907]",237.02729610004462,237.22701080003753,1000,237.22701080003753,1000,1000,1000,1000,0,num_3,0.5985514998901635,,31,8,2026-03-12_14h02.13.705,2026A_exp2,2022.2.4,59.78526331258374,
1000,1,6.1,6.1,0,0,75,75,56,,,,,237.84480389999226,238.47860369994305,238.47860369994305,238.97950719995424,315,45,238.97950719995424,238.97950719995424,238.97950719995424,238.97950719995424,238.97950719995424,238.97950719995424,238.97950719995424,238.97950719995424,238.97950719995424,239.34610460000113,239.34610460000113,239.34610460000113,239.34610460000113,239.34610460000113,239.34610460000113,239.34610460000113,239.34610460000113,239.34610460000113,0,1,[0.0012591001577675343],[0.36723450012505054],239.34610460000113,239.54817260010168,1000,239.54817260010168,1000,1000,1000,1000,0,num_3,0.8139702999033034,,31,8,2026-03-12_14h02.13.705,2026A_exp2,2022.2.4,59.78526331258374,
1000,1,6.1,0.0,0,0,76,76,68,,,,,240.3802920000162,241.03116320003755,241.03116320003755,241.53214240004309,45,45,241.53214240004309,241.53214240004309,241.53214240004309,241.53214240004309,241.53214240004309,241.53214240004309,241.53214240004309,241.53214240004309,241.53214240004309,241.89855489996262,241.89855489996262,241.89855489996262,241.89855489996262,241.89855489996262,241.89855489996262,241.89855489996262,241.89855489996262,241.89855489996262,2,2,"[0.0015899001155048609, 0.09974640002474189]","[0.0665234001353383, 0.3668879000470042]",241.89855489996262,242.10110679990612,1000,242.10110679990612,1000,1000,1000,1000,0,num_3,0.4851718998979777,,31,8,2026-03-12_14h02.13.705,2026A_exp2,2022.2.4,59.78526331258374,
1,0,6.1,6.1,0,0,77,77,51,,,,,242.61616440000944,243.24990270007402,243.24990270007402,243.75115899997763,315,45,243.75115899997763,243.75115899997763,243.75115899997763,243.75115899997763,243.75115899997763,243.75115899997763,243.75115899997763,243.75115899997763,243.75115899997763,244.1175252001267,244.1175252001267,244.1175252001267,244.1175252001267,244.1175252001267,244.1175252001267,244.1175252001267,244.1175252001267,244.1175252001267,7,4,"[0.0012540998868644238, 0.11687189992517233, 0.16694079991430044, 0.367022099904716]","[0.0500751999206841, 0.13359700003638864, 0.350150799844414, 0.3670264999382198]",244.1175252001267,244.3176172999665,6.1,244.3176172999665,1,6.1,1,1,1000,num_4,0.716212899889797,,31,8,2026-03-12_14h02.13.705,2026A_exp2,2022.2.4,59.78526331258374,
1,0,3.7,6.1,0,0,78,78,55,,,,,245.05161909991875,245.70235539996065,245.70235539996065,246.1867981001269,315,45,246.1867981001269,246.1867981001269,246.1867981001269,246.1867981001269,246.1867981001269,246.1867981001269,246.1867981001269,246.1867981001269,246.1867981001269,246.55330780008808,246.55330780008808,246.55330780008808,246.55330780008808,246.55330780008808,246.55330780008808,246.55330780008808,246.55330780008808,246.55330780008808,7,5,"[0.0012351998593658209, 0.18369069998152554, 0.23361879982985556, 0.2837408999912441, 0.35049669980071485]","[0.15033129998482764, 0.20030389982275665, 0.2669934998266399, 0.31717239995487034, 0.36728909984230995]",246.55330780008808,246.75337040005252,3.7,246.75337040005252,1,3.7,1,1,1000,num_4,1.0483225998468697,,31,8,2026-03-12_14h02.13.705,2026A_exp2,2022.2.4,59.78526331258374,
1,0,0.0,0.0,0,0,79,79,19,,,,,247.8210269000847,248.47174290008843,248.47174290008843,248.95639019994996,45,45,248.95639019994996,248.95639019994996,248.95639019994996,248.95639019994996,248.95639019994996,248.95639019994996,248.95639019994996,248.95639019994996,248.95639019994996,249.32254029996693,249.32254029996693,249.32254029996693,249.32254029996693,249.32254029996693,249.32254029996693,249.32254029996693,249.32254029996693,249.32254029996693,0,1,[0.0012412001378834248],[0.36731630004942417],249.32254029996693,249.52291940012947,0.0,249.52291940012947,0,0.0,0,1,1000,num_1,0.6232737000100315,,31,8,2026-03-12_14h02.13.705,2026A_exp2,2022.2.4,59.78526331258374,
1000,1,4.9,0.0,0,0,80,80,20,,,,,250.17345470003784,250.82428780011833,250.82428780011833,251.30871829995885,45,315,251.30871829995885,251.30871829995885,251.30871829995885,251.30871829995885,251.30871829995885,251.30871829995885,251.30871829995885,251.30871829995885,251.30871829995885,251.6750368999783,251.6750368999783,251.6750368999783,251.6750368999783,251.6750368999783,251.6750368999783,251.6750368999783,251.6750368999783,251.6750368999783,0,1,[0.0012117999140173197],[0.36744929989799857],251.6750368999783,251.87502179993317,1000,251.87502179993317,1000,1000,1000,1000,0,num_3,0.6151256000157446,,31,8,2026-03-12_14h02.13.705,2026A_exp2,2022.2.4,59.78526331258374,
1000,1,0.0,0.0,1,0,81,81,39,,,,,252.50913619995117,253.15990979992785,253.15990979992785,253.6609863000922,45,45,253.6609863000922,253.6609863000922,253.6609863000922,253.6609863000922,253.6609863000922,253.6609863000922,253.6609863000922,253.6609863000922,253.6609863000922,254.0275238000322,254.0275238000322,254.0275238000322,254.0275238000322,254.0275238000322,254.0275238000322,254.0275238000322,254.0275238000322,254.0275238000322,1,2,"[0.0012297998182475567, 0.11910099978558719]","[0.10279329982586205, 0.3686779998242855]",254.0275238000322,254.22780729993246,1000,254.22780729993246,1000,1000,1000,1000,0,num_3,0.8466263001319021,,31,8,2026-03-12_14h02.13.705,2026A_exp2,2022.2.4,59.78526331258374,
1,0,4.9,0.0,1,0,82,82,48,,,,,255.0949800000526,255.74595890007913,255.74595890007913,256.2469115999993,45,315,256.2469115999993,256.2469115999993,256.2469115999993,256.2469115999993,256.2469115999993,256.2469115999993,256.2469115999993,256.2469115999993,256.2469115999993,256.61339400010183,256.61339400010183,256.61339400010183,256.61339400010183,256.61339400010183,256.61339400010183,256.61339400010183,256.61339400010183,256.61339400010183,0,1,[0.0011945001315325499],[0.3672084000427276],256.61339400010183,256.8135100000072,0.0,256.8135100000072,0,0.0,0,1,1000,num_1,0.6843258000444621,,31,8,2026-03-12_14h02.13.705,2026A_exp2,2022.2.4,59.78526331258374,
1000,1,0.0,6.1,0,0,83,83,83,,,,,257.5140102999285,258.1649539999198,258.1649539999198,258.64927490008995,45,45,258.64927490008995,258.64927490008995,258.64927490008995,258.64927490008995,258.64927490008995,258.64927490008995,258.64927490008995,258.64927490008995,258.64927490008995,259.0155760999769,259.0155760999769,259.0155760999769,259.0155760999769,259.0155760999769,259.0155760999769,259.0155760999769,259.0155760999769,259.0155760999769,2,2,"[0.0012118001468479633, 0.25034789997152984]","[0.2171569000929594, 0.36715040006674826]",259.0155760999769,259.2178509000223,1000,259.2178509000223,1000,1000,1000,1000,1,num_2,0.6562516000121832,,31,8,2026-03-12_14h02.13.705,2026A_exp2,2022.2.4,59.78526331258374,
1000,1,3.7,3.7,0,0,84,84,16,,,,,259.90000839997083,260.55054259998724,260.55054259998724,261.0515332999639,45,45,261.0515332999639,261.0515332999639,261.0515332999639,261.0515332999639,261.0515332999639,261.0515332999639,261.0515332999639,261.0515332999639,261.0515332999639,261.41807679994963,261.41807679994963,261.41807679994963,261.41807679994963,261.41807679994963,261.41807679994963,261.41807679994963,261.41807679994963,261.41807679994963,0,1,[0.0013228999450802803],[0.36719330004416406],261.41807679994963,261.6200844999403,1000,261.6200844999403,1000,1000,1000,1000,0,num_3,0.4461081000044942,,31,8,2026-03-12_14h02.13.705,2026A_exp2,2022.2.4,59.78526331258374,
1000,1,6.1,0.0,1,0,85,85,52,,,,,262.08542399993166,262.7361651000101,262.7361651000101,263.23717839992605,45,45,263.23717839992605,263.23717839992605,263.23717839992605,263.23717839992605,263.23717839992605,263.23717839992605,263.23717839992605,263.23717839992605,263.23717839992605,263.58702230011113,263.58702230011113,263.58702230011113,263.58702230011113,263.58702230011113,263.58702230011113,263.58702230011113,263.58702230011113,263.58702230011113,1,2,"[0.001248599961400032, 0.23371469997800887]","[0.2166979000903666, 0.3504910001065582]",263.58702230011113,263.7888662000187,1000,263.8038735999726,1000,1000,1000,1000,0,num_3,0.5103295999579132,,31,8,2026-03-12_14h02.13.705,2026A_exp2,2022.2.4,59.78526331258374,
1,0,0.0,3.7,0,0,86,86,22,,,,,264.3376186999958,264.988460799912,264.988460799912,265.4895234000869,45,315,265.4895234000869,265.4895234000869,265.4895234000869,265.4895234000869,265.4895234000869,265.4895234000869,265.4895234000869,265.4895234000869,265.4895234000869,265.839207299985,265.839207299985,265.839207299985,265.839207299985,265.839207299985,265.839207299985,265.839207299985,265.839207299985,265.839207299985,2,3,"[0.0012417000252753496, 0.050065600080415606, 0.08349360013380647]","[0.033514600014314055, 0.06670580012723804, 0.35044150007888675]",265.839207299985,266.03938580001704,0.0,266.03938580001704,0,0.0,0,1,1000,num_1,0.9540262999944389,,31,8,2026-03-12_14h02.13.705,2026A_exp2,2022.2.4,59.78526331258374,
1000,1,0.0,6.1,1,0,87,87,3,,,,,267.02343950001523,267.65753190009855,267.65753190009855,268.15882289991714,315,315,268.15882289991714,268.15882289991714,268.15882289991714,268.15882289991714,268.15882289991714,268.15882289991714,268.15882289991714,268.15882289991714,268.15882289991714,268.5252732001245,268.5252732001245,268.5252732001245,268.5252732001245,268.5252732001245,268.5252732001245,268.5252732001245,268.5252732001245,268.5252732001245,0,1,[0.0011591999791562557],[0.3670708001591265],268.5252732001245,268.7256243999582,1000,268.7256243999582,1000,1000,1000,1000,1,num_2,0.5481116001028568,,31,8,2026-03-12_14h02.13.705,2026A_exp2,2022.2.4,59.78526331258374,
1,0,0.0,4.9,1,0,88,88,65,,,,,269.2929591999855,269.94336370006204,269.94336370006204,270.4442247999832,45,315,270.4442247999832,270.4442247999832,270.4442247999832,270.4442247999832,270.4442247999832,270.4442247999832,270.4442247999832,270.4442247999832,270.4442247999832,270.810865300009,270.810865300009,270.810865300009,270.810865300009,270.810865300009,270.810865300009,270.810865300009,270.810865300009,270.810865300009,0,1,[0.0012760998215526342],[0.3676463000010699],270.810865300009,271.01088909991086,4.9,271.01088909991086,1,4.9,1,1,1000,num_4,0.6470563998445868,,31,8,2026-03-12_14h02.13.705,2026A_exp2,2022.2.4,59.78526331258374,
1,0,0.0,3.7,1,0,89,89,10,,,,,271.67821489996277,272.329070399981,272.329070399981,272.813561799936,315,315,272.813561799936,272.813561799936,272.813561799936,272.813561799936,272.813561799936,272.813561799936,272.813561799936,272.813561799936,272.813561799936,273.1799250000622,273.1799250000622,273.1799250000622,273.1799250000622,273.1799250000622,273.1799250000622,273.1799250000622,273.1799250000622,273.1799250000622,0,1,[0.0012002999428659678],[0.36736389994621277],273.1799250000622,273.3801383001264,3.7,273.3801383001264,1,3.7,1,1,1000,num_4,0.48580479994416237,,31,8,2026-03-12_14h02.13.705,2026A_exp2,2022.2.4,59.78526331258374,
,,,,,,,,,,,,,,,,,,,,,,,,,,,,,,,,,,,,,,,,,,,,,,,,,,,,273.9126518999692,,,,,,,
