validity,detectorcomp,contrastCW,contrastCCW,precueCWorCCW,block_80trials.thisRepN,block_80trials.thisTrialN,block_80trials.thisN,block_80trials.thisIndex,etRecord.started,etRecord.stopped,text.started,text.stopped,text_4.started,text_4.stopped,text_6.started,text_6.stopped,oriCW,oriCCW,roi_2.started,grating_UR.started,grating_UL.started,grating_LR.started,grating_LL.started,noise_UR.started,noise_UL.started,noise_LR.started,noise_LL.started,roi_2.stopped,grating_UR.stopped,grating_UL.stopped,grating_LR.stopped,grating_LL.stopped,noise_UR.stopped,noise_UL.stopped,noise_LR.stopped,noise_LL.stopped,outframe,roi_2.numLooks,roi_2.timesOn,roi_2.timesOff,text_2.started,text_2.stopped,probedcontrast,key_resp.started,respdetect,relevantContrast,correctDetect,TorFdetect,respCWorCCW,key_resp.keys,key_resp.rt,feedback_display_.started,participantNo,blockNo,date,expName,psychopyVersion,frameRate,
0,0,0.0,0.0,0,0,0,0,59,5.91999851167202e-05,5.91999851167202e-05,49.58595809992403,51.58876239997335,51.58876239997335,52.22311109979637,52.22311109979637,52.744709599995986,45,45,52.744709599995986,52.744709599995986,52.744709599995986,52.744709599995986,52.744709599995986,52.744709599995986,52.744709599995986,52.744709599995986,52.744709599995986,53.09056619997136,53.09056619997136,53.09056619997136,53.09056619997136,53.09056619997136,53.09056619997136,53.09056619997136,53.09056619997136,53.09056619997136,23,0,,,53.09056619997136,53.29067089990713,0.0,53.29067089990713,0,0.0,0,1,1000,num_1,0.6467193001881242,,30,4,2026-03-12_10h34.09.259,2026A_exp2,2022.2.4,59.84916813454082,
1000,1,0.0,0.0,1,0,1,1,9,,,,,53.95798569987528,54.60888979979791,54.60888979979791,55.093142000027,315,315,55.093142000027,55.093142000027,55.093142000027,55.093142000027,55.093142000027,55.093142000027,55.093142000027,55.093142000027,55.093142000027,55.459614399820566,55.459614399820566,55.459614399820566,55.459614399820566,55.459614399820566,55.459614399820566,55.459614399820566,55.459614399820566,55.459614399820566,23,0,,,55.459614399820566,55.66528489999473,1000,55.66528489999473,1000,1000,1000,1000,1,num_2,0.7277935000602156,,30,4,2026-03-12_10h34.09.259,2026A_exp2,2022.2.4,59.84916813454082,
1,0,0.0,6.1,1,0,2,2,33,,,,,56.41066890000366,57.061218899907544,57.061218899907544,57.56222640001215,45,315,57.56222640001215,57.56222640001215,57.56222640001215,57.56222640001215,57.56222640001215,57.56222640001215,57.56222640001215,57.56222640001215,57.56222640001215,57.92874179990031,57.92874179990031,57.92874179990031,57.92874179990031,57.92874179990031,57.92874179990031,57.92874179990031,57.92874179990031,57.92874179990031,23,0,,,57.92874179990031,58.12896219990216,6.1,58.12896219990216,1,6.1,1,1,1000,num_4,2.1675900002010167,,30,4,2026-03-12_10h34.09.259,2026A_exp2,2022.2.4,59.84916813454082,
1000,1,4.9,3.7,0,0,3,3,40,,,,,60.31431779987179,60.96513699996285,60.96513699996285,61.44952239980921,315,45,61.44952239980921,61.44952239980921,61.44952239980921,61.44952239980921,61.44952239980921,61.44952239980921,61.44952239980921,61.44952239980921,61.44952239980921,61.815973500022665,61.815973500022665,61.815973500022665,61.815973500022665,61.815973500022665,61.815973500022665,61.815973500022665,61.815973500022665,61.815973500022665,23,0,,,61.815973500022665,62.01803719997406,1000,62.01803719997406,1000,1000,1000,1000,1,num_2,0.5503061001654714,,30,4,2026-03-12_10h34.09.259,2026A_exp2,2022.2.4,59.84916813454082,
0,0,6.1,4.9,0,0,4,4,22,,,,,62.58350409986451,63.23406059993431,63.23406059993431,63.73486389988102,45,45,63.73486389988102,63.73486389988102,63.73486389988102,63.73486389988102,63.73486389988102,63.73486389988102,63.73486389988102,63.73486389988102,63.73486389988102,64.1015862999484,64.1015862999484,64.1015862999484,64.1015862999484,64.1015862999484,64.1015862999484,64.1015862999484,64.1015862999484,64.1015862999484,23,0,,,64.1015862999484,64.30164669989608,4.9,64.30164669989608,1,4.9,1,1,1000,num_4,1.4275162999983877,,30,4,2026-03-12_10h34.09.259,2026A_exp2,2022.2.4,59.84916813454082,
1,0,0.0,3.7,1,0,5,5,32,,,,,65.7532026998233,66.4038662998937,66.4038662998937,66.88835019990802,315,315,66.88835019990802,66.88835019990802,66.88835019990802,66.88835019990802,66.88835019990802,66.88835019990802,66.88835019990802,66.88835019990802,66.88835019990802,67.2547441998031,67.2547441998031,67.2547441998031,67.2547441998031,67.2547441998031,67.2547441998031,67.2547441998031,67.2547441998031,67.2547441998031,0,1,[0.0010818000882863998],[0.3672891000751406],67.2547441998031,67.45494289998896,3.7,67.45494289998896,0,3.7,1,0,1000,num_1,0.8580483999103308,,30,4,2026-03-12_10h34.09.259,2026A_exp2,2022.2.4,59.84916813454082,
1,0,0.0,0.0,0,0,6,6,24,,,,,68.33901849994436,68.98980570002459,68.98980570002459,69.47412339993753,45,45,69.47412339993753,69.47412339993753,69.47412339993753,69.47412339993753,69.47412339993753,69.47412339993753,69.47412339993753,69.47412339993753,69.47412339993753,69.84045089990832,69.84045089990832,69.84045089990832,69.84045089990832,69.84045089990832,69.84045089990832,69.84045089990832,69.84045089990832,69.84045089990832,0,1,[0.001237599877640605],[0.36732419999316335],69.84045089990832,70.0407674999442,0.0,70.0407674999442,0,0.0,0,1,1000,num_1,0.6001963000744581,,30,4,2026-03-12_10h34.09.259,2026A_exp2,2022.2.4,59.84916813454082,
1000,1,0.0,6.1,1,0,7,7,43,,,,,70.65801449981518,71.30880180001259,71.30880180001259,71.79317909991369,45,45,71.79317909991369,71.79317909991369,71.79317909991369,71.79317909991369,71.79317909991369,71.79317909991369,71.79317909991369,71.79317909991369,71.79317909991369,72.15965639986098,72.15965639986098,72.15965639986098,72.15965639986098,72.15965639986098,72.15965639986098,72.15965639986098,72.15965639986098,72.15965639986098,0,1,[0.0012580000329762697],[0.3671915999148041],72.15965639986098,72.36241109995171,1000,72.36241109995171,1000,1000,1000,1000,1,num_2,0.8465521002653986,,30,4,2026-03-12_10h34.09.259,2026A_exp2,2022.2.4,59.84916813454082,
1,0,0.0,6.1,1,0,8,8,50,,,,,73.22706989990547,73.87790949991904,73.87790949991904,74.37922659981996,315,315,74.37922659981996,74.37922659981996,74.37922659981996,74.37922659981996,74.37922659981996,74.37922659981996,74.37922659981996,74.37922659981996,74.37922659981996,74.7454899000004,74.7454899000004,74.7454899000004,74.7454899000004,74.7454899000004,74.7454899000004,74.7454899000004,74.7454899000004,74.7454899000004,0,1,[0.0012439999263733625],[0.3672112999483943],74.7454899000004,74.9457941998262,6.1,74.9457941998262,1,6.1,1,1,1000,num_4,1.0875469001475722,,30,4,2026-03-12_10h34.09.259,2026A_exp2,2022.2.4,59.84916813454082,
1000,1,3.7,4.9,0,0,9,9,45,,,,,76.06345579982735,76.71409030002542,76.71409030002542,77.1986634999048,315,315,77.1986634999048,77.1986634999048,77.1986634999048,77.1986634999048,77.1986634999048,77.1986634999048,77.1986634999048,77.1986634999048,77.1986634999048,77.56502919993363,77.56502919993363,77.56502919993363,77.56502919993363,77.56502919993363,77.56502919993363,77.56502919993363,77.56502919993363,77.56502919993363,0,1,[0.0011991001665592194],[0.3672464000992477],77.56502919993363,77.76528129982762,1000,77.76528129982762,1000,1000,1000,1000,1,num_2,0.5871662001591176,,30,4,2026-03-12_10h34.09.259,2026A_exp2,2022.2.4,59.84916813454082,
1000,1,0.0,4.9,0,0,10,10,26,,,,,78.38278450001962,79.03297549998388,79.03297549998388,79.5348437000066,45,45,79.5348437000066,79.5348437000066,79.5348437000066,79.5348437000066,79.5348437000066,79.5348437000066,79.5348437000066,79.5348437000066,79.5348437000066,79.90074329986237,79.90074329986237,79.90074329986237,79.90074329986237,79.90074329986237,79.90074329986237,79.90074329986237,79.90074329986237,79.90074329986237,0,1,[0.0018754999618977308],[0.36737379990518093],79.90074329986237,80.11029979982413,1000,80.11029979982413,1000,1000,1000,1000,1,num_2,0.6026550000533462,,30,4,2026-03-12_10h34.09.259,2026A_exp2,2022.2.4,59.84916813454082,
1000,1,6.1,0.0,1,0,11,11,25,,,,,80.73468949995004,81.385461299913,81.385461299913,81.88659060001373,45,315,81.88659060001373,81.88659060001373,81.88659060001373,81.88659060001373,81.88659060001373,81.88659060001373,81.88659060001373,81.88659060001373,81.88659060001373,82.25319309998304,82.25319309998304,82.25319309998304,82.25319309998304,82.25319309998304,82.25319309998304,82.25319309998304,82.25319309998304,82.25319309998304,20,3,"[0.18348799995146692, 0.2836114000529051, 0.3170426001306623]","[0.20020730001851916, 0.3002200999762863, 0.33372920006513596]",82.25319309998304,82.45532760000788,1000,82.45532760000788,1000,1000,1000,1000,0,num_3,0.4407619000412524,,30,4,2026-03-12_10h34.09.259,2026A_exp2,2022.2.4,59.84916813454082,
1000,1,0.0,4.9,0,0,12,12,60,,,,,82.92021170002408,83.5710880998522,83.5710880998522,84.07202409999445,45,315,84.07202409999445,84.07202409999445,84.07202409999445,84.07202409999445,84.07202409999445,84.07202409999445,84.07202409999445,84.07202409999445,84.07202409999445,84.43861839990132,84.43861839990132,84.43861839990132,84.43861839990132,84.43861839990132,84.43861839990132,84.43861839990132,84.43861839990132,84.43861839990132,7,1,[0.0012316000647842884],[0.2670353001449257],84.43861839990132,84.64106850000098,1000,84.64106850000098,1000,1000,1000,1000,1,num_2,0.4242726999800652,,30,4,2026-03-12_10h34.09.259,2026A_exp2,2022.2.4,59.84916813454082,
1,0,6.1,6.1,1,0,13,13,23,,,,,85.08905690000392,85.73980909981765,85.73980909981765,86.24092529993504,315,315,86.24092529993504,86.24092529993504,86.24092529993504,86.24092529993504,86.24092529993504,86.24092529993504,86.24092529993504,86.24092529993504,86.24092529993504,86.60738820000552,86.60738820000552,86.60738820000552,86.60738820000552,86.60738820000552,86.60738820000552,86.60738820000552,86.60738820000552,86.60738820000552,0,1,[0.0013012001290917397],[0.36713570007123053],86.60738820000552,86.8074516998604,6.1,86.8074516998604,1,6.1,1,1,1000,num_4,0.9289546001236886,,30,4,2026-03-12_10h34.09.259,2026A_exp2,2022.2.4,59.84916813454082,
1,0,0.0,4.9,0,0,14,14,73,,,,,87.75837849988602,88.4092031000182,88.4092031000182,88.89357269997708,315,45,88.89357269997708,88.89357269997708,88.89357269997708,88.89357269997708,88.89357269997708,88.89357269997708,88.89357269997708,88.89357269997708,88.89357269997708,89.25988969998434,89.25988969998434,89.25988969998434,89.25988969998434,89.25988969998434,89.25988969998434,89.25988969998434,89.25988969998434,89.25988969998434,0,1,[0.0012630000710487366],[0.366518700029701],89.25988969998434,89.46030719997361,0.0,89.46030719997361,0,0.0,0,1,1000,num_1,0.7157327001914382,,30,4,2026-03-12_10h34.09.259,2026A_exp2,2022.2.4,59.84916813454082,
1,0,3.7,6.1,0,0,15,15,52,,,,,90.19414209993556,90.8449589998927,90.8449589998927,91.32925820001401,315,315,91.32925820001401,91.32925820001401,91.32925820001401,91.32925820001401,91.32925820001401,91.32925820001401,91.32925820001401,91.32925820001401,91.32925820001401,91.69571939995512,91.69571939995512,91.69571939995512,91.69571939995512,91.69571939995512,91.69571939995512,91.69571939995512,91.69571939995512,91.69571939995512,0,1,[0.0008298999164253473],[0.36740739992819726],91.69571939995512,91.89614069997333,3.7,91.89614069997333,0,3.7,1,0,1000,num_1,0.7526618000119925,,30,4,2026-03-12_10h34.09.259,2026A_exp2,2022.2.4,59.84916813454082,
1,0,4.9,0.0,0,0,16,16,53,,,,,92.68004889995791,93.33094109990634,93.33094109990634,93.81502659991384,45,315,93.81502659991384,93.81502659991384,93.81502659991384,93.81502659991384,93.81502659991384,93.81502659991384,93.81502659991384,93.81502659991384,93.81502659991384,94.18166040000506,94.18166040000506,94.18166040000506,94.18166040000506,94.18166040000506,94.18166040000506,94.18166040000506,94.18166040000506,94.18166040000506,7,1,[0.0012654000893235207],[0.2672691000625491],94.18166040000506,94.38179419981316,4.9,94.38179419981316,1,4.9,1,1,1000,num_4,0.9627251999918371,,30,4,2026-03-12_10h34.09.259,2026A_exp2,2022.2.4,59.84916813454082,
1,0,0.0,3.7,1,0,17,17,35,,,,,95.3659953000024,96.0000560998451,96.0000560998451,96.50127059989609,45,315,96.50127059989609,96.50127059989609,96.50127059989609,96.50127059989609,96.50127059989609,96.50127059989609,96.50127059989609,96.50127059989609,96.50127059989609,96.8676642999053,96.8676642999053,96.8676642999053,96.8676642999053,96.8676642999053,96.8676642999053,96.8676642999053,96.8676642999053,96.8676642999053,0,1,[0.001321100164204836],[0.36740200011990964],96.8676642999053,97.06793679995462,3.7,97.06793679995462,1,3.7,1,1,1000,num_4,0.7882735999301076,,30,4,2026-03-12_10h34.09.259,2026A_exp2,2022.2.4,59.84916813454082,
0,0,4.9,0.0,1,0,18,18,67,,,,,97.88520309980959,98.53617729991674,98.53617729991674,99.02040079981089,45,315,99.02040079981089,99.02040079981089,99.02040079981089,99.02040079981089,99.02040079981089,99.02040079981089,99.02040079981089,99.02040079981089,99.02040079981089,99.38689019996673,99.38689019996673,99.38689019996673,99.38689019996673,99.38689019996673,99.38689019996673,99.38689019996673,99.38689019996673,99.38689019996673,17,3,"[0.13358709984458983, 0.1669914999511093, 0.21700549987144768]","[0.15021829982288182, 0.18370739999227226, 0.2670349997933954]",99.38689019996673,99.58704709983431,4.9,99.58704709983431,1,4.9,1,1,1000,num_4,1.133929300121963,,30,4,2026-03-12_10h34.09.259,2026A_exp2,2022.2.4,59.84916813454082,
1000,1,0.0,4.9,1,0,19,19,66,,,,,100.73803030001,101.38886139984243,101.38886139984243,101.87315350002609,315,315,101.87315350002609,101.87315350002609,101.87315350002609,101.87315350002609,101.87315350002609,101.87315350002609,101.87315350002609,101.87315350002609,101.87315350002609,102.23971729981713,102.23971729981713,102.23971729981713,102.23971729981713,102.23971729981713,102.23971729981713,102.23971729981713,102.23971729981713,102.23971729981713,8,1,[0.0013002001214772463],[0.24998840014450252],102.23971729981713,102.44224829995073,1000,102.44224829995073,1000,1000,1000,1000,1,num_2,0.6626194999553263,,30,4,2026-03-12_10h34.09.259,2026A_exp2,2022.2.4,59.84916813454082,
1,0,6.1,4.9,1,0,20,20,11,,,,,103.12395279994234,103.77452609990723,103.77452609990723,104.27549149980769,45,45,104.27549149980769,104.27549149980769,104.27549149980769,104.27549149980769,104.27549149980769,104.27549149980769,104.27549149980769,104.27549149980769,104.27549149980769,104.64208359993063,104.64208359993063,104.64208359993063,104.64208359993063,104.64208359993063,104.64208359993063,104.64208359993063,104.64208359993063,104.64208359993063,23,0,,,104.64208359993063,104.84217509999871,4.9,104.84217509999871,1,4.9,1,1,1000,num_4,0.7506970001850277,,30,4,2026-03-12_10h34.09.259,2026A_exp2,2022.2.4,59.84916813454082,
1000,1,3.7,0.0,1,0,21,21,19,,,,,105.60957259987481,106.26051199994981,106.26051199994981,106.75350370001979,45,315,106.75350370001979,106.75350370001979,106.75350370001979,106.75350370001979,106.75350370001979,106.75350370001979,106.75350370001979,106.75350370001979,106.75350370001979,107.11118399980478,107.11118399980478,107.11118399980478,107.11118399980478,107.11118399980478,107.11118399980478,107.11118399980478,107.11118399980478,107.11118399980478,11,2,"[0.0032359000761061907, 0.19859410007484257]","[0.13173220003955066, 0.26538090012036264]",107.11118399980478,107.3133363998495,1000,107.3133363998495,1000,1000,1000,1000,0,num_3,0.6475390002597123,,30,4,2026-03-12_10h34.09.259,2026A_exp2,2022.2.4,59.84916813454082,
1,0,0.0,0.0,0,0,22,22,55,,,,,107.97881509992294,108.64271229994483,108.64271229994483,109.13052829983644,45,45,109.13052829983644,109.13052829983644,109.13052829983644,109.13052829983644,109.13052829983644,109.13052829983644,109.13052829983644,109.13052829983644,109.13052829983644,109.49694300000556,109.49694300000556,109.49694300000556,109.49694300000556,109.49694300000556,109.49694300000556,109.49694300000556,109.49694300000556,109.49694300000556,0,1,[0.0012332000769674778],[0.36708940006792545],109.49694300000556,109.6971950000152,0.0,109.6971950000152,0,0.0,0,1,1000,num_1,1.0070265003014356,,30,4,2026-03-12_10h34.09.259,2026A_exp2,2022.2.4,59.84916813454082,
1000,1,6.1,6.1,1,0,23,23,8,,,,,110.7314210999757,111.38207619986497,111.38207619986497,111.88323579984717,45,315,111.88323579984717,111.88323579984717,111.88323579984717,111.88323579984717,111.88323579984717,111.88323579984717,111.88323579984717,111.88323579984717,111.88323579984717,112.23292399989441,112.23292399989441,112.23292399989441,112.23292399989441,112.23292399989441,112.23292399989441,112.23292399989441,112.23292399989441,112.23292399989441,1,2,"[0.001065300079062581, 0.03345330012962222]","[0.01723430003039539, 0.3506459000054747]",112.23292399989441,112.4330596998334,1000,112.45002689980902,1000,1000,1000,1000,1,num_2,0.5433582002297044,,30,4,2026-03-12_10h34.09.259,2026A_exp2,2022.2.4,59.84916813454082,
1000,1,6.1,0.0,1,0,24,24,83,,,,,113.01700120000169,113.66778569994494,113.66778569994494,114.16885349992663,315,45,114.16885349992663,114.16885349992663,114.16885349992663,114.16885349992663,114.16885349992663,114.16885349992663,114.16885349992663,114.16885349992663,114.16885349992663,114.53528049984016,114.53528049984016,114.53528049984016,114.53528049984016,114.53528049984016,114.53528049984016,114.53528049984016,114.53528049984016,114.53528049984016,23,0,,,114.53528049984016,114.7379287998192,1000,114.7379287998192,1000,1000,1000,1000,0,num_3,0.4074367000721395,,30,4,2026-03-12_10h34.09.259,2026A_exp2,2022.2.4,59.84916813454082,
1000,1,0.0,0.0,1,0,25,25,85,,,,,115.16922709997743,115.81986289983615,115.81986289983615,116.3211403999012,315,45,116.3211403999012,116.3211403999012,116.3211403999012,116.3211403999012,116.3211403999012,116.3211403999012,116.3211403999012,116.3211403999012,116.3211403999012,116.68749769986607,116.68749769986607,116.68749769986607,116.68749769986607,116.68749769986607,116.68749769986607,116.68749769986607,116.68749769986607,116.68749769986607,23,0,,,116.68749769986607,116.8904663999565,1000,116.8904663999565,1000,1000,1000,1000,1,num_2,0.6783966002985835,,30,4,2026-03-12_10h34.09.259,2026A_exp2,2022.2.4,59.84916813454082,
1000,1,3.7,3.7,0,0,26,26,63,,,,,117.58854249981232,118.23902159999125,118.23902159999125,118.74003220000304,45,45,118.74003220000304,118.74003220000304,118.74003220000304,118.74003220000304,118.74003220000304,118.74003220000304,118.74003220000304,118.74003220000304,118.74003220000304,119.1067910999991,119.1067910999991,119.1067910999991,119.1067910999991,119.1067910999991,119.1067910999991,119.1067910999991,119.1067910999991,119.1067910999991,7,1,[0.0010042998474091291],[0.266641799826175],119.1067910999991,119.30679479986429,1000,119.30679479986429,1000,1000,1000,1000,1,num_2,0.5583554001059383,,30,4,2026-03-12_10h34.09.259,2026A_exp2,2022.2.4,59.84916813454082,
1000,1,6.1,6.1,0,0,27,27,16,,,,,119.89054779987782,120.55229849996977,120.55229849996977,121.04245159984566,315,315,121.04245159984566,121.04245159984566,121.04245159984566,121.04245159984566,121.04245159984566,121.04245159984566,121.04245159984566,121.04245159984566,121.04245159984566,121.40879569994286,121.40879569994286,121.40879569994286,121.40879569994286,121.40879569994286,121.40879569994286,121.40879569994286,121.40879569994286,121.40879569994286,0,1,[0.0012582000344991684],[0.3672258001752198],121.40879569994286,121.61096229986288,1000,121.61096229986288,1000,1000,1000,1000,1,num_2,0.4459331000689417,,30,4,2026-03-12_10h34.09.259,2026A_exp2,2022.2.4,59.84916813454082,
0,0,6.1,0.0,0,0,28,28,74,,,,,122.07605869998224,122.72673559980467,122.72673559980467,123.22795109986328,45,45,123.22795109986328,123.22795109986328,123.22795109986328,123.22795109986328,123.22795109986328,123.22795109986328,123.22795109986328,123.22795109986328,123.22795109986328,123.59403869998641,123.59403869998641,123.59403869998641,123.59403869998641,123.59403869998641,123.59403869998641,123.59403869998641,123.59403869998641,123.59403869998641,0,1,[0.0012278000358492136],[0.36690829996950924],123.59403869998641,123.79433760000393,0.0,123.79433760000393,0,0.0,0,1,1000,num_1,0.7016396000981331,,30,4,2026-03-12_10h34.09.259,2026A_exp2,2022.2.4,59.84916813454082,
1,0,0.0,3.7,1,0,29,29,14,,,,,124.51186609989963,125.16249289992265,125.16249289992265,125.64680819981731,45,45,125.64680819981731,125.64680819981731,125.64680819981731,125.64680819981731,125.64680819981731,125.64680819981731,125.64680819981731,125.64680819981731,125.64680819981731,126.01351059996523,126.01351059996523,126.01351059996523,126.01351059996523,126.01351059996523,126.01351059996523,126.01351059996523,126.01351059996523,126.01351059996523,4,1,[0.0012232998851686716],[0.31670570001006126],126.01351059996523,126.21369719994254,3.7,126.21369719994254,1,3.7,1,1,1000,num_4,0.8425021001603454,,30,4,2026-03-12_10h34.09.259,2026A_exp2,2022.2.4,59.84916813454082,
1,0,3.7,3.7,1,0,30,30,30,,,,,127.0810433998704,127.73193379980512,127.73193379980512,128.21618589991704,315,315,128.21618589991704,128.21618589991704,128.21618589991704,128.21618589991704,128.21618589991704,128.21618589991704,128.21618589991704,128.21618589991704,128.21618589991704,128.5825703998562,128.5825703998562,128.5825703998562,128.5825703998562,128.5825703998562,128.5825703998562,128.5825703998562,128.5825703998562,128.5825703998562,23,0,,,128.5825703998562,128.78287919983268,3.7,128.78287919983268,0,3.7,1,0,1000,num_1,0.8425547999795526,,30,4,2026-03-12_10h34.09.259,2026A_exp2,2022.2.4,59.84916813454082,
1,0,0.0,0.0,0,0,31,31,88,,,,,129.65027590002865,130.3010406999383,130.3010406999383,130.7855080999434,315,315,130.7855080999434,130.7855080999434,130.7855080999434,130.7855080999434,130.7855080999434,130.7855080999434,130.7855080999434,130.7855080999434,130.7855080999434,131.15182619984262,131.15182619984262,131.15182619984262,131.15182619984262,131.15182619984262,131.15182619984262,131.15182619984262,131.15182619984262,131.15182619984262,23,0,,,131.15182619984262,131.35211939993314,0.0,131.35211939993314,0,0.0,0,1,1000,num_1,0.43264280003495514,,30,4,2026-03-12_10h34.09.259,2026A_exp2,2022.2.4,59.84916813454082,
1000,1,3.7,6.1,1,0,32,32,48,,,,,131.80250619980507,132.4532492000144,132.4532492000144,132.9376626999583,315,315,132.9376626999583,132.9376626999583,132.9376626999583,132.9376626999583,132.9376626999583,132.9376626999583,132.9376626999583,132.9376626999583,132.9376626999583,133.30413319985382,133.30413319985382,133.30413319985382,133.30413319985382,133.30413319985382,133.30413319985382,133.30413319985382,133.30413319985382,133.30413319985382,16,1,[0.0012487999629229307],[0.11690740007907152],133.30413319985382,133.50630240002647,1000,133.50630240002647,1000,1000,1000,1000,1,num_2,0.6225010000634938,,30,4,2026-03-12_10h34.09.259,2026A_exp2,2022.2.4,59.84916813454082,
1,0,0.0,0.0,1,0,33,33,42,,,,,134.15483070001937,134.8055986999534,134.8055986999534,135.30658390000463,315,45,135.30658390000463,135.30658390000463,135.30658390000463,135.30658390000463,135.30658390000463,135.30658390000463,135.30658390000463,135.30658390000463,135.30658390000463,135.67317129997537,135.67317129997537,135.67317129997537,135.67317129997537,135.67317129997537,135.67317129997537,135.67317129997537,135.67317129997537,135.67317129997537,23,0,,,135.67317129997537,135.87362089985982,0.0,135.87362089985982,0,0.0,0,1,1000,num_1,0.8718294000718743,,30,4,2026-03-12_10h34.09.259,2026A_exp2,2022.2.4,59.84916813454082,
1,0,6.1,0.0,0,0,34,34,82,,,,,136.7739636998158,137.42487919982523,137.42487919982523,137.90932869981043,45,315,137.90932869981043,137.90932869981043,137.90932869981043,137.90932869981043,137.90932869981043,137.90932869981043,137.90932869981043,137.90932869981043,137.90932869981043,138.27570039988495,138.27570039988495,138.27570039988495,138.27570039988495,138.27570039988495,138.27570039988495,138.27570039988495,138.27570039988495,138.27570039988495,6,1,[0.0012204998638480902],[0.2836962998844683],138.27570039988495,138.47583379992284,6.1,138.47583379992284,1,6.1,1,1,1000,num_4,0.660554600181058,,30,4,2026-03-12_10h34.09.259,2026A_exp2,2022.2.4,59.84916813454082,
1000,1,0.0,0.0,0,0,35,35,86,,,,,139.15993739990517,139.8106393998023,139.8106393998023,140.294965100009,45,45,140.294965100009,140.294965100009,140.294965100009,140.294965100009,140.294965100009,140.294965100009,140.294965100009,140.294965100009,140.294965100009,140.6614681999199,140.6614681999199,140.6614681999199,140.6614681999199,140.6614681999199,140.6614681999199,140.6614681999199,140.6614681999199,140.6614681999199,0,1,[0.0014218001160770655],[0.36728839995339513],140.6614681999199,140.86361589981243,1000,140.86361589981243,1000,1000,1000,1000,1,num_2,0.6886091001797467,,30,4,2026-03-12_10h34.09.259,2026A_exp2,2022.2.4,59.84916813454082,
1,0,3.7,4.9,1,0,36,36,18,,,,,141.57899289997295,142.22973219980486,142.22973219980486,142.73084089998156,315,45,142.73084089998156,142.73084089998156,142.73084089998156,142.73084089998156,142.73084089998156,142.73084089998156,142.73084089998156,142.73084089998156,142.73084089998156,143.09721829998307,143.09721829998307,143.09721829998307,143.09721829998307,143.09721829998307,143.09721829998307,143.09721829998307,143.09721829998307,143.09721829998307,7,1,[0.001223699888214469],[0.26705909986048937],143.09721829998307,143.29743779986165,4.9,143.29743779986165,1,4.9,1,1,1000,num_4,1.511315500130877,,30,4,2026-03-12_10h34.09.259,2026A_exp2,2022.2.4,59.84916813454082,
1000,1,0.0,3.7,0,0,37,37,46,,,,,144.8321558998432,145.4829283999279,145.4829283999279,,315,45,145.9839112998452,145.9839112998452,145.9839112998452,145.9839112998452,145.9839112998452,145.9839112998452,145.9839112998452,145.9839112998452,145.9839112998452,146.33355270000175,146.33355270000175,146.33355270000175,146.33355270000175,146.33355270000175,146.33355270000175,146.33355270000175,146.33355270000175,146.33355270000175,0,1,[0.0010545998811721802],[0.35129850008524954],146.33355270000175,146.53671429981478,1000,146.53671429981478,1000,1000,1000,1000,1,num_2,0.6242248001508415,,30,4,2026-03-12_10h34.09.259,2026A_exp2,2022.2.4,59.84916813454082,
1000,1,6.1,0.0,1,0,38,38,29,,,,,147.18454709998332,147.83539919997565,147.83539919997565,148.33638829994015,315,315,148.33638829994015,148.33638829994015,148.33638829994015,148.33638829994015,148.33638829994015,148.33638829994015,148.33638829994015,148.33638829994015,148.33638829994015,148.7026905999519,148.7026905999519,148.7026905999519,148.7026905999519,148.7026905999519,148.7026905999519,148.7026905999519,148.7026905999519,148.7026905999519,0,1,[0.0012599998153746128],[0.367195799946785],148.7026905999519,148.90524039999582,1000,148.90524039999582,1000,1000,1000,1000,0,num_3,0.6308357999660075,,30,4,2026-03-12_10h34.09.259,2026A_exp2,2022.2.4,59.84916813454082,
1000,1,0.0,4.9,0,0,39,39,61,,,,,149.55351140000857,150.2044722000137,150.2044722000137,150.70545180002227,45,315,150.70545180002227,150.70545180002227,150.70545180002227,150.70545180002227,150.70545180002227,150.70545180002227,150.70545180002227,150.70545180002227,150.70545180002227,151.07187399989925,151.07187399989925,151.07187399989925,151.07187399989925,151.07187399989925,151.07187399989925,151.07187399989925,151.07187399989925,151.07187399989925,0,1,[0.0012254000175744295],[0.3671329999342561],151.07187399989925,151.2745879997965,1000,151.2745879997965,1000,1000,1000,1000,1,num_2,0.43821050017140806,,30,4,2026-03-12_10h34.09.259,2026A_exp2,2022.2.4,59.84916813454082,
1000,1,4.9,0.0,0,0,40,40,54,,,,,151.73913599993102,152.38975479989313,152.38975479989313,152.89087679982185,315,45,152.89087679982185,152.89087679982185,152.89087679982185,152.89087679982185,152.89087679982185,152.89087679982185,152.89087679982185,152.89087679982185,152.89087679982185,153.2574199999217,153.2574199999217,153.2574199999217,153.2574199999217,153.2574199999217,153.2574199999217,153.2574199999217,153.2574199999217,153.2574199999217,0,1,[0.0012773999478667974],[0.3673686000984162],153.2574199999217,153.45988360000774,1000,153.45988360000774,1000,1000,1000,1000,0,num_3,0.44425980001688004,,30,4,2026-03-12_10h34.09.259,2026A_exp2,2022.2.4,59.84916813454082,
1000,1,0.0,4.9,0,0,41,41,6,,,,,153.924769599922,154.57053369982168,154.57053369982168,155.05982379987836,315,315,155.05982379987836,155.05982379987836,155.05982379987836,155.05982379987836,155.05982379987836,155.05982379987836,155.05982379987836,155.05982379987836,155.05982379987836,155.42626239988022,155.42626239988022,155.42626239988022,155.42626239988022,155.42626239988022,155.42626239988022,155.42626239988022,155.42626239988022,155.42626239988022,9,1,[0.001429300056770444],[0.23368780012242496],155.42626239988022,155.6298530998174,1000,155.6298530998174,1000,1000,1000,1000,1,num_2,0.5626099000219256,,30,4,2026-03-12_10h34.09.259,2026A_exp2,2022.2.4,59.84916813454082,
1000,1,0.0,3.7,1,0,42,42,13,,,,,156.21022579981945,156.86088919988833,156.86088919988833,157.36211649980396,45,45,157.36211649980396,157.36211649980396,157.36211649980396,157.36211649980396,157.36211649980396,157.36211649980396,157.36211649980396,157.36211649980396,157.36211649980396,157.72845729999244,157.72845729999244,157.72845729999244,157.72845729999244,157.72845729999244,157.72845729999244,157.72845729999244,157.72845729999244,157.72845729999244,0,1,[0.0012657998595386744],[0.3672954998910427],157.72845729999244,157.9311013999395,1000,157.9311013999395,1000,1000,1000,1000,1,num_2,0.477032600203529,,30,4,2026-03-12_10h34.09.259,2026A_exp2,2022.2.4,59.84916813454082,
1,0,6.1,3.7,1,0,43,43,51,,,,,158.42909260001034,159.07993209990673,159.07993209990673,159.58096599997953,45,315,159.58096599997953,159.58096599997953,159.58096599997953,159.58096599997953,159.58096599997953,159.58096599997953,159.58096599997953,159.58096599997953,159.58096599997953,159.94736999995075,159.94736999995075,159.94736999995075,159.94736999995075,159.94736999995075,159.94736999995075,159.94736999995075,159.94736999995075,159.94736999995075,23,0,,,159.94736999995075,160.1475701997988,3.7,160.1475701997988,1,3.7,1,1,1000,num_4,0.8615536000579596,,30,4,2026-03-12_10h34.09.259,2026A_exp2,2022.2.4,59.84916813454082,
1000,1,3.7,0.0,1,0,44,44,38,,,,,161.03172279987484,161.68233719980344,161.68233719980344,162.18366959993728,45,315,162.18366959993728,162.18366959993728,162.18366959993728,162.18366959993728,162.18366959993728,162.18366959993728,162.18366959993728,162.18366959993728,162.18366959993728,162.53330100001767,162.53330100001767,162.53330100001767,162.53330100001767,162.53330100001767,162.53330100001767,162.53330100001767,162.53330100001767,162.53330100001767,22,0,,,162.53330100001767,162.73638419993222,1000,162.73638419993222,1000,1000,1000,1000,1,num_2,0.8400198000017554,,30,4,2026-03-12_10h34.09.259,2026A_exp2,2022.2.4,59.84916813454082,
1,0,0.0,6.1,1,0,45,45,31,,,,,163.60093329986557,164.25152269983664,164.25152269983664,164.75282489997335,45,315,164.75282489997335,164.75282489997335,164.75282489997335,164.75282489997335,164.75282489997335,164.75282489997335,164.75282489997335,164.75282489997335,164.75282489997335,165.11918599996716,165.11918599996716,165.11918599996716,165.11918599996716,165.11918599996716,165.11918599996716,165.11918599996716,165.11918599996716,165.11918599996716,23,0,,,165.11918599996716,165.3194198999554,6.1,165.3194198999554,1,6.1,1,1,1000,num_4,0.6026457000989467,,30,4,2026-03-12_10h34.09.259,2026A_exp2,2022.2.4,59.84916813454082,
1,0,0.0,0.0,1,0,46,46,49,,,,,165.95326399989426,166.60398899996653,166.60398899996653,167.08872030000202,315,45,167.08872030000202,167.08872030000202,167.08872030000202,167.08872030000202,167.08872030000202,167.08872030000202,167.08872030000202,167.08872030000202,167.08872030000202,167.45491859992035,167.45491859992035,167.45491859992035,167.45491859992035,167.45491859992035,167.45491859992035,167.45491859992035,167.45491859992035,167.45491859992035,0,1,[0.0012389000039547682],[0.3673918000422418],167.45491859992035,167.65514269983396,0.0,167.65514269983396,0,0.0,0,1,1000,num_1,0.7296978000085801,,30,4,2026-03-12_10h34.09.259,2026A_exp2,2022.2.4,59.84916813454082,
1,0,0.0,0.0,0,0,47,47,79,,,,,168.4055542999413,169.0564335999079,169.0564335999079,169.54100929992273,45,45,169.54100929992273,169.54100929992273,169.54100929992273,169.54100929992273,169.54100929992273,169.54100929992273,169.54100929992273,169.54100929992273,169.54100929992273,169.9073677000124,169.9073677000124,169.9073677000124,169.9073677000124,169.9073677000124,169.9073677000124,169.9073677000124,169.9073677000124,169.9073677000124,23,0,,,169.9073677000124,170.107479600003,0.0,170.107479600003,0,0.0,0,1,1000,num_1,0.6218610000796616,,30,4,2026-03-12_10h34.09.259,2026A_exp2,2022.2.4,59.84916813454082,
1000,1,0.0,6.1,1,0,48,48,71,,,,,170.75802249996923,171.40878880000673,171.40878880000673,171.8934039999731,315,315,171.8934039999731,171.8934039999731,171.8934039999731,171.8934039999731,171.8934039999731,171.8934039999731,171.8934039999731,171.8934039999731,171.8934039999731,172.26028649997897,172.26028649997897,172.26028649997897,172.26028649997897,172.26028649997897,172.26028649997897,172.26028649997897,172.26028649997897,172.26028649997897,23,0,,,172.26028649997897,172.46009139996022,1000,172.46009139996022,1000,1000,1000,1000,1,num_2,0.3803351002279669,,30,4,2026-03-12_10h34.09.259,2026A_exp2,2022.2.4,59.84916813454082,
1,0,6.1,0.0,1,0,49,49,80,,,,,172.86051079980098,173.51161699998192,173.51161699998192,173.99670519982465,315,315,173.99670519982465,173.99670519982465,173.99670519982465,173.99670519982465,173.99670519982465,173.99670519982465,173.99670519982465,173.99670519982465,173.99670519982465,174.3788150998298,174.3788150998298,174.3788150998298,174.3788150998298,174.3788150998298,174.3788150998298,174.3788150998298,174.3788150998298,174.3788150998298,24,0,,,174.3788150998298,,0.0,174.579405099852,0,0.0,0,1,1000,num_1,0.7170808000955731,,30,4,2026-03-12_10h34.09.259,2026A_exp2,2022.2.4,59.84916813454082,
1000,1,3.7,0.0,0,0,50,50,76,,,,,175.31279379990883,,175.96340779983439,176.4490556998644,315,45,176.4490556998644,176.4490556998644,176.4490556998644,176.4490556998644,176.4490556998644,176.4490556998644,176.4490556998644,176.4490556998644,176.4490556998644,176.83093779999763,176.83093779999763,176.83093779999763,176.83093779999763,176.83093779999763,176.83093779999763,176.83093779999763,176.83093779999763,176.83093779999763,24,0,,,176.83093779999763,177.03354089986533,1000,177.03354089986533,1000,1000,1000,1000,0,num_3,0.43927710014395416,,30,4,2026-03-12_10h34.09.259,2026A_exp2,2022.2.4,59.84916813454082,
1000,1,3.7,6.1,1,0,51,51,58,,,,,177.4982097998727,178.14892339985818,178.14892339985818,178.65012779994868,315,45,178.65012779994868,178.65012779994868,178.65012779994868,178.65012779994868,178.65012779994868,178.65012779994868,178.65012779994868,178.65012779994868,178.65012779994868,179.0165229998529,179.0165229998529,179.0165229998529,179.0165229998529,179.0165229998529,179.0165229998529,179.0165229998529,179.0165229998529,179.0165229998529,0,1,[0.0013359000440686941],[0.367231999989599],179.0165229998529,179.21922209998593,1000,179.21922209998593,1000,1000,1000,1000,1,num_2,0.43828120012767613,,30,4,2026-03-12_10h34.09.259,2026A_exp2,2022.2.4,59.84916813454082,
1000,1,6.1,0.0,0,0,52,52,81,,,,,179.6836668998003,180.3343741998542,180.3343741998542,180.83635559980758,315,315,180.83635559980758,180.83635559980758,180.83635559980758,180.83635559980758,180.83635559980758,180.83635559980758,180.83635559980758,180.83635559980758,180.83635559980758,181.20217889989726,181.20217889989726,181.20217889989726,181.20217889989726,181.20217889989726,181.20217889989726,181.20217889989726,181.20217889989726,181.20217889989726,0,1,[0.0007307000923901796],[0.36893659993074834],181.20217889989726,181.4030810999684,1000,181.4030810999684,1000,1000,1000,1000,0,num_3,0.39022380020469427,,30,4,2026-03-12_10h34.09.259,2026A_exp2,2022.2.4,59.84916813454082,
1000,1,0.0,0.0,1,0,53,53,1,,,,,181.81914759986103,182.46986810001545,182.46986810001545,182.9708709998522,45,315,182.9708709998522,182.9708709998522,182.9708709998522,182.9708709998522,182.9708709998522,182.9708709998522,182.9708709998522,182.9708709998522,182.9708709998522,183.33738719997928,183.33738719997928,183.33738719997928,183.33738719997928,183.33738719997928,183.33738719997928,183.33738719997928,183.33738719997928,183.33738719997928,23,0,,,183.33738719997928,183.53954069991596,1000,183.53954069991596,1000,1000,1000,1000,1,num_2,0.709718500263989,,30,4,2026-03-12_10h34.09.259,2026A_exp2,2022.2.4,59.84916813454082,
1,0,6.1,4.9,1,0,54,54,64,,,,,184.27166049997322,184.9223087998107,184.9223087998107,185.42355459998362,45,315,185.42355459998362,185.42355459998362,185.42355459998362,185.42355459998362,185.42355459998362,185.42355459998362,185.42355459998362,185.42355459998362,185.42355459998362,185.78977479995228,185.78977479995228,185.78977479995228,185.78977479995228,185.78977479995228,185.78977479995228,185.78977479995228,185.78977479995228,185.78977479995228,23,0,,,185.78977479995228,185.99014629982412,4.9,185.99014629982412,1,4.9,1,1,1000,num_4,0.6746394999790937,,30,4,2026-03-12_10h34.09.259,2026A_exp2,2022.2.4,59.84916813454082,
1000,1,4.9,0.0,1,0,55,55,77,,,,,186.69067599996924,187.34148149983957,187.34148149983957,187.82592259999365,45,45,187.82592259999365,187.82592259999365,187.82592259999365,187.82592259999365,187.82592259999365,187.82592259999365,187.82592259999365,187.82592259999365,187.82592259999365,188.19234439986758,188.19234439986758,188.19234439986758,188.19234439986758,188.19234439986758,188.19234439986758,188.19234439986758,188.19234439986758,188.19234439986758,23,0,,,188.19234439986758,188.39443319989368,1000,188.39443319989368,1000,1000,1000,1000,0,num_3,0.5098027000203729,,30,4,2026-03-12_10h34.09.259,2026A_exp2,2022.2.4,59.84916813454082,
1000,1,6.1,0.0,1,0,56,56,57,,,,,188.9262343000155,189.57707609981298,189.57707609981298,190.0779567998834,315,45,190.0779567998834,190.0779567998834,190.0779567998834,190.0779567998834,190.0779567998834,190.0779567998834,190.0779567998834,190.0779567998834,190.0779567998834,190.44451389997266,190.44451389997266,190.44451389997266,190.44451389997266,190.44451389997266,190.44451389997266,190.44451389997266,190.44451389997266,190.44451389997266,23,0,,,190.44451389997266,190.64687379985116,1000,190.64687379985116,1000,1000,1000,1000,0,num_3,0.4581746000330895,,30,4,2026-03-12_10h34.09.259,2026A_exp2,2022.2.4,59.84916813454082,
1,0,0.0,6.1,0,0,57,57,0,,,,,191.12840099981986,191.77911449992098,191.77911449992098,192.28020439995453,45,45,192.28020439995453,192.28020439995453,192.28020439995453,192.28020439995453,192.28020439995453,192.28020439995453,192.28020439995453,192.28020439995453,192.28020439995453,192.64655489986762,192.64655489986762,192.64655489986762,192.64655489986762,192.64655489986762,192.64655489986762,192.64655489986762,192.64655489986762,192.64655489986762,23,0,,,192.64655489986762,192.84699689992703,0.0,192.84699689992703,0,0.0,0,1,1000,num_1,0.7694874003063887,,30,4,2026-03-12_10h34.09.259,2026A_exp2,2022.2.4,59.84916813454082,
1000,1,0.0,0.0,0,0,58,58,15,,,,,193.6476174998097,194.29847969999537,194.29847969999537,194.7828759998083,315,315,194.7828759998083,194.7828759998083,194.7828759998083,194.7828759998083,194.7828759998083,194.7828759998083,194.7828759998083,194.7828759998083,194.7828759998083,195.14929749979638,195.14929749979638,195.14929749979638,195.14929749979638,195.14929749979638,195.14929749979638,195.14929749979638,195.14929749979638,195.14929749979638,21,1,[0.0012763000559061766],[0.03351740003563464],195.14929749979638,195.3495386999566,1000,195.3495386999566,1000,1000,1000,1000,1,num_2,0.6920072000939399,,30,4,2026-03-12_10h34.09.259,2026A_exp2,2022.2.4,59.84916813454082,
1000,1,0.0,0.0,1,0,59,59,78,,,,,196.06668349984102,196.71739699994214,196.71739699994214,197.21864969981834,45,45,197.21864969981834,197.21864969981834,197.21864969981834,197.21864969981834,197.21864969981834,197.21864969981834,197.21864969981834,197.21864969981834,197.21864969981834,197.5849796999246,197.5849796999246,197.5849796999246,197.5849796999246,197.5849796999246,197.5849796999246,197.5849796999246,197.5849796999246,197.5849796999246,23,0,,,197.5849796999246,197.78720279992558,1000,197.78720279992558,1000,1000,1000,1000,1,num_2,0.5738343000411987,,30,4,2026-03-12_10h34.09.259,2026A_exp2,2022.2.4,59.84916813454082,
0,0,0.0,3.7,0,0,60,60,34,,,,,198.38560549984686,199.0364518999122,199.0364518999122,199.53762999991886,315,45,199.53762999991886,199.53762999991886,199.53762999991886,199.53762999991886,199.53762999991886,199.53762999991886,199.53762999991886,199.53762999991886,199.53762999991886,199.90406099986285,199.90406099986285,199.90406099986285,199.90406099986285,199.90406099986285,199.90406099986285,199.90406099986285,199.90406099986285,199.90406099986285,23,0,,,199.90406099986285,200.1042535000015,3.7,200.1042535000015,1,3.7,1,1,1000,num_4,0.7131703002378345,,30,4,2026-03-12_10h34.09.259,2026A_exp2,2022.2.4,59.84916813454082,
1000,1,0.0,3.7,1,0,61,61,84,,,,,200.83814709982835,201.4885174999945,201.4885174999945,201.9734747998882,315,45,201.9734747998882,201.9734747998882,201.9734747998882,201.9734747998882,201.9734747998882,201.9734747998882,201.9734747998882,201.9734747998882,201.9734747998882,202.3397802999243,202.3397802999243,202.3397802999243,202.3397802999243,202.3397802999243,202.3397802999243,202.3397802999243,202.3397802999243,202.3397802999243,23,0,,,202.3397802999243,202.54189489991404,1000,202.54189489991404,1000,1000,1000,1000,1,num_2,0.6273769000545144,,30,4,2026-03-12_10h34.09.259,2026A_exp2,2022.2.4,59.84916813454082,
1000,1,3.7,3.7,0,0,62,62,72,,,,,203.19049720000476,203.8411530999001,203.8411530999001,204.34246159996837,315,315,204.34246159996837,204.34246159996837,204.34246159996837,204.34246159996837,204.34246159996837,204.34246159996837,204.34246159996837,204.34246159996837,204.34246159996837,204.70886809984222,204.70886809984222,204.70886809984222,204.70886809984222,204.70886809984222,204.70886809984222,204.70886809984222,204.70886809984222,204.70886809984222,10,2,"[0.0014259000308811665, 0.23371790000237525]","[0.20030259992927313, 0.2505377000197768]",204.70886809984222,204.91147739998996,1000,204.91147739998996,1000,1000,1000,1000,0,num_3,0.6014620000496507,,30,4,2026-03-12_10h34.09.259,2026A_exp2,2022.2.4,59.84916813454082,
1,0,3.7,0.0,1,0,63,63,12,,,,,205.54286889987998,206.19357239990495,206.19357239990495,206.69466189993545,315,315,206.69466189993545,206.69466189993545,206.69466189993545,206.69466189993545,206.69466189993545,206.69466189993545,206.69466189993545,206.69466189993545,206.69466189993545,207.0611946999561,207.0611946999561,207.0611946999561,207.0611946999561,207.0611946999561,207.0611946999561,207.0611946999561,207.0611946999561,207.0611946999561,1,2,"[0.0012594000436365604, 0.18367689987644553]","[0.16706419992260635, 0.3672430000733584]",207.0611946999561,207.26144059980288,0.0,207.26144059980288,0,0.0,0,1,1000,num_1,1.4990899001713842,,30,4,2026-03-12_10h34.09.259,2026A_exp2,2022.2.4,59.84916813454082,
1000,1,4.9,4.9,1,0,64,64,68,,,,,208.77941329986788,209.43020609999076,209.43020609999076,209.91456039994955,45,315,209.91456039994955,209.91456039994955,209.91456039994955,209.91456039994955,209.91456039994955,209.91456039994955,209.91456039994955,209.91456039994955,209.91456039994955,210.28109249984846,210.28109249984846,210.28109249984846,210.28109249984846,210.28109249984846,210.28109249984846,210.28109249984846,210.28109249984846,210.28109249984846,23,0,,,210.28109249984846,210.48360039992258,1000,210.48360039992258,1000,1000,1000,1000,1,num_2,0.46941030002199113,,30,4,2026-03-12_10h34.09.259,2026A_exp2,2022.2.4,59.84916813454082,
0,0,0.0,0.0,1,0,65,65,2,,,,,210.98186889989302,211.63236529985443,211.63236529985443,212.1335854998324,315,315,212.1335854998324,212.1335854998324,212.1335854998324,212.1335854998324,212.1335854998324,212.1335854998324,212.1335854998324,212.1335854998324,212.1335854998324,212.49985000002198,212.49985000002198,212.49985000002198,212.49985000002198,212.49985000002198,212.49985000002198,212.49985000002198,212.49985000002198,212.49985000002198,23,0,,,212.49985000002198,212.70002079987898,0.0,212.70002079987898,0,0.0,0,1,1000,num_1,0.4133378001861274,,30,4,2026-03-12_10h34.09.259,2026A_exp2,2022.2.4,59.84916813454082,
1,0,0.0,6.1,1,0,66,66,36,,,,,213.13386269984767,213.78462779987603,213.78462779987603,214.26896309992298,45,315,214.26896309992298,214.26896309992298,214.26896309992298,214.26896309992298,214.26896309992298,214.26896309992298,214.26896309992298,214.26896309992298,214.26896309992298,214.63540149992332,214.63540149992332,214.63540149992332,214.63540149992332,214.63540149992332,214.63540149992332,214.63540149992332,214.63540149992332,214.63540149992332,23,0,,,214.63540149992332,214.83567269984633,6.1,214.83567269984633,1,6.1,1,1,1000,num_4,0.6046701001469046,,30,4,2026-03-12_10h34.09.259,2026A_exp2,2022.2.4,59.84916813454082,
1,0,0.0,0.0,1,0,67,67,39,,,,,215.46942620002665,216.12029729993083,216.12029729993083,216.60462019988336,315,45,216.60462019988336,216.60462019988336,216.60462019988336,216.60462019988336,216.60462019988336,216.60462019988336,216.60462019988336,216.60462019988336,216.60462019988336,216.9709480998572,216.9709480998572,216.9709480998572,216.9709480998572,216.9709480998572,216.9709480998572,216.9709480998572,216.9709480998572,216.9709480998572,9,3,"[0.0008240998722612858, 0.2172729999292642, 0.33394569996744394]","[0.18386640003882349, 0.2506635000463575, 0.3508549998514354]",216.9709480998572,217.17124739987776,0.0,217.17124739987776,0,0.0,0,1,1000,num_1,0.9408327001146972,,30,4,2026-03-12_10h34.09.259,2026A_exp2,2022.2.4,59.84916813454082,
1,0,6.1,0.0,0,0,68,68,47,,,,,218.1391364999581,218.78958370001055,218.78958370001055,219.27392790000886,315,315,219.27392790000886,219.27392790000886,219.27392790000886,219.27392790000886,219.27392790000886,219.27392790000886,219.27392790000886,219.27392790000886,219.27392790000886,219.64035109989345,219.64035109989345,219.64035109989345,219.64035109989345,219.64035109989345,219.64035109989345,219.64035109989345,219.64035109989345,219.64035109989345,0,1,[0.0012173999566584826],[0.36701829987578094],219.64035109989345,219.84057829994708,6.1,219.84057829994708,1,6.1,1,1,1000,num_4,1.064406800083816,,30,4,2026-03-12_10h34.09.259,2026A_exp2,2022.2.4,59.84916813454082,
1000,1,4.9,0.0,1,0,69,69,10,,,,,220.92484619980678,221.57551539991982,221.57551539991982,222.06012939987704,45,45,222.06012939987704,222.06012939987704,222.06012939987704,222.06012939987704,222.06012939987704,222.06012939987704,222.06012939987704,222.06012939987704,222.06012939987704,222.4265741999261,222.4265741999261,222.4265741999261,222.4265741999261,222.4265741999261,222.4265741999261,222.4265741999261,222.4265741999261,222.4265741999261,23,0,,,222.4265741999261,222.62931440002285,1000,222.62931440002285,1000,1000,1000,1000,0,num_3,0.7232780000194907,,30,4,2026-03-12_10h34.09.259,2026A_exp2,2022.2.4,59.84916813454082,
1000,1,0.0,0.0,0,0,70,70,17,,,,,223.3773530998733,224.02807699982077,224.02807699982077,224.52918710000813,315,45,224.52918710000813,224.52918710000813,224.52918710000813,224.52918710000813,224.52918710000813,224.52918710000813,224.52918710000813,224.52918710000813,224.52918710000813,224.8955525998026,224.8955525998026,224.8955525998026,224.8955525998026,224.8955525998026,224.8955525998026,224.8955525998026,224.8955525998026,224.8955525998026,23,0,,,224.8955525998026,225.09810709999874,1000,225.09810709999874,1000,1000,1000,1000,1,num_2,0.8708709999918938,,30,4,2026-03-12_10h34.09.259,2026A_exp2,2022.2.4,59.84916813454082,
1,0,0.0,4.9,1,0,71,71,37,,,,,225.99694779980928,226.64716369984671,226.64716369984671,227.14841739996336,315,315,227.14841739996336,227.14841739996336,227.14841739996336,227.14841739996336,227.14841739996336,227.14841739996336,227.14841739996336,227.14841739996336,227.14841739996336,227.51500359992497,227.51500359992497,227.51500359992497,227.51500359992497,227.51500359992497,227.51500359992497,227.51500359992497,227.51500359992497,227.51500359992497,23,0,,,227.51500359992497,227.71512509998865,4.9,227.71512509998865,1,4.9,1,1,1000,num_4,0.6064145001582801,,30,4,2026-03-12_10h34.09.259,2026A_exp2,2022.2.4,59.84916813454082,
1000,1,4.9,0.0,0,0,72,72,41,,,,,228.34924849984236,228.99978740001097,228.99978740001097,229.48409389983863,45,315,229.48409389983863,229.48409389983863,229.48409389983863,229.48409389983863,229.48409389983863,229.48409389983863,229.48409389983863,229.48409389983863,229.48409389983863,229.85064639989287,229.85064639989287,229.85064639989287,229.85064639989287,229.85064639989287,229.85064639989287,229.85064639989287,229.85064639989287,229.85064639989287,0,1,[0.0012542998883873224],[0.3670743000693619],229.85064639989287,230.05277800001204,1000,230.05277800001204,1000,1000,1000,1000,0,num_3,0.5639208001084626,,30,4,2026-03-12_10h34.09.259,2026A_exp2,2022.2.4,59.84916813454082,
1,0,6.1,0.0,0,0,73,73,21,,,,,230.6346628998872,231.28544719982892,231.28544719982892,231.7863421998918,315,315,231.7863421998918,231.7863421998918,231.7863421998918,231.7863421998918,231.7863421998918,231.7863421998918,231.7863421998918,231.7863421998918,231.7863421998918,232.13621609983966,232.13621609983966,232.13621609983966,232.13621609983966,232.13621609983966,232.13621609983966,232.13621609983966,232.13621609983966,232.13621609983966,0,1,[0.0012725000269711018],[0.35077999997884035],232.13621609983966,232.336378299864,6.1,232.336378299864,1,6.1,1,1,1000,num_4,0.7362303000409156,,30,4,2026-03-12_10h34.09.259,2026A_exp2,2022.2.4,59.84916813454082,
1,0,6.1,0.0,1,0,74,74,89,,,,,233.10372629994527,233.75447709998116,233.75447709998116,234.2388577000238,315,45,234.2388577000238,234.2388577000238,234.2388577000238,234.2388577000238,234.2388577000238,234.2388577000238,234.2388577000238,234.2388577000238,234.2388577000238,234.6054446999915,234.6054446999915,234.6054446999915,234.6054446999915,234.6054446999915,234.6054446999915,234.6054446999915,234.6054446999915,234.6054446999915,18,1,[0.0013017000164836645],[0.0834298999980092],234.6054446999915,234.8055541999638,0.0,234.8055541999638,0,0.0,0,1,1000,num_1,2.2758003000635654,,30,4,2026-03-12_10h34.09.259,2026A_exp2,2022.2.4,59.84916813454082,
1,0,3.7,4.9,1,0,75,75,20,,,,,237.10777789982967,237.7585231999401,237.7585231999401,238.24291739985347,315,45,238.24291739985347,238.24291739985347,238.24291739985347,238.24291739985347,238.24291739985347,238.24291739985347,238.24291739985347,238.24291739985347,238.24291739985347,238.60934439999983,238.60934439999983,238.60934439999983,238.60934439999983,238.60934439999983,238.60934439999983,238.60934439999983,238.60934439999983,238.60934439999983,13,4,"[0.017393900081515312, 0.10021340008825064, 0.20042739994823933, 0.28397220000624657]","[0.08364810002967715, 0.11699200002476573, 0.2671534998808056, 0.3005969999358058]",238.60934439999983,238.8093411999289,4.9,238.8093411999289,1,4.9,1,1,1000,num_4,0.6396470000036061,,30,4,2026-03-12_10h34.09.259,2026A_exp2,2022.2.4,59.84916813454082,
1,0,0.0,0.0,1,0,76,76,69,,,,,239.47682329989038,240.12755559990183,240.12755559990183,240.61190239991993,315,45,240.61190239991993,240.61190239991993,240.61190239991993,240.61190239991993,240.61190239991993,240.61190239991993,240.61190239991993,240.61190239991993,240.61190239991993,240.97845879988745,240.97845879988745,240.97845879988745,240.97845879988745,240.97845879988745,240.97845879988745,240.97845879988745,240.97845879988745,240.97845879988745,4,4,"[0.0012278000358492136, 0.11706429999321699, 0.20058519998565316, 0.2336454999167472]","[0.10022710007615387, 0.18341749999672174, 0.21710980008356273, 0.3672360999044031]",240.97845879988745,241.17864930001087,0.0,241.17864930001087,0,0.0,0,1,1000,num_1,0.3821381002198905,,30,4,2026-03-12_10h34.09.259,2026A_exp2,2022.2.4,59.84916813454082,
0,0,4.9,3.7,0,0,77,77,28,,,,,241.57903559994884,242.22961939987727,242.22961939987727,242.714038599981,315,315,242.714038599981,242.714038599981,242.714038599981,242.714038599981,242.714038599981,242.714038599981,242.714038599981,242.714038599981,242.714038599981,243.08058839989826,243.08058839989826,243.08058839989826,243.08058839989826,243.08058839989826,243.08058839989826,243.08058839989826,243.08058839989826,243.08058839989826,21,2,"[0.0334409000352025, 0.1337091000750661]","[0.05019670003093779, 0.15031260019168258]",243.08058839989826,243.2806530999951,3.7,243.2806530999951,1,3.7,1,1,1000,num_4,1.0406239000149071,,30,4,2026-03-12_10h34.09.259,2026A_exp2,2022.2.4,59.84916813454082,
1000,1,6.1,6.1,1,0,78,78,4,,,,,244.3481759999413,244.99888419988565,244.99888419988565,245.4835239998065,45,45,245.4835239998065,245.4835239998065,245.4835239998065,245.4835239998065,245.4835239998065,245.4835239998065,245.4835239998065,245.4835239998065,245.4835239998065,245.85000009997748,245.85000009997748,245.85000009997748,245.85000009997748,245.85000009997748,245.85000009997748,245.85000009997748,245.85000009997748,245.85000009997748,4,2,"[0.0013150000013411045, 0.3005392998456955]","[0.2838704998139292, 0.3337470998521894]",245.85000009997748,246.05245610000566,1000,246.05245610000566,1000,1000,1000,1000,1,num_2,0.7879554000683129,,30,4,2026-03-12_10h34.09.259,2026A_exp2,2022.2.4,59.84916813454082,
1,0,0.0,4.9,0,0,79,79,3,,,,,246.86786549980752,247.5182297998108,247.5182297998108,248.01938900002278,45,45,248.01938900002278,248.01938900002278,248.01938900002278,248.01938900002278,248.01938900002278,248.01938900002278,248.01938900002278,248.01938900002278,248.01938900002278,248.3690855000168,248.3690855000168,248.3690855000168,248.3690855000168,248.3690855000168,248.3690855000168,248.3690855000168,248.3690855000168,248.3690855000168,0,1,[0.0012291001621633768],[0.3504967000335455],248.3690855000168,248.56937659997493,0.0,248.56937659997493,0,0.0,0,1,1000,num_1,0.8235021000728011,,30,4,2026-03-12_10h34.09.259,2026A_exp2,2022.2.4,59.84916813454082,
1000,1,3.7,0.0,0,0,80,80,56,,,,,249.41995719983242,250.0708389999345,250.0708389999345,250.555182099808,315,45,250.555182099808,250.555182099808,250.555182099808,250.555182099808,250.555182099808,250.555182099808,250.555182099808,250.555182099808,250.555182099808,250.92170439986512,250.92170439986512,250.92170439986512,250.92170439986512,250.92170439986512,250.92170439986512,250.92170439986512,250.92170439986512,250.92170439986512,0,1,[0.0012991998810321093],[0.3671073999721557],250.92170439986512,251.12390719982795,1000,251.12390719982795,1000,1000,1000,1000,0,num_3,2.340503200190142,,30,4,2026-03-12_10h34.09.259,2026A_exp2,2022.2.4,59.84916813454082,
1000,1,0.0,0.0,0,0,81,81,7,,,,,253.4908102999907,254.1354806998279,254.1354806998279,254.62599390000105,315,315,254.62599390000105,254.62599390000105,254.62599390000105,254.62599390000105,254.62599390000105,254.62599390000105,254.62599390000105,254.62599390000105,254.62599390000105,254.99211079999804,254.99211079999804,254.99211079999804,254.99211079999804,254.99211079999804,254.99211079999804,254.99211079999804,254.99211079999804,254.99211079999804,13,5,"[0.0007663001306355, 0.15044310013763607, 0.20070819999091327, 0.2678427000064403, 0.3178416001610458]","[0.017722300020977855, 0.18390880012884736, 0.23434040020219982, 0.301153999986127, 0.3670541001483798]",254.99211079999804,255.21634019981138,1000,255.21634019981138,1000,1000,1000,1000,1,num_2,0.6318254000507295,,30,4,2026-03-12_10h34.09.259,2026A_exp2,2022.2.4,59.84916813454082,
0,0,3.7,0.0,0,0,82,82,62,,,,,255.87658449984156,256.5274388999678,256.5274388999678,257.0422739998903,45,45,257.0422739998903,257.0422739998903,257.0422739998903,257.0422739998903,257.0422739998903,257.0422739998903,257.0422739998903,257.0422739998903,257.0422739998903,257.39481239998713,257.39481239998713,257.39481239998713,257.39481239998713,257.39481239998713,257.39481239998713,257.39481239998713,257.39481239998713,257.39481239998713,0,1,[0.004280500113964081],[0.36439340002834797],257.39481239998713,257.59489189996384,0.0,257.59489189996384,0,0.0,0,1,1000,num_1,0.36541460012085736,,30,4,2026-03-12_10h34.09.259,2026A_exp2,2022.2.4,59.84916813454082,
1,0,4.9,3.7,0,0,83,83,44,,,,,257.97857709997334,258.62947249994613,258.62947249994613,259.11379490001127,45,315,259.11379490001127,259.11379490001127,259.11379490001127,259.11379490001127,259.11379490001127,259.11379490001127,259.11379490001127,259.11379490001127,259.11379490001127,259.4801274999045,259.4801274999045,259.4801274999045,259.4801274999045,259.4801274999045,259.4801274999045,259.4801274999045,259.4801274999045,259.4801274999045,0,1,[0.0012239001225680113],[0.36715420009568334],259.4801274999045,259.68047909997404,4.9,259.68047909997404,1,4.9,1,1,1000,num_4,0.7523547001183033,,30,4,2026-03-12_10h34.09.259,2026A_exp2,2022.2.4,59.84916813454082,
1000,1,6.1,3.7,0,0,84,84,75,,,,,260.4644460999407,261.11527509987354,261.11527509987354,261.59948659990914,315,45,261.59948659990914,261.59948659990914,261.59948659990914,261.59948659990914,261.59948659990914,261.59948659990914,261.59948659990914,261.59948659990914,261.59948659990914,261.96625649998896,261.96625649998896,261.96625649998896,261.96625649998896,261.96625649998896,261.96625649998896,261.96625649998896,261.96625649998896,261.96625649998896,0,1,[0.0013479997869580984],[0.36691769980825484],261.96625649998896,262.1687631998211,1000,262.1687631998211,1000,1000,1000,1000,0,num_3,1.4565181001089513,,30,4,2026-03-12_10h34.09.259,2026A_exp2,2022.2.4,59.84916813454082,
1,0,3.7,0.0,0,0,85,85,87,,,,,263.6511247998569,264.3017149998341,264.3017149998341,264.80276430002414,315,45,264.80276430002414,264.80276430002414,264.80276430002414,264.80276430002414,264.80276430002414,264.80276430002414,264.80276430002414,264.80276430002414,264.80276430002414,265.16911399993114,265.16911399993114,265.16911399993114,265.16911399993114,265.16911399993114,265.16911399993114,265.16911399993114,265.16911399993114,265.16911399993114,22,1,[0.001614800188690424],[0.017149799969047308],265.16911399993114,265.36938939988613,3.7,265.36938939988613,1,3.7,1,1,1000,num_4,1.014887300087139,,30,4,2026-03-12_10h34.09.259,2026A_exp2,2022.2.4,59.84916813454082,
1,0,4.9,0.0,1,0,86,86,65,,,,,266.40368869993836,267.05446080002,267.05446080002,267.53880159999244,45,45,267.53880159999244,267.53880159999244,267.53880159999244,267.53880159999244,267.53880159999244,267.53880159999244,267.53880159999244,267.53880159999244,267.53880159999244,267.90534899989143,267.90534899989143,267.90534899989143,267.90534899989143,267.90534899989143,267.90534899989143,267.90534899989143,267.90534899989143,267.90534899989143,21,1,[0.06708940002135932],[0.10037739994004369],267.90534899989143,268.10551769984886,0.0,268.10551769984886,0,0.0,0,1,1000,num_1,1.223905200138688,,30,4,2026-03-12_10h34.09.259,2026A_exp2,2022.2.4,59.84916813454082,
1000,1,0.0,0.0,0,0,87,87,5,,,,,269.35663979989477,270.00750779989175,270.00750779989175,270.491788999876,315,45,270.491788999876,270.491788999876,270.491788999876,270.491788999876,270.491788999876,270.491788999876,270.491788999876,270.491788999876,270.491788999876,270.85831509996206,270.85831509996206,270.85831509996206,270.85831509996206,270.85831509996206,270.85831509996206,270.85831509996206,270.85831509996206,270.85831509996206,23,0,,,270.85831509996206,271.06078059994616,1000,271.06078059994616,1000,1000,1000,1000,1,num_2,0.6923983001615852,,30,4,2026-03-12_10h34.09.259,2026A_exp2,2022.2.4,59.84916813454082,
1,0,4.9,3.7,1,0,88,88,27,,,,,271.77576299989596,272.42640280001797,272.42640280001797,272.9275642998982,45,315,272.9275642998982,272.9275642998982,272.9275642998982,272.9275642998982,272.9275642998982,272.9275642998982,272.9275642998982,272.9275642998982,272.9275642998982,273.2939345999621,273.2939345999621,273.2939345999621,273.2939345999621,273.2939345999621,273.2939345999621,273.2939345999621,273.2939345999621,273.2939345999621,20,1,[0.00122710014693439],[0.05016460013575852],273.2939345999621,273.4942834000103,3.7,273.4942834000103,1,3.7,1,1,1000,num_4,0.6911784000694752,,30,4,2026-03-12_10h34.09.259,2026A_exp2,2022.2.4,59.84916813454082,
1,0,6.1,0.0,1,0,89,89,70,,,,,274.2115356998984,274.8623165998142,274.8623165998142,275.34672989998944,315,315,275.34672989998944,275.34672989998944,275.34672989998944,275.34672989998944,275.34672989998944,275.34672989998944,275.34672989998944,275.34672989998944,275.34672989998944,275.7131866000127,275.7131866000127,275.7131866000127,275.7131866000127,275.7131866000127,275.7131866000127,275.7131866000127,275.7131866000127,275.7131866000127,3,3,"[0.0012350999750196934, 0.08348380005918443, 0.20032409997656941]","[0.06688740011304617, 0.16701650014147162, 0.3671418000012636]",275.7131866000127,275.9133557998575,0.0,275.9133557998575,1,0.0,0,0,1000,num_4,1.0870332000777125,,30,4,2026-03-12_10h34.09.259,2026A_exp2,2022.2.4,59.84916813454082,
,,,,,,,,,,,,,,,,,,,,,,,,,,,,,,,,,,,,,,,,,,,,,,,,,,,,277.0327549998183,,,,,,,
