validity,detectorcomp,contrastCW,contrastCCW,precueCWorCCW,block_80trials.thisRepN,block_80trials.thisTrialN,block_80trials.thisN,block_80trials.thisIndex,etRecord.started,etRecord.stopped,text.started,text.stopped,text_4.started,text_4.stopped,text_6.started,text_6.stopped,oriCW,oriCCW,roi_2.started,grating_UR.started,grating_UL.started,grating_LR.started,grating_LL.started,noise_UR.started,noise_UL.started,noise_LR.started,noise_LL.started,roi_2.stopped,grating_UR.stopped,grating_UL.stopped,grating_LR.stopped,grating_LL.stopped,noise_UR.stopped,noise_UL.stopped,noise_LR.stopped,noise_LL.stopped,outframe,roi_2.numLooks,roi_2.timesOn,roi_2.timesOff,text_2.started,text_2.stopped,probedcontrast,key_resp.started,respdetect,relevantContrast,correctDetect,TorFdetect,respCWorCCW,key_resp.keys,key_resp.rt,feedback_display_.started,participantNo,blockNo,date,expName,psychopyVersion,frameRate,
1,0,6.1,4.9,1,0,0,0,64,4.509999416768551e-05,4.509999416768551e-05,58.325034100038465,60.330194400041364,60.330194400041364,60.981858899991494,60.981858899991494,61.49770280002849,315,45,61.49770280002849,61.49770280002849,61.49770280002849,61.49770280002849,61.49770280002849,61.49770280002849,61.49770280002849,61.49770280002849,61.49770280002849,61.84678409999469,61.84678409999469,61.84678409999469,61.84678409999469,61.84678409999469,61.84678409999469,61.84678409999469,61.84678409999469,61.84678409999469,18,4,"[0.1674069000291638, 0.21717750001698732, 0.3008515000110492, 0.3505575000308454]","[0.1840929000172764, 0.23385850002523512, 0.334323100047186, 0.3674788000062108]",61.84678409999469,62.04711799998768,4.9,62.04711799998768,0,4.9,1,0,1000,num_1,0.8907504000235349,,23,12,2026-03-04_14h23.48.446,2026A_exp2,2022.2.4,59.97289226272016,
1000,1,3.7,3.7,0,0,1,1,63,,,,,62.964781299990136,63.61535239999648,63.61535239999648,64.11650699999882,45,315,64.11650699999882,64.11650699999882,64.11650699999882,64.11650699999882,64.11650699999882,64.11650699999882,64.11650699999882,64.11650699999882,64.11650699999882,64.4829127000412,64.4829127000412,64.4829127000412,64.4829127000412,64.4829127000412,64.4829127000412,64.4829127000412,64.4829127000412,64.4829127000412,12,1,[0.0012936999555677176],[0.18356939998921007],64.4829127000412,64.6879929000279,1000,64.6879929000279,1000,1000,1000,1000,0,num_3,0.4817146999994293,,23,12,2026-03-04_14h23.48.446,2026A_exp2,2022.2.4,59.97289226272016,
1000,1,6.1,0.0,1,0,2,2,83,,,,,65.20042240002658,65.85090970003512,65.85090970003512,66.35195440001553,315,45,66.35195440001553,66.35195440001553,66.35195440001553,66.35195440001553,66.35195440001553,66.35195440001553,66.35195440001553,66.35195440001553,66.35195440001553,66.71844219998457,66.71844219998457,66.71844219998457,66.71844219998457,66.71844219998457,66.71844219998457,66.71844219998457,66.71844219998457,66.71844219998457,0,1,[0.0012240000069141388],[0.36734350002370775],66.71844219998457,66.91870500001824,1000,66.91870500001824,1000,1000,1000,1000,0,num_3,0.2918508000439033,,23,12,2026-03-04_14h23.48.446,2026A_exp2,2022.2.4,59.97289226272016,
1,0,0.0,0.0,0,0,3,3,24,,,,,67.23576640000101,67.88599600002635,67.88599600002635,68.38741399999708,315,45,68.38741399999708,68.38741399999708,68.38741399999708,68.38741399999708,68.38741399999708,68.38741399999708,68.38741399999708,68.38741399999708,68.38741399999708,68.75406710000243,68.75406710000243,68.75406710000243,68.75406710000243,68.75406710000243,68.75406710000243,68.75406710000243,68.75406710000243,68.75406710000243,0,1,[0.0012330000172369182],[0.3670187999960035],68.75406710000243,68.95406770001864,0.0,68.95406770001864,1,0.0,0,0,1000,num_4,0.9514649999910034,,23,12,2026-03-04_14h23.48.446,2026A_exp2,2022.2.4,59.97289226272016,
1,0,0.0,0.0,1,0,4,4,42,,,,,69.92169410001952,70.57228860002942,70.57228860002942,71.0567735999939,315,315,71.0567735999939,71.0567735999939,71.0567735999939,71.0567735999939,71.0567735999939,71.0567735999939,71.0567735999939,71.0567735999939,71.0567735999939,71.42317930003628,71.42317930003628,71.42317930003628,71.42317930003628,71.42317930003628,71.42317930003628,71.42317930003628,71.42317930003628,71.42317930003628,23,0,,,71.42317930003628,71.62333840003703,0.0,71.62333840003703,1,0.0,0,0,1000,num_4,0.6346121999667957,,23,12,2026-03-04_14h23.48.446,2026A_exp2,2022.2.4,59.97289226272016,
1,0,4.9,0.0,0,0,5,5,53,,,,,72.2739467000356,72.92470929998672,72.92470929998672,73.40915920003317,45,315,73.40915920003317,73.40915920003317,73.40915920003317,73.40915920003317,73.40915920003317,73.40915920003317,73.40915920003317,73.40915920003317,73.40915920003317,73.77554480003892,73.77554480003892,73.77554480003892,73.77554480003892,73.77554480003892,73.77554480003892,73.77554480003892,73.77554480003892,73.77554480003892,13,2,"[0.0012682999949902296, 0.08362859999760985]","[0.0669804000062868, 0.18296629999531433]",73.77554480003892,73.9758742999984,4.9,73.9758742999984,1,4.9,1,1,1000,num_4,0.6978568999911658,,23,12,2026-03-04_14h23.48.446,2026A_exp2,2022.2.4,59.97289226272016,
1000,1,3.7,0.0,1,0,6,6,38,,,,,74.69320119998883,75.34382050001295,75.34382050001295,75.8282417000155,45,315,75.8282417000155,75.8282417000155,75.8282417000155,75.8282417000155,75.8282417000155,75.8282417000155,75.8282417000155,75.8282417000155,75.8282417000155,76.19464170001447,76.19464170001447,76.19464170001447,76.19464170001447,76.19464170001447,76.19464170001447,76.19464170001447,76.19464170001447,76.19464170001447,1,2,"[0.001202200015541166, 0.21716490003746003]","[0.2000220000045374, 0.3671621000394225]",76.19464170001447,76.39694330003113,1000,76.39694330003113,1000,1000,1000,1000,0,num_3,0.4371147999772802,,23,12,2026-03-04_14h23.48.446,2026A_exp2,2022.2.4,59.97289226272016,
1,0,0.0,3.7,1,0,7,7,32,,,,,76.8618875000393,77.51258700003382,77.51258700003382,78.01361289998749,45,315,78.01361289998749,78.01361289998749,78.01361289998749,78.01361289998749,78.01361289998749,78.01361289998749,78.01361289998749,78.01361289998749,78.01361289998749,78.38012610003352,78.38012610003352,78.38012610003352,78.38012610003352,78.38012610003352,78.38012610003352,78.38012610003352,78.38012610003352,78.38012610003352,0,1,[0.0012600000482052565],[0.367055100039579],78.38012610003352,78.58038390002912,3.7,78.58038390002912,1,3.7,1,1,1000,num_4,0.654022500035353,,23,12,2026-03-04_14h23.48.446,2026A_exp2,2022.2.4,59.97289226272016,
1000,1,0.0,0.0,0,0,8,8,15,,,,,79.2643042000127,79.9149233000353,79.9149233000353,80.41612210002495,315,45,80.41612210002495,80.41612210002495,80.41612210002495,80.41612210002495,80.41612210002495,80.41612210002495,80.41612210002495,80.41612210002495,80.41612210002495,80.78256660001352,80.78256660001352,80.78256660001352,80.78256660001352,80.78256660001352,80.78256660001352,80.78256660001352,80.78256660001352,80.78256660001352,0,1,[0.001248300017323345],[0.36711839999770746],80.78256660001352,80.9845388000249,1000,80.9845388000249,1000,1000,1000,1000,1,num_2,0.529659099993296,,23,12,2026-03-04_14h23.48.446,2026A_exp2,2022.2.4,59.97289226272016,
1000,1,0.0,0.0,0,0,9,9,5,,,,,81.53306950000115,82.1841948000365,82.1841948000365,82.68496149999555,315,45,82.68496149999555,82.68496149999555,82.68496149999555,82.68496149999555,82.68496149999555,82.68496149999555,82.68496149999555,82.68496149999555,82.68496149999555,83.05145349999657,83.05145349999657,83.05145349999657,83.05145349999657,83.05145349999657,83.05145349999657,83.05145349999657,83.05145349999657,83.05145349999657,0,1,[0.0012679000501520932],[0.3669314000289887],83.05145349999657,83.25400350004202,1000,83.25400350004202,1000,1000,1000,1000,0,num_3,0.44427719997474924,,23,12,2026-03-04_14h23.48.446,2026A_exp2,2022.2.4,59.97289226272016,
1000,1,0.0,0.0,1,0,10,10,78,,,,,83.718708600034,84.3694026999874,84.3694026999874,84.87058919999981,45,45,84.87058919999981,84.87058919999981,84.87058919999981,84.87058919999981,84.87058919999981,84.87058919999981,84.87058919999981,84.87058919999981,84.87058919999981,85.2202787999995,85.2202787999995,85.2202787999995,85.2202787999995,85.2202787999995,85.2202787999995,85.2202787999995,85.2202787999995,85.2202787999995,0,1,[0.0012941000168211758],[0.3505625000107102],85.2202787999995,85.42262239998672,1000,85.42262239998672,1000,1000,1000,1000,0,num_3,0.3795408000005409,,23,12,2026-03-04_14h23.48.446,2026A_exp2,2022.2.4,59.97289226272016,
1000,1,3.7,0.0,0,0,11,11,56,,,,,85.8208151999861,86.47149890003493,86.47149890003493,86.97258629999124,45,315,86.97258629999124,86.97258629999124,86.97258629999124,86.97258629999124,86.97258629999124,86.97258629999124,86.97258629999124,86.97258629999124,86.97258629999124,87.33909640001366,87.33909640001366,87.33909640001366,87.33909640001366,87.33909640001366,87.33909640001366,87.33909640001366,87.33909640001366,87.33909640001366,23,0,,,87.33909640001366,87.53938360000029,1000,87.53938360000029,1000,1000,1000,1000,0,num_3,0.39098799997009337,,23,12,2026-03-04_14h23.48.446,2026A_exp2,2022.2.4,59.97289226272016,
0,0,0.0,0.0,1,0,12,12,2,,,,,87.95675320003647,88.60702659998788,88.60702659998788,89.09147550002672,315,45,89.09147550002672,89.09147550002672,89.09147550002672,89.09147550002672,89.09147550002672,89.09147550002672,89.09147550002672,89.09147550002672,89.09147550002672,89.45786660001613,89.45786660001613,89.45786660001613,89.45786660001613,89.45786660001613,89.45786660001613,89.45786660001613,89.45786660001613,89.45786660001613,23,0,,,89.45786660001613,89.65813009999692,0.0,89.65813009999692,1,0.0,0,0,1000,num_4,0.6630611000000499,,23,12,2026-03-04_14h23.48.446,2026A_exp2,2022.2.4,59.97289226272016,
1,0,6.1,0.0,1,0,13,13,89,,,,,90.34194780001417,90.99271980003687,90.99271980003687,91.47715920000337,45,45,91.47715920000337,91.47715920000337,91.47715920000337,91.47715920000337,91.47715920000337,91.47715920000337,91.47715920000337,91.47715920000337,91.47715920000337,91.84361770004034,91.84361770004034,91.84361770004034,91.84361770004034,91.84361770004034,91.84361770004034,91.84361770004034,91.84361770004034,91.84361770004034,8,6,"[0.0012011000071652234, 0.05030689999694005, 0.16707520000636578, 0.21696330001577735, 0.28381650004303083, 0.3337695000227541]","[0.03362980001838878, 0.15027139999438077, 0.20038620004197583, 0.23369419999653473, 0.3004027000279166, 0.36732620000839233]",91.84361770004034,92.04365120001603,0.0,92.04365120001603,0,0.0,0,1,1000,num_1,0.574892100004945,,23,12,2026-03-04_14h23.48.446,2026A_exp2,2022.2.4,59.97289226272016,
1,0,0.0,0.0,1,0,14,14,69,,,,,92.64426440000534,93.29493269999512,93.29493269999512,93.77949600003194,315,315,93.77949600003194,93.77949600003194,93.77949600003194,93.77949600003194,93.77949600003194,93.77949600003194,93.77949600003194,93.77949600003194,93.77949600003194,94.14590679999674,94.14590679999674,94.14590679999674,94.14590679999674,94.14590679999674,94.14590679999674,94.14590679999674,94.14590679999674,94.14590679999674,23,0,,,94.14590679999674,94.3458901999984,0.0,94.3458901999984,0,0.0,0,1,1000,num_1,0.6394162999931723,,23,12,2026-03-04_14h23.48.446,2026A_exp2,2022.2.4,59.97289226272016,
1000,1,0.0,3.7,1,0,15,15,84,,,,,95.01326780003728,95.66407300002174,95.66407300002174,96.14853430003859,315,45,96.14853430003859,96.14853430003859,96.14853430003859,96.14853430003859,96.14853430003859,96.14853430003859,96.14853430003859,96.14853430003859,96.14853430003859,96.51490000000922,96.51490000000922,96.51490000000922,96.51490000000922,96.51490000000922,96.51490000000922,96.51490000000922,96.51490000000922,96.51490000000922,23,0,,,96.51490000000922,96.7231098000193,1000,96.7231098000193,1000,1000,1000,1000,1,num_2,0.47016419999999925,,23,12,2026-03-04_14h23.48.446,2026A_exp2,2022.2.4,59.97289226272016,
1,0,0.0,0.0,1,0,16,16,49,,,,,97.21560490003321,97.86623889999464,97.86623889999464,98.35058130003745,315,45,98.35058130003745,98.35058130003745,98.35058130003745,98.35058130003745,98.35058130003745,98.35058130003745,98.35058130003745,98.35058130003745,98.35058130003745,98.71714530000463,98.71714530000463,98.71714530000463,98.71714530000463,98.71714530000463,98.71714530000463,98.71714530000463,98.71714530000463,98.71714530000463,7,3,"[0.03355100000044331, 0.1170560999889858, 0.23372989997733384]","[0.06684079999104142, 0.21709890000056475, 0.3673743000254035]",98.71714530000463,98.9172777000349,0.0,98.9172777000349,0,0.0,0,1,1000,num_1,0.9891151000047103,,23,12,2026-03-04_14h23.48.446,2026A_exp2,2022.2.4,59.97289226272016,
0,0,0.0,0.0,0,0,17,17,59,,,,,99.93503930000588,100.56930660002399,100.56930660002399,101.07000900001731,315,315,101.07000900001731,101.07000900001731,101.07000900001731,101.07000900001731,101.07000900001731,101.07000900001731,101.07000900001731,101.07000900001731,101.07000900001731,101.43658119998872,101.43658119998872,101.43658119998872,101.43658119998872,101.43658119998872,101.43658119998872,101.43658119998872,101.43658119998872,101.43658119998872,23,0,,,101.43658119998872,101.63648520002607,0.0,101.63648520002607,0,0.0,0,1,1000,num_1,0.8208570000133477,,23,12,2026-03-04_14h23.48.446,2026A_exp2,2022.2.4,59.97289226272016,
0,0,3.7,0.0,0,0,18,18,62,,,,,102.47224010003265,103.12151200004155,103.12151200004155,103.62254499999108,315,45,103.62254499999108,103.62254499999108,103.62254499999108,103.62254499999108,103.62254499999108,103.62254499999108,103.62254499999108,103.62254499999108,103.62254499999108,103.98893029999454,103.98893029999454,103.98893029999454,103.98893029999454,103.98893029999454,103.98893029999454,103.98893029999454,103.98893029999454,103.98893029999454,23,0,,,103.98893029999454,104.1892564999871,0.0,104.1892564999871,0,0.0,0,1,1000,num_1,1.5084868000121787,,23,12,2026-03-04_14h23.48.446,2026A_exp2,2022.2.4,59.97289226272016,
1,0,6.1,0.0,1,0,19,19,80,,,,,105.72407170000952,106.37480150000192,106.37480150000192,106.85925380000845,45,315,106.85925380000845,106.85925380000845,106.85925380000845,106.85925380000845,106.85925380000845,106.85925380000845,106.85925380000845,106.85925380000845,106.85925380000845,107.2254575000261,107.2254575000261,107.2254575000261,107.2254575000261,107.2254575000261,107.2254575000261,107.2254575000261,107.2254575000261,107.2254575000261,18,1,[0.0011516999802552164],[0.08380689995829016],107.2254575000261,107.42582140001468,0.0,107.42582140001468,0,0.0,0,1,1000,num_1,0.5605712999822572,,23,12,2026-03-04_14h23.48.446,2026A_exp2,2022.2.4,59.97289226272016,
1,0,6.1,0.0,1,0,20,20,70,,,,,108.00964599999133,108.66043220000574,108.66043220000574,109.14488740003435,315,315,109.14488740003435,109.14488740003435,109.14488740003435,109.14488740003435,109.14488740003435,109.14488740003435,109.14488740003435,109.14488740003435,109.14488740003435,109.51128859998425,109.51128859998425,109.51128859998425,109.51128859998425,109.51128859998425,109.51128859998425,109.51128859998425,109.51128859998425,109.51128859998425,23,0,,,109.51128859998425,109.71150560001843,0.0,109.71150560001843,0,0.0,0,1,1000,num_1,0.5463604999822564,,23,12,2026-03-04_14h23.48.446,2026A_exp2,2022.2.4,59.97289226272016,
1000,1,0.0,4.9,1,0,21,21,66,,,,,110.27849060000153,110.9292443000013,110.9292443000013,111.42949020001106,45,45,111.42949020001106,111.42949020001106,111.42949020001106,111.42949020001106,111.42949020001106,111.42949020001106,111.42949020001106,111.42949020001106,111.42949020001106,111.77986870001769,111.77986870001769,111.77986870001769,111.77986870001769,111.77986870001769,111.77986870001769,111.77986870001769,111.77986870001769,111.77986870001769,0,1,[0.004368099966086447],[0.36471649998566136],111.77986870001769,111.99219230003655,1000,111.99219230003655,1000,1000,1000,1000,1,num_2,1.434094600030221,,23,12,2026-03-04_14h23.48.446,2026A_exp2,2022.2.4,59.97289226272016,
1000,1,6.1,0.0,1,0,22,22,57,,,,,113.44863280002028,114.09913930000039,114.09913930000039,114.60021699999925,45,45,114.60021699999925,114.60021699999925,114.60021699999925,114.60021699999925,114.60021699999925,114.60021699999925,114.60021699999925,114.60021699999925,114.60021699999925,114.96668589999899,114.96668589999899,114.96668589999899,114.96668589999899,114.96668589999899,114.96668589999899,114.96668589999899,114.96668589999899,114.96668589999899,4,1,[0.001305699988733977],[0.3170390999875963],114.96668589999899,115.1690355000319,1000,115.1690355000319,1000,1000,1000,1000,0,num_3,0.2892714999616146,,23,12,2026-03-04_14h23.48.446,2026A_exp2,2022.2.4,59.97289226272016,
1,0,6.1,6.1,1,0,23,23,23,,,,,115.48389440000756,116.13452540000435,116.13452540000435,116.63583440001821,45,315,116.63583440001821,116.63583440001821,116.63583440001821,116.63583440001821,116.63583440001821,116.63583440001821,116.63583440001821,116.63583440001821,116.63583440001821,117.00199030002113,117.00199030002113,117.00199030002113,117.00199030002113,117.00199030002113,117.00199030002113,117.00199030002113,117.00199030002113,117.00199030002113,0,1,[0.001242100028321147],[0.367688000027556],117.00199030002113,117.2022937000147,6.1,117.2022937000147,1,6.1,1,1,1000,num_4,0.7354557000217028,,23,12,2026-03-04_14h23.48.446,2026A_exp2,2022.2.4,59.97289226272016,
1000,1,6.1,6.1,0,0,24,24,16,,,,,117.96976100001484,118.62022939999588,118.62022939999588,119.10475420003058,45,45,119.10475420003058,119.10475420003058,119.10475420003058,119.10475420003058,119.10475420003058,119.10475420003058,119.10475420003058,119.10475420003058,119.10475420003058,119.47111039998708,119.47111039998708,119.47111039998708,119.47111039998708,119.47111039998708,119.47111039998708,119.47111039998708,119.47111039998708,119.47111039998708,23,0,,,119.47111039998708,119.67334290000144,1000,119.67334290000144,1000,1000,1000,1000,0,num_3,0.40054120001150295,,23,12,2026-03-04_14h23.48.446,2026A_exp2,2022.2.4,59.97289226272016,
0,0,4.9,3.7,0,0,25,25,28,,,,,120.10528910002904,120.755875700037,120.755875700037,121.25694099999964,315,315,121.25694099999964,121.25694099999964,121.25694099999964,121.25694099999964,121.25694099999964,121.25694099999964,121.25694099999964,121.25694099999964,121.25694099999964,121.62340320000658,121.62340320000658,121.62340320000658,121.62340320000658,121.62340320000658,121.62340320000658,121.62340320000658,121.62340320000658,121.62340320000658,15,2,"[0.033317800029180944, 0.06681280001066625]","[0.04973440000321716, 0.1834097999962978]",121.62340320000658,121.8236092000152,3.7,121.8236092000152,1,3.7,1,1,1000,num_4,0.7466132999979891,,23,12,2026-03-04_14h23.48.446,2026A_exp2,2022.2.4,59.97289226272016,
1,0,0.0,4.9,0,0,26,26,73,,,,,122.59085540001979,123.24153749999823,123.24153749999823,123.72606760001509,45,315,123.72606760001509,123.72606760001509,123.72606760001509,123.72606760001509,123.72606760001509,123.72606760001509,123.72606760001509,123.72606760001509,123.72606760001509,124.09248049999587,124.09248049999587,124.09248049999587,124.09248049999587,124.09248049999587,124.09248049999587,124.09248049999587,124.09248049999587,124.09248049999587,2,1,[0.0012105999630875885],[0.3506444999948144],124.09248049999587,124.29261370003223,0.0,124.29261370003223,0,0.0,0,1,1000,num_1,0.9967210000031628,,23,12,2026-03-04_14h23.48.446,2026A_exp2,2022.2.4,59.97289226272016,
1000,1,0.0,4.9,0,0,27,27,61,,,,,125.31035200000042,125.96102119999705,125.96102119999705,126.44533850002335,45,45,126.44533850002335,126.44533850002335,126.44533850002335,126.44533850002335,126.44533850002335,126.44533850002335,126.44533850002335,126.44533850002335,126.44533850002335,126.81189860001905,126.81189860001905,126.81189860001905,126.81189860001905,126.81189860001905,126.81189860001905,126.81189860001905,126.81189860001905,126.81189860001905,23,0,,,126.81189860001905,127.01308659999631,1000,127.02882430003956,1000,1000,1000,1000,1,num_2,0.5807346000219695,,23,12,2026-03-04_14h23.48.446,2026A_exp2,2022.2.4,59.97289226272016,
1000,1,6.1,3.7,0,0,28,28,75,,,,,127.6291761000175,128.28013239998836,128.28013239998836,128.78121710004052,45,315,128.78121710004052,128.78121710004052,128.78121710004052,128.78121710004052,128.78121710004052,128.78121710004052,128.78121710004052,128.78121710004052,128.78121710004052,129.147563000035,129.147563000035,129.147563000035,129.147563000035,129.147563000035,129.147563000035,129.147563000035,129.147563000035,129.147563000035,23,0,,,129.147563000035,129.3476956000086,1000,129.3476956000086,1000,1000,1000,1000,0,num_3,0.40578470000764355,,23,12,2026-03-04_14h23.48.446,2026A_exp2,2022.2.4,59.97289226272016,
1,0,0.0,0.0,0,0,29,29,55,,,,,129.78135549998842,130.4320880000014,130.4320880000014,130.93317840003874,315,315,130.93317840003874,130.93317840003874,130.93317840003874,130.93317840003874,130.93317840003874,130.93317840003874,130.93317840003874,130.93317840003874,130.93317840003874,131.2829359000316,131.2829359000316,131.2829359000316,131.2829359000316,131.2829359000316,131.2829359000316,131.2829359000316,131.2829359000316,131.2829359000316,11,3,"[0.0012314000050537288, 0.2168033000198193, 0.2504659999976866]","[0.14994249999290332, 0.2336193000082858, 0.26708329998655245]",131.2829359000316,131.48313870001584,0.0,131.49969349999446,0,0.0,0,1,1000,num_1,0.9584348000353202,,23,12,2026-03-04_14h23.48.446,2026A_exp2,2022.2.4,59.97289226272016,
1,0,3.7,3.7,1,0,30,30,30,,,,,132.4842432999867,133.1349513999885,133.1349513999885,133.61946710001212,45,45,133.61946710001212,133.61946710001212,133.61946710001212,133.61946710001212,133.61946710001212,133.61946710001212,133.61946710001212,133.61946710001212,133.61946710001212,133.98572120000608,133.98572120000608,133.98572120000608,133.98572120000608,133.98572120000608,133.98572120000608,133.98572120000608,133.98572120000608,133.98572120000608,11,3,"[0.0012827999889850616, 0.18355449999216944, 0.23402979999082163]","[0.11676010000519454, 0.21712109999498352, 0.28420339996227995]",133.98572120000608,134.18592519999947,3.7,134.18592519999947,1,3.7,1,1,1000,num_4,0.7038616999634542,,23,12,2026-03-04_14h23.48.446,2026A_exp2,2022.2.4,59.97289226272016,
1000,1,3.7,0.0,0,0,31,31,76,,,,,134.91989620000822,135.570560400025,135.570560400025,136.05513140000403,315,45,136.05513140000403,136.05513140000403,136.05513140000403,136.05513140000403,136.05513140000403,136.05513140000403,136.05513140000403,136.05513140000403,136.05513140000403,136.42176639998797,136.42176639998797,136.42176639998797,136.42176639998797,136.42176639998797,136.42176639998797,136.42176639998797,136.42176639998797,136.42176639998797,23,0,,,136.42176639998797,136.62346590001835,1000,136.62346590001835,1000,1000,1000,1000,0,num_3,0.3947103999671526,,23,12,2026-03-04_14h23.48.446,2026A_exp2,2022.2.4,59.97289226272016,
1000,1,0.0,0.0,1,0,32,32,9,,,,,137.03858320001746,137.68943460000446,137.68943460000446,138.19046529999468,315,315,138.19046529999468,138.19046529999468,138.19046529999468,138.19046529999468,138.19046529999468,138.19046529999468,138.19046529999468,138.19046529999468,138.19046529999468,138.54028539999854,138.54028539999854,138.54028539999854,138.54028539999854,138.54028539999854,138.54028539999854,138.54028539999854,138.54028539999854,138.54028539999854,22,0,,,138.54028539999854,138.74236899998505,1000,138.74236899998505,1000,1000,1000,1000,0,num_3,0.6348075999994762,,23,12,2026-03-04_14h23.48.446,2026A_exp2,2022.2.4,59.97289226272016,
1,0,6.1,0.0,0,0,33,33,47,,,,,139.40786360000493,140.04184530000202,140.04184530000202,140.5427619999973,315,315,140.5427619999973,140.5427619999973,140.5427619999973,140.5427619999973,140.5427619999973,140.5427619999973,140.5427619999973,140.5427619999973,140.5427619999973,140.90931760001695,140.90931760001695,140.90931760001695,140.90931760001695,140.90931760001695,140.90931760001695,140.90931760001695,140.90931760001695,140.90931760001695,23,0,,,140.90931760001695,141.10952810000163,6.1,141.10952810000163,1,6.1,1,1,1000,num_4,0.684596800012514,,23,12,2026-03-04_14h23.48.446,2026A_exp2,2022.2.4,59.97289226272016,
1,0,0.0,0.0,1,0,34,34,39,,,,,141.81007980002323,142.46088490000693,142.46088490000693,142.94524199998705,315,315,142.94524199998705,142.94524199998705,142.94524199998705,142.94524199998705,142.94524199998705,142.94524199998705,142.94524199998705,142.94524199998705,142.94524199998705,143.31161790003534,143.31161790003534,143.31161790003534,143.31161790003534,143.31161790003534,143.31161790003534,143.31161790003534,143.31161790003534,143.31161790003534,23,0,,,143.31161790003534,143.51183610002045,0.0,143.51183610002045,1,0.0,0,0,1000,num_4,0.6899987999931909,,23,12,2026-03-04_14h23.48.446,2026A_exp2,2022.2.4,59.97289226272016,
1000,1,3.7,4.9,0,0,35,35,45,,,,,144.2291469000047,144.8800276000402,144.8800276000402,145.36448340001516,45,315,145.36448340001516,145.36448340001516,145.36448340001516,145.36448340001516,145.36448340001516,145.36448340001516,145.36448340001516,145.36448340001516,145.36448340001516,145.73064490000252,145.73064490000252,145.73064490000252,145.73064490000252,145.73064490000252,145.73064490000252,145.73064490000252,145.73064490000252,145.73064490000252,23,0,,,145.73064490000252,145.93259149999358,1000,145.93259149999358,1000,1000,1000,1000,1,num_2,0.437667699996382,,23,12,2026-03-04_14h23.48.446,2026A_exp2,2022.2.4,59.97289226272016,
1000,1,0.0,4.9,0,0,36,36,60,,,,,146.3979604000342,147.04880140000023,147.04880140000023,147.5497944999952,45,45,147.5497944999952,147.5497944999952,147.5497944999952,147.5497944999952,147.5497944999952,147.5497944999952,147.5497944999952,147.5497944999952,147.5497944999952,147.9163237999892,147.9163237999892,147.9163237999892,147.9163237999892,147.9163237999892,147.9163237999892,147.9163237999892,147.9163237999892,147.9163237999892,23,0,,,147.9163237999892,148.11666160001187,1000,148.11666160001187,1000,1000,1000,1000,1,num_2,0.9651649000006728,,23,12,2026-03-04_14h23.48.446,2026A_exp2,2022.2.4,59.97289226272016,
1000,1,4.9,0.0,0,0,37,37,54,,,,,149.1007698000176,149.75146140001016,149.75146140001016,150.2525544000091,315,315,150.2525544000091,150.2525544000091,150.2525544000091,150.2525544000091,150.2525544000091,150.2525544000091,150.2525544000091,150.2525544000091,150.2525544000091,150.61896920000436,150.61896920000436,150.61896920000436,150.61896920000436,150.61896920000436,150.61896920000436,150.61896920000436,150.61896920000436,150.61896920000436,5,2,"[0.001242399972397834, 0.33379469998180866]","[0.2500887999776751, 0.36718169995583594]",150.61896920000436,150.8211675999919,1000,150.8211675999919,1000,1000,1000,1000,0,num_3,0.5479777000145987,,23,12,2026-03-04_14h23.48.446,2026A_exp2,2022.2.4,59.97289226272016,
1000,1,3.7,6.1,1,0,38,38,58,,,,,151.38627310004085,152.03710389998741,152.03710389998741,152.53812740003923,45,45,152.53812740003923,152.53812740003923,152.53812740003923,152.53812740003923,152.53812740003923,152.53812740003923,152.53812740003923,152.53812740003923,152.53812740003923,152.887775900017,152.887775900017,152.887775900017,152.887775900017,152.887775900017,152.887775900017,152.887775900017,152.887775900017,152.887775900017,20,1,[0.0012385000009089708],[0.017382899997755885],152.887775900017,153.09025390003808,1000,153.1048940999899,1000,1000,1000,1000,1,num_2,0.4332840000279248,,23,12,2026-03-04_14h23.48.446,2026A_exp2,2022.2.4,59.97289226272016,
1000,1,4.9,0.0,1,0,39,39,77,,,,,153.55518060002942,154.20578140002908,154.20578140002908,154.70711840002332,45,315,154.70711840002332,154.70711840002332,154.70711840002332,154.70711840002332,154.70711840002332,154.70711840002332,154.70711840002332,154.70711840002332,154.70711840002332,155.07331930001965,155.07331930001965,155.07331930001965,155.07331930001965,155.07331930001965,155.07331930001965,155.07331930001965,155.07331930001965,155.07331930001965,23,0,,,155.07331930001965,155.27388910000445,1000,155.27388910000445,1000,1000,1000,1000,0,num_3,0.4163814000203274,,23,12,2026-03-04_14h23.48.446,2026A_exp2,2022.2.4,59.97289226272016,
1000,1,4.9,0.0,1,0,40,40,10,,,,,155.7073389000143,156.3579069999978,156.3579069999978,156.85920479998458,45,315,156.85920479998458,156.85920479998458,156.85920479998458,156.85920479998458,156.85920479998458,156.85920479998458,156.85920479998458,156.85920479998458,156.85920479998458,157.2256469000131,157.2256469000131,157.2256469000131,157.2256469000131,157.2256469000131,157.2256469000131,157.2256469000131,157.2256469000131,157.2256469000131,23,0,,,157.2256469000131,157.42750940000406,1000,157.42750940000406,1000,1000,1000,1000,0,num_3,0.35838350001722574,,23,12,2026-03-04_14h23.48.446,2026A_exp2,2022.2.4,59.97289226272016,
1,0,6.1,0.0,0,0,41,41,21,,,,,157.80941139999777,158.4602211000165,158.4602211000165,158.9612405000371,45,45,158.9612405000371,158.9612405000371,158.9612405000371,158.9612405000371,158.9612405000371,158.9612405000371,158.9612405000371,158.9612405000371,158.9612405000371,159.32770800002618,159.32770800002618,159.32770800002618,159.32770800002618,159.32770800002618,159.32770800002618,159.32770800002618,159.32770800002618,159.32770800002618,23,0,,,159.32770800002618,159.52780929999426,6.1,159.52780929999426,1,6.1,1,1,1000,num_4,0.6339394000242464,,23,12,2026-03-04_14h23.48.446,2026A_exp2,2022.2.4,59.97289226272016,
1,0,0.0,0.0,0,0,42,42,88,,,,,160.1786531000398,160.82915340003092,160.82915340003092,161.33026230003452,45,315,161.33026230003452,161.33026230003452,161.33026230003452,161.33026230003452,161.33026230003452,161.33026230003452,161.33026230003452,161.33026230003452,161.33026230003452,161.69681809999747,161.69681809999747,161.69681809999747,161.69681809999747,161.69681809999747,161.69681809999747,161.69681809999747,161.69681809999747,161.69681809999747,23,0,,,161.69681809999747,161.89682080002967,0.0,161.89682080002967,1,0.0,0,0,1000,num_4,0.6409874000237323,,23,12,2026-03-04_14h23.48.446,2026A_exp2,2022.2.4,59.97289226272016,
1,0,6.1,4.9,1,0,43,43,11,,,,,162.5641551000299,163.21499599999515,163.21499599999515,163.71607800002676,315,45,163.71607800002676,163.71607800002676,163.71607800002676,163.71607800002676,163.71607800002676,163.71607800002676,163.71607800002676,163.71607800002676,163.71607800002676,164.06571629998507,164.06571629998507,164.06571629998507,164.06571629998507,164.06571629998507,164.06571629998507,164.06571629998507,164.06571629998507,164.06571629998507,22,0,,,164.06571629998507,164.2660390000092,4.9,164.2660390000092,1,4.9,1,1,1000,num_4,0.6637016999884509,,23,12,2026-03-04_14h23.48.446,2026A_exp2,2022.2.4,59.97289226272016,
1000,1,0.0,0.0,0,0,44,44,7,,,,,164.94984680000925,165.600642000034,165.600642000034,166.10174030001508,315,45,166.10174030001508,166.10174030001508,166.10174030001508,166.10174030001508,166.10174030001508,166.10174030001508,166.10174030001508,166.10174030001508,166.10174030001508,166.45144959999016,166.45144959999016,166.45144959999016,166.45144959999016,166.45144959999016,166.45144959999016,166.45144959999016,166.45144959999016,166.45144959999016,22,0,,,166.45144959999016,166.653809200041,1000,166.66840950003825,1000,1000,1000,1000,0,num_3,0.5257377000525594,,23,12,2026-03-04_14h23.48.446,2026A_exp2,2022.2.4,59.97289226272016,
1000,1,0.0,0.0,0,0,45,45,17,,,,,167.2188645999995,167.86949830001686,167.86949830001686,168.37075030000415,315,315,168.37075030000415,168.37075030000415,168.37075030000415,168.37075030000415,168.37075030000415,168.37075030000415,168.37075030000415,168.37075030000415,168.37075030000415,168.73714500002097,168.73714500002097,168.73714500002097,168.73714500002097,168.73714500002097,168.73714500002097,168.73714500002097,168.73714500002097,168.73714500002097,23,0,,,168.73714500002097,168.93909950001398,1000,168.93909950001398,1000,1000,1000,1000,1,num_2,0.46298559999559075,,23,12,2026-03-04_14h23.48.446,2026A_exp2,2022.2.4,59.97289226272016,
1000,1,6.1,0.0,1,0,46,46,29,,,,,169.42098659998737,170.07177750003757,170.07177750003757,170.57295530004194,45,315,170.57295530004194,170.57295530004194,170.57295530004194,170.57295530004194,170.57295530004194,170.57295530004194,170.57295530004194,170.57295530004194,170.57295530004194,170.93923260003794,170.93923260003794,170.93923260003794,170.93923260003794,170.93923260003794,170.93923260003794,170.93923260003794,170.93923260003794,170.93923260003794,23,0,,,170.93923260003794,171.14122970000608,1000,171.14122970000608,1000,1000,1000,1000,0,num_3,0.3962551999720745,,23,12,2026-03-04_14h23.48.446,2026A_exp2,2022.2.4,59.97289226272016,
1000,1,3.7,0.0,1,0,47,47,19,,,,,171.55651780002518,172.20730609999737,172.20730609999737,172.7083329000161,45,45,172.7083329000161,172.7083329000161,172.7083329000161,172.7083329000161,172.7083329000161,172.7083329000161,172.7083329000161,172.7083329000161,172.7083329000161,173.07468299998436,173.07468299998436,173.07468299998436,173.07468299998436,173.07468299998436,173.07468299998436,173.07468299998436,173.07468299998436,173.07468299998436,23,0,,,173.07468299998436,173.3032593000098,1000,173.3032593000098,1000,1000,1000,1000,1,num_2,0.5067908000200987,,23,12,2026-03-04_14h23.48.446,2026A_exp2,2022.2.4,59.97289226272016,
1000,1,0.0,0.0,1,0,48,48,85,,,,,173.82561629998963,174.47635690000607,174.47635690000607,174.97738250001566,45,45,174.97738250001566,174.97738250001566,174.97738250001566,174.97738250001566,174.97738250001566,174.97738250001566,174.97738250001566,174.97738250001566,174.97738250001566,175.34370279998984,175.34370279998984,175.34370279998984,175.34370279998984,175.34370279998984,175.34370279998984,175.34370279998984,175.34370279998984,175.34370279998984,23,0,,,175.34370279998984,175.54582480003592,1000,175.54582480003592,1000,1000,1000,1000,1,num_2,0.4400117000332102,,23,12,2026-03-04_14h23.48.446,2026A_exp2,2022.2.4,59.97289226272016,
1,0,0.0,4.9,1,0,49,49,37,,,,,176.0112080000108,176.6616856000037,176.6616856000037,177.16292030003387,45,315,177.16292030003387,177.16292030003387,177.16292030003387,177.16292030003387,177.16292030003387,177.16292030003387,177.16292030003387,177.16292030003387,177.16292030003387,177.52933420002228,177.52933420002228,177.52933420002228,177.52933420002228,177.52933420002228,177.52933420002228,177.52933420002228,177.52933420002228,177.52933420002228,23,0,,,177.52933420002228,177.72966940002516,4.9,177.72966940002516,1,4.9,1,1,1000,num_4,0.5916173000005074,,23,12,2026-03-04_14h23.48.446,2026A_exp2,2022.2.4,59.97289226272016,
1,0,6.1,3.7,1,0,50,50,51,,,,,178.34651730000041,178.9974117000238,178.9974117000238,179.48193180002272,315,315,179.48193180002272,179.48193180002272,179.48193180002272,179.48193180002272,179.48193180002272,179.48193180002272,179.48193180002272,179.48193180002272,179.48193180002272,179.848244599998,179.848244599998,179.848244599998,179.848244599998,179.848244599998,179.848244599998,179.848244599998,179.848244599998,179.848244599998,2,3,"[0.0010914999875240028, 0.1505293999798596, 0.3503619999974035]","[0.1170684999669902, 0.3334564999677241, 0.36704089998966083]",179.848244599998,180.04861739999615,3.7,180.04861739999615,1,3.7,1,1,1000,num_4,0.5616835000109859,,23,12,2026-03-04_14h23.48.446,2026A_exp2,2022.2.4,59.97289226272016,
1,0,6.1,0.0,0,0,51,51,82,,,,,180.6321486000088,181.28301800001645,181.28301800001645,181.76745510002365,45,45,181.76745510002365,181.76745510002365,181.76745510002365,181.76745510002365,181.76745510002365,181.76745510002365,181.76745510002365,181.76745510002365,181.76745510002365,182.13387419999344,182.13387419999344,182.13387419999344,182.13387419999344,182.13387419999344,182.13387419999344,182.13387419999344,182.13387419999344,182.13387419999344,1,1,[0.0012010999489575624],[0.3669396999757737],182.13387419999344,182.33398110000417,6.1,182.33398110000417,1,6.1,1,1,1000,num_4,0.523239400004968,,23,12,2026-03-04_14h23.48.446,2026A_exp2,2022.2.4,59.97289226272016,
1000,1,0.0,3.7,1,0,52,52,13,,,,,182.88452800002415,183.53523989999667,183.53523989999667,184.0197248000186,315,315,184.0197248000186,184.0197248000186,184.0197248000186,184.0197248000186,184.0197248000186,184.0197248000186,184.0197248000186,184.0197248000186,184.0197248000186,184.38603580003837,184.38603580003837,184.38603580003837,184.38603580003837,184.38603580003837,184.38603580003837,184.38603580003837,184.38603580003837,184.38603580003837,23,0,,,184.38603580003837,184.58803520002402,1000,184.58803520002402,1000,1000,1000,1000,1,num_2,0.4538683999562636,,23,12,2026-03-04_14h23.48.446,2026A_exp2,2022.2.4,59.97289226272016,
1,0,0.0,3.7,1,0,53,53,14,,,,,185.07000290002907,185.72078500001226,185.72078500001226,186.22195179999107,45,45,186.22195179999107,186.22195179999107,186.22195179999107,186.22195179999107,186.22195179999107,186.22195179999107,186.22195179999107,186.22195179999107,186.22195179999107,186.58822340000188,186.58822340000188,186.58822340000188,186.58822340000188,186.58822340000188,186.58822340000188,186.58822340000188,186.58822340000188,186.58822340000188,23,0,,,186.58822340000188,186.7884457000182,3.7,186.7884457000182,1,3.7,1,1,1000,num_4,0.7006517999689095,,23,12,2026-03-04_14h23.48.446,2026A_exp2,2022.2.4,59.97289226272016,
1000,1,0.0,4.9,0,0,54,54,26,,,,,187.50583490001736,188.15037139999913,188.15037139999913,188.6410615000059,45,45,188.6410615000059,188.6410615000059,188.6410615000059,188.6410615000059,188.6410615000059,188.6410615000059,188.6410615000059,188.6410615000059,188.6410615000059,189.00740260002203,189.00740260002203,189.00740260002203,189.00740260002203,189.00740260002203,189.00740260002203,189.00740260002203,189.00740260002203,189.00740260002203,23,0,,,189.00740260002203,189.20939309999812,1000,189.20939309999812,1000,1000,1000,1000,1,num_2,0.425146900000982,,23,12,2026-03-04_14h23.48.446,2026A_exp2,2022.2.4,59.97289226272016,
1,0,0.0,3.7,1,0,55,55,35,,,,,189.6580238000024,190.30857560003642,190.30857560003642,190.8097109000082,45,315,190.8097109000082,190.8097109000082,190.8097109000082,190.8097109000082,190.8097109000082,190.8097109000082,190.8097109000082,190.8097109000082,190.8097109000082,191.17627960001118,191.17627960001118,191.17627960001118,191.17627960001118,191.17627960001118,191.17627960001118,191.17627960001118,191.17627960001118,191.17627960001118,22,1,[0.25045780005166307],[0.26729000004706904],191.17627960001118,191.37642520002555,3.7,191.37642520002555,1,3.7,1,1,1000,num_4,0.49702990002697334,,23,12,2026-03-04_14h23.48.446,2026A_exp2,2022.2.4,59.97289226272016,
1000,1,4.9,3.7,0,0,56,56,40,,,,,191.89344130002428,192.5443480000249,192.5443480000249,193.02873369998997,315,45,193.02873369998997,193.02873369998997,193.02873369998997,193.02873369998997,193.02873369998997,193.02873369998997,193.02873369998997,193.02873369998997,193.02873369998997,193.39511770004174,193.39511770004174,193.39511770004174,193.39511770004174,193.39511770004174,193.39511770004174,193.39511770004174,193.39511770004174,193.39511770004174,23,0,,,193.39511770004174,193.6131920000189,1000,193.6131920000189,1000,1000,1000,1000,0,num_3,0.49289169994881377,,23,12,2026-03-04_14h23.48.446,2026A_exp2,2022.2.4,59.97289226272016,
1,0,3.7,4.9,1,0,57,57,20,,,,,194.12910060002469,194.7797533000121,194.7797533000121,195.28090190002695,315,315,195.28090190002695,195.28090190002695,195.28090190002695,195.28090190002695,195.28090190002695,195.28090190002695,195.28090190002695,195.28090190002695,195.28090190002695,195.6472026000265,195.6472026000265,195.6472026000265,195.6472026000265,195.6472026000265,195.6472026000265,195.6472026000265,195.6472026000265,195.6472026000265,23,0,,,195.6472026000265,195.84764039999573,4.9,195.84764039999573,1,4.9,1,1,1000,num_4,0.4819780999678187,,23,12,2026-03-04_14h23.48.446,2026A_exp2,2022.2.4,59.97289226272016,
1000,1,6.1,0.0,1,0,58,58,25,,,,,196.34814590000315,196.99875229998725,196.99875229998725,197.4832017000299,45,315,197.4832017000299,197.4832017000299,197.4832017000299,197.4832017000299,197.4832017000299,197.4832017000299,197.4832017000299,197.4832017000299,197.4832017000299,197.8496598000056,197.8496598000056,197.8496598000056,197.8496598000056,197.8496598000056,197.8496598000056,197.8496598000056,197.8496598000056,197.8496598000056,23,0,,,197.8496598000056,198.0517039000406,1000,198.0517039000406,1000,1000,1000,1000,0,num_3,0.36580950004281476,,23,12,2026-03-04_14h23.48.446,2026A_exp2,2022.2.4,59.97289226272016,
1000,1,3.7,3.7,0,0,59,59,72,,,,,198.43355190003058,199.08432480000192,199.08432480000192,199.58516560000135,45,45,199.58516560000135,199.58516560000135,199.58516560000135,199.58516560000135,199.58516560000135,199.58516560000135,199.58516560000135,199.58516560000135,199.58516560000135,199.95177149999654,199.95177149999654,199.95177149999654,199.95177149999654,199.95177149999654,199.95177149999654,199.95177149999654,199.95177149999654,199.95177149999654,23,0,,,199.95177149999654,200.153588199988,1000,200.153588199988,1000,1000,1000,1000,0,num_3,0.3928666000138037,,23,12,2026-03-04_14h23.48.446,2026A_exp2,2022.2.4,59.97289226272016,
0,0,4.9,0.0,1,0,60,60,67,,,,,200.56889659998706,201.2195972999907,201.2195972999907,201.72061760001816,45,315,201.72061760001816,201.72061760001816,201.72061760001816,201.72061760001816,201.72061760001816,201.72061760001816,201.72061760001816,201.72061760001816,201.72061760001816,202.08709250000538,202.08709250000538,202.08709250000538,202.08709250000538,202.08709250000538,202.08709250000538,202.08709250000538,202.08709250000538,202.08709250000538,23,0,,,202.08709250000538,202.2873831000179,4.9,202.2873831000179,1,4.9,1,1,1000,num_4,0.5141469000373036,,23,12,2026-03-04_14h23.48.446,2026A_exp2,2022.2.4,59.97289226272016,
1,0,4.9,3.7,1,0,61,61,27,,,,,202.82106129999738,203.47192660003202,203.47192660003202,203.95624920004047,315,45,203.95624920004047,203.95624920004047,203.95624920004047,203.95624920004047,203.95624920004047,203.95624920004047,203.95624920004047,203.95624920004047,203.95624920004047,204.32272729999386,204.32272729999386,204.32272729999386,204.32272729999386,204.32272729999386,204.32272729999386,204.32272729999386,204.32272729999386,204.32272729999386,23,0,,,204.32272729999386,204.52299110003514,3.7,204.52299110003514,1,3.7,1,1,1000,num_4,1.06233709998196,,23,12,2026-03-04_14h23.48.446,2026A_exp2,2022.2.4,59.97289226272016,
1000,1,6.1,6.1,1,0,62,62,4,,,,,205.60723580000922,206.25781260000076,206.25781260000076,206.74247659998946,315,315,206.74247659998946,206.74247659998946,206.74247659998946,206.74247659998946,206.74247659998946,206.74247659998946,206.74247659998946,206.74247659998946,206.74247659998946,207.10884370002896,207.10884370002896,207.10884370002896,207.10884370002896,207.10884370002896,207.10884370002896,207.10884370002896,207.10884370002896,207.10884370002896,23,0,,,207.10884370002896,207.31084290001309,1000,207.31084290001309,1000,1000,1000,1000,1,num_2,0.48238170001422986,,23,12,2026-03-04_14h23.48.446,2026A_exp2,2022.2.4,59.97289226272016,
0,0,0.0,3.7,0,0,63,63,34,,,,,207.80946580000455,208.46021420002216,208.46021420002216,208.96872950001853,45,45,208.96872950001853,208.96872950001853,208.96872950001853,208.96872950001853,208.96872950001853,208.96872950001853,208.96872950001853,208.96872950001853,208.96872950001853,209.32760449999478,209.32760449999478,209.32760449999478,209.32760449999478,209.32760449999478,209.32760449999478,209.32760449999478,209.32760449999478,209.32760449999478,23,0,,,209.32760449999478,209.5279140000348,3.7,209.5279140000348,1,3.7,1,1,1000,num_4,0.5691322000348009,,23,12,2026-03-04_14h23.48.446,2026A_exp2,2022.2.4,59.97289226272016,
1000,1,6.1,0.0,0,0,64,64,81,,,,,210.12836670002434,210.77911589998985,210.77911589998985,211.26364640000975,315,315,211.26364640000975,211.26364640000975,211.26364640000975,211.26364640000975,211.26364640000975,211.26364640000975,211.26364640000975,211.26364640000975,211.26364640000975,211.6299594999873,211.6299594999873,211.6299594999873,211.6299594999873,211.6299594999873,211.6299594999873,211.6299594999873,211.6299594999873,211.6299594999873,23,0,,,211.6299594999873,211.83245720004197,1000,211.83245720004197,1000,1000,1000,1000,0,num_3,0.4888400000054389,,23,12,2026-03-04_14h23.48.446,2026A_exp2,2022.2.4,59.97289226272016,
1,0,0.0,6.1,1,0,65,65,50,,,,,212.34727560001193,212.99807100003818,212.99807100003818,213.49902759998804,315,45,213.49902759998804,213.49902759998804,213.49902759998804,213.49902759998804,213.49902759998804,213.49902759998804,213.49902759998804,213.49902759998804,213.49902759998804,213.86562619998585,213.86562619998585,213.86562619998585,213.86562619998585,213.86562619998585,213.86562619998585,213.86562619998585,213.86562619998585,213.86562619998585,23,0,,,213.86562619998585,214.06579660001444,6.1,214.06579660001444,1,6.1,1,1,1000,num_4,0.48724220000440255,,23,12,2026-03-04_14h23.48.446,2026A_exp2,2022.2.4,59.97289226272016,
1000,1,0.0,0.0,1,0,66,66,1,,,,,214.58326139999554,215.23360690003028,215.23360690003028,215.71806370001286,45,45,215.71806370001286,215.71806370001286,215.71806370001286,215.71806370001286,215.71806370001286,215.71806370001286,215.71806370001286,215.71806370001286,215.71806370001286,216.08445700001903,216.08445700001903,216.08445700001903,216.08445700001903,216.08445700001903,216.08445700001903,216.08445700001903,216.08445700001903,216.08445700001903,23,0,,,216.08445700001903,216.2864499000134,1000,216.2864499000134,1000,1000,1000,1000,1,num_2,0.683251999958884,,23,12,2026-03-04_14h23.48.446,2026A_exp2,2022.2.4,59.97289226272016,
1,0,4.9,3.7,0,0,67,67,44,,,,,216.98570860002656,217.6359190000221,217.6359190000221,218.1372085000039,315,315,218.1372085000039,218.1372085000039,218.1372085000039,218.1372085000039,218.1372085000039,218.1372085000039,218.1372085000039,218.1372085000039,218.1372085000039,218.50352550001116,218.50352550001116,218.50352550001116,218.50352550001116,218.50352550001116,218.50352550001116,218.50352550001116,218.50352550001116,218.50352550001116,23,0,,,218.50352550001116,218.7037593999994,4.9,218.7037593999994,1,4.9,1,1,1000,num_4,0.9373345000203699,,23,12,2026-03-04_14h23.48.446,2026A_exp2,2022.2.4,59.97289226272016,
1,0,0.0,6.1,1,0,68,68,31,,,,,219.67121300002327,220.32191729999613,220.32191729999613,220.82318579999264,315,315,220.82318579999264,220.82318579999264,220.82318579999264,220.82318579999264,220.82318579999264,220.82318579999264,220.82318579999264,220.82318579999264,220.82318579999264,221.1727516000392,221.1727516000392,221.1727516000392,221.1727516000392,221.1727516000392,221.1727516000392,221.1727516000392,221.1727516000392,221.1727516000392,22,0,,,221.1727516000392,221.3731152000255,6.1,221.3731152000255,1,6.1,1,1,1000,num_4,0.4843224000069313,,23,12,2026-03-04_14h23.48.446,2026A_exp2,2022.2.4,59.97289226272016,
1,0,3.7,0.0,0,0,69,69,87,,,,,221.87345970002934,222.52419590001227,222.52419590001227,223.00872069998877,45,315,223.00872069998877,223.00872069998877,223.00872069998877,223.00872069998877,223.00872069998877,223.00872069998877,223.00872069998877,223.00872069998877,223.00872069998877,223.3750642000232,223.3750642000232,223.3750642000232,223.3750642000232,223.3750642000232,223.3750642000232,223.3750642000232,223.3750642000232,223.3750642000232,23,0,,,223.3750642000232,223.57524570001988,3.7,223.57524570001988,1,3.7,1,1,1000,num_4,0.5464625000022352,,23,12,2026-03-04_14h23.48.446,2026A_exp2,2022.2.4,59.97289226272016,
1000,1,0.0,3.7,0,0,70,70,46,,,,,224.1424066000036,224.79325859999517,224.79325859999517,225.2775857000379,315,45,225.2775857000379,225.2775857000379,225.2775857000379,225.2775857000379,225.2775857000379,225.2775857000379,225.2775857000379,225.2775857000379,225.2775857000379,225.64407179999398,225.64407179999398,225.64407179999398,225.64407179999398,225.64407179999398,225.64407179999398,225.64407179999398,225.64407179999398,225.64407179999398,23,0,,,225.64407179999398,225.8461148000206,1000,225.8461148000206,1000,1000,1000,1000,0,num_3,2.227141199982725,,23,12,2026-03-04_14h23.48.446,2026A_exp2,2022.2.4,59.97289226272016,
0,0,6.1,4.9,0,0,71,71,22,,,,,228.09653020004043,228.74713169998722,228.74713169998722,229.2315760999918,315,315,229.2315760999918,229.2315760999918,229.2315760999918,229.2315760999918,229.2315760999918,229.2315760999918,229.2315760999918,229.2315760999918,229.2315760999918,229.59800460003316,229.59800460003316,229.59800460003316,229.59800460003316,229.59800460003316,229.59800460003316,229.59800460003316,229.59800460003316,229.59800460003316,23,0,,,229.59800460003316,229.7982144000125,4.9,229.7982144000125,1,4.9,1,1,1000,num_4,0.5631125000072643,,23,12,2026-03-04_14h23.48.446,2026A_exp2,2022.2.4,59.97289226272016,
1,0,0.0,4.9,0,0,72,72,3,,,,,230.38192780001555,231.0327632999979,231.0327632999979,231.51704170001904,45,45,231.51704170001904,231.51704170001904,231.51704170001904,231.51704170001904,231.51704170001904,231.51704170001904,231.51704170001904,231.51704170001904,231.51704170001904,231.88393890002044,231.88393890002044,231.88393890002044,231.88393890002044,231.88393890002044,231.88393890002044,231.88393890002044,231.88393890002044,231.88393890002044,23,0,,,231.88393890002044,232.08379820000846,0.0,232.08379820000846,0,0.0,0,1,1000,num_1,0.7332965999958105,,23,12,2026-03-04_14h23.48.446,2026A_exp2,2022.2.4,59.97289226272016,
1,0,0.0,6.1,0,0,73,73,0,,,,,232.83460000000196,233.4852055000374,233.4852055000374,233.96955820004223,315,315,233.96955820004223,233.96955820004223,233.96955820004223,233.96955820004223,233.96955820004223,233.96955820004223,233.96955820004223,233.96955820004223,233.96955820004223,234.33611530001508,234.33611530001508,234.33611530001508,234.33611530001508,234.33611530001508,234.33611530001508,234.33611530001508,234.33611530001508,234.33611530001508,23,0,,,234.33611530001508,234.5361789999879,0.0,234.5361789999879,0,0.0,0,1,1000,num_1,0.5852582000079565,,23,12,2026-03-04_14h23.48.446,2026A_exp2,2022.2.4,59.97289226272016,
1000,1,0.0,6.1,1,0,74,74,43,,,,,235.15362580004148,235.80440269998508,235.80440269998508,236.28866000002017,45,315,236.28866000002017,236.28866000002017,236.28866000002017,236.28866000002017,236.28866000002017,236.28866000002017,236.28866000002017,236.28866000002017,236.28866000002017,236.65503249998437,236.65503249998437,236.65503249998437,236.65503249998437,236.65503249998437,236.65503249998437,236.65503249998437,236.65503249998437,236.65503249998437,23,0,,,236.65503249998437,236.8570793000399,1000,236.8570793000399,1000,1000,1000,1000,1,num_2,0.6732920999638736,,23,12,2026-03-04_14h23.48.446,2026A_exp2,2022.2.4,59.97289226272016,
1000,1,0.0,0.0,0,0,75,75,86,,,,,237.55582400003914,238.2065952999983,238.2065952999983,238.7076527000172,45,45,238.7076527000172,238.7076527000172,238.7076527000172,238.7076527000172,238.7076527000172,238.7076527000172,238.7076527000172,238.7076527000172,238.7076527000172,239.07396890001837,239.07396890001837,239.07396890001837,239.07396890001837,239.07396890001837,239.07396890001837,239.07396890001837,239.07396890001837,239.07396890001837,3,3,"[0.017394400027114898, 0.08358650002628565, 0.16706420003902167]","[0.06688520003808662, 0.15037049999227747, 0.3672716000000946]",239.07396890001837,239.27629390003858,1000,239.27629390003858,1000,1000,1000,1000,0,num_3,0.46168690000195056,,23,12,2026-03-04_14h23.48.446,2026A_exp2,2022.2.4,59.97289226272016,
1000,1,0.0,6.1,1,0,76,76,71,,,,,239.7580650000018,240.4088282000157,240.4088282000157,240.90996339998674,45,315,240.90996339998674,240.90996339998674,240.90996339998674,240.90996339998674,240.90996339998674,240.90996339998674,240.90996339998674,240.90996339998674,240.90996339998674,241.27654990000883,241.27654990000883,241.27654990000883,241.27654990000883,241.27654990000883,241.27654990000883,241.27654990000883,241.27654990000883,241.27654990000883,23,0,,,241.27654990000883,241.47877440002048,1000,241.47877440002048,1000,1000,1000,1000,1,num_2,0.4344865999883041,,23,12,2026-03-04_14h23.48.446,2026A_exp2,2022.2.4,59.97289226272016,
1,0,0.0,0.0,0,0,77,77,79,,,,,241.94372849998763,242.59432600002037,242.59432600002037,243.09549129998777,315,45,243.09549129998777,243.09549129998777,243.09549129998777,243.09549129998777,243.09549129998777,243.09549129998777,243.09549129998777,243.09549129998777,243.09549129998777,243.4618472000002,243.4618472000002,243.4618472000002,243.4618472000002,243.4618472000002,243.4618472000002,243.4618472000002,243.4618472000002,243.4618472000002,23,0,,,243.4618472000002,243.67407300003106,0.0,243.67407300003106,0,0.0,0,1,1000,num_1,0.9522941000177525,,23,12,2026-03-04_14h23.48.446,2026A_exp2,2022.2.4,59.97289226272016,
1000,1,4.9,4.9,1,0,78,78,68,,,,,244.648256400018,245.2970323000336,245.2970323000336,245.79805520002265,45,45,245.79805520002265,245.79805520002265,245.79805520002265,245.79805520002265,245.79805520002265,245.79805520002265,245.79805520002265,245.79805520002265,245.79805520002265,246.16443180001806,246.16443180001806,246.16443180001806,246.16443180001806,246.16443180001806,246.16443180001806,246.16443180001806,246.16443180001806,246.16443180001806,23,0,,,246.16443180001806,246.36659260001034,1000,246.36659260001034,1000,1000,1000,1000,0,num_3,0.6759406999917701,,23,12,2026-03-04_14h23.48.446,2026A_exp2,2022.2.4,59.97289226272016,
1,0,3.7,4.9,1,0,79,79,18,,,,,247.06532390002394,247.71675449999748,247.71675449999748,248.21711730002426,315,315,248.21711730002426,248.21711730002426,248.21711730002426,248.21711730002426,248.21711730002426,248.21711730002426,248.21711730002426,248.21711730002426,248.21711730002426,248.5834598999936,248.5834598999936,248.5834598999936,248.5834598999936,248.5834598999936,248.5834598999936,248.5834598999936,248.5834598999936,248.5834598999936,17,2,"[0.0007086999830789864, 0.10065410000970587]","[0.06738530000438914, 0.13410640001529828]",248.5834598999936,248.7836973000085,4.9,248.7836973000085,1,4.9,1,1,1000,num_4,1.6502739999559708,,23,12,2026-03-04_14h23.48.446,2026A_exp2,2022.2.4,59.97289226272016,
1,0,0.0,6.1,1,0,80,80,36,,,,,250.45222400000785,251.1027686999878,251.1027686999878,251.58719530003145,45,45,251.58719530003145,251.58719530003145,251.58719530003145,251.58719530003145,251.58719530003145,251.58719530003145,251.58719530003145,251.58719530003145,251.58719530003145,251.95374060003087,251.95374060003087,251.95374060003087,251.95374060003087,251.95374060003087,251.95374060003087,251.95374060003087,251.95374060003087,251.95374060003087,23,0,,,251.95374060003087,252.1539388000383,6.1,252.1539388000383,1,6.1,1,1,1000,num_4,0.5756785999983549,,23,12,2026-03-04_14h23.48.446,2026A_exp2,2022.2.4,59.97289226272016,
1,0,3.7,0.0,1,0,81,81,12,,,,,252.75453480001306,253.40509850002127,253.40509850002127,253.88923820003401,45,315,253.88923820003401,253.88923820003401,253.88923820003401,253.88923820003401,253.88923820003401,253.88923820003401,253.88923820003401,253.88923820003401,253.88923820003401,254.25601499999175,254.25601499999175,254.25601499999175,254.25601499999175,254.25601499999175,254.25601499999175,254.25601499999175,254.25601499999175,254.25601499999175,23,0,,,254.25601499999175,254.45623200002592,0.0,254.45623200002592,1,0.0,0,0,1000,num_4,0.48094030003994703,,23,12,2026-03-04_14h23.48.446,2026A_exp2,2022.2.4,59.97289226272016,
0,0,6.1,0.0,0,0,82,82,74,,,,,254.95658370002639,255.6073871999979,255.6073871999979,256.0916778999963,315,315,256.0916778999963,256.0916778999963,256.0916778999963,256.0916778999963,256.0916778999963,256.0916778999963,256.0916778999963,256.0916778999963,256.0916778999963,256.45806630002335,256.45806630002335,256.45806630002335,256.45806630002335,256.45806630002335,256.45806630002335,256.45806630002335,256.45806630002335,256.45806630002335,23,0,,,256.45806630002335,256.65844279999146,0.0,256.65844279999146,0,0.0,0,1,1000,num_1,0.654845800017938,,23,12,2026-03-04_14h23.48.446,2026A_exp2,2022.2.4,59.97289226272016,
1,0,3.7,6.1,0,0,83,83,52,,,,,257.3422779000248,257.9929198999889,257.9929198999889,258.4776512000244,45,315,258.4776512000244,258.4776512000244,258.4776512000244,258.4776512000244,258.4776512000244,258.4776512000244,258.4776512000244,258.4776512000244,258.4776512000244,258.8439034000039,258.8439034000039,258.8439034000039,258.8439034000039,258.8439034000039,258.8439034000039,258.8439034000039,258.8439034000039,258.8439034000039,23,0,,,258.8439034000039,259.0439827000373,3.7,259.0439827000373,0,3.7,1,0,1000,num_1,0.6065411000163294,,23,12,2026-03-04_14h23.48.446,2026A_exp2,2022.2.4,59.97289226272016,
1,0,4.9,0.0,1,0,84,84,65,,,,,259.67794510000385,260.33583930000896,260.33583930000896,260.8286511999904,45,45,260.8286511999904,260.8286511999904,260.8286511999904,260.8286511999904,260.8286511999904,260.8286511999904,260.8286511999904,260.8286511999904,260.8286511999904,261.1796076000319,261.1796076000319,261.1796076000319,261.1796076000319,261.1796076000319,261.1796076000319,261.1796076000319,261.1796076000319,261.1796076000319,23,0,,,261.1796076000319,261.37978860002477,0.0,261.37978860002477,0,0.0,0,1,1000,num_1,0.5505545000196435,,23,12,2026-03-04_14h23.48.446,2026A_exp2,2022.2.4,59.97289226272016,
1000,1,4.9,0.0,0,0,85,85,41,,,,,261.94853920000605,262.59765360003803,262.59765360003803,263.09864939999534,45,315,263.09864939999534,263.09864939999534,263.09864939999534,263.09864939999534,263.09864939999534,263.09864939999534,263.09864939999534,263.09864939999534,263.09864939999534,263.46506200003205,263.46506200003205,263.46506200003205,263.46506200003205,263.46506200003205,263.46506200003205,263.46506200003205,263.46506200003205,263.46506200003205,23,0,,,263.46506200003205,263.66763570002513,1000,263.66763570002513,1000,1000,1000,1000,0,num_3,0.6708066999563016,,23,12,2026-03-04_14h23.48.446,2026A_exp2,2022.2.4,59.97289226272016,
1000,1,0.0,4.9,0,0,86,86,6,,,,,264.36614210001426,265.0166847000364,265.0166847000364,265.5179906000267,315,315,265.5179906000267,265.5179906000267,265.5179906000267,265.5179906000267,265.5179906000267,265.5179906000267,265.5179906000267,265.5179906000267,265.5179906000267,265.8676824999857,265.8676824999857,265.8676824999857,265.8676824999857,265.8676824999857,265.8676824999857,265.8676824999857,265.8676824999857,265.8676824999857,22,0,,,265.8676824999857,266.06986280001,1000,266.08449580002343,1000,1000,1000,1000,1,num_2,0.8211295999935828,,23,12,2026-03-04_14h23.48.446,2026A_exp2,2022.2.4,59.97289226272016,
1,0,0.0,6.1,1,0,87,87,33,,,,,266.93549730000086,267.5859478000202,267.5859478000202,268.0869934000075,315,45,268.0869934000075,268.0869934000075,268.0869934000075,268.0869934000075,268.0869934000075,268.0869934000075,268.0869934000075,268.0869934000075,268.0869934000075,268.45382960001007,268.45382960001007,268.45382960001007,268.45382960001007,268.45382960001007,268.45382960001007,268.45382960001007,268.45382960001007,268.45382960001007,8,1,[0.001269899948965758],[0.2496011999901384],268.45382960001007,268.6537584000034,6.1,268.6537584000034,1,6.1,1,1,1000,num_4,0.7317408999660984,,23,12,2026-03-04_14h23.48.446,2026A_exp2,2022.2.4,59.97289226272016,
1000,1,6.1,6.1,1,0,88,88,8,,,,,269.404291999992,270.0550476000062,270.0550476000062,270.5563986999914,315,45,270.5563986999914,270.5563986999914,270.5563986999914,270.5563986999914,270.5563986999914,270.5563986999914,270.5563986999914,270.5563986999914,270.5563986999914,270.90596990002086,270.90596990002086,270.90596990002086,270.90596990002086,270.90596990002086,270.90596990002086,270.90596990002086,270.90596990002086,270.90596990002086,22,0,,,270.90596990002086,271.1081658999901,1000,271.1081658999901,1000,1000,1000,1000,1,num_2,0.6378994000260718,,23,12,2026-03-04_14h23.48.446,2026A_exp2,2022.2.4,59.97289226272016,
1000,1,3.7,6.1,1,0,89,89,48,,,,,271.7733487000223,272.42401630000677,272.42401630000677,272.9251342000207,315,315,272.9251342000207,272.9251342000207,272.9251342000207,272.9251342000207,272.9251342000207,272.9251342000207,272.9251342000207,272.9251342000207,272.9251342000207,273.274991400016,273.274991400016,273.274991400016,273.274991400016,273.274991400016,273.274991400016,273.274991400016,273.274991400016,273.274991400016,22,0,,,273.274991400016,273.47732689999975,1000,273.47732689999975,1000,1000,1000,1000,1,num_2,0.44376990001183003,,23,12,2026-03-04_14h23.48.446,2026A_exp2,2022.2.4,59.97289226272016,
,,,,,,,,,,,,,,,,,,,,,,,,,,,,,,,,,,,,,,,,,,,,,,,,,,,,273.9520150999888,,,,,,,
