validity,detectorcomp,contrastCW,contrastCCW,precueCWorCCW,block_80trials.thisRepN,block_80trials.thisTrialN,block_80trials.thisN,block_80trials.thisIndex,etRecord.started,etRecord.stopped,text.started,text.stopped,text_4.started,text_4.stopped,text_6.started,text_6.stopped,oriCW,oriCCW,roi_2.started,grating_UR.started,grating_UL.started,grating_LR.started,grating_LL.started,noise_UR.started,noise_UL.started,noise_LR.started,noise_LL.started,roi_2.stopped,grating_UR.stopped,grating_UL.stopped,grating_LR.stopped,grating_LL.stopped,noise_UR.stopped,noise_UL.stopped,noise_LR.stopped,noise_LL.stopped,outframe,roi_2.numLooks,roi_2.timesOn,roi_2.timesOff,text_2.started,text_2.stopped,probedcontrast,key_resp.started,respdetect,relevantContrast,correctDetect,TorFdetect,respCWorCCW,key_resp.keys,key_resp.rt,feedback_display_.started,participantNo,blockNo,date,expName,psychopyVersion,frameRate,
1,0,0.0,3.7,0,0,0,0,61,3.649998689070344e-05,3.649998689070344e-05,73.85578189999796,75.86240679997718,75.86240679997718,76.49346009996952,76.49346009996952,77.01260219997494,45,45,77.01260219997494,77.01260219997494,77.01260219997494,77.01260219997494,77.01260219997494,77.01260219997494,77.01260219997494,77.01260219997494,77.01260219997494,77.36107039998751,77.36107039998751,77.36107039998751,77.36107039998751,77.36107039998751,77.36107039998751,77.36107039998751,77.36107039998751,77.36107039998751,1,2,"[0.0009582999628037214, 0.28424029995221645]","[0.26775080000516027, 0.36787509999703616]",77.36107039998751,77.56112139998004,0.0,77.56112139998004,1,0.0,0,0,1000,num_4,0.8286217000568286,,22,2,2026-03-04_10h27.52.936,2026A_exp2,2022.2.4,59.916368730457975,
1000,1,4.9,0.0,1,0,1,1,22,,,,,78.41204729996389,79.06270680000307,79.06270680000307,79.54709459998412,315,45,79.54709459998412,79.54709459998412,79.54709459998412,79.54709459998412,79.54709459998412,79.54709459998412,79.54709459998412,79.54709459998412,79.54709459998412,79.91365429997677,79.91365429997677,79.91365429997677,79.91365429997677,79.91365429997677,79.91365429997677,79.91365429997677,79.91365429997677,79.91365429997677,23,0,,,79.91365429997677,80.11884999996983,1000,80.11884999996983,1000,1000,1000,1000,1,num_2,0.5427558999508619,,22,2,2026-03-04_10h27.52.936,2026A_exp2,2022.2.4,59.916368730457975,
1000,1,4.9,3.7,0,0,2,2,32,,,,,80.68097709998256,81.33730029995786,81.33730029995786,81.84310459997505,315,45,81.84310459997505,81.84310459997505,81.84310459997505,81.84310459997505,81.84310459997505,81.84310459997505,81.84310459997505,81.84310459997505,81.84310459997505,82.19925259996671,82.19925259996671,82.19925259996671,82.19925259996671,82.19925259996671,82.19925259996671,82.19925259996671,82.19925259996671,82.19925259996671,23,0,,,82.19925259996671,82.40129339997657,1000,82.40129339997657,1000,1000,1000,1000,0,num_3,0.700542000005953,,22,2,2026-03-04_10h27.52.936,2026A_exp2,2022.2.4,59.916368730457975,
1000,1,3.7,4.9,1,0,3,3,44,,,,,83.13348149997182,83.78419679997023,83.78419679997023,84.28518449998228,315,315,84.28518449998228,84.28518449998228,84.28518449998228,84.28518449998228,84.28518449998228,84.28518449998228,84.28518449998228,84.28518449998228,84.28518449998228,84.63499559997581,84.63499559997581,84.63499559997581,84.63499559997581,84.63499559997581,84.63499559997581,84.63499559997581,84.63499559997581,84.63499559997581,11,1,[0.0012258000206202269],[0.1838215999887325],84.63499559997581,84.83553029998438,1000,84.83553029998438,1000,1000,1000,1000,1,num_2,1.5371939000324346,,22,2,2026-03-04_10h27.52.936,2026A_exp2,2022.2.4,59.916368730457975,
0,0,0.0,0.0,1,0,4,4,71,,,,,86.4033691000077,87.05395889998181,87.05395889998181,87.55519889999414,315,45,87.55519889999414,87.55519889999414,87.55519889999414,87.55519889999414,87.55519889999414,87.55519889999414,87.55519889999414,87.55519889999414,87.55519889999414,87.90494089998538,87.90494089998538,87.90494089998538,87.90494089998538,87.90494089998538,87.90494089998538,87.90494089998538,87.90494089998538,87.90494089998538,22,0,,,87.90494089998538,88.10512199997902,0.0,88.12178859999403,0,0.0,0,1,1000,num_1,1.8918701999937184,,22,2,2026-03-04_10h27.52.936,2026A_exp2,2022.2.4,59.916368730457975,
1,0,0.0,6.1,0,0,5,5,60,,,,,90.04030529997544,90.67485979996854,90.67485979996854,91.17967899999348,315,315,91.17967899999348,91.17967899999348,91.17967899999348,91.17967899999348,91.17967899999348,91.17967899999348,91.17967899999348,91.17967899999348,91.17967899999348,91.54198879998876,91.54198879998876,91.54198879998876,91.54198879998876,91.54198879998876,91.54198879998876,91.54198879998876,91.54198879998876,91.54198879998876,13,1,[0.0023864000104367733],[0.16702400002395734],91.54198879998876,91.74490399996284,0.0,91.74490399996284,1,0.0,0,0,1000,num_4,1.836486199987121,,22,2,2026-03-04_10h27.52.936,2026A_exp2,2022.2.4,59.916368730457975,
1,0,0.0,0.0,0,0,6,6,29,,,,,93.6104556999635,94.26122290000785,94.26122290000785,94.74573129997589,315,45,94.74573129997589,94.74573129997589,94.74573129997589,94.74573129997589,94.74573129997589,94.74573129997589,94.74573129997589,94.74573129997589,94.74573129997589,95.11203379998915,95.11203379998915,95.11203379998915,95.11203379998915,95.11203379998915,95.11203379998915,95.11203379998915,95.11203379998915,95.11203379998915,19,1,[0.3169656999525614],[0.3665980999940075],95.11203379998915,95.31233179999981,0.0,95.31233179999981,0,0.0,0,1,1000,num_1,1.8049562000087462,,22,2,2026-03-04_10h27.52.936,2026A_exp2,2022.2.4,59.916368730457975,
1000,1,0.0,0.0,0,0,7,7,74,,,,,97.14735759998439,97.80635189998429,97.80635189998429,98.29712890001247,45,315,98.29712890001247,98.29712890001247,98.29712890001247,98.29712890001247,98.29712890001247,98.29712890001247,98.29712890001247,98.29712890001247,98.29712890001247,98.6489225999685,98.6489225999685,98.6489225999685,98.6489225999685,98.6489225999685,98.6489225999685,98.6489225999685,98.6489225999685,98.6489225999685,0,1,[0.00386410002829507],[0.36465030000545084],98.6489225999685,98.85097450000467,1000,98.85097450000467,1000,1000,1000,1000,1,num_2,1.6179818999953568,,22,2,2026-03-04_10h27.52.936,2026A_exp2,2022.2.4,59.916368730457975,
1000,1,0.0,4.9,1,0,8,8,59,,,,,100.48453259997768,101.13464289996773,101.13464289996773,101.6358082999941,315,315,101.6358082999941,101.6358082999941,101.6358082999941,101.6358082999941,101.6358082999941,101.6358082999941,101.6358082999941,101.6358082999941,101.6358082999941,102.00243359996239,102.00243359996239,102.00243359996239,102.00243359996239,102.00243359996239,102.00243359996239,102.00243359996239,102.00243359996239,102.00243359996239,23,0,,,102.00243359996239,102.20254399999976,1000,102.20254399999976,1000,1000,1000,1000,1,num_2,0.9546722000231966,,22,2,2026-03-04_10h27.52.936,2026A_exp2,2022.2.4,59.916368730457975,
1,0,0.0,4.9,1,0,9,9,53,,,,,103.18674179998925,103.83740660001058,103.83740660001058,104.33855119999498,315,315,104.33855119999498,104.33855119999498,104.33855119999498,104.33855119999498,104.33855119999498,104.33855119999498,104.33855119999498,104.33855119999498,104.33855119999498,104.68797179998364,104.68797179998364,104.68797179998364,104.68797179998364,104.68797179998364,104.68797179998364,104.68797179998364,104.68797179998364,104.68797179998364,22,0,,,104.68797179998364,104.88850479997927,4.9,104.88850479997927,1,4.9,1,1,1000,num_4,0.8611830999725498,,22,2,2026-03-04_10h27.52.936,2026A_exp2,2022.2.4,59.916368730457975,
1000,1,0.0,6.1,1,0,10,10,62,,,,,105.77262369997334,106.42349710001145,106.42349710001145,106.90781909995712,315,45,106.90781909995712,106.90781909995712,106.90781909995712,106.90781909995712,106.90781909995712,106.90781909995712,106.90781909995712,106.90781909995712,106.90781909995712,107.27428269997472,107.27428269997472,107.27428269997472,107.27428269997472,107.27428269997472,107.27428269997472,107.27428269997472,107.27428269997472,107.27428269997472,23,0,,,107.27428269997472,107.47643119998975,1000,107.47643119998975,1000,1000,1000,1000,1,num_2,1.2248024999862537,,22,2,2026-03-04_10h27.52.936,2026A_exp2,2022.2.4,59.916368730457975,
1000,1,4.9,0.0,1,0,11,11,72,,,,,108.725670899963,109.37644319998799,109.37644319998799,109.87747129995842,315,45,109.87747129995842,109.87747129995842,109.87747129995842,109.87747129995842,109.87747129995842,109.87747129995842,109.87747129995842,109.87747129995842,109.87747129995842,110.22709239996038,110.22709239996038,110.22709239996038,110.22709239996038,110.22709239996038,110.22709239996038,110.22709239996038,110.22709239996038,110.22709239996038,22,0,,,110.22709239996038,110.42913929995848,1000,110.42913929995848,1000,1000,1000,1000,1,num_2,0.703366499976255,,22,2,2026-03-04_10h27.52.936,2026A_exp2,2022.2.4,59.916368730457975,
1000,1,6.1,0.0,1,0,12,12,16,,,,,111.16139339999063,111.81201629998395,111.81201629998395,112.31320159998722,315,45,112.31320159998722,112.31320159998722,112.31320159998722,112.31320159998722,112.31320159998722,112.31320159998722,112.31320159998722,112.31320159998722,112.31320159998722,112.67973739997251,112.67973739997251,112.67973739997251,112.67973739997251,112.67973739997251,112.67973739997251,112.67973739997251,112.67973739997251,112.67973739997251,1,1,[0.0012312999460846186],[0.36708850000286475],112.67973739997251,112.88139589998173,1000,112.88139589998173,1000,1000,1000,1000,1,num_2,0.6036427000071853,,22,2,2026-03-04_10h27.52.936,2026A_exp2,2022.2.4,59.916368730457975,
1000,1,3.7,4.9,1,0,13,13,46,,,,,113.51392860000487,114.16440010000952,114.16440010000952,114.6656202999875,45,45,114.6656202999875,114.6656202999875,114.6656202999875,114.6656202999875,114.6656202999875,114.6656202999875,114.6656202999875,114.6656202999875,114.6656202999875,115.03212349995738,115.03212349995738,115.03212349995738,115.03212349995738,115.03212349995738,115.03212349995738,115.03212349995738,115.03212349995738,115.03212349995738,23,0,,,115.03212349995738,115.23392079997575,1000,115.23392079997575,1000,1000,1000,1000,1,num_2,0.6671513000037521,,22,2,2026-03-04_10h27.52.936,2026A_exp2,2022.2.4,59.916368730457975,
1000,1,0.0,0.0,0,0,14,14,80,,,,,115.93295739998575,116.58356649999041,116.58356649999041,117.06804689997807,45,45,117.06804689997807,117.06804689997807,117.06804689997807,117.06804689997807,117.06804689997807,117.06804689997807,117.06804689997807,117.06804689997807,117.06804689997807,117.43442469998263,117.43442469998263,117.43442469998263,117.43442469998263,117.43442469998263,117.43442469998263,117.43442469998263,117.43442469998263,117.43442469998263,21,1,[0.06697639997582883],[0.10037529998226091],117.43442469998263,117.6367423000047,1000,117.6367423000047,1000,1000,1000,1000,0,num_3,0.7207806999795139,,22,2,2026-03-04_10h27.52.936,2026A_exp2,2022.2.4,59.916368730457975,
1000,1,3.7,0.0,0,0,15,15,45,,,,,118.38548900000751,119.03624849999323,119.03624849999323,119.53712809999706,315,45,119.53712809999706,119.53712809999706,119.53712809999706,119.53712809999706,119.53712809999706,119.53712809999706,119.53712809999706,119.53712809999706,119.53712809999706,119.90358469996136,119.90358469996136,119.90358469996136,119.90358469996136,119.90358469996136,119.90358469996136,119.90358469996136,119.90358469996136,119.90358469996136,23,0,,,119.90358469996136,120.10341519996291,1000,120.10341519996291,1000,1000,1000,1000,0,num_3,1.0057461999822408,,22,2,2026-03-04_10h27.52.936,2026A_exp2,2022.2.4,59.916368730457975,
0,0,6.1,3.7,1,0,16,16,49,,,,,121.13807350001298,121.78873899998143,121.78873899998143,122.28996989998268,315,315,122.28996989998268,122.28996989998268,122.28996989998268,122.28996989998268,122.28996989998268,122.28996989998268,122.28996989998268,122.28996989998268,122.28996989998268,122.65628809999907,122.65628809999907,122.65628809999907,122.65628809999907,122.65628809999907,122.65628809999907,122.65628809999907,122.65628809999907,122.65628809999907,23,0,,,122.65628809999907,122.85650659998646,6.1,122.85650659998646,0,6.1,1,0,1000,num_1,0.9651156000327319,,22,2,2026-03-04_10h27.52.936,2026A_exp2,2022.2.4,59.916368730457975,
1000,1,6.1,0.0,0,0,17,17,14,,,,,123.8407792999642,124.49146920000203,124.49146920000203,124.97595689998707,45,315,124.97595689998707,124.97595689998707,124.97595689998707,124.97595689998707,124.97595689998707,124.97595689998707,124.97595689998707,124.97595689998707,124.97595689998707,125.34226479998324,125.34226479998324,125.34226479998324,125.34226479998324,125.34226479998324,125.34226479998324,125.34226479998324,125.34226479998324,125.34226479998324,9,5,"[0.00120449997484684, 0.1668925000121817, 0.21714700001757592, 0.2671527999918908, 0.3337873999844305]","[0.15009599999757484, 0.20018899999558926, 0.23372969997581095, 0.28386939998017624, 0.3506774000125006]",125.34226479998324,125.5441963999765,1000,125.5441963999765,1000,1000,1000,1000,0,num_3,0.8851902000023983,,22,2,2026-03-04_10h27.52.936,2026A_exp2,2022.2.4,59.916368730457975,
1000,1,4.9,6.1,0,0,18,18,20,,,,,126.46020199998748,127.09484139998676,127.09484139998676,127.59516279998934,315,45,127.59516279998934,127.59516279998934,127.59516279998934,127.59516279998934,127.59516279998934,127.59516279998934,127.59516279998934,127.59516279998934,127.59516279998934,127.96171880001202,127.96171880001202,127.96171880001202,127.96171880001202,127.96171880001202,127.96171880001202,127.96171880001202,127.96171880001202,127.96171880001202,23,0,,,127.96171880001202,128.1622073999606,1000,128.1622073999606,1000,1000,1000,1000,0,num_3,1.5230449000373483,,22,2,2026-03-04_10h27.52.936,2026A_exp2,2022.2.4,59.916368730457975,
1000,1,0.0,0.0,1,0,19,19,33,,,,,129.71301770000719,130.34812859998783,130.34812859998783,130.84872499998892,315,315,130.84872499998892,130.84872499998892,130.84872499998892,130.84872499998892,130.84872499998892,130.84872499998892,130.84872499998892,130.84872499998892,130.84872499998892,131.21487379999598,131.21487379999598,131.21487379999598,131.21487379999598,131.21487379999598,131.21487379999598,131.21487379999598,131.21487379999598,131.21487379999598,23,0,,,131.21487379999598,131.41490319999866,1000,131.41490319999866,1000,1000,1000,1000,1,num_2,0.7177708999952301,,22,2,2026-03-04_10h27.52.936,2026A_exp2,2022.2.4,59.916368730457975,
1,0,0.0,3.7,1,0,20,20,41,,,,,132.1494551000069,132.78347939997911,132.78347939997911,133.28417399997124,45,315,133.28417399997124,133.28417399997124,133.28417399997124,133.28417399997124,133.28417399997124,133.28417399997124,133.28417399997124,133.28417399997124,133.28417399997124,133.65059979999205,133.65059979999205,133.65059979999205,133.65059979999205,133.65059979999205,133.65059979999205,133.65059979999205,133.65059979999205,133.65059979999205,23,0,,,133.65059979999205,133.8510698999744,3.7,133.8510698999744,1,3.7,1,1,1000,num_4,1.410045100026764,,22,2,2026-03-04_10h27.52.936,2026A_exp2,2022.2.4,59.916368730457975,
1,0,4.9,0.0,0,0,21,21,58,,,,,135.28559559996938,135.93610250001075,135.93610250001075,136.42074829997728,315,315,136.42074829997728,136.42074829997728,136.42074829997728,136.42074829997728,136.42074829997728,136.42074829997728,136.42074829997728,136.42074829997728,136.42074829997728,136.78708599996753,136.78708599996753,136.78708599996753,136.78708599996753,136.78708599996753,136.78708599996753,136.78708599996753,136.78708599996753,136.78708599996753,23,0,,,136.78708599996753,136.98729689995525,4.9,136.98729689995525,1,4.9,1,1,1000,num_4,1.2414185000234284,,22,2,2026-03-04_10h27.52.936,2026A_exp2,2022.2.4,59.916368730457975,
1000,1,0.0,6.1,0,0,22,22,37,,,,,138.25519589998294,138.9058652999811,138.9058652999811,139.3903655000031,45,45,139.3903655000031,139.3903655000031,139.3903655000031,139.3903655000031,139.3903655000031,139.3903655000031,139.3903655000031,139.3903655000031,139.3903655000031,139.7566867999849,139.7566867999849,139.7566867999849,139.7566867999849,139.7566867999849,139.7566867999849,139.7566867999849,139.7566867999849,139.7566867999849,0,1,[0.0012481000158004463],[0.36667750001652166],139.7566867999849,139.95953539997572,1000,139.95953539997572,1000,1000,1000,1000,0,num_3,1.022079600021243,,22,2,2026-03-04_10h27.52.936,2026A_exp2,2022.2.4,59.916368730457975,
1,0,0.0,4.9,0,0,23,23,4,,,,,141.00795369996922,141.65877769998042,141.65877769998042,142.15982389997225,315,45,142.15982389997225,142.15982389997225,142.15982389997225,142.15982389997225,142.15982389997225,142.15982389997225,142.15982389997225,142.15982389997225,142.15982389997225,142.50949719996424,142.50949719996424,142.50949719996424,142.50949719996424,142.50949719996424,142.50949719996424,142.50949719996424,142.50949719996424,142.50949719996424,22,0,,,142.50949719996424,142.70974039996509,0.0,142.72641489998205,1,0.0,0,0,1000,num_4,0.8783144999761134,,22,2,2026-03-04_10h27.52.936,2026A_exp2,2022.2.4,59.916368730457975,
1000,1,0.0,0.0,0,0,24,24,64,,,,,143.6271828999743,144.27782509999815,144.27782509999815,144.76231339998776,315,45,144.76231339998776,144.76231339998776,144.76231339998776,144.76231339998776,144.76231339998776,144.76231339998776,144.76231339998776,144.76231339998776,144.76231339998776,145.12899930001004,145.12899930001004,145.12899930001004,145.12899930001004,145.12899930001004,145.12899930001004,145.12899930001004,145.12899930001004,145.12899930001004,23,0,,,145.12899930001004,145.33108989999164,1000,145.33108989999164,1000,1000,1000,1000,0,num_3,0.7298922999761999,,22,2,2026-03-04_10h27.52.936,2026A_exp2,2022.2.4,59.916368730457975,
0,0,0.0,6.1,0,0,25,25,7,,,,,146.07967539998936,146.73028749995865,146.73028749995865,147.23134389996994,45,315,147.23134389996994,147.23134389996994,147.23134389996994,147.23134389996994,147.23134389996994,147.23134389996994,147.23134389996994,147.23134389996994,147.23134389996994,147.5978083999944,147.5978083999944,147.5978083999944,147.5978083999944,147.5978083999944,147.5978083999944,147.5978083999944,147.5978083999944,147.5978083999944,23,0,,,147.5978083999944,147.7981582999928,6.1,147.7981582999928,0,6.1,1,0,1000,num_1,0.9426274000434205,,22,2,2026-03-04_10h27.52.936,2026A_exp2,2022.2.4,59.916368730457975,
1,0,0.0,0.0,1,0,26,26,87,,,,,148.76552499999525,149.41637240001,149.41637240001,149.90093820000766,45,315,149.90093820000766,149.90093820000766,149.90093820000766,149.90093820000766,149.90093820000766,149.90093820000766,149.90093820000766,149.90093820000766,149.90093820000766,150.26728049997473,150.26728049997473,150.26728049997473,150.26728049997473,150.26728049997473,150.26728049997473,150.26728049997473,150.26728049997473,150.26728049997473,23,0,,,150.26728049997473,150.4675621999777,0.0,150.4675621999777,1,0.0,0,0,1000,num_4,1.0409987999591976,,22,2,2026-03-04_10h27.52.936,2026A_exp2,2022.2.4,59.916368730457975,
1000,1,3.7,4.9,1,0,27,27,43,,,,,151.5351110000047,152.1858218999696,152.1858218999696,152.67027539998526,315,45,152.67027539998526,152.67027539998526,152.67027539998526,152.67027539998526,152.67027539998526,152.67027539998526,152.67027539998526,152.67027539998526,152.67027539998526,153.03654040000401,153.03654040000401,153.03654040000401,153.03654040000401,153.03654040000401,153.03654040000401,153.03654040000401,153.03654040000401,153.03654040000401,19,1,[0.001191499992273748],[0.06695700000273064],153.03654040000401,153.23702110000886,1000,153.23702110000886,1000,1000,1000,1000,1,num_2,0.7764150999719277,,22,2,2026-03-04_10h27.52.936,2026A_exp2,2022.2.4,59.916368730457975,
1,0,0.0,0.0,0,0,28,28,63,,,,,154.03764479997335,154.6884088999941,154.6884088999941,155.18936169997323,45,45,155.18936169997323,155.18936169997323,155.18936169997323,155.18936169997323,155.18936169997323,155.18936169997323,155.18936169997323,155.18936169997323,155.18936169997323,155.5555192999891,155.5555192999891,155.5555192999891,155.5555192999891,155.5555192999891,155.5555192999891,155.5555192999891,155.5555192999891,155.5555192999891,23,0,,,155.5555192999891,155.75610769999912,0.0,155.75610769999912,1,0.0,0,0,1000,num_4,1.073835700051859,,22,2,2026-03-04_10h27.52.936,2026A_exp2,2022.2.4,59.916368730457975,
1000,1,0.0,0.0,1,0,29,29,27,,,,,156.85707410000032,157.507747799973,157.507747799973,157.99230409995653,315,45,157.99230409995653,157.99230409995653,157.99230409995653,157.99230409995653,157.99230409995653,157.99230409995653,157.99230409995653,157.99230409995653,157.99230409995653,158.35864140000194,158.35864140000194,158.35864140000194,158.35864140000194,158.35864140000194,158.35864140000194,158.35864140000194,158.35864140000194,158.35864140000194,23,0,,,158.35864140000194,158.56141239998396,1000,158.56141239998396,1000,1000,1000,1000,1,num_2,1.0118236999842338,,22,2,2026-03-04_10h27.52.936,2026A_exp2,2022.2.4,59.916368730457975,
1,0,4.9,0.0,1,0,30,30,8,,,,,159.5934257999761,160.2438855000073,160.2438855000073,160.72820339997998,45,315,160.72820339997998,160.72820339997998,160.72820339997998,160.72820339997998,160.72820339997998,160.72820339997998,160.72820339997998,160.72820339997998,160.72820339997998,161.09477749996586,161.09477749996586,161.09477749996586,161.09477749996586,161.09477749996586,161.09477749996586,161.09477749996586,161.09477749996586,161.09477749996586,23,0,,,161.09477749996586,161.30557869997574,0.0,161.30557869997574,1,0.0,0,0,1000,num_4,1.516212299990002,,22,2,2026-03-04_10h27.52.936,2026A_exp2,2022.2.4,59.916368730457975,
0,0,0.0,3.7,1,0,31,31,10,,,,,162.8464871000033,163.4971976999659,163.4971976999659,163.98164139996516,315,45,163.98164139996516,163.98164139996516,163.98164139996516,163.98164139996516,163.98164139996516,163.98164139996516,163.98164139996516,163.98164139996516,163.98164139996516,164.34794020000845,164.34794020000845,164.34794020000845,164.34794020000845,164.34794020000845,164.34794020000845,164.34794020000845,164.34794020000845,164.34794020000845,23,0,,,164.34794020000845,164.54819599998882,0.0,164.54819599998882,0,0.0,0,1,1000,num_1,0.9294056000071578,,22,2,2026-03-04_10h27.52.936,2026A_exp2,2022.2.4,59.916368730457975,
1,0,0.0,6.1,1,0,32,32,40,,,,,165.49897289997898,166.1499336999841,166.1499336999841,166.63424159999704,45,315,166.63424159999704,166.63424159999704,166.63424159999704,166.63424159999704,166.63424159999704,166.63424159999704,166.63424159999704,166.63424159999704,166.63424159999704,167.0005779999774,167.0005779999774,167.0005779999774,167.0005779999774,167.0005779999774,167.0005779999774,167.0005779999774,167.0005779999774,167.0005779999774,23,0,,,167.0005779999774,167.20092370000202,6.1,167.20092370000202,1,6.1,1,1,1000,num_4,0.7798499999917112,,22,2,2026-03-04_10h27.52.936,2026A_exp2,2022.2.4,59.916368730457975,
1000,1,4.9,0.0,0,0,33,33,26,,,,,168.00155169999925,168.65243710001232,168.65243710001232,169.13665219995892,315,315,169.13665219995892,169.13665219995892,169.13665219995892,169.13665219995892,169.13665219995892,169.13665219995892,169.13665219995892,169.13665219995892,169.13665219995892,169.50312740000663,169.50312740000663,169.50312740000663,169.50312740000663,169.50312740000663,169.50312740000663,169.50312740000663,169.50312740000663,169.50312740000663,23,0,,,169.50312740000663,169.70564709999599,1000,169.70564709999599,1000,1000,1000,1000,0,num_3,1.4755773000069894,,22,2,2026-03-04_10h27.52.936,2026A_exp2,2022.2.4,59.916368730457975,
1,0,3.7,6.1,0,0,34,34,55,,,,,171.2047722999705,171.85569679999026,171.85569679999026,172.33997139998246,45,45,172.33997139998246,172.33997139998246,172.33997139998246,172.33997139998246,172.33997139998246,172.33997139998246,172.33997139998246,172.33997139998246,172.33997139998246,172.7064477999811,172.7064477999811,172.7064477999811,172.7064477999811,172.7064477999811,172.7064477999811,172.7064477999811,172.7064477999811,172.7064477999811,23,0,,,172.7064477999811,172.90643049997743,3.7,172.90643049997743,1,3.7,1,1,1000,num_4,0.9701479999930598,,22,2,2026-03-04_10h27.52.936,2026A_exp2,2022.2.4,59.916368730457975,
1000,1,0.0,6.1,0,0,35,35,9,,,,,173.9078875000123,174.54433529998641,174.54433529998641,175.04727819998516,45,45,175.04727819998516,175.04727819998516,175.04727819998516,175.04727819998516,175.04727819998516,175.04727819998516,175.04727819998516,175.04727819998516,175.04727819998516,175.40924479998648,175.40924479998648,175.40924479998648,175.40924479998648,175.40924479998648,175.40924479998648,175.40924479998648,175.40924479998648,175.40924479998648,23,0,,,175.40924479998648,175.62307460000739,1000,175.62307460000739,1000,1000,1000,1000,0,num_3,3.486647199955769,,22,2,2026-03-04_10h27.52.936,2026A_exp2,2022.2.4,59.916368730457975,
1000,1,0.0,0.0,1,0,36,36,23,,,,,179.1294086999842,179.78013129997998,179.78013129997998,180.2812714999891,315,45,180.2812714999891,180.2812714999891,180.2812714999891,180.2812714999891,180.2812714999891,180.2812714999891,180.2812714999891,180.2812714999891,180.2812714999891,180.6474659999949,180.6474659999949,180.6474659999949,180.6474659999949,180.6474659999949,180.6474659999949,180.6474659999949,180.6474659999949,180.6474659999949,23,0,,,180.6474659999949,180.84942639997462,1000,180.84942639997462,1000,1000,1000,1000,1,num_2,0.7958900000085123,,22,2,2026-03-04_10h27.52.936,2026A_exp2,2022.2.4,59.916368730457975,
1000,1,6.1,0.0,1,0,37,37,68,,,,,181.66514850000385,182.31603529996937,182.31603529996937,182.81705809995765,45,45,182.81705809995765,182.81705809995765,182.81705809995765,182.81705809995765,182.81705809995765,182.81705809995765,182.81705809995765,182.81705809995765,182.81705809995765,183.18353959999513,183.18353959999513,183.18353959999513,183.18353959999513,183.18353959999513,183.18353959999513,183.18353959999513,183.18353959999513,183.18353959999513,23,0,,,183.18353959999513,183.38368839997565,1000,183.38368839997565,1000,1000,1000,1000,1,num_2,0.4137029000557959,,22,2,2026-03-04_10h27.52.936,2026A_exp2,2022.2.4,59.916368730457975,
1,0,3.7,0.0,1,0,38,38,50,,,,,183.8175422999775,184.46818669995992,184.46818669995992,184.969128799974,45,45,184.969128799974,184.969128799974,184.969128799974,184.969128799974,184.969128799974,184.969128799974,184.969128799974,184.969128799974,184.969128799974,185.33559349999996,185.33559349999996,185.33559349999996,185.33559349999996,185.33559349999996,185.33559349999996,185.33559349999996,185.33559349999996,185.33559349999996,23,0,,,185.33559349999996,185.53588400001172,0.0,185.53588400001172,1,0.0,0,0,1000,num_4,0.7726372000179254,,22,2,2026-03-04_10h27.52.936,2026A_exp2,2022.2.4,59.916368730457975,
1,0,0.0,6.1,1,0,39,39,52,,,,,186.3367759999819,186.97066130000167,186.97066130000167,187.47175319999224,45,45,187.47175319999224,187.47175319999224,187.47175319999224,187.47175319999224,187.47175319999224,187.47175319999224,187.47175319999224,187.47175319999224,187.47175319999224,187.83819889998995,187.83819889998995,187.83819889998995,187.83819889998995,187.83819889998995,187.83819889998995,187.83819889998995,187.83819889998995,187.83819889998995,23,0,,,187.83819889998995,188.0383892999962,6.1,188.0383892999962,1,6.1,1,1,1000,num_4,1.0383621999644674,,22,2,2026-03-04_10h27.52.936,2026A_exp2,2022.2.4,59.916368730457975,
1000,1,6.1,0.0,1,0,40,40,30,,,,,189.10603659995832,189.7566971000051,189.7566971000051,190.24117579997983,45,315,190.24117579997983,190.24117579997983,190.24117579997983,190.24117579997983,190.24117579997983,190.24117579997983,190.24117579997983,190.24117579997983,190.24117579997983,190.60724270000355,190.60724270000355,190.60724270000355,190.60724270000355,190.60724270000355,190.60724270000355,190.60724270000355,190.60724270000355,190.60724270000355,23,0,,,190.60724270000355,190.80946859996766,1000,190.80946859996766,1000,1000,1000,1000,1,num_2,0.7632585000246763,,22,2,2026-03-04_10h27.52.936,2026A_exp2,2022.2.4,59.916368730457975,
1000,1,4.9,6.1,1,0,41,41,28,,,,,191.59183369996026,192.24270040000556,192.24270040000556,192.74370970000746,45,315,192.74370970000746,192.74370970000746,192.74370970000746,192.74370970000746,192.74370970000746,192.74370970000746,192.74370970000746,192.74370970000746,192.74370970000746,193.1101500999648,193.1101500999648,193.1101500999648,193.1101500999648,193.1101500999648,193.1101500999648,193.1101500999648,193.1101500999648,193.1101500999648,23,0,,,193.1101500999648,193.312051899964,1000,193.312051899964,1000,1000,1000,1000,1,num_2,0.8613116000196896,,22,2,2026-03-04_10h27.52.936,2026A_exp2,2022.2.4,59.916368730457975,
1000,1,0.0,0.0,0,0,42,42,83,,,,,194.19430619996274,194.84516490000533,194.84516490000533,195.34618709998904,315,315,195.34618709998904,195.34618709998904,195.34618709998904,195.34618709998904,195.34618709998904,195.34618709998904,195.34618709998904,195.34618709998904,195.34618709998904,195.69605410000077,195.69605410000077,195.69605410000077,195.69605410000077,195.69605410000077,195.69605410000077,195.69605410000077,195.69605410000077,195.69605410000077,22,0,,,195.69605410000077,195.8977836999693,1000,195.8977836999693,1000,1000,1000,1000,0,num_3,0.7472395000513643,,22,2,2026-03-04_10h27.52.936,2026A_exp2,2022.2.4,59.916368730457975,
1000,1,0.0,3.7,1,0,43,43,47,,,,,196.66376119997585,197.31428049999522,197.31428049999522,197.8156750999624,315,315,197.8156750999624,197.8156750999624,197.8156750999624,197.8156750999624,197.8156750999624,197.8156750999624,197.8156750999624,197.8156750999624,197.8156750999624,198.18169880000642,198.18169880000642,198.18169880000642,198.18169880000642,198.18169880000642,198.18169880000642,198.18169880000642,198.18169880000642,198.18169880000642,23,0,,,198.18169880000642,198.3836820999859,1000,198.3836820999859,1000,1000,1000,1000,1,num_2,0.5741192999994382,,22,2,2026-03-04_10h27.52.936,2026A_exp2,2022.2.4,59.916368730457975,
1000,1,0.0,3.7,0,0,44,44,51,,,,,198.9825144999777,199.633335099963,199.633335099963,200.13427149999188,315,315,200.13427149999188,200.13427149999188,200.13427149999188,200.13427149999188,200.13427149999188,200.13427149999188,200.13427149999188,200.13427149999188,200.13427149999188,200.50075020000804,200.50075020000804,200.50075020000804,200.50075020000804,200.50075020000804,200.50075020000804,200.50075020000804,200.50075020000804,200.50075020000804,23,0,,,200.50075020000804,200.70098339999095,1000,200.70098339999095,1000,1000,1000,1000,1,num_2,1.799891100032255,,22,2,2026-03-04_10h27.52.936,2026A_exp2,2022.2.4,59.916368730457975,
1,0,3.7,0.0,0,0,45,45,65,,,,,202.51932999998098,203.17017479997594,203.17017479997594,203.6713238999946,45,45,203.6713238999946,203.6713238999946,203.6713238999946,203.6713238999946,203.6713238999946,203.6713238999946,203.6713238999946,203.6713238999946,203.6713238999946,204.0377434999682,204.0377434999682,204.0377434999682,204.0377434999682,204.0377434999682,204.0377434999682,204.0377434999682,204.0377434999682,204.0377434999682,23,0,,,204.0377434999682,204.2377440999844,3.7,204.2377440999844,0,3.7,1,0,1000,num_1,0.9676108999992721,,22,2,2026-03-04_10h27.52.936,2026A_exp2,2022.2.4,59.916368730457975,
1000,1,0.0,4.9,1,0,46,46,79,,,,,205.22210159996757,205.87293929996667,205.87293929996667,206.35708049999084,45,45,206.35708049999084,206.35708049999084,206.35708049999084,206.35708049999084,206.35708049999084,206.35708049999084,206.35708049999084,206.35708049999084,206.35708049999084,206.72368150000693,206.72368150000693,206.72368150000693,206.72368150000693,206.72368150000693,206.72368150000693,206.72368150000693,206.72368150000693,206.72368150000693,23,0,,,206.72368150000693,206.92577109998092,1000,206.92577109998092,1000,1000,1000,1000,0,num_3,1.1191492999787442,,22,2,2026-03-04_10h27.52.936,2026A_exp2,2022.2.4,59.916368730457975,
1,0,0.0,0.0,0,0,47,47,1,,,,,208.07503639999777,208.725754199957,208.725754199957,209.2268501999788,45,45,209.2268501999788,209.2268501999788,209.2268501999788,209.2268501999788,209.2268501999788,209.2268501999788,209.2268501999788,209.2268501999788,209.2268501999788,209.5766578000039,209.5766578000039,209.5766578000039,209.5766578000039,209.5766578000039,209.5766578000039,209.5766578000039,209.5766578000039,209.5766578000039,22,0,,,209.5766578000039,209.77673709997907,0.0,209.7935262999963,1,0.0,0,0,1000,num_4,1.0996877000434324,,22,2,2026-03-04_10h27.52.936,2026A_exp2,2022.2.4,59.916368730457975,
1,0,3.7,0.0,1,0,48,48,19,,,,,210.9110627999762,211.5617659999989,211.5617659999989,212.04639309999766,315,315,212.04639309999766,212.04639309999766,212.04639309999766,212.04639309999766,212.04639309999766,212.04639309999766,212.04639309999766,212.04639309999766,212.04639309999766,212.41278219997184,212.41278219997184,212.41278219997184,212.41278219997184,212.41278219997184,212.41278219997184,212.41278219997184,212.41278219997184,212.41278219997184,23,0,,,212.41278219997184,212.61311609996483,0.0,212.61311609996483,1,0.0,0,0,1000,num_4,1.983845500042662,,22,2,2026-03-04_10h27.52.936,2026A_exp2,2022.2.4,59.916368730457975,
1000,1,6.1,0.0,1,0,49,49,75,,,,,214.61481249995995,215.2654593999614,215.2654593999614,215.74996340001235,315,315,215.74996340001235,215.74996340001235,215.74996340001235,215.74996340001235,215.74996340001235,215.74996340001235,215.74996340001235,215.74996340001235,215.74996340001235,216.11646439996548,216.11646439996548,216.11646439996548,216.11646439996548,216.11646439996548,216.11646439996548,216.11646439996548,216.11646439996548,216.11646439996548,23,0,,,216.11646439996548,216.3184736999683,1000,216.3184736999683,1000,1000,1000,1000,0,num_3,1.2550453000003472,,22,2,2026-03-04_10h27.52.936,2026A_exp2,2022.2.4,59.916368730457975,
1000,1,3.7,6.1,0,0,50,50,84,,,,,217.60111139999935,218.25187129998812,218.25187129998812,218.75293749995762,45,45,218.75293749995762,218.75293749995762,218.75293749995762,218.75293749995762,218.75293749995762,218.75293749995762,218.75293749995762,218.75293749995762,218.75293749995762,219.11948479997227,219.11948479997227,219.11948479997227,219.11948479997227,219.11948479997227,219.11948479997227,219.11948479997227,219.11948479997227,219.11948479997227,23,0,,,219.11948479997227,219.32013770000776,1000,219.32013770000776,1000,1000,1000,1000,1,num_2,0.7245312999584712,,22,2,2026-03-04_10h27.52.936,2026A_exp2,2022.2.4,59.916368730457975,
1,0,6.1,0.0,0,0,51,51,56,,,,,220.0703191999928,220.7208363999962,220.7208363999962,221.2221972999978,45,315,221.2221972999978,221.2221972999978,221.2221972999978,221.2221972999978,221.2221972999978,221.2221972999978,221.2221972999978,221.2221972999978,221.2221972999978,221.58864129998256,221.58864129998256,221.58864129998256,221.58864129998256,221.58864129998256,221.58864129998256,221.58864129998256,221.58864129998256,221.58864129998256,12,2,"[0.1836267000180669, 0.34986419999040663]","[0.3336175000295043, 0.36673080001492053]",221.58864129998256,221.788745799975,6.1,221.788745799975,0,6.1,1,0,1000,num_1,1.0644453999702819,,22,2,2026-03-04_10h27.52.936,2026A_exp2,2022.2.4,59.916368730457975,
1,0,0.0,6.1,1,0,52,52,36,,,,,222.87307929998497,223.52380819997052,223.52380819997052,224.00816959998338,45,315,224.00816959998338,224.00816959998338,224.00816959998338,224.00816959998338,224.00816959998338,224.00816959998338,224.00816959998338,224.00816959998338,224.00816959998338,224.37470360001316,224.37470360001316,224.37470360001316,224.37470360001316,224.37470360001316,224.37470360001316,224.37470360001316,224.37470360001316,224.37470360001316,23,0,,,224.37470360001316,224.57490379997762,6.1,224.57490379997762,0,6.1,1,0,1000,num_1,1.7659571999683976,,22,2,2026-03-04_10h27.52.936,2026A_exp2,2022.2.4,59.916368730457975,
1,0,0.0,3.7,0,0,53,53,35,,,,,226.35993059998145,227.01057839998975,227.01057839998975,227.49513659998775,45,315,227.49513659998775,227.49513659998775,227.49513659998775,227.49513659998775,227.49513659998775,227.49513659998775,227.49513659998775,227.49513659998775,227.49513659998775,227.86152360000415,227.86152360000415,227.86152360000415,227.86152360000415,227.86152360000415,227.86152360000415,227.86152360000415,227.86152360000415,227.86152360000415,19,3,"[0.18362510000588372, 0.2670244000037201, 0.35038930003065616]","[0.20062389998929575, 0.28326530003687367, 0.3673707999987528]",227.86152360000415,228.06160759995691,0.0,228.06160759995691,1,0.0,0,0,1000,num_4,1.6159636999946088,,22,2,2026-03-04_10h27.52.936,2026A_exp2,2022.2.4,59.916368730457975,
1000,1,0.0,0.0,1,0,54,54,67,,,,,229.69649159995606,230.34724879998248,230.34724879998248,230.83171229995787,315,315,230.83171229995787,230.83171229995787,230.83171229995787,230.83171229995787,230.83171229995787,230.83171229995787,230.83171229995787,230.83171229995787,230.83171229995787,231.19824459997471,231.19824459997471,231.19824459997471,231.19824459997471,231.19824459997471,231.19824459997471,231.19824459997471,231.19824459997471,231.19824459997471,19,1,[0.0012015000102110207],[0.06691659998614341],231.19824459997471,231.4004711000016,1000,231.4004711000016,1000,1000,1000,1000,1,num_2,0.7326718000113033,,22,2,2026-03-04_10h27.52.936,2026A_exp2,2022.2.4,59.916368730457975,
1000,1,0.0,6.1,1,0,55,55,88,,,,,232.14912560000084,232.79985099995974,232.79985099995974,233.30081069999142,45,315,233.30081069999142,233.30081069999142,233.30081069999142,233.30081069999142,233.30081069999142,233.30081069999142,233.30081069999142,233.30081069999142,233.30081069999142,233.6673518999596,233.6673518999596,233.6673518999596,233.6673518999596,233.6673518999596,233.6673518999596,233.6673518999596,233.6673518999596,233.6673518999596,23,0,,,233.6673518999596,233.86968750000233,1000,233.86968750000233,1000,1000,1000,1000,1,num_2,0.5359221000107937,,22,2,2026-03-04_10h27.52.936,2026A_exp2,2022.2.4,59.916368730457975,
1000,1,6.1,0.0,0,0,56,56,82,,,,,234.4349768999964,235.09653849998722,235.09653849998722,235.56976609997218,315,315,235.56976609997218,235.56976609997218,235.56976609997218,235.56976609997218,235.56976609997218,235.56976609997218,235.56976609997218,235.56976609997218,235.56976609997218,235.9361554000061,235.9361554000061,235.9361554000061,235.9361554000061,235.9361554000061,235.9361554000061,235.9361554000061,235.9361554000061,235.9361554000061,0,1,[0.0014486999716609716],[0.3671306999749504],235.9361554000061,236.16402919997927,1000,236.16402919997927,1000,1000,1000,1000,0,num_3,0.6086131000192836,,22,2,2026-03-04_10h27.52.936,2026A_exp2,2022.2.4,59.916368730457975,
1000,1,0.0,4.9,1,0,57,57,31,,,,,236.78708589996677,237.43767119996483,237.43767119996483,237.93885799997952,45,315,237.93885799997952,237.93885799997952,237.93885799997952,237.93885799997952,237.93885799997952,237.93885799997952,237.93885799997952,237.93885799997952,237.93885799997952,238.3053448999999,238.3053448999999,238.3053448999999,238.3053448999999,238.3053448999999,238.3053448999999,238.3053448999999,238.3053448999999,238.3053448999999,23,0,,,238.3053448999999,238.50762160000158,1000,238.50762160000158,1000,1000,1000,1000,1,num_2,0.6815268999780528,,22,2,2026-03-04_10h27.52.936,2026A_exp2,2022.2.4,59.916368730457975,
1,0,6.1,4.9,0,0,58,58,39,,,,,239.20621350000147,239.85689619998448,239.85689619998448,240.34123560000444,45,315,240.34123560000444,240.34123560000444,240.34123560000444,240.34123560000444,240.34123560000444,240.34123560000444,240.34123560000444,240.34123560000444,240.34123560000444,240.7077108999947,240.7077108999947,240.7077108999947,240.7077108999947,240.7077108999947,240.7077108999947,240.7077108999947,240.7077108999947,240.7077108999947,23,0,,,240.7077108999947,240.9079255000106,6.1,240.9079255000106,1,6.1,1,1,1000,num_4,1.0174671999993734,,22,2,2026-03-04_10h27.52.936,2026A_exp2,2022.2.4,59.916368730457975,
1,0,4.9,0.0,1,0,59,59,38,,,,,241.9422390999971,242.60441769997124,242.60441769997124,243.07920689997263,45,315,243.07920689997263,243.07920689997263,243.07920689997263,243.07920689997263,243.07920689997263,243.07920689997263,243.07920689997263,243.07920689997263,243.07920689997263,243.4438863999676,243.4438863999676,243.4438863999676,243.4438863999676,243.4438863999676,243.4438863999676,243.4438863999676,243.4438863999676,243.4438863999676,23,0,,,243.4438863999676,243.64463950000936,0.0,243.64463950000936,1,0.0,0,0,1000,num_4,1.05732269998407,,22,2,2026-03-04_10h27.52.936,2026A_exp2,2022.2.4,59.916368730457975,
1,0,3.7,0.0,0,0,60,60,3,,,,,244.7282552999677,245.382958400005,245.382958400005,245.86351190001005,315,315,245.86351190001005,245.86351190001005,245.86351190001005,245.86351190001005,245.86351190001005,245.86351190001005,245.86351190001005,245.86351190001005,245.86351190001005,246.22976969997399,246.22976969997399,246.22976969997399,246.22976969997399,246.22976969997399,246.22976969997399,246.22976969997399,246.22976969997399,246.22976969997399,21,1,[0.0011981999850831926],[0.03344089997699484],246.22976969997399,246.43007189995842,3.7,246.43007189995842,1,3.7,1,1,1000,num_4,0.9268108000396751,,22,2,2026-03-04_10h27.52.936,2026A_exp2,2022.2.4,59.916368730457975,
1,0,0.0,4.9,1,0,61,61,21,,,,,247.38093609997304,248.0316005999921,248.0316005999921,248.53276979998918,45,45,248.53276979998918,248.53276979998918,248.53276979998918,248.53276979998918,248.53276979998918,248.53276979998918,248.53276979998918,248.53276979998918,248.53276979998918,248.89923559996532,248.89923559996532,248.89923559996532,248.89923559996532,248.89923559996532,248.89923559996532,248.89923559996532,248.89923559996532,248.89923559996532,23,0,,,248.89923559996532,249.09948629996506,4.9,249.09948629996506,0,4.9,1,0,1000,num_1,0.8018475999706425,,22,2,2026-03-04_10h27.52.936,2026A_exp2,2022.2.4,59.916368730457975,
1000,1,0.0,3.7,0,0,62,62,78,,,,,249.9169557999703,250.56738149997545,250.56738149997545,251.0686854000087,315,315,251.0686854000087,251.0686854000087,251.0686854000087,251.0686854000087,251.0686854000087,251.0686854000087,251.0686854000087,251.0686854000087,251.0686854000087,251.41828629997326,251.41828629997326,251.41828629997326,251.41828629997326,251.41828629997326,251.41828629997326,251.41828629997326,251.41828629997326,251.41828629997326,22,0,,,251.41828629997326,251.62083649996202,1000,251.62083649996202,1000,1000,1000,1000,0,num_3,0.7443373000132851,,22,2,2026-03-04_10h27.52.936,2026A_exp2,2022.2.4,59.916368730457975,
1,0,0.0,3.7,1,0,63,63,66,,,,,252.3859660999733,253.03675819997443,253.03675819997443,253.53777230001288,315,315,253.53777230001288,253.53777230001288,253.53777230001288,253.53777230001288,253.53777230001288,253.53777230001288,253.53777230001288,253.53777230001288,253.53777230001288,253.90416019997792,253.90416019997792,253.90416019997792,253.90416019997792,253.90416019997792,253.90416019997792,253.90416019997792,253.90416019997792,253.90416019997792,23,0,,,253.90416019997792,254.10439519997453,3.7,254.10439519997453,1,3.7,1,1,1000,num_4,0.8688691999996081,,22,2,2026-03-04_10h27.52.936,2026A_exp2,2022.2.4,59.916368730457975,
1000,1,3.7,0.0,1,0,64,64,48,,,,,255.00531829998363,255.65604239999084,255.65604239999084,256.1404971999582,315,45,256.1404971999582,256.1404971999582,256.1404971999582,256.1404971999582,256.1404971999582,256.1404971999582,256.1404971999582,256.1404971999582,256.1404971999582,256.5067359000095,256.5067359000095,256.5067359000095,256.5067359000095,256.5067359000095,256.5067359000095,256.5067359000095,256.5067359000095,256.5067359000095,23,0,,,256.5067359000095,256.70907729998,1000,256.70907729998,1000,1000,1000,1000,1,num_2,0.6398730999790132,,22,2,2026-03-04_10h27.52.936,2026A_exp2,2022.2.4,59.916368730457975,
1000,1,3.7,6.1,0,0,65,65,0,,,,,257.3742895000032,258.0250340999919,258.0250340999919,258.52602509997087,45,315,258.52602509997087,258.52602509997087,258.52602509997087,258.52602509997087,258.52602509997087,258.52602509997087,258.52602509997087,258.52602509997087,258.52602509997087,258.8926130000036,258.8926130000036,258.8926130000036,258.8926130000036,258.8926130000036,258.8926130000036,258.8926130000036,258.8926130000036,258.8926130000036,23,0,,,258.8926130000036,259.09448099997826,1000,259.09448099997826,1000,1000,1000,1000,1,num_2,0.774108299985528,,22,2,2026-03-04_10h27.52.936,2026A_exp2,2022.2.4,59.916368730457975,
1000,1,0.0,0.0,0,0,66,66,17,,,,,259.89351979998173,260.54406350001227,260.54406350001227,261.0453623000067,45,315,261.0453623000067,261.0453623000067,261.0453623000067,261.0453623000067,261.0453623000067,261.0453623000067,261.0453623000067,261.0453623000067,261.0453623000067,261.41172789997654,261.41172789997654,261.41172789997654,261.41172789997654,261.41172789997654,261.41172789997654,261.41172789997654,261.41172789997654,261.41172789997654,23,0,,,261.41172789997654,261.61404149996815,1000,261.61404149996815,1000,1000,1000,1000,0,num_3,0.5347721000434831,,22,2,2026-03-04_10h27.52.936,2026A_exp2,2022.2.4,59.916368730457975,
1,0,6.1,0.0,0,0,67,67,70,,,,,262.17910989996744,262.82981929997914,262.82981929997914,263.3308278999757,315,45,263.3308278999757,263.3308278999757,263.3308278999757,263.3308278999757,263.3308278999757,263.3308278999757,263.3308278999757,263.3308278999757,263.3308278999757,263.6971798999584,263.6971798999584,263.6971798999584,263.6971798999584,263.6971798999584,263.6971798999584,263.6971798999584,263.6971798999584,263.6971798999584,23,0,,,263.6971798999584,263.89756909996504,6.1,263.89756909996504,1,6.1,1,1,1000,num_4,0.7871222000103444,,22,2,2026-03-04_10h27.52.936,2026A_exp2,2022.2.4,59.916368730457975,
1000,1,0.0,0.0,0,0,68,68,86,,,,,264.71489589998964,265.36571189999813,265.36571189999813,265.85017280001193,45,315,265.85017280001193,265.85017280001193,265.85017280001193,265.85017280001193,265.85017280001193,265.85017280001193,265.85017280001193,265.85017280001193,265.85017280001193,266.21659570001066,266.21659570001066,266.21659570001066,266.21659570001066,266.21659570001066,266.21659570001066,266.21659570001066,266.21659570001066,266.21659570001066,23,0,,,266.21659570001066,266.4186781999888,1000,266.4186781999888,1000,1000,1000,1000,0,num_3,0.7065551999839954,,22,2,2026-03-04_10h27.52.936,2026A_exp2,2022.2.4,59.916368730457975,
1000,1,3.7,0.0,0,0,69,69,57,,,,,267.15126779995626,267.8014125999762,267.8014125999762,268.30256869998993,315,45,268.30256869998993,268.30256869998993,268.30256869998993,268.30256869998993,268.30256869998993,268.30256869998993,268.30256869998993,268.30256869998993,268.30256869998993,268.66902839997783,268.66902839997783,268.66902839997783,268.66902839997783,268.66902839997783,268.66902839997783,268.66902839997783,268.66902839997783,268.66902839997783,23,0,,,268.66902839997783,268.87083619995974,1000,268.87083619995974,1000,1000,1000,1000,0,num_3,1.0861554000293836,,22,2,2026-03-04_10h27.52.936,2026A_exp2,2022.2.4,59.916368730457975,
0,0,0.0,0.0,1,0,70,70,89,,,,,269.9871029999922,270.6376032999833,270.6376032999833,271.1386979999952,45,315,271.1386979999952,271.1386979999952,271.1386979999952,271.1386979999952,271.1386979999952,271.1386979999952,271.1386979999952,271.1386979999952,271.1386979999952,271.5050852000131,271.5050852000131,271.5050852000131,271.5050852000131,271.5050852000131,271.5050852000131,271.5050852000131,271.5050852000131,271.5050852000131,23,0,,,271.5050852000131,271.70543450000696,0.0,271.70543450000696,0,0.0,0,1,1000,num_1,1.323398900043685,,22,2,2026-03-04_10h27.52.936,2026A_exp2,2022.2.4,59.916368730457975,
1000,1,0.0,0.0,0,0,71,71,81,,,,,273.05651349999243,273.7071408999618,273.7071408999618,274.1917626999784,45,45,274.1917626999784,274.1917626999784,274.1917626999784,274.1917626999784,274.1917626999784,274.1917626999784,274.1917626999784,274.1917626999784,274.1917626999784,274.55822879995685,274.55822879995685,274.55822879995685,274.55822879995685,274.55822879995685,274.55822879995685,274.55822879995685,274.55822879995685,274.55822879995685,23,0,,,274.55822879995685,274.76057270000456,1000,274.76057270000456,1000,1000,1000,1000,0,num_3,0.6280083999736235,,22,2,2026-03-04_10h27.52.936,2026A_exp2,2022.2.4,59.916368730457975,
1000,1,4.9,0.0,0,0,72,72,54,,,,,275.4090189000126,276.0596534999786,276.0596534999786,276.560883499973,315,315,276.560883499973,276.560883499973,276.560883499973,276.560883499973,276.560883499973,276.560883499973,276.560883499973,276.560883499973,276.560883499973,276.927025699988,276.927025699988,276.927025699988,276.927025699988,276.927025699988,276.927025699988,276.927025699988,276.927025699988,276.927025699988,23,0,,,276.927025699988,277.12953659996856,1000,277.12953659996856,1000,1000,1000,1000,0,num_3,0.5243787000072189,,22,2,2026-03-04_10h27.52.936,2026A_exp2,2022.2.4,59.916368730457975,
1000,1,0.0,0.0,0,0,73,73,85,,,,,277.67788789997576,278.3286573999794,278.3286573999794,278.8297376999981,45,45,278.8297376999981,278.8297376999981,278.8297376999981,278.8297376999981,278.8297376999981,278.8297376999981,278.8297376999981,278.8297376999981,278.8297376999981,279.1962127999868,279.1962127999868,279.1962127999868,279.1962127999868,279.1962127999868,279.1962127999868,279.1962127999868,279.1962127999868,279.1962127999868,23,0,,,279.1962127999868,279.39804539998295,1000,279.39804539998295,1000,1000,1000,1000,0,num_3,0.5113208999973722,,22,2,2026-03-04_10h27.52.936,2026A_exp2,2022.2.4,59.916368730457975,
1000,1,6.1,6.1,1,0,74,74,77,,,,,279.93015619996004,280.580949199968,280.580949199968,281.0819085999974,45,315,281.0819085999974,281.0819085999974,281.0819085999974,281.0819085999974,281.0819085999974,281.0819085999974,281.0819085999974,281.0819085999974,281.0819085999974,281.448438899999,281.448438899999,281.448438899999,281.448438899999,281.448438899999,281.448438899999,281.448438899999,281.448438899999,281.448438899999,23,0,,,281.448438899999,281.6505002999911,1000,281.6505002999911,1000,1000,1000,1000,1,num_2,0.5628099999739788,,22,2,2026-03-04_10h27.52.936,2026A_exp2,2022.2.4,59.916368730457975,
1,0,0.0,0.0,1,0,75,75,73,,,,,282.2325637000031,282.88315209996654,282.88315209996654,283.38423560000956,315,315,283.38423560000956,283.38423560000956,283.38423560000956,283.38423560000956,283.38423560000956,283.38423560000956,283.38423560000956,283.38423560000956,283.38423560000956,283.7507651000051,283.7507651000051,283.7507651000051,283.7507651000051,283.7507651000051,283.7507651000051,283.7507651000051,283.7507651000051,283.7507651000051,23,0,,,283.7507651000051,283.95095550001133,0.0,283.95095550001133,1,0.0,0,0,1000,num_4,0.6699317999882624,,22,2,2026-03-04_10h27.52.936,2026A_exp2,2022.2.4,59.916368730457975,
1,0,0.0,0.0,1,0,76,76,6,,,,,284.6515497000073,285.3021874999977,285.3021874999977,285.7867261999636,315,315,285.7867261999636,285.7867261999636,285.7867261999636,285.7867261999636,285.7867261999636,285.7867261999636,285.7867261999636,285.7867261999636,285.7867261999636,286.1531286999816,286.1531286999816,286.1531286999816,286.1531286999816,286.1531286999816,286.1531286999816,286.1531286999816,286.1531286999816,286.1531286999816,22,1,[0.18375309999100864],[0.19995819998439401],286.1531286999816,286.3534144999576,0.0,286.3534144999576,1,0.0,0,0,1000,num_4,1.0358011000207625,,22,2,2026-03-04_10h27.52.936,2026A_exp2,2022.2.4,59.916368730457975,
1,0,3.7,3.7,0,0,77,77,13,,,,,287.4211440999643,288.0738712999737,288.0738712999737,288.5561684999848,315,45,288.5561684999848,288.5561684999848,288.5561684999848,288.5561684999848,288.5561684999848,288.5561684999848,288.5561684999848,288.5561684999848,288.5561684999848,288.92236389999744,288.92236389999744,288.92236389999744,288.92236389999744,288.92236389999744,288.92236389999744,288.92236389999744,288.92236389999744,288.92236389999744,23,0,,,288.92236389999744,289.12280690000625,3.7,289.12280690000625,0,3.7,1,0,1000,num_1,0.6265421999851242,,22,2,2026-03-04_10h27.52.936,2026A_exp2,2022.2.4,59.916368730457975,
1000,1,3.7,0.0,0,0,78,78,2,,,,,289.77325939998263,290.42396250000456,290.42396250000456,290.92510769999353,315,315,290.92510769999353,290.92510769999353,290.92510769999353,290.92510769999353,290.92510769999353,290.92510769999353,290.92510769999353,290.92510769999353,290.92510769999353,291.2749271999928,291.2749271999928,291.2749271999928,291.2749271999928,291.2749271999928,291.2749271999928,291.2749271999928,291.2749271999928,291.2749271999928,21,1,[0.16718649998074397],[0.1836293000378646],291.2749271999928,291.4751614999841,1000,291.4751614999841,1000,1000,1000,1000,0,num_3,0.698033900000155,,22,2,2026-03-04_10h27.52.936,2026A_exp2,2022.2.4,59.916368730457975,
1,0,6.1,4.9,0,0,79,79,24,,,,,292.192471599963,292.8431644999655,292.8431644999655,293.3274925999576,315,45,293.3274925999576,293.3274925999576,293.3274925999576,293.3274925999576,293.3274925999576,293.3274925999576,293.3274925999576,293.3274925999576,293.3274925999576,293.6939103999757,293.6939103999757,293.6939103999757,293.6939103999757,293.6939103999757,293.6939103999757,293.6939103999757,293.6939103999757,293.6939103999757,17,4,"[0.0013348999782465398, 0.033485200023278594, 0.06680949998553842, 0.133581799978856]","[0.01733489998150617, 0.050079200009349734, 0.08364849997451529, 0.18358270003227517]",293.6939103999757,293.8942623999901,6.1,293.8942623999901,1,6.1,1,1,1000,num_4,0.7745484999613836,,22,2,2026-03-04_10h27.52.936,2026A_exp2,2022.2.4,59.916368730457975,
1000,1,0.0,0.0,0,0,80,80,18,,,,,294.6947938000085,295.3456815999816,295.3456815999816,295.83010719995946,315,45,295.83010719995946,295.83010719995946,295.83010719995946,295.83010719995946,295.83010719995946,295.83010719995946,295.83010719995946,295.83010719995946,295.83010719995946,296.1963775999611,296.1963775999611,296.1963775999611,296.1963775999611,296.1963775999611,296.1963775999611,296.1963775999611,296.1963775999611,296.1963775999611,23,0,,,296.1963775999611,296.40002519998234,1000,296.40002519998234,1000,1000,1000,1000,0,num_3,0.5974640999920666,,22,2,2026-03-04_10h27.52.936,2026A_exp2,2022.2.4,59.916368730457975,
1,0,3.7,0.0,0,0,81,81,42,,,,,297.01379379996797,297.66470919997664,297.66470919997664,298.1656052999897,315,45,298.1656052999897,298.1656052999897,298.1656052999897,298.1656052999897,298.1656052999897,298.1656052999897,298.1656052999897,298.1656052999897,298.1656052999897,298.53208400000585,298.53208400000585,298.53208400000585,298.53208400000585,298.53208400000585,298.53208400000585,298.53208400000585,298.53208400000585,298.53208400000585,23,0,,,298.53208400000585,298.73239949997514,3.7,298.73239949997514,1,3.7,1,1,1000,num_4,1.264770400011912,,22,2,2026-03-04_10h27.52.936,2026A_exp2,2022.2.4,59.916368730457975,
1000,1,0.0,0.0,0,0,82,82,15,,,,,300.0169237999944,300.6676039999584,300.6676039999584,301.1520016999566,45,315,301.1520016999566,301.1520016999566,301.1520016999566,301.1520016999566,301.1520016999566,301.1520016999566,301.1520016999566,301.1520016999566,301.1520016999566,301.5185426999815,301.5185426999815,301.5185426999815,301.5185426999815,301.5185426999815,301.5185426999815,301.5185426999815,301.5185426999815,301.5185426999815,23,0,,,301.5185426999815,301.72056849999353,1000,301.72056849999353,1000,1000,1000,1000,0,num_3,0.5727181999827735,,22,2,2026-03-04_10h27.52.936,2026A_exp2,2022.2.4,59.916368730457975,
1000,1,4.9,0.0,1,0,83,83,5,,,,,302.3194073999766,302.9699095999822,302.9699095999822,303.4544561000075,45,45,303.4544561000075,303.4544561000075,303.4544561000075,303.4544561000075,303.4544561000075,303.4544561000075,303.4544561000075,303.4544561000075,303.4544561000075,303.8209132999764,303.8209132999764,303.8209132999764,303.8209132999764,303.8209132999764,303.8209132999764,303.8209132999764,303.8209132999764,303.8209132999764,23,0,,,303.8209132999764,304.0231572999619,1000,304.0231572999619,1000,1000,1000,1000,0,num_3,0.5817008000449277,,22,2,2026-03-04_10h27.52.936,2026A_exp2,2022.2.4,59.916368730457975,
1000,1,6.1,0.0,1,0,84,84,69,,,,,304.62177099997643,305.27218249998987,305.27218249998987,305.7567022999865,45,315,305.7567022999865,305.7567022999865,305.7567022999865,305.7567022999865,305.7567022999865,305.7567022999865,305.7567022999865,305.7567022999865,305.7567022999865,306.1231228999677,306.1231228999677,306.1231228999677,306.1231228999677,306.1231228999677,306.1231228999677,306.1231228999677,306.1231228999677,306.1231228999677,23,0,,,306.1231228999677,306.32465149997734,1000,306.32465149997734,1000,1000,1000,1000,0,num_3,0.4318269999930635,,22,2,2026-03-04_10h27.52.936,2026A_exp2,2022.2.4,59.916368730457975,
1000,1,0.0,4.9,1,0,85,85,76,,,,,306.7736673000036,307.424432299973,307.424432299973,307.9253999000066,45,45,307.9253999000066,307.9253999000066,307.9253999000066,307.9253999000066,307.9253999000066,307.9253999000066,307.9253999000066,307.9253999000066,307.9253999000066,308.29190549999475,308.29190549999475,308.29190549999475,308.29190549999475,308.29190549999475,308.29190549999475,308.29190549999475,308.29190549999475,308.29190549999475,23,0,,,308.29190549999475,308.4937822999782,1000,308.4937822999782,1000,1000,1000,1000,1,num_2,0.8792434000060894,,22,2,2026-03-04_10h27.52.936,2026A_exp2,2022.2.4,59.916368730457975,
1000,1,0.0,0.0,1,0,86,86,12,,,,,309.3929589999607,310.0437062999699,310.0437062999699,310.54445970000234,315,315,310.54445970000234,310.54445970000234,310.54445970000234,310.54445970000234,310.54445970000234,310.54445970000234,310.54445970000234,310.54445970000234,310.54445970000234,310.911267199961,310.911267199961,310.911267199961,310.911267199961,310.911267199961,310.911267199961,310.911267199961,310.911267199961,310.911267199961,23,0,,,310.911267199961,311.11294610000914,1000,311.11294610000914,1000,1000,1000,1000,1,num_2,1.236555999959819,,22,2,2026-03-04_10h27.52.936,2026A_exp2,2022.2.4,59.916368730457975,
1,0,0.0,6.1,0,0,87,87,34,,,,,312.37942919996567,313.02986539999256,313.02986539999256,313.5310591000016,45,45,313.5310591000016,313.5310591000016,313.5310591000016,313.5310591000016,313.5310591000016,313.5310591000016,313.5310591000016,313.5310591000016,313.5310591000016,313.8975401999778,313.8975401999778,313.8975401999778,313.8975401999778,313.8975401999778,313.8975401999778,313.8975401999778,313.8975401999778,313.8975401999778,23,0,,,313.8975401999778,314.0978132999735,0.0,314.0978132999735,0,0.0,0,1,1000,num_1,1.6600400999886915,,22,2,2026-03-04_10h27.52.936,2026A_exp2,2022.2.4,59.916368730457975,
1,0,0.0,6.1,0,0,88,88,11,,,,,315.7827236999874,316.433498599974,316.433498599974,316.91764359996887,45,45,316.91764359996887,316.91764359996887,316.91764359996887,316.91764359996887,316.91764359996887,316.91764359996887,316.91764359996887,316.91764359996887,316.91764359996887,317.28414090001024,317.28414090001024,317.28414090001024,317.28414090001024,317.28414090001024,317.28414090001024,317.28414090001024,317.28414090001024,317.28414090001024,23,0,,,317.28414090001024,317.4843809999875,0.0,317.4843809999875,0,0.0,0,1,1000,num_1,1.009521899977699,,22,2,2026-03-04_10h27.52.936,2026A_exp2,2022.2.4,59.916368730457975,
0,0,4.9,0.0,1,0,89,89,25,,,,,318.5186774999602,319.1695272999932,319.1695272999932,319.6538388999761,45,315,319.6538388999761,319.6538388999761,319.6538388999761,319.6538388999761,319.6538388999761,319.6538388999761,319.6538388999761,319.6538388999761,319.6538388999761,320.02027749997796,320.02027749997796,320.02027749997796,320.02027749997796,320.02027749997796,320.02027749997796,320.02027749997796,320.02027749997796,320.02027749997796,23,0,,,320.02027749997796,320.22055450000335,4.9,320.22055450000335,0,4.9,1,0,1000,num_1,0.809202800039202,,22,2,2026-03-04_10h27.52.936,2026A_exp2,2022.2.4,59.916368730457975,
,,,,,,,,,,,,,,,,,,,,,,,,,,,,,,,,,,,,,,,,,,,,,,,,,,,,321.0633456999785,,,,,,,
