validity,detectorcomp,contrastCW,contrastCCW,precueCWorCCW,block_80trials.thisRepN,block_80trials.thisTrialN,block_80trials.thisN,block_80trials.thisIndex,etRecord.started,etRecord.stopped,text.started,text.stopped,text_4.started,text_4.stopped,text_6.started,text_6.stopped,oriCW,oriCCW,roi_2.started,grating_UR.started,grating_UL.started,grating_LR.started,grating_LL.started,noise_UR.started,noise_UL.started,noise_LR.started,noise_LL.started,roi_2.stopped,grating_UR.stopped,grating_UL.stopped,grating_LR.stopped,grating_LL.stopped,noise_UR.stopped,noise_UL.stopped,noise_LR.stopped,noise_LL.stopped,outframe,roi_2.numLooks,roi_2.timesOn,roi_2.timesOff,text_2.started,text_2.stopped,probedcontrast,key_resp.started,respdetect,relevantContrast,correctDetect,TorFdetect,respCWorCCW,key_resp.keys,key_resp.rt,feedback_display_.started,participantNo,blockNo,date,expName,psychopyVersion,frameRate,
1000,1,0.0,0.0,0,0,0,0,15,6.350001785904169e-05,6.350001785904169e-05,57.92881230000057,59.93239060000633,59.93239060000633,60.56395589999738,60.56395589999738,61.086057999986224,315,45,61.086057999986224,61.086057999986224,61.086057999986224,61.086057999986224,61.086057999986224,61.086057999986224,61.086057999986224,61.086057999986224,61.086057999986224,61.43131509999512,61.43131509999512,61.43131509999512,61.43131509999512,61.43131509999512,61.43131509999512,61.43131509999512,61.43131509999512,61.43131509999512,0,1,[0.0011058000090997666],[0.36632400000235066],61.43131509999512,61.63213350001024,1000,61.63213350001024,1000,1000,1000,1000,0,num_3,0.639407399983611,,20,2,2026-03-02_15h33.57.692,2026A_exp2,2022.2.4,59.93859889926,
1,0,4.9,0.0,1,0,1,1,38,,,,,62.29925069998717,62.949871499993606,62.949871499993606,63.45089499998721,315,45,63.45089499998721,63.45089499998721,63.45089499998721,63.45089499998721,63.45089499998721,63.45089499998721,63.45089499998721,63.45089499998721,63.45089499998721,63.817388099996606,63.817388099996606,63.817388099996606,63.817388099996606,63.817388099996606,63.817388099996606,63.817388099996606,63.817388099996606,63.817388099996606,6,2,"[0.001219800004037097, 0.23376100001041777]","[0.20001299999421462, 0.3171513999986928]",63.817388099996606,64.0174960999866,0.0,64.0174960999866,0,0.0,0,1,1000,num_1,0.9744242999877315,,20,2,2026-03-02_15h33.57.692,2026A_exp2,2022.2.4,59.93859889926,
1,0,3.7,0.0,1,0,2,2,50,,,,,65.0185516999918,65.66919859999325,65.66919859999325,66.15369909998844,315,45,66.15369909998844,66.15369909998844,66.15369909998844,66.15369909998844,66.15369909998844,66.15369909998844,66.15369909998844,66.15369909998844,66.15369909998844,66.5199094999989,66.5199094999989,66.5199094999989,66.5199094999989,66.5199094999989,66.5199094999989,66.5199094999989,66.5199094999989,66.5199094999989,23,0,,,66.5199094999989,66.73379709999426,0.0,66.73379709999426,0,0.0,0,1,1000,num_1,0.6824248000048101,,20,2,2026-03-02_15h33.57.692,2026A_exp2,2022.2.4,59.93859889926,
1,0,3.7,6.1,0,0,3,3,55,,,,,67.43774019999546,68.08831409999402,68.08831409999402,68.57274699999834,45,315,68.57274699999834,68.57274699999834,68.57274699999834,68.57274699999834,68.57274699999834,68.57274699999834,68.57274699999834,68.57274699999834,68.57274699999834,68.93900240000221,68.93900240000221,68.93900240000221,68.93900240000221,68.93900240000221,68.93900240000221,68.93900240000221,68.93900240000221,68.93900240000221,0,1,[0.0012533999979496002],[0.36735099999350496],68.93900240000221,69.13930439998512,3.7,69.13930439998512,0,3.7,1,0,1000,num_1,1.7002366999804508,,20,2,2026-03-02_15h33.57.692,2026A_exp2,2022.2.4,59.93859889926,
1000,1,6.1,0.0,1,0,4,4,30,,,,,70.8577907999861,71.50831169998855,71.50831169998855,71.99272959999507,315,45,71.99272959999507,71.99272959999507,71.99272959999507,71.99272959999507,71.99272959999507,71.99272959999507,71.99272959999507,71.99272959999507,71.99272959999507,72.35923430000548,72.35923430000548,72.35923430000548,72.35923430000548,72.35923430000548,72.35923430000548,72.35923430000548,72.35923430000548,72.35923430000548,21,2,"[0.01734950000536628, 0.26712510001379997]","[0.03361360001144931, 0.2838548999861814]",72.35923430000548,72.56141580000985,1000,72.56141580000985,1000,1000,1000,1000,0,num_3,0.5662194999749772,,20,2,2026-03-02_15h33.57.692,2026A_exp2,2022.2.4,59.93859889926,
1,0,0.0,0.0,0,0,5,5,63,,,,,73.14341140000033,73.79386460001115,73.79386460001115,74.29497889999766,315,315,74.29497889999766,74.29497889999766,74.29497889999766,74.29497889999766,74.29497889999766,74.29497889999766,74.29497889999766,74.29497889999766,74.29497889999766,74.66154860000825,74.66154860000825,74.66154860000825,74.66154860000825,74.66154860000825,74.66154860000825,74.66154860000825,74.66154860000825,74.66154860000825,23,0,,,74.66154860000825,74.86180250000325,0.0,74.86180250000325,1,0.0,0,0,1000,num_4,2.547033900016686,,20,2,2026-03-02_15h33.57.692,2026A_exp2,2022.2.4,59.93859889926,
1,0,6.1,0.0,0,0,6,6,56,,,,,77.4310439999972,78.08170579999569,78.08170579999569,78.58270050000283,45,45,78.58270050000283,78.58270050000283,78.58270050000283,78.58270050000283,78.58270050000283,78.58270050000283,78.58270050000283,78.58270050000283,78.58270050000283,78.94917639999767,78.94917639999767,78.94917639999767,78.94917639999767,78.94917639999767,78.94917639999767,78.94917639999767,78.94917639999767,78.94917639999767,23,0,,,78.94917639999767,79.14943240000866,6.1,79.14943240000866,1,6.1,1,1,1000,num_4,0.9469214999990072,,20,2,2026-03-02_15h33.57.692,2026A_exp2,2022.2.4,59.93859889926,
1000,1,0.0,4.9,1,0,7,7,31,,,,,80.11696079999092,80.7674246999959,80.7674246999959,81.25204459999804,45,45,81.25204459999804,81.25204459999804,81.25204459999804,81.25204459999804,81.25204459999804,81.25204459999804,81.25204459999804,81.25204459999804,81.25204459999804,81.61836620001122,81.61836620001122,81.61836620001122,81.61836620001122,81.61836620001122,81.61836620001122,81.61836620001122,81.61836620001122,81.61836620001122,23,0,,,81.61836620001122,81.82033159999992,1000,81.82033159999992,1000,1000,1000,1000,1,num_2,0.8032777000044007,,20,2,2026-03-02_15h33.57.692,2026A_exp2,2022.2.4,59.93859889926,
1,0,3.7,0.0,1,0,8,8,19,,,,,82.65275680000195,83.30355879999115,83.30355879999115,83.80467519999365,315,315,83.80467519999365,83.80467519999365,83.80467519999365,83.80467519999365,83.80467519999365,83.80467519999365,83.80467519999365,83.80467519999365,83.80467519999365,84.15426549999393,84.15426549999393,84.15426549999393,84.15426549999393,84.15426549999393,84.15426549999393,84.15426549999393,84.15426549999393,84.15426549999393,22,0,,,84.15426549999393,84.35458549999748,0.0,84.37115709998761,0,0.0,0,1,1000,num_1,0.932800499984296,,20,2,2026-03-02_15h33.57.692,2026A_exp2,2022.2.4,59.93859889926,
1000,1,0.0,0.0,1,0,9,9,67,,,,,85.32206649999716,85.97283039998729,85.97283039998729,86.45728810000583,315,315,86.45728810000583,86.45728810000583,86.45728810000583,86.45728810000583,86.45728810000583,86.45728810000583,86.45728810000583,86.45728810000583,86.45728810000583,86.82378080001217,86.82378080001217,86.82378080001217,86.82378080001217,86.82378080001217,86.82378080001217,86.82378080001217,86.82378080001217,86.82378080001217,23,0,,,86.82378080001217,87.02393249998568,1000,87.02393249998568,1000,1000,1000,1000,0,num_3,0.5114900999760721,,20,2,2026-03-02_15h33.57.692,2026A_exp2,2022.2.4,59.93859889926,
1,0,6.1,0.0,0,0,10,10,70,,,,,87.55768339999486,88.20837800001027,88.20837800001027,88.70957320000161,45,45,88.70957320000161,88.70957320000161,88.70957320000161,88.70957320000161,88.70957320000161,88.70957320000161,88.70957320000161,88.70957320000161,88.70957320000161,89.07580739998957,89.07580739998957,89.07580739998957,89.07580739998957,89.07580739998957,89.07580739998957,89.07580739998957,89.07580739998957,89.07580739998957,23,0,,,89.07580739998957,89.27600059998804,6.1,89.27600059998804,1,6.1,1,1,1000,num_4,0.7800926999771036,,20,2,2026-03-02_15h33.57.692,2026A_exp2,2022.2.4,59.93859889926,
1000,1,0.0,0.0,0,0,11,11,74,,,,,90.07681810000213,90.72762930000317,90.72762930000317,91.2119146999903,315,45,91.2119146999903,91.2119146999903,91.2119146999903,91.2119146999903,91.2119146999903,91.2119146999903,91.2119146999903,91.2119146999903,91.2119146999903,91.57836049998878,91.57836049998878,91.57836049998878,91.57836049998878,91.57836049998878,91.57836049998878,91.57836049998878,91.57836049998878,91.57836049998878,23,0,,,91.57836049998878,91.78207570000086,1000,91.78207570000086,1000,1000,1000,1000,0,num_3,0.5702101000060793,,20,2,2026-03-02_15h33.57.692,2026A_exp2,2022.2.4,59.93859889926,
1000,1,3.7,4.9,1,0,12,12,44,,,,,92.37912560001132,93.02980839999509,93.02980839999509,93.53095909999683,45,315,93.53095909999683,93.53095909999683,93.53095909999683,93.53095909999683,93.53095909999683,93.53095909999683,93.53095909999683,93.53095909999683,93.53095909999683,93.89746440001181,93.89746440001181,93.89746440001181,93.89746440001181,93.89746440001181,93.89746440001181,93.89746440001181,93.89746440001181,93.89746440001181,23,0,,,93.89746440001181,94.09933669999009,1000,94.09933669999009,1000,1000,1000,1000,0,num_3,0.4680843999958597,,20,2,2026-03-02_15h33.57.692,2026A_exp2,2022.2.4,59.93859889926,
1000,1,4.9,0.0,0,0,13,13,26,,,,,94.59797199998866,95.24843569999211,95.24843569999211,95.74997519998578,45,45,95.74997519998578,95.74997519998578,95.74997519998578,95.74997519998578,95.74997519998578,95.74997519998578,95.74997519998578,95.74997519998578,95.74997519998578,96.11636250000447,96.11636250000447,96.11636250000447,96.11636250000447,96.11636250000447,96.11636250000447,96.11636250000447,96.11636250000447,96.11636250000447,23,0,,,96.11636250000447,96.31876059999922,1000,96.31876059999922,1000,1000,1000,1000,0,num_3,0.46547119997558184,,20,2,2026-03-02_15h33.57.692,2026A_exp2,2022.2.4,59.93859889926,
1000,1,4.9,0.0,1,0,14,14,72,,,,,96.80046500000753,97.4509861000115,97.4509861000115,97.935280900012,45,315,97.935280900012,97.935280900012,97.935280900012,97.935280900012,97.935280900012,97.935280900012,97.935280900012,97.935280900012,97.935280900012,98.30178320000414,98.30178320000414,98.30178320000414,98.30178320000414,98.30178320000414,98.30178320000414,98.30178320000414,98.30178320000414,98.30178320000414,15,3,"[0.001201900013256818, 0.03355429999646731, 0.15033030000631697]","[0.017963699996471405, 0.10020270000677556, 0.2004153000016231]",98.30178320000414,98.50388380000368,1000,98.50388380000368,1000,1000,1000,1000,0,num_3,0.41637659998377785,,20,2,2026-03-02_15h33.57.692,2026A_exp2,2022.2.4,59.93859889926,
0,0,0.0,0.0,1,0,15,15,89,,,,,98.9357386000047,99.58650440000929,99.58650440000929,100.0874851999979,45,315,100.0874851999979,100.0874851999979,100.0874851999979,100.0874851999979,100.0874851999979,100.0874851999979,100.0874851999979,100.0874851999979,100.0874851999979,100.45399410001119,100.45399410001119,100.45399410001119,100.45399410001119,100.45399410001119,100.45399410001119,100.45399410001119,100.45399410001119,100.45399410001119,0,1,[0.0007411999977193773],[0.3679376000072807],100.45399410001119,100.65417699998943,0.0,100.65417699998943,1,0.0,0,0,1000,num_4,0.8257879000157118,,20,2,2026-03-02_15h33.57.692,2026A_exp2,2022.2.4,59.93859889926,
1000,1,4.9,0.0,1,0,16,16,22,,,,,101.50478620000649,102.15572459998657,102.15572459998657,102.63972710000235,315,315,102.63972710000235,102.63972710000235,102.63972710000235,102.63972710000235,102.63972710000235,102.63972710000235,102.63972710000235,102.63972710000235,102.63972710000235,103.00630129998899,103.00630129998899,103.00630129998899,103.00630129998899,103.00630129998899,103.00630129998899,103.00630129998899,103.00630129998899,103.00630129998899,10,5,"[0.0012006000033579767, 0.06695330000366084, 0.18360190000385046, 0.25028670000028796, 0.30036150000523776]","[0.03283490001922473, 0.16670100000919774, 0.20007020002231002, 0.26682180000352673, 0.3501492000068538]",103.00630129998899,103.20881429998553,1000,103.20881429998553,1000,1000,1000,1000,0,num_3,0.46337479999056086,,20,2,2026-03-02_15h33.57.692,2026A_exp2,2022.2.4,59.93859889926,
1000,1,3.7,0.0,0,0,17,17,57,,,,,103.69062239999766,104.3411524000112,104.3411524000112,104.84238640000694,315,315,104.84238640000694,104.84238640000694,104.84238640000694,104.84238640000694,104.84238640000694,104.84238640000694,104.84238640000694,104.84238640000694,104.84238640000694,105.19204930000706,105.19204930000706,105.19204930000706,105.19204930000706,105.19204930000706,105.19204930000706,105.19204930000706,105.19204930000706,105.19204930000706,11,6,"[0.0501051000028383, 0.10020559999975376, 0.1335702000069432, 0.23379679999197833, 0.2671686999965459, 0.3339799999957904]","[0.06664969999110326, 0.11663770000450313, 0.21679629999562167, 0.2502049999893643, 0.300207499996759, 0.3503465999965556]",105.19204930000706,105.39418279999518,1000,105.40899679998984,1000,1000,1000,1000,0,num_3,0.4795408000063617,,20,2,2026-03-02_15h33.57.692,2026A_exp2,2022.2.4,59.93859889926,
1000,1,6.1,0.0,0,0,18,18,14,,,,,105.90928379999241,106.56008649998694,106.56008649998694,107.0611210000061,45,315,107.0611210000061,107.0611210000061,107.0611210000061,107.0611210000061,107.0611210000061,107.0611210000061,107.0611210000061,107.0611210000061,107.0611210000061,107.42754340000101,107.42754340000101,107.42754340000101,107.42754340000101,107.42754340000101,107.42754340000101,107.42754340000101,107.42754340000101,107.42754340000101,0,1,[0.001289699983317405],[0.36733409998123534],107.42754340000101,107.6298792999878,1000,107.6298792999878,1000,1000,1000,1000,0,num_3,0.530060000019148,,20,2,2026-03-02_15h33.57.692,2026A_exp2,2022.2.4,59.93859889926,
1,0,0.0,6.1,1,0,19,19,40,,,,,108.17829360000906,108.82902490001288,108.82902490001288,109.33017480000854,315,315,109.33017480000854,109.33017480000854,109.33017480000854,109.33017480000854,109.33017480000854,109.33017480000854,109.33017480000854,109.33017480000854,109.33017480000854,109.69654850001098,109.69654850001098,109.69654850001098,109.69654850001098,109.69654850001098,109.69654850001098,109.69654850001098,109.69654850001098,109.69654850001098,1,2,"[0.0012479999859351665, 0.06678419999661855]","[0.0497763000021223, 0.3670640999916941]",109.69654850001098,109.89672530000098,6.1,109.89672530000098,1,6.1,1,1,1000,num_4,1.1031135999946855,,20,2,2026-03-02_15h33.57.692,2026A_exp2,2022.2.4,59.93859889926,
0,0,6.1,3.7,1,0,20,20,49,,,,,111.0310768999916,111.68183929999941,111.68183929999941,112.16634570001042,45,315,112.16634570001042,112.16634570001042,112.16634570001042,112.16634570001042,112.16634570001042,112.16634570001042,112.16634570001042,112.16634570001042,112.16634570001042,112.53263920001336,112.53263920001336,112.53263920001336,112.53263920001336,112.53263920001336,112.53263920001336,112.53263920001336,112.53263920001336,112.53263920001336,6,2,"[0.0012227999977767467, 0.28371160000097007]","[0.1666440999833867, 0.3671042999776546]",112.53263920001336,112.7329131999868,6.1,112.7329131999868,1,6.1,1,1,1000,num_4,0.8347172999929171,,20,2,2026-03-02_15h33.57.692,2026A_exp2,2022.2.4,59.93859889926,
1000,1,6.1,0.0,1,0,21,21,75,,,,,113.58372039999813,114.23439279999002,114.23439279999002,114.71880699999747,45,45,114.71880699999747,114.71880699999747,114.71880699999747,114.71880699999747,114.71880699999747,114.71880699999747,114.71880699999747,114.71880699999747,114.71880699999747,115.08525450000889,115.08525450000889,115.08525450000889,115.08525450000889,115.08525450000889,115.08525450000889,115.08525450000889,115.08525450000889,115.08525450000889,5,3,"[0.001215500000398606, 0.08367070002714172, 0.26709050001227297]","[0.03320610002265312, 0.23346920000039972, 0.36729120000381954]",115.08525450000889,115.28730999998515,1000,115.28730999998515,1000,1000,1000,1000,0,num_3,0.5366142999846488,,20,2,2026-03-02_15h33.57.692,2026A_exp2,2022.2.4,59.93859889926,
1,0,0.0,3.7,1,0,22,22,66,,,,,115.85261420000461,116.50339840000379,116.50339840000379,117.00451860000612,45,315,117.00451860000612,117.00451860000612,117.00451860000612,117.00451860000612,117.00451860000612,117.00451860000612,117.00451860000612,117.00451860000612,117.00451860000612,117.37075219998951,117.37075219998951,117.37075219998951,117.37075219998951,117.37075219998951,117.37075219998951,117.37075219998951,117.37075219998951,117.37075219998951,11,5,"[0.050243600009707734, 0.11677580000832677, 0.18353909999132156, 0.2504470999992918, 0.35036650000256486]","[0.06693699999595992, 0.15019570000004023, 0.23326820001238957, 0.31684430001769215, 0.3671625000133645]",117.37075219998951,117.57111950000399,3.7,117.57111950000399,1,3.7,1,1,1000,num_4,0.7414690000005066,,20,2,2026-03-02_15h33.57.692,2026A_exp2,2022.2.4,59.93859889926,
1000,1,0.0,6.1,0,0,23,23,9,,,,,118.33840149999014,118.98905979999108,118.98905979999108,119.47364099998958,315,315,119.47364099998958,119.47364099998958,119.47364099998958,119.47364099998958,119.47364099998958,119.47364099998958,119.47364099998958,119.47364099998958,119.47364099998958,119.84008369999356,119.84008369999356,119.84008369999356,119.84008369999356,119.84008369999356,119.84008369999356,119.84008369999356,119.84008369999356,119.84008369999356,16,5,"[0.01735259999986738, 0.0834673999925144, 0.1335551999800373, 0.23377649998292327, 0.3171372000069823]","[0.03351370000746101, 0.10000839998247102, 0.1833547999849543, 0.2501789999951143, 0.33375180000439286]",119.84008369999356,120.04197399999248,1000,120.04197399999248,1000,1000,1000,1000,1,num_2,0.7103637999971397,,20,2,2026-03-02_15h33.57.692,2026A_exp2,2022.2.4,59.93859889926,
1000,1,4.9,0.0,1,0,24,24,5,,,,,120.7742578999896,121.4248632999952,121.4248632999952,121.92594419998932,45,45,121.92594419998932,121.92594419998932,121.92594419998932,121.92594419998932,121.92594419998932,121.92594419998932,121.92594419998932,121.92594419998932,121.92594419998932,122.29253539998899,122.29253539998899,122.29253539998899,122.29253539998899,122.29253539998899,122.29253539998899,122.29253539998899,122.29253539998899,122.29253539998899,22,1,[0.21677440000348724],[0.23357430001487955],122.29253539998899,122.521476599999,1000,122.521476599999,1000,1000,1000,1000,0,num_3,0.5348293999850284,,20,2,2026-03-02_15h33.57.692,2026A_exp2,2022.2.4,59.93859889926,
1000,1,0.0,0.0,1,0,25,25,23,,,,,123.0765027999878,123.72730520000914,123.72730520000914,124.22842659999151,45,45,124.22842659999151,124.22842659999151,124.22842659999151,124.22842659999151,124.22842659999151,124.22842659999151,124.22842659999151,124.22842659999151,124.22842659999151,124.57814219998545,124.57814219998545,124.57814219998545,124.57814219998545,124.57814219998545,124.57814219998545,124.57814219998545,124.57814219998545,124.57814219998545,2,3,"[0.0013891999842599034, 0.11691949999658391, 0.350665999983903]","[0.10026690000086091, 0.3341140999982599, 0.35067079999134876]",124.57814219998545,124.78005870000925,1000,124.79510260000825,1000,1000,1000,1000,0,num_3,1.2123091999965254,,20,2,2026-03-02_15h33.57.692,2026A_exp2,2022.2.4,59.93859889926,
1,0,4.9,0.0,0,0,26,26,58,,,,,126.02961989998585,126.680296800012,126.680296800012,127.18135979998624,315,45,127.18135979998624,127.18135979998624,127.18135979998624,127.18135979998624,127.18135979998624,127.18135979998624,127.18135979998624,127.18135979998624,127.18135979998624,127.5477561999869,127.5477561999869,127.5477561999869,127.5477561999869,127.5477561999869,127.5477561999869,127.5477561999869,127.5477561999869,127.5477561999869,23,0,,,127.5477561999869,127.74791040000855,4.9,127.74791040000855,1,4.9,1,1,1000,num_4,0.7877919999882579,,20,2,2026-03-02_15h33.57.692,2026A_exp2,2022.2.4,59.93859889926,
1000,1,0.0,3.7,0,0,27,27,51,,,,,128.56534100000863,129.2160229999863,129.2160229999863,129.70049779998953,45,315,129.70049779998953,129.70049779998953,129.70049779998953,129.70049779998953,129.70049779998953,129.70049779998953,129.70049779998953,129.70049779998953,129.70049779998953,130.06696319999173,130.06696319999173,130.06696319999173,130.06696319999173,130.06696319999173,130.06696319999173,130.06696319999173,130.06696319999173,130.06696319999173,23,0,,,130.06696319999173,130.26918339999975,1000,130.26918339999975,1000,1000,1000,1000,1,num_2,0.5785360000154469,,20,2,2026-03-02_15h33.57.692,2026A_exp2,2022.2.4,59.93859889926,
1000,1,3.7,0.0,1,0,28,28,48,,,,,130.86763630001224,131.51839400001336,131.51839400001336,132.0193406000035,45,45,132.0193406000035,132.0193406000035,132.0193406000035,132.0193406000035,132.0193406000035,132.0193406000035,132.0193406000035,132.0193406000035,132.0193406000035,132.3859412999882,132.3859412999882,132.3859412999882,132.3859412999882,132.3859412999882,132.3859412999882,132.3859412999882,132.3859412999882,132.3859412999882,17,3,"[0.0012786000152118504, 0.15036080000572838, 0.20041370001854375]","[0.03363270001136698, 0.18353350000688806, 0.21701670001493767]",132.3859412999882,,1000,132.58598579998943,1000,1000,1000,1000,0,num_3,0.48595939998631366,,20,2,2026-03-02_15h33.57.692,2026A_exp2,2022.2.4,59.93859889926,
1000,1,0.0,0.0,1,0,29,29,12,,,,,133.0904729999893,133.73732769998605,133.73732769998605,134.2383845000004,45,315,134.2383845000004,134.2383845000004,134.2383845000004,134.2383845000004,134.2383845000004,134.2383845000004,134.2383845000004,134.2383845000004,134.2383845000004,134.60481799999252,134.60481799999252,134.60481799999252,134.60481799999252,134.60481799999252,134.60481799999252,134.60481799999252,134.60481799999252,134.60481799999252,23,0,,,134.60481799999252,134.80673929999466,1000,134.80673929999466,1000,1000,1000,1000,1,num_2,1.617537899990566,,20,2,2026-03-02_15h33.57.692,2026A_exp2,2022.2.4,59.93859889926,
1000,1,0.0,0.0,0,0,30,30,81,,,,,136.4399124000047,137.09064199999557,137.09064199999557,137.59168479999062,45,315,137.59168479999062,137.59168479999062,137.59168479999062,137.59168479999062,137.59168479999062,137.59168479999062,137.59168479999062,137.59168479999062,137.59168479999062,137.94125949998852,137.94125949998852,137.94125949998852,137.94125949998852,137.94125949998852,137.94125949998852,137.94125949998852,137.94125949998852,137.94125949998852,0,1,[0.001233399991178885],[0.35043960000621155],137.94125949998852,138.1435737000138,1000,138.1435737000138,1000,1000,1000,1000,1,num_2,0.7926412999804597,,20,2,2026-03-02_15h33.57.692,2026A_exp2,2022.2.4,59.93859889926,
1,0,0.0,3.7,0,0,31,31,35,,,,,138.95928700000513,139.60984439999447,139.60984439999447,140.09427400000277,315,45,140.09427400000277,140.09427400000277,140.09427400000277,140.09427400000277,140.09427400000277,140.09427400000277,140.09427400000277,140.09427400000277,140.09427400000277,140.4606996999937,140.4606996999937,140.4606996999937,140.4606996999937,140.4606996999937,140.4606996999937,140.4606996999937,140.4606996999937,140.4606996999937,0,1,[0.0012743000115733594],[0.3671784000180196],140.4606996999937,140.66074369999114,0.0,140.66074369999114,1,0.0,0,0,1000,num_4,0.7711348999873735,,20,2,2026-03-02_15h33.57.692,2026A_exp2,2022.2.4,59.93859889926,
1000,1,0.0,4.9,1,0,32,32,76,,,,,141.46157089999178,142.09573040000396,142.09573040000396,142.59665359999053,45,45,142.59665359999053,142.59665359999053,142.59665359999053,142.59665359999053,142.59665359999053,142.59665359999053,142.59665359999053,142.59665359999053,142.59665359999053,142.96297120000236,142.96297120000236,142.96297120000236,142.96297120000236,142.96297120000236,142.96297120000236,142.96297120000236,142.96297120000236,142.96297120000236,15,1,[0.2504985999839846],[0.36686760000884533],142.96297120000236,143.16502250000485,1000,143.16502250000485,1000,1000,1000,1000,1,num_2,0.5705772999790497,,20,2,2026-03-02_15h33.57.692,2026A_exp2,2022.2.4,59.93859889926,
1000,1,0.0,6.1,0,0,33,33,37,,,,,143.76385320001282,144.4145497000136,144.4145497000136,144.9157564000052,45,45,144.9157564000052,144.9157564000052,144.9157564000052,144.9157564000052,144.9157564000052,144.9157564000052,144.9157564000052,144.9157564000052,144.9157564000052,145.28219910000917,145.28219910000917,145.28219910000917,145.28219910000917,145.28219910000917,145.28219910000917,145.28219910000917,145.28219910000917,145.28219910000917,22,1,[0.2337915999814868],[0.2504019000043627],145.28219910000917,145.48261790000834,1000,145.48261790000834,1000,1000,1000,1000,1,num_2,0.581160000001546,,20,2,2026-03-02_15h33.57.692,2026A_exp2,2022.2.4,59.93859889926,
1000,1,3.7,6.1,0,0,34,34,84,,,,,146.0829139999987,146.73368400000618,146.73368400000618,147.2429942000017,315,45,147.2429942000017,147.2429942000017,147.2429942000017,147.2429942000017,147.2429942000017,147.2429942000017,147.2429942000017,147.2429942000017,147.2429942000017,147.6009871000133,147.6009871000133,147.6009871000133,147.6009871000133,147.6009871000133,147.6009871000133,147.6009871000133,147.6009871000133,147.6009871000133,0,1,[0.003221299994038418],[0.3652599999913946],147.6009871000133,147.80740190000506,1000,147.80740190000506,1000,1000,1000,1000,1,num_2,0.48842849998618476,,20,2,2026-03-02_15h33.57.692,2026A_exp2,2022.2.4,59.93859889926,
1000,1,0.0,4.9,1,0,35,35,59,,,,,148.31839369999943,148.96910069999285,148.96910069999285,149.47032469999976,45,45,149.47032469999976,149.47032469999976,149.47032469999976,149.47032469999976,149.47032469999976,149.47032469999976,149.47032469999976,149.47032469999976,149.47032469999976,149.83674920001067,149.83674920001067,149.83674920001067,149.83674920001067,149.83674920001067,149.83674920001067,149.83674920001067,149.83674920001067,149.83674920001067,13,3,"[0.16704629999003373, 0.2339190999919083, 0.2837678999931086]","[0.21702969999751076, 0.2504119999939576, 0.3672034000046551]",149.83674920001067,150.03886289999355,1000,150.03886289999355,1000,1000,1000,1000,1,num_2,0.3456389999773819,,20,2,2026-03-02_15h33.57.692,2026A_exp2,2022.2.4,59.93859889926,
1,0,0.0,6.1,0,0,36,36,34,,,,,150.40389960000175,151.05464019998908,151.05464019998908,151.5556540999969,315,315,151.5556540999969,151.5556540999969,151.5556540999969,151.5556540999969,151.5556540999969,151.5556540999969,151.5556540999969,151.5556540999969,151.5556540999969,151.92206029998488,151.92206029998488,151.92206029998488,151.92206029998488,151.92206029998488,151.92206029998488,151.92206029998488,151.92206029998488,151.92206029998488,23,0,,,151.92206029998488,152.12208289999398,0.0,152.12208289999398,0,0.0,0,1,1000,num_1,1.1266901000053622,,20,2,2026-03-02_15h33.57.692,2026A_exp2,2022.2.4,59.93859889926,
1,0,3.7,0.0,0,0,37,37,3,,,,,153.27342049998697,153.92407949999324,153.92407949999324,154.40860759999487,45,315,154.40860759999487,154.40860759999487,154.40860759999487,154.40860759999487,154.40860759999487,154.40860759999487,154.40860759999487,154.40860759999487,154.40860759999487,154.77493750001304,154.77493750001304,154.77493750001304,154.77493750001304,154.77493750001304,154.77493750001304,154.77493750001304,154.77493750001304,154.77493750001304,0,1,[0.0012027999910060316],[0.3672716000000946],154.77493750001304,154.9752077999874,3.7,154.9752077999874,1,3.7,1,1,1000,num_4,0.7774787999805994,,20,2,2026-03-02_15h33.57.692,2026A_exp2,2022.2.4,59.93859889926,
1000,1,6.1,0.0,1,0,38,38,16,,,,,155.77585440000985,156.42666359999566,156.42666359999566,156.91104010000709,315,315,156.91104010000709,156.91104010000709,156.91104010000709,156.91104010000709,156.91104010000709,156.91104010000709,156.91104010000709,156.91104010000709,156.91104010000709,157.27749680000124,157.27749680000124,157.27749680000124,157.27749680000124,157.27749680000124,157.27749680000124,157.27749680000124,157.27749680000124,157.27749680000124,14,4,"[0.001360700000077486, 0.1002804999880027, 0.1503280999895651, 0.2672331999929156]","[0.03403089998755604, 0.13369099999545142, 0.20053870000992902, 0.3006071000127122]",157.27749680000124,157.4775886000134,1000,157.4775886000134,1000,1000,1000,1000,0,num_3,0.5231169999751728,,20,2,2026-03-02_15h33.57.692,2026A_exp2,2022.2.4,59.93859889926,
1000,1,0.0,0.0,0,0,39,39,18,,,,,158.02809499998693,158.67880090000108,158.67880090000108,159.18004549999023,315,45,159.18004549999023,159.18004549999023,159.18004549999023,159.18004549999023,159.18004549999023,159.18004549999023,159.18004549999023,159.18004549999023,159.18004549999023,159.5465733000019,159.5465733000019,159.5465733000019,159.5465733000019,159.5465733000019,159.5465733000019,159.5465733000019,159.5465733000019,159.5465733000019,5,4,"[0.0012244000099599361, 0.11673840001458302, 0.15015890001086518, 0.3004787999961991]","[0.08326509999460541, 0.13362960002268665, 0.28364930002135225, 0.3669697000004817]",159.5465733000019,159.7477205999894,1000,159.7477205999894,1000,1000,1000,1000,1,num_2,0.9636917999887373,,20,2,2026-03-02_15h33.57.692,2026A_exp2,2022.2.4,59.93859889926,
1,0,0.0,6.1,1,0,40,40,52,,,,,160.73079120001057,161.3816027000139,161.3816027000139,161.8826870000048,45,315,161.8826870000048,161.8826870000048,161.8826870000048,161.8826870000048,161.8826870000048,161.8826870000048,161.8826870000048,161.8826870000048,161.8826870000048,162.249146999995,162.249146999995,162.249146999995,162.249146999995,162.249146999995,162.249146999995,162.249146999995,162.249146999995,162.249146999995,6,3,"[0.0011950999905820936, 0.20027739999932237, 0.28377089998684824]","[0.16674250000505708, 0.21686899999622256, 0.36721299999044277]",162.249146999995,162.4493455000047,6.1,162.4493455000047,1,6.1,1,1,1000,num_4,0.7433594999893103,,20,2,2026-03-02_15h33.57.692,2026A_exp2,2022.2.4,59.93859889926,
1000,1,3.7,4.9,1,0,41,41,46,,,,,163.21661219999078,163.86740749998717,163.86740749998717,164.35174809998716,45,45,164.35174809998716,164.35174809998716,164.35174809998716,164.35174809998716,164.35174809998716,164.35174809998716,164.35174809998716,164.35174809998716,164.35174809998716,164.71827789998497,164.71827789998497,164.71827789998497,164.71827789998497,164.71827789998497,164.71827789998497,164.71827789998497,164.71827789998497,164.71827789998497,10,4,"[0.0011901000107172877, 0.10031290000188164, 0.1670303999853786, 0.28389140000217594]","[0.08337619999656454, 0.1334313999977894, 0.25022409998928197, 0.3003218999947421]",164.71827789998497,164.92033719999017,1000,164.92033719999017,1000,1000,1000,1000,1,num_2,0.5438392999931239,,20,2,2026-03-02_15h33.57.692,2026A_exp2,2022.2.4,59.93859889926,
1,0,3.7,0.0,0,0,42,42,65,,,,,165.48559339999338,166.1363008999906,166.1363008999906,166.63753649999853,45,45,166.63753649999853,166.63753649999853,166.63753649999853,166.63753649999853,166.63753649999853,166.63753649999853,166.63753649999853,166.63753649999853,166.63753649999853,167.00387889999547,167.00387889999547,167.00387889999547,167.00387889999547,167.00387889999547,167.00387889999547,167.00387889999547,167.00387889999547,167.00387889999547,23,0,,,167.00387889999547,167.20409879999352,3.7,167.20409879999352,1,3.7,1,1,1000,num_4,1.1472028999996837,,20,2,2026-03-02_15h33.57.692,2026A_exp2,2022.2.4,59.93859889926,
1000,1,6.1,6.1,1,0,43,43,77,,,,,168.37176700000418,169.02261149999686,169.02261149999686,169.5070401999983,45,45,169.5070401999983,169.5070401999983,169.5070401999983,169.5070401999983,169.5070401999983,169.5070401999983,169.5070401999983,169.5070401999983,169.5070401999983,169.8747011999949,169.8747011999949,169.8747011999949,169.8747011999949,169.8747011999949,169.8747011999949,169.8747011999949,169.8747011999949,169.8747011999949,23,0,,,169.8747011999949,170.09026719999383,1000,170.09026719999383,1000,1000,1000,1000,1,num_2,1.1500505000003614,,20,2,2026-03-02_15h33.57.692,2026A_exp2,2022.2.4,59.93859889926,
1,0,0.0,0.0,0,0,44,44,29,,,,,171.25833660000353,171.90869979999843,171.90869979999843,172.3932182000135,45,45,172.3932182000135,172.3932182000135,172.3932182000135,172.3932182000135,172.3932182000135,172.3932182000135,172.3932182000135,172.3932182000135,172.3932182000135,172.75960889999988,172.75960889999988,172.75960889999988,172.75960889999988,172.75960889999988,172.75960889999988,172.75960889999988,172.75960889999988,172.75960889999988,21,2,"[0.0012072999961674213, 0.06701229998725466]","[0.017548899981193244, 0.08361430000513792]",172.75960889999988,172.95979719999013,0.0,172.95979719999013,1,0.0,0,0,1000,num_4,0.8325007999956142,,20,2,2026-03-02_15h33.57.692,2026A_exp2,2022.2.4,59.93859889926,
1000,1,0.0,0.0,1,0,45,45,27,,,,,173.81062149998615,174.46126260000165,174.46126260000165,174.96244319999823,45,45,174.96244319999823,174.96244319999823,174.96244319999823,174.96244319999823,174.96244319999823,174.96244319999823,174.96244319999823,174.96244319999823,174.96244319999823,175.32885650001117,175.32885650001117,175.32885650001117,175.32885650001117,175.32885650001117,175.32885650001117,175.32885650001117,175.32885650001117,175.32885650001117,21,1,[0.0012501000019256026],[0.03315709999878891],175.32885650001117,175.53073339999537,1000,175.53073339999537,1000,1000,1000,1000,0,num_3,0.5731835000042338,,20,2,2026-03-02_15h33.57.692,2026A_exp2,2022.2.4,59.93859889926,
1000,1,0.0,0.0,0,0,46,46,86,,,,,176.12957339998684,176.76594509999268,176.76594509999268,177.26477859998704,315,315,177.26477859998704,177.26477859998704,177.26477859998704,177.26477859998704,177.26477859998704,177.26477859998704,177.26477859998704,177.26477859998704,177.26477859998704,177.63121190000675,177.63121190000675,177.63121190000675,177.63121190000675,177.63121190000675,177.63121190000675,177.63121190000675,177.63121190000675,177.63121190000675,3,3,"[0.001404000009642914, 0.2671120000013616, 0.31718770001316443]","[0.23376070000813343, 0.30014990002382547, 0.3671385000052396]",177.63121190000675,177.8348330000008,1000,177.8348330000008,1000,1000,1000,1000,0,num_3,0.8849114000040572,,20,2,2026-03-02_15h33.57.692,2026A_exp2,2022.2.4,59.93859889926,
1,0,0.0,0.0,1,0,47,47,73,,,,,178.74886719998904,179.39971239998704,179.39971239998704,179.90076049999334,315,45,179.90076049999334,179.90076049999334,179.90076049999334,179.90076049999334,179.90076049999334,179.90076049999334,179.90076049999334,179.90076049999334,179.90076049999334,180.26717410000856,180.26717410000856,180.26717410000856,180.26717410000856,180.26717410000856,180.26717410000856,180.26717410000856,180.26717410000856,180.26717410000856,23,0,,,180.26717410000856,180.46723089998704,0.0,180.46723089998704,0,0.0,0,1,1000,num_1,1.4128174999787007,,20,2,2026-03-02_15h33.57.692,2026A_exp2,2022.2.4,59.93859889926,
1000,1,0.0,6.1,1,0,48,48,62,,,,,181.90201499999966,182.53611290000845,182.53611290000845,183.03696309999214,45,45,183.03696309999214,183.03696309999214,183.03696309999214,183.03696309999214,183.03696309999214,183.03696309999214,183.03696309999214,183.03696309999214,183.03696309999214,183.4035598000046,183.4035598000046,183.4035598000046,183.4035598000046,183.4035598000046,183.4035598000046,183.4035598000046,183.4035598000046,183.4035598000046,23,0,,,183.4035598000046,183.6036724000005,1000,183.6036724000005,1000,1000,1000,1000,1,num_2,0.6846343000070192,,20,2,2026-03-02_15h33.57.692,2026A_exp2,2022.2.4,59.93859889926,
1,0,4.9,0.0,1,0,49,49,8,,,,,184.30440930000623,184.95514730000286,184.95514730000286,185.45620650000637,45,315,185.45620650000637,185.45620650000637,185.45620650000637,185.45620650000637,185.45620650000637,185.45620650000637,185.45620650000637,185.45620650000637,185.45620650000637,185.8227096000046,185.8227096000046,185.8227096000046,185.8227096000046,185.8227096000046,185.8227096000046,185.8227096000046,185.8227096000046,185.8227096000046,1,2,"[0.0012032999948132783, 0.0669583999842871]","[0.04999519998091273, 0.3671437999873888]",185.8227096000046,186.02277919999324,0.0,186.02277919999324,0,0.0,0,1,1000,num_1,0.8728257999755442,,20,2,2026-03-02_15h33.57.692,2026A_exp2,2022.2.4,59.93859889926,
1000,1,3.7,0.0,0,0,50,50,2,,,,,186.92363050000858,187.57440799998585,187.57440799998585,188.05890780000482,45,45,188.05890780000482,188.05890780000482,188.05890780000482,188.05890780000482,188.05890780000482,188.05890780000482,188.05890780000482,188.05890780000482,188.05890780000482,188.4252831999911,188.4252831999911,188.4252831999911,188.4252831999911,188.4252831999911,188.4252831999911,188.4252831999911,188.4252831999911,188.4252831999911,0,1,[0.0012428999762050807],[0.3673443000006955],188.4252831999911,188.62717439999687,1000,188.62717439999687,1000,1000,1000,1000,0,num_3,0.6212074999930337,,20,2,2026-03-02_15h33.57.692,2026A_exp2,2022.2.4,59.93859889926,
1000,1,0.0,3.7,0,0,51,51,78,,,,,189.27599980001105,189.92658790000132,189.92658790000132,190.42797869999777,45,45,190.42797869999777,190.42797869999777,190.42797869999777,190.42797869999777,190.42797869999777,190.42797869999777,190.42797869999777,190.42797869999777,190.42797869999777,190.77774869999848,190.77774869999848,190.77774869999848,190.77774869999848,190.77774869999848,190.77774869999848,190.77774869999848,190.77774869999848,190.77774869999848,9,5,"[0.06671359998290427, 0.10022709998884238, 0.15012219999334775, 0.2520246999920346, 0.33463810000102967]","[0.08343100000638515, 0.1334326000069268, 0.2169057999853976, 0.31731099999160506, 0.3510703000065405]",190.77774869999848,190.97997190000024,1000,190.97997190000024,1000,1000,1000,1000,1,num_2,0.628249200002756,,20,2,2026-03-02_15h33.57.692,2026A_exp2,2022.2.4,59.93859889926,
1,0,6.1,4.9,0,0,52,52,39,,,,,191.62870760000078,192.2789916000038,192.2789916000038,192.76363140001195,45,315,192.76363140001195,192.76363140001195,192.76363140001195,192.76363140001195,192.76363140001195,192.76363140001195,192.76363140001195,192.76363140001195,192.76363140001195,193.12969619999058,193.12969619999058,193.12969619999058,193.12969619999058,193.12969619999058,193.12969619999058,193.12969619999058,193.12969619999058,193.12969619999058,7,3,"[0.0010203999991063029, 0.2840204999956768, 0.36731430000509135]","[0.2338430999952834, 0.31746160000329837, 0.36731920001329854]",193.12969619999058,193.33013180000125,6.1,193.33013180000125,1,6.1,1,1,1000,num_4,0.8614152999944054,,20,2,2026-03-02_15h33.57.692,2026A_exp2,2022.2.4,59.93859889926,
1000,1,6.1,0.0,0,0,53,53,82,,,,,194.21425560000353,194.86512539998512,194.86512539998512,195.36608939999132,315,315,195.36608939999132,195.36608939999132,195.36608939999132,195.36608939999132,195.36608939999132,195.36608939999132,195.36608939999132,195.36608939999132,195.36608939999132,195.7158972999896,195.7158972999896,195.7158972999896,195.7158972999896,195.7158972999896,195.7158972999896,195.7158972999896,195.7158972999896,195.7158972999896,3,2,"[0.0012106999929528683, 0.250470500002848]","[0.23354049999034032, 0.3335804999805987]",195.7158972999896,195.91809099999955,1000,195.91809099999955,1000,1000,1000,1000,0,num_3,0.4897554999915883,,20,2,2026-03-02_15h33.57.692,2026A_exp2,2022.2.4,59.93859889926,
1,0,0.0,0.0,1,0,54,54,87,,,,,196.43318799999543,197.0839558999869,197.0839558999869,197.5849406000052,315,45,197.5849406000052,197.5849406000052,197.5849406000052,197.5849406000052,197.5849406000052,197.5849406000052,197.5849406000052,197.5849406000052,197.5849406000052,197.95141830001376,197.95141830001376,197.95141830001376,197.95141830001376,197.95141830001376,197.95141830001376,197.95141830001376,197.95141830001376,197.95141830001376,5,3,"[0.03361439998843707, 0.08357819999218918, 0.33388759999070317]","[0.05034959997283295, 0.3168823999876622, 0.36721050000051036]",197.95141830001376,198.15159570000833,0.0,198.15159570000833,0,0.0,0,1,1000,num_1,0.9281371999823023,,20,2,2026-03-02_15h33.57.692,2026A_exp2,2022.2.4,59.93859889926,
1000,1,6.1,0.0,1,0,55,55,69,,,,,199.10365699999966,199.7549815000093,199.7549815000093,200.25949749999563,315,315,200.25949749999563,200.25949749999563,200.25949749999563,200.25949749999563,200.25949749999563,200.25949749999563,200.25949749999563,200.25949749999563,200.25949749999563,200.62086779999663,200.62086779999663,200.62086779999663,200.62086779999663,200.62086779999663,200.62086779999663,200.62086779999663,200.62086779999663,200.62086779999663,1,1,[0.02249819997814484],[0.3659085999825038],200.62086779999663,200.82291250000708,1000,200.82291250000708,1000,1000,1000,1000,0,num_3,0.4409668000007514,,20,2,2026-03-02_15h33.57.692,2026A_exp2,2022.2.4,59.93859889926,
0,0,4.9,0.0,1,0,56,56,25,,,,,201.28816039999947,201.93892419998883,201.93892419998883,202.4399071999942,315,315,202.4399071999942,202.4399071999942,202.4399071999942,202.4399071999942,202.4399071999942,202.4399071999942,202.4399071999942,202.4399071999942,202.4399071999942,202.78952319998643,202.78952319998643,202.78952319998643,202.78952319998643,202.78952319998643,202.78952319998643,202.78952319998643,202.78952319998643,202.78952319998643,15,4,"[0.08355350000783801, 0.13354539999272674, 0.250477099994896, 0.2838093999889679]","[0.11700080000446178, 0.14993220000178553, 0.26668899998185225, 0.33355340000707656]",202.78952319998643,202.98961039999267,4.9,203.0062748999917,1,4.9,1,1,1000,num_4,0.8251620999944862,,20,2,2026-03-02_15h33.57.692,2026A_exp2,2022.2.4,59.93859889926,
1000,1,0.0,0.0,0,0,57,57,83,,,,,203.8574801000068,204.49098870001035,204.49098870001035,204.99237260001246,315,45,204.99237260001246,204.99237260001246,204.99237260001246,204.99237260001246,204.99237260001246,204.99237260001246,204.99237260001246,204.99237260001246,204.99237260001246,205.35887920000823,205.35887920000823,205.35887920000823,205.35887920000823,205.35887920000823,205.35887920000823,205.35887920000823,205.35887920000823,205.35887920000823,6,7,"[0.0011922999983653426, 0.0833402999851387, 0.11646919997292571, 0.15004159999080002, 0.20036939997226, 0.2503821999998763, 0.28374189999885857]","[0.06660429999465123, 0.10059209997416474, 0.1332467999891378, 0.18362060000072233, 0.23383019998436794, 0.26707569998688996, 0.36720399998012]",205.35887920000823,205.5611171000055,1000,205.5611171000055,1000,1000,1000,1000,0,num_3,0.5181164999958128,,20,2,2026-03-02_15h33.57.692,2026A_exp2,2022.2.4,59.93859889926,
0,0,0.0,6.1,0,0,58,58,7,,,,,206.10946869998588,206.760340000008,206.760340000008,207.27333100000396,45,315,207.27333100000396,207.27333100000396,207.27333100000396,207.27333100000396,207.27333100000396,207.27333100000396,207.27333100000396,207.27333100000396,207.27333100000396,207.6280071999936,207.6280071999936,207.6280071999936,207.6280071999936,207.6280071999936,207.6280071999936,207.6280071999936,207.6280071999936,207.6280071999936,23,0,,,207.6280071999936,207.83080940000946,6.1,207.83080940000946,1,6.1,1,1,1000,num_4,0.7524489999923389,,20,2,2026-03-02_15h33.57.692,2026A_exp2,2022.2.4,59.93859889926,
1000,1,0.0,0.0,0,0,59,59,85,,,,,208.61207390000345,209.26279380000778,209.26279380000778,209.7471588999906,315,315,209.7471588999906,209.7471588999906,209.7471588999906,209.7471588999906,209.7471588999906,209.7471588999906,209.7471588999906,209.7471588999906,209.7471588999906,210.11365079999086,210.11365079999086,210.11365079999086,210.11365079999086,210.11365079999086,210.11365079999086,210.11365079999086,210.11365079999086,210.11365079999086,23,0,,,210.11365079999086,210.31568890000926,1000,210.31568890000926,1000,1000,1000,1000,0,num_3,0.5246862000203691,,20,2,2026-03-02_15h33.57.692,2026A_exp2,2022.2.4,59.93859889926,
1,0,6.1,4.9,0,0,60,60,24,,,,,210.86432319998858,211.51509619998978,211.51509619998978,212.01625300000887,315,45,212.01625300000887,212.01625300000887,212.01625300000887,212.01625300000887,212.01625300000887,212.01625300000887,212.01625300000887,212.01625300000887,212.01625300000887,212.3657460999966,212.3657460999966,212.3657460999966,212.3657460999966,212.3657460999966,212.3657460999966,212.3657460999966,212.3657460999966,212.3657460999966,0,1,[0.0012174999865237623],[0.3507339999778196],212.3657460999966,212.56600789999356,6.1,212.58283699999447,1,6.1,1,1,1000,num_4,0.7686160999874119,,20,2,2026-03-02_15h33.57.692,2026A_exp2,2022.2.4,59.93859889926,
1000,1,0.0,6.1,1,0,61,61,88,,,,,213.3669363000081,214.01748609999777,214.01748609999777,214.51871100001154,45,315,214.51871100001154,214.51871100001154,214.51871100001154,214.51871100001154,214.51871100001154,214.51871100001154,214.51871100001154,214.51871100001154,214.51871100001154,214.8851544999925,214.8851544999925,214.8851544999925,214.8851544999925,214.8851544999925,214.8851544999925,214.8851544999925,214.8851544999925,214.8851544999925,23,0,,,214.8851544999925,215.0872621999879,1000,215.0872621999879,1000,1000,1000,1000,1,num_2,0.6406795000075363,,20,2,2026-03-02_15h33.57.692,2026A_exp2,2022.2.4,59.93859889926,
1,0,0.0,4.9,1,0,62,62,53,,,,,215.7524798999948,216.4032242000103,216.4032242000103,216.90427009999985,315,45,216.90427009999985,216.90427009999985,216.90427009999985,216.90427009999985,216.90427009999985,216.90427009999985,216.90427009999985,216.90427009999985,216.90427009999985,217.2708077999996,217.2708077999996,217.2708077999996,217.2708077999996,217.2708077999996,217.2708077999996,217.2708077999996,217.2708077999996,217.2708077999996,0,1,[0.00122969999210909],[0.3670665000099689],217.2708077999996,217.47084120000363,4.9,217.47084120000363,1,4.9,1,1,1000,num_4,0.8168157000036445,,20,2,2026-03-02_15h33.57.692,2026A_exp2,2022.2.4,59.93859889926,
1000,1,4.9,6.1,1,0,63,63,28,,,,,218.30498779998743,218.95581690000836,218.95581690000836,219.4402340000088,315,315,219.4402340000088,219.4402340000088,219.4402340000088,219.4402340000088,219.4402340000088,219.4402340000088,219.4402340000088,219.4402340000088,219.4402340000088,219.8067267999868,219.8067267999868,219.8067267999868,219.8067267999868,219.8067267999868,219.8067267999868,219.8067267999868,219.8067267999868,219.8067267999868,23,0,,,219.8067267999868,220.0066383999947,1000,220.0066383999947,1000,1000,1000,1000,1,num_2,0.8569651999860071,,20,2,2026-03-02_15h33.57.692,2026A_exp2,2022.2.4,59.93859889926,
0,0,0.0,3.7,1,0,64,64,10,,,,,220.8910707999894,221.52509529999224,221.52509529999224,222.02622490000795,315,45,222.02622490000795,222.02622490000795,222.02622490000795,222.02622490000795,222.02622490000795,222.02622490000795,222.02622490000795,222.02622490000795,222.02622490000795,222.3924951000081,222.3924951000081,222.3924951000081,222.3924951000081,222.3924951000081,222.3924951000081,222.3924951000081,222.3924951000081,222.3924951000081,23,0,,,222.3924951000081,222.59281179998652,0.0,222.59281179998652,0,0.0,0,1,1000,num_1,0.8786913999938406,,20,2,2026-03-02_15h33.57.692,2026A_exp2,2022.2.4,59.93859889926,
1,0,0.0,6.1,0,0,65,65,60,,,,,223.49368650000542,224.1442429999879,224.1442429999879,224.62874099999317,45,315,224.62874099999317,224.62874099999317,224.62874099999317,224.62874099999317,224.62874099999317,224.62874099999317,224.62874099999317,224.62874099999317,224.62874099999317,224.99522489999072,224.99522489999072,224.99522489999072,224.99522489999072,224.99522489999072,224.99522489999072,224.99522489999072,224.99522489999072,224.99522489999072,23,0,,,224.99522489999072,225.19532020000042,0.0,225.19532020000042,0,0.0,0,1,1000,num_1,0.8282231999910437,,20,2,2026-03-02_15h33.57.692,2026A_exp2,2022.2.4,59.93859889926,
1,0,0.0,0.0,0,0,66,66,1,,,,,226.04604700001073,226.69688420000602,226.69688420000602,227.19682599999942,45,315,227.19682599999942,227.19682599999942,227.19682599999942,227.19682599999942,227.19682599999942,227.19682599999942,227.19682599999942,227.19682599999942,227.19682599999942,227.5478998000035,227.5478998000035,227.5478998000035,227.5478998000035,227.5478998000035,227.5478998000035,227.5478998000035,227.5478998000035,227.5478998000035,1,2,"[0.0042474000074435025, 0.04986500000813976]","[0.032914700015680864, 0.36559410000336356]",227.5478998000035,227.7510667000024,0.0,227.7510667000024,1,0.0,0,0,1000,num_4,1.2409963000100106,,20,2,2026-03-02_15h33.57.692,2026A_exp2,2022.2.4,59.93859889926,
1,0,0.0,6.1,0,0,67,67,11,,,,,229.0156566000078,229.6666358000075,229.6666358000075,230.15089449999505,315,45,230.15089449999505,230.15089449999505,230.15089449999505,230.15089449999505,230.15089449999505,230.15089449999505,230.15089449999505,230.15089449999505,230.15089449999505,230.5172489999968,230.5172489999968,230.5172489999968,230.5172489999968,230.5172489999968,230.5172489999968,230.5172489999968,230.5172489999968,230.5172489999968,0,1,[0.0012026999902445823],[0.3671361999877263],230.5172489999968,230.71758460000274,0.0,230.71758460000274,0,0.0,0,1,1000,num_1,0.9389053999911994,,20,2,2026-03-02_15h33.57.692,2026A_exp2,2022.2.4,59.93859889926,
1000,1,4.9,3.7,0,0,68,68,32,,,,,231.68504380001104,232.3359414000006,232.3359414000006,232.82033349998528,45,45,232.82033349998528,232.82033349998528,232.82033349998528,232.82033349998528,232.82033349998528,232.82033349998528,232.82033349998528,232.82033349998528,232.82033349998528,233.1867297999852,233.1867297999852,233.1867297999852,233.1867297999852,233.1867297999852,233.1867297999852,233.1867297999852,233.1867297999852,233.1867297999852,0,1,[0.001203799998620525],[0.3673326999996789],233.1867297999852,233.38868010000442,1000,233.38868010000442,1000,1000,1000,1000,0,num_3,0.5710453000210691,,20,2,2026-03-02_15h33.57.692,2026A_exp2,2022.2.4,59.93859889926,
1000,1,0.0,0.0,0,0,69,69,80,,,,,233.9872267000028,234.62158810000983,234.62158810000983,235.1226342000009,45,45,235.1226342000009,235.1226342000009,235.1226342000009,235.1226342000009,235.1226342000009,235.1226342000009,235.1226342000009,235.1226342000009,235.1226342000009,235.48893990000943,235.48893990000943,235.48893990000943,235.48893990000943,235.48893990000943,235.48893990000943,235.48893990000943,235.48893990000943,235.48893990000943,6,4,"[0.001205600012326613, 0.13357770000584424, 0.267142500000773, 0.3170815000194125]","[0.11699989999760874, 0.2504594000056386, 0.30019420001190156, 0.3337171000021044]",235.48893990000943,235.69119449998834,1000,235.69119449998834,1000,1000,1000,1000,0,num_3,0.9570817000058014,,20,2,2026-03-02_15h33.57.692,2026A_exp2,2022.2.4,59.93859889926,
1,0,0.0,0.0,1,0,70,70,6,,,,,236.67344849999063,237.32419330000994,237.32419330000994,237.82521539999289,45,45,237.82521539999289,237.82521539999289,237.82521539999289,237.82521539999289,237.82521539999289,237.82521539999289,237.82521539999289,237.82521539999289,237.82521539999289,238.19143000000622,238.19143000000622,238.19143000000622,238.19143000000622,238.19143000000622,238.19143000000622,238.19143000000622,238.19143000000622,238.19143000000622,13,6,"[0.0335266999900341, 0.10024559998419136, 0.18374730000505224, 0.2504336999845691, 0.30046880000736564, 0.35029149998445064]","[0.050335300009464845, 0.11724240001058206, 0.23383059998741373, 0.26687459999811836, 0.33390279999002814, 0.36713999998755753]",238.19143000000622,238.39197160000913,0.0,238.39197160000913,0,0.0,0,1,1000,num_1,0.9843083999876399,,20,2,2026-03-02_15h33.57.692,2026A_exp2,2022.2.4,59.93859889926,
1000,1,3.7,6.1,0,0,71,71,0,,,,,239.39273689998663,240.04362989999936,240.04362989999936,240.54472460001125,315,315,240.54472460001125,240.54472460001125,240.54472460001125,240.54472460001125,240.54472460001125,240.54472460001125,240.54472460001125,240.54472460001125,240.54472460001125,240.89445089999936,240.89445089999936,240.89445089999936,240.89445089999936,240.89445089999936,240.89445089999936,240.89445089999936,240.89445089999936,240.89445089999936,0,1,[0.0012275000044610351],[0.35030240000924096],240.89445089999936,241.09628249998786,1000,241.09628249998786,1000,1000,1000,1000,1,num_2,0.5673872000188567,,20,2,2026-03-02_15h33.57.692,2026A_exp2,2022.2.4,59.93859889926,
1000,1,0.0,0.0,1,0,72,72,33,,,,,241.6953266999917,242.3457463000086,242.3457463000086,242.84699280001223,315,45,242.84699280001223,242.84699280001223,242.84699280001223,242.84699280001223,242.84699280001223,242.84699280001223,242.84699280001223,242.84699280001223,242.84699280001223,243.21344270001282,243.21344270001282,243.21344270001282,243.21344270001282,243.21344270001282,243.21344270001282,243.21344270001282,243.21344270001282,243.21344270001282,0,1,[0.0012428000045474619],[0.3668177000072319],243.21344270001282,243.41538859999855,1000,243.41538859999855,1000,1000,1000,1000,0,num_3,1.2882828999718186,,20,2,2026-03-02_15h33.57.692,2026A_exp2,2022.2.4,59.93859889926,
1,0,0.0,4.9,1,0,73,73,21,,,,,244.73150540000643,245.38228940000408,245.38228940000408,245.88342190001276,315,45,245.88342190001276,245.88342190001276,245.88342190001276,245.88342190001276,245.88342190001276,245.88342190001276,245.88342190001276,245.88342190001276,245.88342190001276,246.24983509999583,246.24983509999583,246.24983509999583,246.24983509999583,246.24983509999583,246.24983509999583,246.24983509999583,246.24983509999583,246.24983509999583,23,0,,,246.24983509999583,246.44994930000394,4.9,246.44994930000394,1,4.9,1,1,1000,num_4,0.7335450999962632,,20,2,2026-03-02_15h33.57.692,2026A_exp2,2022.2.4,59.93859889926,
0,0,0.0,0.0,1,0,74,74,71,,,,,247.20060609999928,247.85140710000996,247.85140710000996,248.33569470001385,315,315,248.33569470001385,248.33569470001385,248.33569470001385,248.33569470001385,248.33569470001385,248.33569470001385,248.33569470001385,248.33569470001385,248.33569470001385,248.7022830999922,248.7022830999922,248.7022830999922,248.7022830999922,248.7022830999922,248.7022830999922,248.7022830999922,248.7022830999922,248.7022830999922,1,1,[0.017079500015825033],[0.3668263000145089],248.7022830999922,248.90239120001206,0.0,248.90239120001206,0,0.0,0,1,1000,num_1,1.5780896999931429,,20,2,2026-03-02_15h33.57.692,2026A_exp2,2022.2.4,59.93859889926,
1,0,3.7,0.0,0,0,75,75,42,,,,,250.503962399991,251.15470109999296,251.15470109999296,251.63903190000565,45,45,251.63903190000565,251.63903190000565,251.63903190000565,251.63903190000565,251.63903190000565,251.63903190000565,251.63903190000565,251.63903190000565,251.63903190000565,252.00537850000546,252.00537850000546,252.00537850000546,252.00537850000546,252.00537850000546,252.00537850000546,252.00537850000546,252.00537850000546,252.00537850000546,0,1,[0.0012518999865278602],[0.36732029999257065],252.00537850000546,252.20569629999227,3.7,252.20569629999227,1,3.7,1,1,1000,num_4,1.1227949000021908,,20,2,2026-03-02_15h33.57.692,2026A_exp2,2022.2.4,59.93859889926,
1000,1,4.9,0.0,0,0,76,76,54,,,,,253.35675219999393,254.00756150000961,254.00756150000961,254.4918650999898,45,45,254.4918650999898,254.4918650999898,254.4918650999898,254.4918650999898,254.4918650999898,254.4918650999898,254.4918650999898,254.4918650999898,254.4918650999898,254.8583476000058,254.8583476000058,254.8583476000058,254.8583476000058,254.8583476000058,254.8583476000058,254.8583476000058,254.8583476000058,254.8583476000058,10,3,"[0.06709590001264587, 0.15057230001548305, 0.2004560999921523]","[0.08367200000793673, 0.16709820000687614, 0.36727660000906326]",254.8583476000058,255.06029759999365,1000,255.06029759999365,1000,1000,1000,1000,0,num_3,0.7954749000200536,,20,2,2026-03-02_15h33.57.692,2026A_exp2,2022.2.4,59.93859889926,
1,0,0.0,6.1,1,0,77,77,36,,,,,255.8759643000085,256.5265902999963,256.5265902999963,257.0277994000062,45,45,257.0277994000062,257.0277994000062,257.0277994000062,257.0277994000062,257.0277994000062,257.0277994000062,257.0277994000062,257.0277994000062,257.0277994000062,257.39427140000043,257.39427140000043,257.39427140000043,257.39427140000043,257.39427140000043,257.39427140000043,257.39427140000043,257.39427140000043,257.39427140000043,0,1,[0.0012100000167265534],[0.3672294999996666],257.39427140000043,257.5944359000132,6.1,257.5944359000132,1,6.1,1,1,1000,num_4,0.7730812999943737,,20,2,2026-03-02_15h33.57.692,2026A_exp2,2022.2.4,59.93859889926,
1000,1,0.0,4.9,1,0,78,78,79,,,,,258.3950629000028,259.0459290999861,259.0459290999861,259.5302052999905,315,315,259.5302052999905,259.5302052999905,259.5302052999905,259.5302052999905,259.5302052999905,259.5302052999905,259.5302052999905,259.5302052999905,259.5302052999905,259.8967771999887,259.8967771999887,259.8967771999887,259.8967771999887,259.8967771999887,259.8967771999887,259.8967771999887,259.8967771999887,259.8967771999887,19,1,[0.0011972000065725297],[0.06692559999646619],259.8967771999887,260.0988898999931,1000,260.0988898999931,1000,1000,1000,1000,1,num_2,1.1887313000042923,,20,2,2026-03-02_15h33.57.692,2026A_exp2,2022.2.4,59.93859889926,
1000,1,3.7,0.0,0,0,79,79,45,,,,,261.3148947999871,261.9654300000111,261.9654300000111,262.44988070000545,315,45,262.44988070000545,262.44988070000545,262.44988070000545,262.44988070000545,262.44988070000545,262.44988070000545,262.44988070000545,262.44988070000545,262.44988070000545,262.8165114999865,262.8165114999865,262.8165114999865,262.8165114999865,262.8165114999865,262.8165114999865,262.8165114999865,262.8165114999865,262.8165114999865,0,1,[0.00120160001097247],[0.36715750000439584],262.8165114999865,263.016509100009,1000,263.016509100009,1000,1000,1000,1000,0,num_3,0.48739160000695847,,20,2,2026-03-02_15h33.57.692,2026A_exp2,2022.2.4,59.93859889926,
1000,1,6.1,0.0,1,0,80,80,68,,,,,263.53356619999977,264.1931190000032,264.1931190000032,264.68552759999875,315,315,264.68552759999875,264.68552759999875,264.68552759999875,264.68552759999875,264.68552759999875,264.68552759999875,264.68552759999875,264.68552759999875,264.68552759999875,265.0351795000024,265.0351795000024,265.0351795000024,265.0351795000024,265.0351795000024,265.0351795000024,265.0351795000024,265.0351795000024,265.0351795000024,1,2,"[0.0012011000071652234, 0.033622999995714054]","[0.01718940000864677, 0.3505209000140894]",265.0351795000024,265.237535799999,1000,265.237535799999,1000,1000,1000,1000,0,num_3,0.3701308000017889,,20,2,2026-03-02_15h33.57.692,2026A_exp2,2022.2.4,59.93859889926,
1000,1,0.0,3.7,1,0,81,81,47,,,,,265.63563299999805,266.2865146000113,266.2865146000113,266.7709651000041,315,45,266.7709651000041,266.7709651000041,266.7709651000041,266.7709651000041,266.7709651000041,266.7709651000041,266.7709651000041,266.7709651000041,266.7709651000041,267.1373140999931,267.1373140999931,267.1373140999931,267.1373140999931,267.1373140999931,267.1373140999931,267.1373140999931,267.1373140999931,267.1373140999931,1,2,"[0.0012100000167265534, 0.06692250000196509]","[0.05042330001015216, 0.36726610001642257]",267.1373140999931,267.33954950000043,1000,267.33954950000043,1000,1000,1000,1000,1,num_2,0.4525815999950282,,20,2,2026-03-02_15h33.57.692,2026A_exp2,2022.2.4,59.93859889926,
1,0,0.0,3.7,0,0,82,82,61,,,,,267.82122390001314,268.4718475000118,268.4718475000118,268.9730218999903,315,45,268.9730218999903,268.9730218999903,268.9730218999903,268.9730218999903,268.9730218999903,268.9730218999903,268.9730218999903,268.9730218999903,268.9730218999903,269.3228068999888,269.3228068999888,269.3228068999888,269.3228068999888,269.3228068999888,269.3228068999888,269.3228068999888,269.3228068999888,269.3228068999888,11,6,"[0.0012347000010777265, 0.06685660002403893, 0.1504068000067491, 0.18373680001241155, 0.26684060000116006, 0.31693270002142526]","[0.03324710001470521, 0.10014670001692139, 0.16687360001378693, 0.21680590001051314, 0.2998877000063658, 0.35007490002317354]",269.3228068999888,269.5230128999974,0.0,269.53958549999516,0,0.0,0,1,1000,num_1,0.7326115999894682,,20,2,2026-03-02_15h33.57.692,2026A_exp2,2022.2.4,59.93859889926,
1,0,3.7,3.7,0,0,83,83,13,,,,,270.29032249999,270.94113570000627,270.94113570000627,271.42549590001,315,315,271.42549590001,271.42549590001,271.42549590001,271.42549590001,271.42549590001,271.42549590001,271.42549590001,271.42549590001,271.42549590001,271.7919091999938,271.7919091999938,271.7919091999938,271.7919091999938,271.7919091999938,271.7919091999938,271.7919091999938,271.7919091999938,271.7919091999938,5,6,"[0.0009245999972335994, 0.03366519999690354, 0.10070929999346845, 0.1340075999905821, 0.2508011999889277, 0.36748960000113584]","[0.017245499999262393, 0.08360539999557659, 0.11700189998373389, 0.23387080000247806, 0.3504014999780338, 0.36749370000325143]",271.7919091999938,271.9921905999945,3.7,271.9921905999945,0,3.7,1,0,1000,num_1,1.5595960000064224,,20,2,2026-03-02_15h33.57.692,2026A_exp2,2022.2.4,59.93859889926,
1,0,0.0,3.7,1,0,84,84,41,,,,,273.57731890000287,274.22777090000454,274.22777090000454,274.72880139999324,45,315,274.72880139999324,274.72880139999324,274.72880139999324,274.72880139999324,274.72880139999324,274.72880139999324,274.72880139999324,274.72880139999324,274.72880139999324,275.0952309000131,275.0952309000131,275.0952309000131,275.0952309000131,275.0952309000131,275.0952309000131,275.0952309000131,275.0952309000131,275.0952309000131,1,2,"[0.0012224999954923987, 0.3672136999957729]","[0.3503271999943536, 0.3672182000009343]",275.0952309000131,275.2956942000019,3.7,275.2956942000019,1,3.7,1,1,1000,num_4,0.7359414999955334,,20,2,2026-03-02_15h33.57.692,2026A_exp2,2022.2.4,59.93859889926,
1000,1,0.0,0.0,0,0,85,85,17,,,,,276.062776900013,276.71345350000774,276.71345350000774,277.1981072000053,315,315,277.1981072000053,277.1981072000053,277.1981072000053,277.1981072000053,277.1981072000053,277.1981072000053,277.1981072000053,277.1981072000053,277.1981072000053,277.5644704999868,277.5644704999868,277.5644704999868,277.5644704999868,277.5644704999868,277.5644704999868,277.5644704999868,277.5644704999868,277.5644704999868,2,2,"[0.0012258000206202269, 0.3002676000178326]","[0.2667535000073258, 0.36693560000276193]",277.5644704999868,277.7939958999923,1000,277.7939958999923,1000,1000,1000,1000,1,num_2,0.9413512999890372,,20,2,2026-03-02_15h33.57.692,2026A_exp2,2022.2.4,59.93859889926,
1000,1,3.7,4.9,1,0,86,86,43,,,,,278.765598900005,279.4163576000137,279.4163576000137,279.91726280000876,45,45,279.91726280000876,279.91726280000876,279.91726280000876,279.91726280000876,279.91726280000876,279.91726280000876,279.91726280000876,279.91726280000876,279.91726280000876,280.28345320001245,280.28345320001245,280.28345320001245,280.28345320001245,280.28345320001245,280.28345320001245,280.28345320001245,280.28345320001245,280.28345320001245,0,1,[0.001213999988976866],[0.3669394999742508],280.28345320001245,280.4860483999946,1000,280.4860483999946,1000,1000,1000,1000,1,num_2,0.5620927000127267,,20,2,2026-03-02_15h33.57.692,2026A_exp2,2022.2.4,59.93859889926,
1000,1,0.0,0.0,0,0,87,87,64,,,,,281.0678467999969,281.71850540000014,281.71850540000014,282.21974100000807,315,45,282.21974100000807,282.21974100000807,282.21974100000807,282.21974100000807,282.21974100000807,282.21974100000807,282.21974100000807,282.21974100000807,282.21974100000807,282.5861439,282.5861439,282.5861439,282.5861439,282.5861439,282.5861439,282.5861439,282.5861439,282.5861439,0,1,[0.0011852000025101006],[0.36724880000110716],282.5861439,282.7880157000036,1000,282.7880157000036,1000,1000,1000,1000,0,num_3,1.324240500020096,,20,2,2026-03-02_15h33.57.692,2026A_exp2,2022.2.4,59.93859889926,
1000,1,4.9,6.1,0,0,88,88,20,,,,,284.1375745999976,284.78833690000465,284.78833690000465,285.2894685000065,315,315,285.2894685000065,285.2894685000065,285.2894685000065,285.2894685000065,285.2894685000065,285.2894685000065,285.2894685000065,285.2894685000065,285.2894685000065,285.6558091999905,285.6558091999905,285.6558091999905,285.6558091999905,285.6558091999905,285.6558091999905,285.6558091999905,285.6558091999905,285.6558091999905,23,0,,,285.6558091999905,285.855919499998,1000,285.855919499998,1000,1000,1000,1000,1,num_2,0.6722803000011481,,20,2,2026-03-02_15h33.57.692,2026A_exp2,2022.2.4,59.93859889926,
1,0,0.0,4.9,0,0,89,89,4,,,,,286.55667749998975,287.2074691999878,287.2074691999878,287.70856359999743,315,45,287.70856359999743,287.70856359999743,287.70856359999743,287.70856359999743,287.70856359999743,287.70856359999743,287.70856359999743,287.70856359999743,287.70856359999743,288.0749047000136,288.0749047000136,288.0749047000136,288.0749047000136,288.0749047000136,288.0749047000136,288.0749047000136,288.0749047000136,288.0749047000136,23,0,,,288.0749047000136,288.2751072999963,0.0,288.2751072999963,0,0.0,0,1,1000,num_1,1.6281806000042707,,20,2,2026-03-02_15h33.57.692,2026A_exp2,2022.2.4,59.93859889926,
,,,,,,,,,,,,,,,,,,,,,,,,,,,,,,,,,,,,,,,,,,,,,,,,,,,,289.93519819999347,,,,,,,
