validity,detectorcomp,contrastCW,contrastCCW,precueCWorCCW,block_80trials.thisRepN,block_80trials.thisTrialN,block_80trials.thisN,block_80trials.thisIndex,etRecord.started,etRecord.stopped,text.started,text.stopped,text_4.started,text_4.stopped,text_6.started,text_6.stopped,oriCW,oriCCW,roi_2.started,grating_UR.started,grating_UL.started,grating_LR.started,grating_LL.started,noise_UR.started,noise_UL.started,noise_LR.started,noise_LL.started,roi_2.stopped,grating_UR.stopped,grating_UL.stopped,grating_LR.stopped,grating_LL.stopped,noise_UR.stopped,noise_UL.stopped,noise_LR.stopped,noise_LL.stopped,outframe,roi_2.numLooks,roi_2.timesOn,roi_2.timesOff,text_2.started,text_2.stopped,probedcontrast,key_resp.started,respdetect,relevantContrast,correctDetect,TorFdetect,respCWorCCW,key_resp.keys,key_resp.rt,feedback_display_.started,participantNo,blockNo,date,expName,psychopyVersion,frameRate,
0,0,0.0,3.7,0,0,0,0,34,8.339999476447701e-05,8.339999476447701e-05,51.77801420001197,53.7829946000129,53.7829946000129,54.415350700001,54.415350700001,54.93651120000868,45,315,54.93651120000868,54.93651120000868,54.93651120000868,54.93651120000868,54.93651120000868,54.93651120000868,54.93651120000868,54.93651120000868,54.93651120000868,55.28323739999905,55.28323739999905,55.28323739999905,55.28323739999905,55.28323739999905,55.28323739999905,55.28323739999905,55.28323739999905,55.28323739999905,0,1,[0.001120700006140396],[0.3671953000011854],55.28323739999905,55.50331160001224,3.7,55.50331160001224,0,3.7,1,0,1000,num_1,0.7196083000162616,,21,12,2026-03-02_18h17.07.675,2026A_exp2,2022.2.4,59.94765371495749,
0,0,4.9,3.7,0,0,1,1,28,,,,,56.250944700004766,56.90140329999849,56.90140329999849,57.385999499994796,315,45,57.385999499994796,57.385999499994796,57.385999499994796,57.385999499994796,57.385999499994796,57.385999499994796,57.385999499994796,57.385999499994796,57.385999499994796,57.752308499999344,57.752308499999344,57.752308499999344,57.752308499999344,57.752308499999344,57.752308499999344,57.752308499999344,57.752308499999344,57.752308499999344,0,1,[0.0012215999886393547],[0.367178899992723],57.752308499999344,57.95256179998978,3.7,57.95256179998978,0,3.7,1,0,1000,num_1,0.6135471999878064,,21,12,2026-03-02_18h17.07.675,2026A_exp2,2022.2.4,59.94765371495749,
1,0,3.7,3.7,1,0,2,2,30,,,,,58.58652760001132,59.23728140001185,59.23728140001185,59.72996389999753,45,45,59.72996389999753,59.72996389999753,59.72996389999753,59.72996389999753,59.72996389999753,59.72996389999753,59.72996389999753,59.72996389999753,59.72996389999753,60.088091999990866,60.088091999990866,60.088091999990866,60.088091999990866,60.088091999990866,60.088091999990866,60.088091999990866,60.088091999990866,60.088091999990866,23,0,,,60.088091999990866,60.294654600002104,3.7,60.294654600002104,0,3.7,1,0,1000,num_1,0.42401909999898635,,21,12,2026-03-02_18h17.07.675,2026A_exp2,2022.2.4,59.94765371495749,
1000,1,0.0,3.7,1,0,3,3,13,,,,,60.73885490000248,61.389401599997655,61.389401599997655,61.890474000014365,45,45,61.890474000014365,61.890474000014365,61.890474000014365,61.890474000014365,61.890474000014365,61.890474000014365,61.890474000014365,61.890474000014365,61.890474000014365,62.25693549998687,62.25693549998687,62.25693549998687,62.25693549998687,62.25693549998687,62.25693549998687,62.25693549998687,62.25693549998687,62.25693549998687,22,1,[0.35069140000268817],[0.3674378000141587],62.25693549998687,62.46227469999576,1000,62.46227469999576,1000,1000,1000,1000,0,num_3,1.000680299999658,,21,12,2026-03-02_18h17.07.675,2026A_exp2,2022.2.4,59.94765371495749,
1,0,0.0,6.1,1,0,4,4,31,,,,,63.49148389999755,64.1421326000127,64.1421326000127,64.62659930001246,45,45,64.62659930001246,64.62659930001246,64.62659930001246,64.62659930001246,64.62659930001246,64.62659930001246,64.62659930001246,64.62659930001246,64.62659930001246,64.99277089998941,64.99277089998941,64.99277089998941,64.99277089998941,64.99277089998941,64.99277089998941,64.99277089998941,64.99277089998941,64.99277089998941,23,0,,,64.99277089998941,65.19327320001321,6.1,65.19327320001321,1,6.1,1,1,1000,num_4,0.7646996999974363,,21,12,2026-03-02_18h17.07.675,2026A_exp2,2022.2.4,59.94765371495749,
0,0,0.0,0.0,0,0,5,5,59,,,,,65.97738510000636,66.62799460001406,66.62799460001406,67.11202180001419,315,315,67.11202180001419,67.11202180001419,67.11202180001419,67.11202180001419,67.11202180001419,67.11202180001419,67.11202180001419,67.11202180001419,67.11202180001419,67.4785952999955,67.4785952999955,67.4785952999955,67.4785952999955,67.4785952999955,67.4785952999955,67.4785952999955,67.4785952999955,67.4785952999955,19,4,"[0.0012312000035308301, 0.0333571000082884, 0.06690589999197982, 0.1003183999855537]","[0.017045499989762902, 0.05001760000595823, 0.08361729999887757, 0.11703349999152124]",67.4785952999955,67.67898399999831,0.0,67.67898399999831,0,0.0,0,1,1000,num_1,0.35076490000938065,,21,12,2026-03-02_18h17.07.675,2026A_exp2,2022.2.4,59.94765371495749,
1,0,6.1,0.0,1,0,6,6,89,,,,,68.04591909999726,68.69654949998949,68.69654949998949,69.1978456999932,45,45,69.1978456999932,69.1978456999932,69.1978456999932,69.1978456999932,69.1978456999932,69.1978456999932,69.1978456999932,69.1978456999932,69.1978456999932,69.54779199999757,69.54779199999757,69.54779199999757,69.54779199999757,69.54779199999757,69.54779199999757,69.54779199999757,69.54779199999757,69.54779199999757,0,1,[0.0012288999860174954],[0.35010469998815097],69.54779199999757,69.7475470000063,0.0,69.7475470000063,0,0.0,0,1,1000,num_1,0.5063351000135299,,21,12,2026-03-02_18h17.07.675,2026A_exp2,2022.2.4,59.94765371495749,
1000,1,3.7,6.1,1,0,7,7,48,,,,,70.281418700004,70.93224289998761,70.93224289998761,71.4166406999866,45,315,71.4166406999866,71.4166406999866,71.4166406999866,71.4166406999866,71.4166406999866,71.4166406999866,71.4166406999866,71.4166406999866,71.4166406999866,71.78311970000505,71.78311970000505,71.78311970000505,71.78311970000505,71.78311970000505,71.78311970000505,71.78311970000505,71.78311970000505,71.78311970000505,22,1,[0.033477799996035174],[0.050350200006505474],71.78311970000505,71.98519629999646,1000,71.98519629999646,1000,1000,1000,1000,0,num_3,0.7169566000229679,,21,12,2026-03-02_18h17.07.675,2026A_exp2,2022.2.4,59.94765371495749,
1000,1,0.0,0.0,0,0,8,8,86,,,,,72.7172780999972,73.36801289999858,73.36801289999858,73.86904369998956,315,45,73.86904369998956,73.86904369998956,73.86904369998956,73.86904369998956,73.86904369998956,73.86904369998956,73.86904369998956,73.86904369998956,73.86904369998956,74.23564749999787,74.23564749999787,74.23564749999787,74.23564749999787,74.23564749999787,74.23564749999787,74.23564749999787,74.23564749999787,74.23564749999787,0,1,[0.0012045000039506704],[0.36706499999854714],74.23564749999787,74.43795570000657,1000,74.43795570000657,1000,1000,1000,1000,0,num_3,0.7517389999993611,,21,12,2026-03-02_18h17.07.675,2026A_exp2,2022.2.4,59.94765371495749,
1000,1,6.1,0.0,1,0,9,9,57,,,,,75.21984430000884,75.88182979999692,75.88182979999692,76.37152159999823,45,45,76.37152159999823,76.37152159999823,76.37152159999823,76.37152159999823,76.37152159999823,76.37152159999823,76.37152159999823,76.37152159999823,76.37152159999823,76.73807930000476,76.73807930000476,76.73807930000476,76.73807930000476,76.73807930000476,76.73807930000476,76.73807930000476,76.73807930000476,76.73807930000476,22,1,[0.002106100000673905],[0.015982999990228564],76.73807930000476,76.9402156000142,1000,76.9402156000142,1000,1000,1000,1000,0,num_3,0.3465874999819789,,21,12,2026-03-02_18h17.07.675,2026A_exp2,2022.2.4,59.94765371495749,
1,0,0.0,3.7,1,0,10,10,32,,,,,77.30530649999855,77.95592760000727,77.95592760000727,78.45692560001044,315,315,78.45692560001044,78.45692560001044,78.45692560001044,78.45692560001044,78.45692560001044,78.45692560001044,78.45692560001044,78.45692560001044,78.45692560001044,78.82332049999968,78.82332049999968,78.82332049999968,78.82332049999968,78.82332049999968,78.82332049999968,78.82332049999968,78.82332049999968,78.82332049999968,23,0,,,78.82332049999968,79.0235459000105,3.7,79.0235459000105,1,3.7,1,1,1000,num_4,2.638123999990057,,21,12,2026-03-02_18h17.07.675,2026A_exp2,2022.2.4,59.94765371495749,
1000,1,0.0,0.0,0,0,11,11,17,,,,,81.69290389999514,82.34362860000692,82.34362860000692,82.82813460001489,45,315,82.82813460001489,82.82813460001489,82.82813460001489,82.82813460001489,82.82813460001489,82.82813460001489,82.82813460001489,82.82813460001489,82.82813460001489,83.1944921000104,83.1944921000104,83.1944921000104,83.1944921000104,83.1944921000104,83.1944921000104,83.1944921000104,83.1944921000104,83.1944921000104,23,0,,,83.1944921000104,83.3968479000032,1000,83.3968479000032,1000,1000,1000,1000,1,num_2,0.922380100004375,,21,12,2026-03-02_18h17.07.675,2026A_exp2,2022.2.4,59.94765371495749,
1000,1,3.7,6.1,1,0,12,12,58,,,,,84.34545439999783,84.9963410999917,84.9963410999917,85.4974407000118,315,45,85.4974407000118,85.4974407000118,85.4974407000118,85.4974407000118,85.4974407000118,85.4974407000118,85.4974407000118,85.4974407000118,85.4974407000118,85.847208399995,85.847208399995,85.847208399995,85.847208399995,85.847208399995,85.847208399995,85.847208399995,85.847208399995,85.847208399995,22,0,,,85.847208399995,86.04900410000118,1000,86.0639336000022,1000,1000,1000,1000,0,num_3,0.8383727999753319,,21,12,2026-03-02_18h17.07.675,2026A_exp2,2022.2.4,59.94765371495749,
1,0,0.0,0.0,1,0,13,13,39,,,,,86.93153780000284,87.58269640000071,87.58269640000071,88.0834024999931,45,315,88.0834024999931,88.0834024999931,88.0834024999931,88.0834024999931,88.0834024999931,88.0834024999931,88.0834024999931,88.0834024999931,88.0834024999931,88.44980329999817,88.44980329999817,88.44980329999817,88.44980329999817,88.44980329999817,88.44980329999817,88.44980329999817,88.44980329999817,88.44980329999817,23,0,,,88.44980329999817,88.65001360001042,0.0,88.65001360001042,0,0.0,0,1,1000,num_1,0.380105000018375,,21,12,2026-03-02_18h17.07.675,2026A_exp2,2022.2.4,59.94765371495749,
1000,1,6.1,0.0,1,0,14,14,29,,,,,89.05026769998949,89.70091549999779,89.70091549999779,90.18552299999283,315,315,90.18552299999283,90.18552299999283,90.18552299999283,90.18552299999283,90.18552299999283,90.18552299999283,90.18552299999283,90.18552299999283,90.18552299999283,90.5519537999935,90.5519537999935,90.5519537999935,90.5519537999935,90.5519537999935,90.5519537999935,90.5519537999935,90.5519537999935,90.5519537999935,23,0,,,90.5519537999935,90.76808320000418,1000,90.76808320000418,1000,1000,1000,1000,0,num_3,0.5498489000019617,,21,12,2026-03-02_18h17.07.675,2026A_exp2,2022.2.4,59.94765371495749,
1000,1,6.1,0.0,1,0,15,15,83,,,,,91.33590139998705,91.96987400000216,91.96987400000216,92.47116059999098,315,45,92.47116059999098,92.47116059999098,92.47116059999098,92.47116059999098,92.47116059999098,92.47116059999098,92.47116059999098,92.47116059999098,92.47116059999098,92.83748479999485,92.83748479999485,92.83748479999485,92.83748479999485,92.83748479999485,92.83748479999485,92.83748479999485,92.83748479999485,92.83748479999485,23,0,,,92.83748479999485,93.03789289999986,1000,93.03789289999986,1000,1000,1000,1000,0,num_3,0.34401199998683296,,21,12,2026-03-02_18h17.07.675,2026A_exp2,2022.2.4,59.94765371495749,
1000,1,0.0,0.0,0,0,16,16,5,,,,,93.40444069998921,94.0552628999867,94.0552628999867,94.55637820000993,315,315,94.55637820000993,94.55637820000993,94.55637820000993,94.55637820000993,94.55637820000993,94.55637820000993,94.55637820000993,94.55637820000993,94.55637820000993,94.92293589998735,94.92293589998735,94.92293589998735,94.92293589998735,94.92293589998735,94.92293589998735,94.92293589998735,94.92293589998735,94.92293589998735,23,0,,,94.92293589998735,95.1248620999977,1000,95.1248620999977,1000,1000,1000,1000,0,num_3,1.2659123000048567,,21,12,2026-03-02_18h17.07.675,2026A_exp2,2022.2.4,59.94765371495749,
1000,1,4.9,0.0,0,0,17,17,54,,,,,96.407600800012,97.05824350001058,97.05824350001058,97.5595406999928,315,315,97.5595406999928,97.5595406999928,97.5595406999928,97.5595406999928,97.5595406999928,97.5595406999928,97.5595406999928,97.5595406999928,97.5595406999928,97.90925610001432,97.90925610001432,97.90925610001432,97.90925610001432,97.90925610001432,97.90925610001432,97.90925610001432,97.90925610001432,97.90925610001432,12,3,"[0.0011881999962497503, 0.06679640000220388, 0.2838937999913469]","[0.05031660001259297, 0.08370960000320338, 0.35057949999463744]",97.90925610001432,98.11108810000587,1000,98.12619770001038,1000,1000,1000,1000,0,num_3,0.44763229999807663,,21,12,2026-03-02_18h17.07.675,2026A_exp2,2022.2.4,59.94765371495749,
1,0,0.0,0.0,1,0,18,18,49,,,,,98.59321039999486,99.24384430001373,99.24384430001373,99.72827829999733,315,45,99.72827829999733,99.72827829999733,99.72827829999733,99.72827829999733,99.72827829999733,99.72827829999733,99.72827829999733,99.72827829999733,99.72827829999733,100.09466999999131,100.09466999999131,100.09466999999131,100.09466999999131,100.09466999999131,100.09466999999131,100.09466999999131,100.09466999999131,100.09466999999131,10,7,"[0.0012364000140223652, 0.08341780002228916, 0.1334659999993164, 0.166919900017092, 0.2002502000250388, 0.23371890000998974, 0.26675090001663193]","[0.017191900027683005, 0.10018590002437122, 0.15010210001491942, 0.18366570002399385, 0.2168004000268411, 0.25040630000876263, 0.36708020002697594]",100.09466999999131,100.29495999999926,0.0,100.29495999999926,0,0.0,0,1,1000,num_1,0.37553220000700094,,21,12,2026-03-02_18h17.07.675,2026A_exp2,2022.2.4,59.94765371495749,
1000,1,0.0,0.0,0,0,19,19,15,,,,,100.6952547999972,101.34601239999756,101.34601239999756,101.83043160001398,315,45,101.83043160001398,101.83043160001398,101.83043160001398,101.83043160001398,101.83043160001398,101.83043160001398,101.83043160001398,101.83043160001398,101.83043160001398,102.19673490000423,102.19673490000423,102.19673490000423,102.19673490000423,102.19673490000423,102.19673490000423,102.19673490000423,102.19673490000423,102.19673490000423,16,7,"[0.001202299987198785, 0.06697129999520257, 0.10050259999115951, 0.13381070000468753, 0.16722479998134077, 0.2005922999815084, 0.3340705999871716]","[0.017542699992191046, 0.08377379999728873, 0.11704650000319816, 0.15040089999092743, 0.18376769998576492, 0.21720029998687096, 0.3506253999948967]",102.19673490000423,102.39897650000057,1000,102.39897650000057,1000,1000,1000,1000,0,num_3,0.6072148999955971,,21,12,2026-03-02_18h17.07.675,2026A_exp2,2022.2.4,59.94765371495749,
1000,1,4.9,0.0,1,0,20,20,10,,,,,103.03058580000652,103.6650146000029,103.6650146000029,104.16611699998612,315,45,104.16611699998612,104.16611699998612,104.16611699998612,104.16611699998612,104.16611699998612,104.16611699998612,104.16611699998612,104.16611699998612,104.16611699998612,104.5324830999889,104.5324830999889,104.5324830999889,104.5324830999889,104.5324830999889,104.5324830999889,104.5324830999889,104.5324830999889,104.5324830999889,1,2,"[0.0012291999883018434, 0.3003526999964379]","[0.2837086000072304, 0.36718060000566766]",104.5324830999889,104.73417909999262,1000,104.73417909999262,1000,1000,1000,1000,0,num_3,0.32866959998500533,,21,12,2026-03-02_18h17.07.675,2026A_exp2,2022.2.4,59.94765371495749,
1,0,3.7,0.0,1,0,21,21,12,,,,,105.08294930000557,105.73371979998774,105.73371979998774,106.23477909999201,45,315,106.23477909999201,106.23477909999201,106.23477909999201,106.23477909999201,106.23477909999201,106.23477909999201,106.23477909999201,106.23477909999201,106.23477909999201,106.60127000001376,106.60127000001376,106.60127000001376,106.60127000001376,106.60127000001376,106.60127000001376,106.60127000001376,106.60127000001376,106.60127000001376,0,1,[0.001201999984914437],[0.36725519999163225],106.60127000001376,106.80157129999134,0.0,106.80157129999134,0,0.0,0,1,1000,num_1,0.5407285999972373,,21,12,2026-03-02_18h17.07.675,2026A_exp2,2022.2.4,59.94765371495749,
1000,1,4.9,4.9,1,0,22,22,68,,,,,107.36853790000896,108.0192420000094,108.0192420000094,108.50370880000992,315,45,108.50370880000992,108.50370880000992,108.50370880000992,108.50370880000992,108.50370880000992,108.50370880000992,108.50370880000992,108.50370880000992,108.50370880000992,108.86998849999509,108.86998849999509,108.86998849999509,108.86998849999509,108.86998849999509,108.86998849999509,108.86998849999509,108.86998849999509,108.86998849999509,0,1,[0.0012020000140182674],[0.3670202000066638],108.86998849999509,109.0722037999949,1000,109.0722037999949,1000,1000,1000,1000,0,num_3,0.46245550000458024,,21,12,2026-03-02_18h17.07.675,2026A_exp2,2022.2.4,59.94765371495749,
1,0,6.1,0.0,1,0,23,23,80,,,,,109.55410859998665,110.20489769999404,110.20489769999404,110.70586340001319,315,315,110.70586340001319,110.70586340001319,110.70586340001319,110.70586340001319,110.70586340001319,110.70586340001319,110.70586340001319,110.70586340001319,110.70586340001319,111.0557004000002,111.0557004000002,111.0557004000002,111.0557004000002,111.0557004000002,111.0557004000002,111.0557004000002,111.0557004000002,111.0557004000002,0,1,[0.0012271000014152378],[0.35051809999276884],111.0557004000002,111.25593330000993,0.0,111.25593330000993,0,0.0,0,1,1000,num_1,0.5912034999928437,,21,12,2026-03-02_18h17.07.675,2026A_exp2,2022.2.4,59.94765371495749,
1,0,6.1,4.9,1,0,24,24,11,,,,,111.87308150000172,112.52372150000883,112.52372150000883,113.00806019999436,315,45,113.00806019999436,113.00806019999436,113.00806019999436,113.00806019999436,113.00806019999436,113.00806019999436,113.00806019999436,113.00806019999436,113.00806019999436,113.3746577000129,113.3746577000129,113.3746577000129,113.3746577000129,113.3746577000129,113.3746577000129,113.3746577000129,113.3746577000129,113.3746577000129,2,2,"[0.0012665999820455909, 0.20007920000352897]","[0.16668080000090413, 0.3674126999976579]",113.3746577000129,113.57484089999343,4.9,113.57484089999343,1,4.9,1,1,1000,num_4,1.287715999991633,,21,12,2026-03-02_18h17.07.675,2026A_exp2,2022.2.4,59.94765371495749,
1,0,4.9,3.7,1,0,25,25,27,,,,,114.89269629999762,115.54347810000763,115.54347810000763,116.04482939999434,315,315,116.04482939999434,116.04482939999434,116.04482939999434,116.04482939999434,116.04482939999434,116.04482939999434,116.04482939999434,116.04482939999434,116.04482939999434,116.3944438000035,116.3944438000035,116.3944438000035,116.3944438000035,116.3944438000035,116.3944438000035,116.3944438000035,116.3944438000035,116.3944438000035,16,1,[0.2675935000006575],[0.3510291000129655],116.3944438000035,116.59459210000932,3.7,116.59459210000932,0,3.7,1,0,1000,num_1,1.3239075999881607,,21,12,2026-03-02_18h17.07.675,2026A_exp2,2022.2.4,59.94765371495749,
1000,1,3.7,0.0,0,0,26,26,76,,,,,117.94587659998797,118.59660129999975,118.59660129999975,119.08103130001109,45,315,119.08103130001109,119.08103130001109,119.08103130001109,119.08103130001109,119.08103130001109,119.08103130001109,119.08103130001109,119.08103130001109,119.08103130001109,119.4473364999867,119.4473364999867,119.4473364999867,119.4473364999867,119.4473364999867,119.4473364999867,119.4473364999867,119.4473364999867,119.4473364999867,0,1,[0.0012165999796707183],[0.36679149998235516],119.4473364999867,119.67046170000685,1000,119.67046170000685,1000,1000,1000,1000,0,num_3,0.4727075999835506,,21,12,2026-03-02_18h17.07.675,2026A_exp2,2022.2.4,59.94765371495749,
1000,1,0.0,0.0,0,0,27,27,7,,,,,120.16458219999913,120.8154601000133,120.8154601000133,121.31646120001096,315,45,121.31646120001096,121.31646120001096,121.31646120001096,121.31646120001096,121.31646120001096,121.31646120001096,121.31646120001096,121.31646120001096,121.31646120001096,121.68287530000089,121.68287530000089,121.68287530000089,121.68287530000089,121.68287530000089,121.68287530000089,121.68287530000089,121.68287530000089,121.68287530000089,3,2,"[0.0012931000092066824, 0.31711119998362847]","[0.2838654000079259, 0.36722179999924265]",121.68287530000089,121.8852610999893,1000,121.8852610999893,1000,1000,1000,1000,0,num_3,0.809919900028035,,21,12,2026-03-02_18h17.07.675,2026A_exp2,2022.2.4,59.94765371495749,
1,0,3.7,4.9,1,0,28,28,20,,,,,122.71721249999246,123.36790320000728,123.36790320000728,123.86905149999075,315,45,123.86905149999075,123.86905149999075,123.86905149999075,123.86905149999075,123.86905149999075,123.86905149999075,123.86905149999075,123.86905149999075,123.86905149999075,124.21885420000763,124.21885420000763,124.21885420000763,124.21885420000763,124.21885420000763,124.21885420000763,124.21885420000763,124.21885420000763,124.21885420000763,0,1,[0.0011928000021725893],[0.3503971000027377],124.21885420000763,124.4190077999956,4.9,124.43573070000275,1,4.9,1,1,1000,num_4,1.6909847999922931,,21,12,2026-03-02_18h17.07.675,2026A_exp2,2022.2.4,59.94765371495749,
1000,1,6.1,6.1,1,0,29,29,8,,,,,126.15398120001191,126.8048465999891,126.8048465999891,127.28923719999148,45,45,127.28923719999148,127.28923719999148,127.28923719999148,127.28923719999148,127.28923719999148,127.28923719999148,127.28923719999148,127.28923719999148,127.28923719999148,127.65565860000788,127.65565860000788,127.65565860000788,127.65565860000788,127.65565860000788,127.65565860000788,127.65565860000788,127.65565860000788,127.65565860000788,0,1,[0.0011952000204473734],[0.3669512000051327],127.65565860000788,127.85797099999036,1000,127.85797099999036,1000,1000,1000,1000,0,num_3,0.5161345000087749,,21,12,2026-03-02_18h17.07.675,2026A_exp2,2022.2.4,59.94765371495749,
1,0,4.9,0.0,1,0,30,30,65,,,,,128.38962510001147,129.04025590000674,129.04025590000674,129.5413627999951,45,315,129.5413627999951,129.5413627999951,129.5413627999951,129.5413627999951,129.5413627999951,129.5413627999951,129.5413627999951,129.5413627999951,129.5413627999951,129.89115969999693,129.89115969999693,129.89115969999693,129.89115969999693,129.89115969999693,129.89115969999693,129.89115969999693,129.89115969999693,129.89115969999693,22,0,,,129.89115969999693,130.09139369998593,0.0,130.10807499999646,0,0.0,0,1,1000,num_1,0.618037500011269,,21,12,2026-03-02_18h17.07.675,2026A_exp2,2022.2.4,59.94765371495749,
1000,1,0.0,0.0,1,0,31,31,85,,,,,130.74193280001055,131.3927083000017,131.3927083000017,131.89371319999918,45,315,131.89371319999918,131.89371319999918,131.89371319999918,131.89371319999918,131.89371319999918,131.89371319999918,131.89371319999918,131.89371319999918,131.89371319999918,132.24354910000693,132.24354910000693,132.24354910000693,132.24354910000693,132.24354910000693,132.24354910000693,132.24354910000693,132.24354910000693,132.24354910000693,20,4,"[0.0012023000163026154, 0.06712290001451038, 0.10020100002293475, 0.2671179000171833]","[0.017249800002900884, 0.08382140001049265, 0.11675880002439953, 0.283719300001394]",132.24354910000693,132.4460504000017,1000,132.4460504000017,1000,1000,1000,1000,0,num_3,0.8327328000159469,,21,12,2026-03-02_18h17.07.675,2026A_exp2,2022.2.4,59.94765371495749,
1000,1,0.0,0.0,1,0,32,32,78,,,,,133.31138510000892,133.9453293000115,133.9453293000115,134.44627879999462,315,45,134.44627879999462,134.44627879999462,134.44627879999462,134.44627879999462,134.44627879999462,134.44627879999462,134.44627879999462,134.44627879999462,134.44627879999462,134.8127608000068,134.8127608000068,134.8127608000068,134.8127608000068,134.8127608000068,134.8127608000068,134.8127608000068,134.8127608000068,134.8127608000068,23,0,,,134.8127608000068,135.01472010000725,1000,135.01472010000725,1000,1000,1000,1000,0,num_3,0.7283839999872725,,21,12,2026-03-02_18h17.07.675,2026A_exp2,2022.2.4,59.94765371495749,
0,0,6.1,0.0,0,0,33,33,74,,,,,135.76386209999328,136.41456269999617,136.41456269999617,136.89874319999944,45,315,136.89874319999944,136.89874319999944,136.89874319999944,136.89874319999944,136.89874319999944,136.89874319999944,136.89874319999944,136.89874319999944,136.89874319999944,137.26526340001146,137.26526340001146,137.26526340001146,137.26526340001146,137.26526340001146,137.26526340001146,137.26526340001146,137.26526340001146,137.26526340001146,23,0,,,137.26526340001146,137.46521550000762,0.0,137.46521550000762,0,0.0,0,1,1000,num_1,0.6926284000219312,,21,12,2026-03-02_18h17.07.675,2026A_exp2,2022.2.4,59.94765371495749,
0,0,3.7,0.0,0,0,34,34,62,,,,,138.18265729999985,138.8334876000008,138.8334876000008,139.3178714000096,315,45,139.3178714000096,139.3178714000096,139.3178714000096,139.3178714000096,139.3178714000096,139.3178714000096,139.3178714000096,139.3178714000096,139.3178714000096,139.6839261999994,139.6839261999994,139.6839261999994,139.6839261999994,139.6839261999994,139.6839261999994,139.6839261999994,139.6839261999994,139.6839261999994,23,0,,,139.6839261999994,139.88461280000047,0.0,139.88461280000047,0,0.0,0,1,1000,num_1,0.5777344000234734,,21,12,2026-03-02_18h17.07.675,2026A_exp2,2022.2.4,59.94765371495749,
1,0,0.0,6.1,1,0,35,35,50,,,,,140.48520669998834,141.13722939998843,141.13722939998843,141.62017509998986,45,315,141.62017509998986,141.62017509998986,141.62017509998986,141.62017509998986,141.62017509998986,141.62017509998986,141.62017509998986,141.62017509998986,141.62017509998986,141.98652740000398,141.98652740000398,141.98652740000398,141.98652740000398,141.98652740000398,141.98652740000398,141.98652740000398,141.98652740000398,141.98652740000398,23,0,,,141.98652740000398,142.18679350000457,6.1,142.18679350000457,1,6.1,1,1,1000,num_4,0.3790733000205364,,21,12,2026-03-02_18h17.07.675,2026A_exp2,2022.2.4,59.94765371495749,
1000,1,3.7,4.9,0,0,36,36,45,,,,,142.58746380000957,143.22114740000688,143.22114740000688,143.7223159999994,315,315,143.7223159999994,143.7223159999994,143.7223159999994,143.7223159999994,143.7223159999994,143.7223159999994,143.7223159999994,143.7223159999994,143.7223159999994,144.08879999999772,144.08879999999772,144.08879999999772,144.08879999999772,144.08879999999772,144.08879999999772,144.08879999999772,144.08879999999772,144.08879999999772,23,0,,,144.08879999999772,144.29067610000493,1000,144.29067610000493,1000,1000,1000,1000,1,num_2,0.571228799992241,,21,12,2026-03-02_18h17.07.675,2026A_exp2,2022.2.4,59.94765371495749,
1,0,6.1,6.1,1,0,37,37,23,,,,,144.88964370000758,145.54033479999634,145.54033479999634,146.04134019999765,45,45,146.04134019999765,146.04134019999765,146.04134019999765,146.04134019999765,146.04134019999765,146.04134019999765,146.04134019999765,146.04134019999765,146.04134019999765,146.40772250000737,146.40772250000737,146.40772250000737,146.40772250000737,146.40772250000737,146.40772250000737,146.40772250000737,146.40772250000737,146.40772250000737,23,0,,,146.40772250000737,146.60782770000515,6.1,146.60782770000515,1,6.1,1,1,1000,num_4,0.9664089999860153,,21,12,2026-03-02_18h17.07.675,2026A_exp2,2022.2.4,59.94765371495749,
1,0,6.1,4.9,1,0,38,38,64,,,,,147.5919823999866,148.24294180001016,148.24294180001016,148.74404320001486,45,315,148.74404320001486,148.74404320001486,148.74404320001486,148.74404320001486,148.74404320001486,148.74404320001486,148.74404320001486,148.74404320001486,148.74404320001486,149.09370950001176,149.09370950001176,149.09370950001176,149.09370950001176,149.09370950001176,149.09370950001176,149.09370950001176,149.09370950001176,149.09370950001176,22,0,,,149.09370950001176,149.29383800001233,4.9,149.29383800001233,1,4.9,1,1,1000,num_4,0.6732951000158209,,21,12,2026-03-02_18h17.07.675,2026A_exp2,2022.2.4,59.94765371495749,
1000,1,0.0,4.9,1,0,39,39,66,,,,,149.99452290000045,150.64525709999725,150.64525709999725,151.1295972999942,45,315,151.1295972999942,151.1295972999942,151.1295972999942,151.1295972999942,151.1295972999942,151.1295972999942,151.1295972999942,151.1295972999942,151.1295972999942,151.49584859999595,151.49584859999595,151.49584859999595,151.49584859999595,151.49584859999595,151.49584859999595,151.49584859999595,151.49584859999595,151.49584859999595,23,0,,,151.49584859999595,151.69826730000204,1000,151.69826730000204,1000,1000,1000,1000,1,num_2,0.5718650000053458,,21,12,2026-03-02_18h17.07.675,2026A_exp2,2022.2.4,59.94765371495749,
1,0,3.7,0.0,0,0,40,40,87,,,,,152.29701889998978,152.9310378000082,152.9310378000082,153.43235889999778,315,45,153.43235889999778,153.43235889999778,153.43235889999778,153.43235889999778,153.43235889999778,153.43235889999778,153.43235889999778,153.43235889999778,153.43235889999778,153.7983963000006,153.7983963000006,153.7983963000006,153.7983963000006,153.7983963000006,153.7983963000006,153.7983963000006,153.7983963000006,153.7983963000006,23,0,,,153.7983963000006,153.99860930000432,3.7,153.99860930000432,1,3.7,1,1,1000,num_4,1.0552363000169862,,21,12,2026-03-02_18h17.07.675,2026A_exp2,2022.2.4,59.94765371495749,
1000,1,0.0,0.0,1,0,41,41,9,,,,,155.08289709998644,155.73364610000863,155.73364610000863,156.21832720001112,45,45,156.21832720001112,156.21832720001112,156.21832720001112,156.21832720001112,156.21832720001112,156.21832720001112,156.21832720001112,156.21832720001112,156.21832720001112,156.58422479999717,156.58422479999717,156.58422479999717,156.58422479999717,156.58422479999717,156.58422479999717,156.58422479999717,156.58422479999717,156.58422479999717,23,0,,,156.58422479999717,156.7857348000107,1000,156.7857348000107,1000,1000,1000,1000,0,num_3,0.6761350000160746,,21,12,2026-03-02_18h17.07.675,2026A_exp2,2022.2.4,59.94765371495749,
1000,1,0.0,3.7,0,0,42,42,46,,,,,157.48565909999888,158.13617209999938,158.13617209999938,158.63699989998713,45,45,158.63699989998713,158.63699989998713,158.63699989998713,158.63699989998713,158.63699989998713,158.63699989998713,158.63699989998713,158.63699989998713,158.63699989998713,159.00367430000915,159.00367430000915,159.00367430000915,159.00367430000915,159.00367430000915,159.00367430000915,159.00367430000915,159.00367430000915,159.00367430000915,23,0,,,159.00367430000915,159.20591339998646,1000,159.20591339998646,1000,1000,1000,1000,0,num_3,0.42381169999134727,,21,12,2026-03-02_18h17.07.675,2026A_exp2,2022.2.4,59.94765371495749,
1000,1,6.1,6.1,1,0,43,43,4,,,,,159.6541683000105,160.3049020000035,160.3049020000035,160.80604799999855,45,45,160.80604799999855,160.80604799999855,160.80604799999855,160.80604799999855,160.80604799999855,160.80604799999855,160.80604799999855,160.80604799999855,160.80604799999855,161.17247130000032,161.17247130000032,161.17247130000032,161.17247130000032,161.17247130000032,161.17247130000032,161.17247130000032,161.17247130000032,161.17247130000032,23,0,,,161.17247130000032,161.37462610000512,1000,161.37462610000512,1000,1000,1000,1000,0,num_3,0.9437443999922834,,21,12,2026-03-02_18h17.07.675,2026A_exp2,2022.2.4,59.94765371495749,
1000,1,0.0,0.0,1,0,44,44,1,,,,,162.34016240001074,162.99080440000398,162.99080440000398,163.49180799999158,45,45,163.49180799999158,163.49180799999158,163.49180799999158,163.49180799999158,163.49180799999158,163.49180799999158,163.49180799999158,163.49180799999158,163.49180799999158,163.84178270000848,163.84178270000848,163.84178270000848,163.84178270000848,163.84178270000848,163.84178270000848,163.84178270000848,163.84178270000848,163.84178270000848,22,0,,,163.84178270000848,164.04384629998822,1000,164.0587577999977,1000,1000,1000,1000,0,num_3,0.6911400000099093,,21,12,2026-03-02_18h17.07.675,2026A_exp2,2022.2.4,59.94765371495749,
1,0,0.0,6.1,1,0,45,45,33,,,,,164.77607019999414,165.42665800001123,165.42665800001123,165.9278777000145,315,315,165.9278777000145,165.9278777000145,165.9278777000145,165.9278777000145,165.9278777000145,165.9278777000145,165.9278777000145,165.9278777000145,165.9278777000145,166.2942761000013,166.2942761000013,166.2942761000013,166.2942761000013,166.2942761000013,166.2942761000013,166.2942761000013,166.2942761000013,166.2942761000013,23,0,,,166.2942761000013,166.4945316000085,6.1,166.4945316000085,1,6.1,1,1,1000,num_4,0.8720271000056528,,21,12,2026-03-02_18h17.07.675,2026A_exp2,2022.2.4,59.94765371495749,
1,0,0.0,0.0,1,0,46,46,42,,,,,167.39523150000605,168.04609459999483,168.04609459999483,168.53047269998933,315,45,168.53047269998933,168.53047269998933,168.53047269998933,168.53047269998933,168.53047269998933,168.53047269998933,168.53047269998933,168.53047269998933,168.53047269998933,168.896871200006,168.896871200006,168.896871200006,168.896871200006,168.896871200006,168.896871200006,168.896871200006,168.896871200006,168.896871200006,23,0,,,168.896871200006,169.09713770000963,0.0,169.09713770000963,0,0.0,0,1,1000,num_1,0.509709500009194,,21,12,2026-03-02_18h17.07.675,2026A_exp2,2022.2.4,59.94765371495749,
1,0,0.0,6.1,1,0,47,47,36,,,,,169.63083239999833,170.2815813999914,170.2815813999914,170.76605299999937,45,45,170.76605299999937,170.76605299999937,170.76605299999937,170.76605299999937,170.76605299999937,170.76605299999937,170.76605299999937,170.76605299999937,170.76605299999937,171.13261369999964,171.13261369999964,171.13261369999964,171.13261369999964,171.13261369999964,171.13261369999964,171.13261369999964,171.13261369999964,171.13261369999964,23,0,,,171.13261369999964,171.33270739999716,6.1,171.33270739999716,1,6.1,1,1,1000,num_4,0.4264395000063814,,21,12,2026-03-02_18h17.07.675,2026A_exp2,2022.2.4,59.94765371495749,
1,0,0.0,0.0,0,0,48,48,79,,,,,171.78290059999563,172.43362309999065,172.43362309999065,172.91820620000362,315,315,172.91820620000362,172.91820620000362,172.91820620000362,172.91820620000362,172.91820620000362,172.91820620000362,172.91820620000362,172.91820620000362,172.91820620000362,173.28474629999255,173.28474629999255,173.28474629999255,173.28474629999255,173.28474629999255,173.28474629999255,173.28474629999255,173.28474629999255,173.28474629999255,23,0,,,173.28474629999255,173.49883530000807,0.0,173.49883530000807,0,0.0,0,1,1000,num_1,0.356078399985563,,21,12,2026-03-02_18h17.07.675,2026A_exp2,2022.2.4,59.94765371495749,
1,0,0.0,0.0,1,0,49,49,69,,,,,173.88497660000576,174.51915290000034,174.51915290000034,175.02018160000443,315,315,175.02018160000443,175.02018160000443,175.02018160000443,175.02018160000443,175.02018160000443,175.02018160000443,175.02018160000443,175.02018160000443,175.02018160000443,175.38669059998938,175.38669059998938,175.38669059998938,175.38669059998938,175.38669059998938,175.38669059998938,175.38669059998938,175.38669059998938,175.38669059998938,23,0,,,175.38669059998938,175.58699320000596,0.0,175.58699320000596,0,0.0,0,1,1000,num_1,0.4677115000085905,,21,12,2026-03-02_18h17.07.675,2026A_exp2,2022.2.4,59.94765371495749,
1,0,0.0,3.7,1,0,50,50,14,,,,,176.07062559999758,176.72129029998905,176.72129029998905,177.20564229998854,45,315,177.20564229998854,177.20564229998854,177.20564229998854,177.20564229998854,177.20564229998854,177.20564229998854,177.20564229998854,177.20564229998854,177.20564229998854,177.5722167000058,177.5722167000058,177.5722167000058,177.5722167000058,177.5722167000058,177.5722167000058,177.5722167000058,177.5722167000058,177.5722167000058,14,1,[0.0010842999909073114],[0.15020010000444017],177.5722167000058,177.77230290000443,3.7,177.77230290000443,0,3.7,1,0,1000,num_1,0.6819083000009414,,21,12,2026-03-02_18h17.07.675,2026A_exp2,2022.2.4,59.94765371495749,
1000,1,0.0,3.7,1,0,51,51,84,,,,,178.47286280000117,179.12356780000846,179.12356780000846,179.60804399999324,45,315,179.60804399999324,179.60804399999324,179.60804399999324,179.60804399999324,179.60804399999324,179.60804399999324,179.60804399999324,179.60804399999324,179.60804399999324,179.97462560000713,179.97462560000713,179.97462560000713,179.97462560000713,179.97462560000713,179.97462560000713,179.97462560000713,179.97462560000713,179.97462560000713,23,0,,,179.97462560000713,180.1834067000018,1000,180.1834067000018,1000,1000,1000,1000,1,num_2,0.598454099992523,,21,12,2026-03-02_18h17.07.675,2026A_exp2,2022.2.4,59.94765371495749,
1,0,6.1,0.0,0,0,52,52,21,,,,,180.80867699999362,181.4595404000138,181.4595404000138,181.96057520000613,315,45,181.96057520000613,181.96057520000613,181.96057520000613,181.96057520000613,181.96057520000613,181.96057520000613,181.96057520000613,181.96057520000613,181.96057520000613,182.32706919999328,182.32706919999328,182.32706919999328,182.32706919999328,182.32706919999328,182.32706919999328,182.32706919999328,182.32706919999328,182.32706919999328,23,0,,,182.32706919999328,182.5271356999874,6.1,182.5271356999874,1,6.1,1,1,1000,num_4,0.5357964999857359,,21,12,2026-03-02_18h17.07.675,2026A_exp2,2022.2.4,59.94765371495749,
1000,1,4.9,0.0,1,0,53,53,77,,,,,183.09428200000548,183.74494539998705,183.74494539998705,184.22937660000753,315,315,184.22937660000753,184.22937660000753,184.22937660000753,184.22937660000753,184.22937660000753,184.22937660000753,184.22937660000753,184.22937660000753,184.22937660000753,184.5958449000027,184.5958449000027,184.5958449000027,184.5958449000027,184.5958449000027,184.5958449000027,184.5958449000027,184.5958449000027,184.5958449000027,13,2,"[0.001201699982630089, 0.25046409998321906]","[0.1504815999942366, 0.26728060000459664]",184.5958449000027,184.79810819998966,1000,184.79810819998966,1000,1000,1000,1000,0,num_3,0.5598795000114478,,21,12,2026-03-02_18h17.07.675,2026A_exp2,2022.2.4,59.94765371495749,
1000,1,6.1,6.1,0,0,54,54,16,,,,,185.37989710000693,186.04200039998977,186.04200039998977,186.53338030001032,315,315,186.53338030001032,186.53338030001032,186.53338030001032,186.53338030001032,186.53338030001032,186.53338030001032,186.53338030001032,186.53338030001032,186.53338030001032,186.88143869998748,186.88143869998748,186.88143869998748,186.88143869998748,186.88143869998748,186.88143869998748,186.88143869998748,186.88143869998748,186.88143869998748,22,0,,,186.88143869998748,187.08381770001142,1000,187.09850309998728,1000,1000,1000,1000,0,num_3,0.8283962999994401,,21,12,2026-03-02_18h17.07.675,2026A_exp2,2022.2.4,59.94765371495749,
1000,1,0.0,6.1,1,0,55,55,71,,,,,187.9490930000029,188.59995929998695,188.59995929998695,189.10105739999563,315,45,189.10105739999563,189.10105739999563,189.10105739999563,189.10105739999563,189.10105739999563,189.10105739999563,189.10105739999563,189.10105739999563,189.10105739999563,189.46737749999738,189.46737749999738,189.46737749999738,189.46737749999738,189.46737749999738,189.46737749999738,189.46737749999738,189.46737749999738,189.46737749999738,23,0,,,189.46737749999738,189.66960409999592,1000,189.66960409999592,1000,1000,1000,1000,1,num_2,0.41616210000938736,,21,12,2026-03-02_18h17.07.675,2026A_exp2,2022.2.4,59.94765371495749,
1,0,6.1,0.0,0,0,56,56,47,,,,,190.10146450001048,190.75383790000342,190.75383790000342,191.23641770001268,45,315,191.23641770001268,191.23641770001268,191.23641770001268,191.23641770001268,191.23641770001268,191.23641770001268,191.23641770001268,191.23641770001268,191.23641770001268,191.60297259999788,191.60297259999788,191.60297259999788,191.60297259999788,191.60297259999788,191.60297259999788,191.60297259999788,191.60297259999788,191.60297259999788,23,0,,,191.60297259999788,191.80312900000717,6.1,191.80312900000717,1,6.1,1,1,1000,num_4,0.6512704000051599,,21,12,2026-03-02_18h17.07.675,2026A_exp2,2022.2.4,59.94765371495749,
1000,1,4.9,3.7,0,0,57,57,40,,,,,192.47037080000155,193.12518979999004,193.12518979999004,193.60543090000283,45,315,193.60543090000283,193.60543090000283,193.60543090000283,193.60543090000283,193.60543090000283,193.60543090000283,193.60543090000283,193.60543090000283,193.60543090000283,193.97183500000392,193.97183500000392,193.97183500000392,193.97183500000392,193.97183500000392,193.97183500000392,193.97183500000392,193.97183500000392,193.97183500000392,23,0,,,193.97183500000392,194.1740170000121,1000,194.1740170000121,1000,1000,1000,1000,0,num_3,0.5043607000261545,,21,12,2026-03-02_18h17.07.675,2026A_exp2,2022.2.4,59.94765371495749,
1,0,0.0,0.0,0,0,58,58,88,,,,,194.7059736000083,195.3566553000128,195.3566553000128,195.8576272999926,315,315,195.8576272999926,195.8576272999926,195.8576272999926,195.8576272999926,195.8576272999926,195.8576272999926,195.8576272999926,195.8576272999926,195.8576272999926,196.22404000000097,196.22404000000097,196.22404000000097,196.22404000000097,196.22404000000097,196.22404000000097,196.22404000000097,196.22404000000097,196.22404000000097,23,0,,,196.22404000000097,196.4244089999993,0.0,196.4244089999993,0,0.0,0,1,1000,num_1,0.6464498999994248,,21,12,2026-03-02_18h17.07.675,2026A_exp2,2022.2.4,59.94765371495749,
1000,1,3.7,0.0,1,0,59,59,38,,,,,197.0917880999914,197.74224170000525,197.74224170000525,198.22685649999767,45,315,198.22685649999767,198.22685649999767,198.22685649999767,198.22685649999767,198.22685649999767,198.22685649999767,198.22685649999767,198.22685649999767,198.22685649999767,198.59323110000696,198.59323110000696,198.59323110000696,198.59323110000696,198.59323110000696,198.59323110000696,198.59323110000696,198.59323110000696,198.59323110000696,23,0,,,198.59323110000696,198.79516710000462,1000,198.79516710000462,1000,1000,1000,1000,0,num_3,0.44324029999552295,,21,12,2026-03-02_18h17.07.675,2026A_exp2,2022.2.4,59.94765371495749,
0,0,6.1,4.9,0,0,60,60,22,,,,,199.26045299999532,199.9111339999945,199.9111339999945,200.41237720000208,45,315,200.41237720000208,200.41237720000208,200.41237720000208,200.41237720000208,200.41237720000208,200.41237720000208,200.41237720000208,200.41237720000208,200.41237720000208,200.77861909999046,200.77861909999046,200.77861909999046,200.77861909999046,200.77861909999046,200.77861909999046,200.77861909999046,200.77861909999046,200.77861909999046,23,0,,,200.77861909999046,200.9788966999913,4.9,200.9788966999913,1,4.9,1,1,1000,num_4,1.0762566000048537,,21,12,2026-03-02_18h17.07.675,2026A_exp2,2022.2.4,59.94765371495749,
1,0,3.7,6.1,0,0,61,61,52,,,,,202.07999150000978,202.7396383000014,202.7396383000014,203.2282309999864,315,315,203.2282309999864,203.2282309999864,203.2282309999864,203.2282309999864,203.2282309999864,203.2282309999864,203.2282309999864,203.2282309999864,203.2282309999864,203.581325200008,203.581325200008,203.581325200008,203.581325200008,203.581325200008,203.581325200008,203.581325200008,203.581325200008,203.581325200008,21,2,"[0.09763969999039546, 0.14756879999185912]","[0.11430649997782893, 0.16427479998674244]",203.581325200008,203.7815369000018,3.7,203.7815369000018,1,3.7,1,1,1000,num_4,3.481214999977965,,21,12,2026-03-02_18h17.07.675,2026A_exp2,2022.2.4,59.94765371495749,
1000,1,4.9,0.0,0,0,62,62,41,,,,,207.28522439999506,207.9357977999898,207.9357977999898,208.4203770000022,45,315,208.4203770000022,208.4203770000022,208.4203770000022,208.4203770000022,208.4203770000022,208.4203770000022,208.4203770000022,208.4203770000022,208.4203770000022,208.78671280000708,208.78671280000708,208.78671280000708,208.78671280000708,208.78671280000708,208.78671280000708,208.78671280000708,208.78671280000708,208.78671280000708,19,2,"[0.1334723000181839, 0.16690790001302958]","[0.15037190000293776, 0.21697609999682754]",208.78671280000708,208.98855259999982,1000,208.98855259999982,1000,1000,1000,1000,0,num_3,0.4661513000028208,,21,12,2026-03-02_18h17.07.675,2026A_exp2,2022.2.4,59.94765371495749,
1,0,0.0,0.0,0,0,63,63,55,,,,,209.4706836999976,210.1214900999912,210.1214900999912,210.62232769999537,45,45,210.62232769999537,210.62232769999537,210.62232769999537,210.62232769999537,210.62232769999537,210.62232769999537,210.62232769999537,210.62232769999537,210.62232769999537,210.98888009999064,210.98888009999064,210.98888009999064,210.98888009999064,210.98888009999064,210.98888009999064,210.98888009999064,210.98888009999064,210.98888009999064,23,0,,,210.98888009999064,211.18925269998726,0.0,211.18925269998726,0,0.0,0,1,1000,num_1,0.40901850000955164,,21,12,2026-03-02_18h17.07.675,2026A_exp2,2022.2.4,59.94765371495749,
1,0,0.0,4.9,1,0,64,64,37,,,,,211.62276349999593,212.273577999993,212.273577999993,212.77166329999454,315,45,212.77166329999454,212.77166329999454,212.77166329999454,212.77166329999454,212.77166329999454,212.77166329999454,212.77166329999454,212.77166329999454,212.77166329999454,213.12447720000637,213.12447720000637,213.12447720000637,213.12447720000637,213.12447720000637,213.12447720000637,213.12447720000637,213.12447720000637,213.12447720000637,23,0,,,213.12447720000637,213.3246788000106,4.9,213.3246788000106,1,4.9,1,1,1000,num_4,0.45807029999559745,,21,12,2026-03-02_18h17.07.675,2026A_exp2,2022.2.4,59.94765371495749,
1000,1,0.0,4.9,0,0,65,65,6,,,,,213.80826499999966,214.45910330000333,214.45910330000333,214.94330519999494,45,45,214.94330519999494,214.94330519999494,214.94330519999494,214.94330519999494,214.94330519999494,214.94330519999494,214.94330519999494,214.94330519999494,214.94330519999494,215.3097759000084,215.3097759000084,215.3097759000084,215.3097759000084,215.3097759000084,215.3097759000084,215.3097759000084,215.3097759000084,215.3097759000084,23,0,,,215.3097759000084,215.51211959999637,1000,215.51211959999637,1000,1000,1000,1000,1,num_2,0.501662499998929,,21,12,2026-03-02_18h17.07.675,2026A_exp2,2022.2.4,59.94765371495749,
0,0,0.0,0.0,1,0,66,66,2,,,,,216.0439338000142,216.69468340001185,216.69468340001185,217.19582930000615,315,45,217.19582930000615,217.19582930000615,217.19582930000615,217.19582930000615,217.19582930000615,217.19582930000615,217.19582930000615,217.19582930000615,217.19582930000615,217.56226289999904,217.56226289999904,217.56226289999904,217.56226289999904,217.56226289999904,217.56226289999904,217.56226289999904,217.56226289999904,217.56226289999904,23,0,,,217.56226289999904,217.7624310000101,0.0,217.7624310000101,0,0.0,0,1,1000,num_1,0.5797924000071362,,21,12,2026-03-02_18h17.07.675,2026A_exp2,2022.2.4,59.94765371495749,
1,0,4.9,0.0,0,0,67,67,53,,,,,218.36285730000236,219.0137168999936,219.0137168999936,219.4979822000023,45,45,219.4979822000023,219.4979822000023,219.4979822000023,219.4979822000023,219.4979822000023,219.4979822000023,219.4979822000023,219.4979822000023,219.4979822000023,219.86449139998876,219.86449139998876,219.86449139998876,219.86449139998876,219.86449139998876,219.86449139998876,219.86449139998876,219.86449139998876,219.86449139998876,23,0,,,219.86449139998876,220.06474890001118,4.9,220.06474890001118,1,4.9,1,1,1000,num_4,0.43779160000849515,,21,12,2026-03-02_18h17.07.675,2026A_exp2,2022.2.4,59.94765371495749,
1,0,6.1,0.0,1,0,68,68,70,,,,,220.53213569999207,221.18242970001302,221.18242970001302,221.68376019998686,315,315,221.68376019998686,221.68376019998686,221.68376019998686,221.68376019998686,221.68376019998686,221.68376019998686,221.68376019998686,221.68376019998686,221.68376019998686,222.05005099999835,222.05005099999835,222.05005099999835,222.05005099999835,222.05005099999835,222.05005099999835,222.05005099999835,222.05005099999835,222.05005099999835,23,0,,,222.05005099999835,222.25024069999927,0.0,222.25024069999927,0,0.0,0,1,1000,num_1,0.4999270999978762,,21,12,2026-03-02_18h17.07.675,2026A_exp2,2022.2.4,59.94765371495749,
1,0,6.1,3.7,1,0,69,69,51,,,,,222.76757990001352,223.41801270001451,223.41801270001451,223.9022901999997,315,45,223.9022901999997,223.9022901999997,223.9022901999997,223.9022901999997,223.9022901999997,223.9022901999997,223.9022901999997,223.9022901999997,223.9022901999997,224.26896069999202,224.26896069999202,224.26896069999202,224.26896069999202,224.26896069999202,224.26896069999202,224.26896069999202,224.26896069999202,224.26896069999202,23,0,,,224.26896069999202,224.4691429999948,3.7,224.4691429999948,0,3.7,1,0,1000,num_1,0.4732860999938566,,21,12,2026-03-02_18h17.07.675,2026A_exp2,2022.2.4,59.94765371495749,
1,0,0.0,4.9,0,0,70,70,3,,,,,224.96971599999233,225.60358460000134,225.60358460000134,226.10484670000733,315,45,226.10484670000733,226.10484670000733,226.10484670000733,226.10484670000733,226.10484670000733,226.10484670000733,226.10484670000733,226.10484670000733,226.10484670000733,226.47115420000046,226.47115420000046,226.47115420000046,226.47115420000046,226.47115420000046,226.47115420000046,226.47115420000046,226.47115420000046,226.47115420000046,23,0,,,226.47115420000046,226.67114029999357,0.0,226.67114029999357,0,0.0,0,1,1000,num_1,0.5505579999880865,,21,12,2026-03-02_18h17.07.675,2026A_exp2,2022.2.4,59.94765371495749,
1000,1,6.1,0.0,1,0,71,71,25,,,,,227.23860410001362,227.8893151000084,227.8893151000084,228.37360890000127,315,45,228.37360890000127,228.37360890000127,228.37360890000127,228.37360890000127,228.37360890000127,228.37360890000127,228.37360890000127,228.37360890000127,228.37360890000127,228.7399810999923,228.7399810999923,228.7399810999923,228.7399810999923,228.7399810999923,228.7399810999923,228.7399810999923,228.7399810999923,228.7399810999923,23,0,,,228.7399810999923,228.94200710000587,1000,228.94200710000587,1000,1000,1000,1000,0,num_3,0.616412900009891,,21,12,2026-03-02_18h17.07.675,2026A_exp2,2022.2.4,59.94765371495749,
1,0,0.0,0.0,0,0,72,72,24,,,,,229.57411169999978,230.2248450999905,230.2248450999905,230.72599710000213,315,315,230.72599710000213,230.72599710000213,230.72599710000213,230.72599710000213,230.72599710000213,230.72599710000213,230.72599710000213,230.72599710000213,230.72599710000213,231.0922234999889,231.0922234999889,231.0922234999889,231.0922234999889,231.0922234999889,231.0922234999889,231.0922234999889,231.0922234999889,231.0922234999889,23,0,,,231.0922234999889,231.29253939999035,0.0,231.29253939999035,0,0.0,0,1,1000,num_1,0.673308099998394,,21,12,2026-03-02_18h17.07.675,2026A_exp2,2022.2.4,59.94765371495749,
1,0,0.0,4.9,0,0,73,73,73,,,,,231.99321330001112,232.64387030000216,232.64387030000216,233.1447319999861,315,315,233.1447319999861,233.1447319999861,233.1447319999861,233.1447319999861,233.1447319999861,233.1447319999861,233.1447319999861,233.1447319999861,233.1447319999861,233.4946321999887,233.4946321999887,233.4946321999887,233.4946321999887,233.4946321999887,233.4946321999887,233.4946321999887,233.4946321999887,233.4946321999887,22,0,,,233.4946321999887,233.69500820001122,0.0,233.69500820001122,0,0.0,0,1,1000,num_1,0.5268180000130087,,21,12,2026-03-02_18h17.07.675,2026A_exp2,2022.2.4,59.94765371495749,
1000,1,3.7,0.0,0,0,74,74,56,,,,,234.24541309999768,234.8961924999894,234.8961924999894,235.3805740000098,315,45,235.3805740000098,235.3805740000098,235.3805740000098,235.3805740000098,235.3805740000098,235.3805740000098,235.3805740000098,235.3805740000098,235.3805740000098,235.7470934999874,235.7470934999874,235.7470934999874,235.7470934999874,235.7470934999874,235.7470934999874,235.7470934999874,235.7470934999874,235.7470934999874,23,0,,,235.7470934999874,235.94904090001364,1000,235.94904090001364,1000,1000,1000,1000,0,num_3,0.5208400000119582,,21,12,2026-03-02_18h17.07.675,2026A_exp2,2022.2.4,59.94765371495749,
1000,1,0.0,4.9,0,0,75,75,26,,,,,236.4976883000054,237.148463599995,237.148463599995,237.64962290000403,315,45,237.64962290000403,237.64962290000403,237.64962290000403,237.64962290000403,237.64962290000403,237.64962290000403,237.64962290000403,237.64962290000403,237.64962290000403,238.0159558999876,238.0159558999876,238.0159558999876,238.0159558999876,238.0159558999876,238.0159558999876,238.0159558999876,238.0159558999876,238.0159558999876,23,0,,,238.0159558999876,238.21796079998603,1000,238.21796079998603,1000,1000,1000,1000,1,num_2,0.4770139000029303,,21,12,2026-03-02_18h17.07.675,2026A_exp2,2022.2.4,59.94765371495749,
1000,1,3.7,3.7,0,0,76,76,72,,,,,238.71657630000846,239.36722039998858,239.36722039998858,239.86834990000352,315,315,239.86834990000352,239.86834990000352,239.86834990000352,239.86834990000352,239.86834990000352,239.86834990000352,239.86834990000352,239.86834990000352,239.86834990000352,240.23501289999695,240.23501289999695,240.23501289999695,240.23501289999695,240.23501289999695,240.23501289999695,240.23501289999695,240.23501289999695,240.23501289999695,23,0,,,240.23501289999695,240.43710290000308,1000,240.43710290000308,1000,1000,1000,1000,0,num_3,0.9138362999947276,,21,12,2026-03-02_18h17.07.675,2026A_exp2,2022.2.4,59.94765371495749,
1000,1,3.7,0.0,1,0,77,77,19,,,,,241.36931489998824,242.02003980000154,242.02003980000154,242.5210647000058,315,45,242.5210647000058,242.5210647000058,242.5210647000058,242.5210647000058,242.5210647000058,242.5210647000058,242.5210647000058,242.5210647000058,242.5210647000058,242.8874092999904,242.8874092999904,242.8874092999904,242.8874092999904,242.8874092999904,242.8874092999904,242.8874092999904,242.8874092999904,242.8874092999904,23,0,,,242.8874092999904,243.08954660000745,1000,243.08954660000745,1000,1000,1000,1000,0,num_3,0.4689667999919038,,21,12,2026-03-02_18h17.07.675,2026A_exp2,2022.2.4,59.94765371495749,
1000,1,0.0,4.9,0,0,78,78,61,,,,,243.58819169999333,244.22224140001344,244.22224140001344,244.72312189999502,315,45,244.72312189999502,244.72312189999502,244.72312189999502,244.72312189999502,244.72312189999502,244.72312189999502,244.72312189999502,244.72312189999502,244.72312189999502,245.08955659999629,245.08955659999629,245.08955659999629,245.08955659999629,245.08955659999629,245.08955659999629,245.08955659999629,245.08955659999629,245.08955659999629,23,0,,,245.08955659999629,245.29201279999688,1000,245.29201279999688,1000,1000,1000,1000,1,num_2,0.45794170000590384,,21,12,2026-03-02_18h17.07.675,2026A_exp2,2022.2.4,59.94765371495749,
1000,1,0.0,6.1,1,0,79,79,43,,,,,245.77364329999546,246.42431989999022,246.42431989999022,246.92544650001219,45,315,246.92544650001219,246.92544650001219,246.92544650001219,246.92544650001219,246.92544650001219,246.92544650001219,246.92544650001219,246.92544650001219,246.92544650001219,247.27508389999275,247.27508389999275,247.27508389999275,247.27508389999275,247.27508389999275,247.27508389999275,247.27508389999275,247.27508389999275,247.27508389999275,22,0,,,247.27508389999275,247.47716650000075,1000,247.4920878999983,1000,1000,1000,1000,1,num_2,0.3701277000072878,,21,12,2026-03-02_18h17.07.675,2026A_exp2,2022.2.4,59.94765371495749,
1000,1,6.1,0.0,0,0,80,80,81,,,,,247.89244090000284,248.54314970000996,248.54314970000996,249.0442514999886,45,315,249.0442514999886,249.0442514999886,249.0442514999886,249.0442514999886,249.0442514999886,249.0442514999886,249.0442514999886,249.0442514999886,249.0442514999886,249.39406600000802,249.39406600000802,249.39406600000802,249.39406600000802,249.39406600000802,249.39406600000802,249.39406600000802,249.39406600000802,249.39406600000802,22,0,,,249.39406600000802,249.59601070001372,1000,249.59601070001372,1000,1000,1000,1000,0,num_3,0.3789556999981869,,21,12,2026-03-02_18h17.07.675,2026A_exp2,2022.2.4,59.94765371495749,
1,0,0.0,6.1,0,0,81,81,0,,,,,249.9944780000078,250.6451975000091,250.6451975000091,251.14641640000627,315,45,251.14641640000627,251.14641640000627,251.14641640000627,251.14641640000627,251.14641640000627,251.14641640000627,251.14641640000627,251.14641640000627,251.14641640000627,251.5127999999968,251.5127999999968,251.5127999999968,251.5127999999968,251.5127999999968,251.5127999999968,251.5127999999968,251.5127999999968,251.5127999999968,23,0,,,251.5127999999968,251.7129294000042,0.0,251.7129294000042,0,0.0,0,1,1000,num_1,0.8048787000006996,,21,12,2026-03-02_18h17.07.675,2026A_exp2,2022.2.4,59.94765371495749,
1,0,6.1,0.0,0,0,82,82,82,,,,,252.54711310000857,253.19785460000276,253.19785460000276,253.6823114999861,45,45,253.6823114999861,253.6823114999861,253.6823114999861,253.6823114999861,253.6823114999861,253.6823114999861,253.6823114999861,253.6823114999861,253.6823114999861,254.04868639999768,254.04868639999768,254.04868639999768,254.04868639999768,254.04868639999768,254.04868639999768,254.04868639999768,254.04868639999768,254.04868639999768,23,0,,,254.04868639999768,254.24885140001425,6.1,254.24885140001425,1,6.1,1,1,1000,num_4,0.47693319999962114,,21,12,2026-03-02_18h17.07.675,2026A_exp2,2022.2.4,59.94765371495749,
1000,1,3.7,3.7,0,0,83,83,63,,,,,254.74917039999855,255.40000339999096,255.40000339999096,255.8844117000117,315,45,255.8844117000117,255.8844117000117,255.8844117000117,255.8844117000117,255.8844117000117,255.8844117000117,255.8844117000117,255.8844117000117,255.8844117000117,256.2506057000137,256.2506057000137,256.2506057000137,256.2506057000137,256.2506057000137,256.2506057000137,256.2506057000137,256.2506057000137,256.2506057000137,23,0,,,256.2506057000137,256.45702719999827,1000,256.45702719999827,1000,1000,1000,1000,0,num_3,0.5327327000268269,,21,12,2026-03-02_18h17.07.675,2026A_exp2,2022.2.4,59.94765371495749,
0,0,4.9,0.0,1,0,84,84,67,,,,,257.01811689999886,257.66902999999,257.66902999999,258.1701111999864,315,315,258.1701111999864,258.1701111999864,258.1701111999864,258.1701111999864,258.1701111999864,258.1701111999864,258.1701111999864,258.1701111999864,258.1701111999864,258.5364474999951,258.5364474999951,258.5364474999951,258.5364474999951,258.5364474999951,258.5364474999951,258.5364474999951,258.5364474999951,258.5364474999951,23,0,,,258.5364474999951,258.736730500008,4.9,258.736730500008,1,4.9,1,1,1000,num_4,0.5410868000180926,,21,12,2026-03-02_18h17.07.675,2026A_exp2,2022.2.4,59.94765371495749,
1,0,4.9,3.7,0,0,85,85,44,,,,,259.30385709999246,259.9546455999953,259.9546455999953,260.4390582999913,315,315,260.4390582999913,260.4390582999913,260.4390582999913,260.4390582999913,260.4390582999913,260.4390582999913,260.4390582999913,260.4390582999913,260.4390582999913,260.8055648999871,260.8055648999871,260.8055648999871,260.8055648999871,260.8055648999871,260.8055648999871,260.8055648999871,260.8055648999871,260.8055648999871,23,0,,,260.8055648999871,261.0057153000089,4.9,261.0057153000089,1,4.9,1,1,1000,num_4,0.4890333999937866,,21,12,2026-03-02_18h17.07.675,2026A_exp2,2022.2.4,59.94765371495749,
1000,1,6.1,3.7,0,0,86,86,75,,,,,261.5227182999952,262.1734423000016,262.1734423000016,262.657962199999,45,315,262.657962199999,262.657962199999,262.657962199999,262.657962199999,262.657962199999,262.657962199999,262.657962199999,262.657962199999,262.657962199999,263.02436310000485,263.02436310000485,263.02436310000485,263.02436310000485,263.02436310000485,263.02436310000485,263.02436310000485,263.02436310000485,263.02436310000485,23,0,,,263.02436310000485,263.2265645999869,1000,263.2265645999869,1000,1000,1000,1000,0,num_3,0.5319428000075277,,21,12,2026-03-02_18h17.07.675,2026A_exp2,2022.2.4,59.94765371495749,
1,0,0.0,3.7,1,0,87,87,35,,,,,263.7749386999931,264.4257571999915,264.4257571999915,264.92687399999704,315,45,264.92687399999704,264.92687399999704,264.92687399999704,264.92687399999704,264.92687399999704,264.92687399999704,264.92687399999704,264.92687399999704,264.92687399999704,265.2933106000128,265.2933106000128,265.2933106000128,265.2933106000128,265.2933106000128,265.2933106000128,265.2933106000128,265.2933106000128,265.2933106000128,23,0,,,265.2933106000128,265.4934775000147,3.7,265.4934775000147,0,3.7,1,0,1000,num_1,0.36167830001795664,,21,12,2026-03-02_18h17.07.675,2026A_exp2,2022.2.4,59.94765371495749,
1,0,3.7,4.9,1,0,88,88,18,,,,,265.8770516999939,266.5276889000088,266.5276889000088,267.02882509998744,45,315,267.02882509998744,267.02882509998744,267.02882509998744,267.02882509998744,267.02882509998744,267.02882509998744,267.02882509998744,267.02882509998744,267.02882509998744,267.378692600003,267.378692600003,267.378692600003,267.378692600003,267.378692600003,267.378692600003,267.378692600003,267.378692600003,267.378692600003,22,0,,,267.378692600003,267.578823799995,4.9,267.578823799995,1,4.9,1,1,1000,num_4,1.0592574999900535,,21,12,2026-03-02_18h17.07.675,2026A_exp2,2022.2.4,59.94765371495749,
1000,1,0.0,4.9,0,0,89,89,60,,,,,268.66315139998915,269.31393709999975,269.31393709999975,269.81510959999287,315,315,269.81510959999287,269.81510959999287,269.81510959999287,269.81510959999287,269.81510959999287,269.81510959999287,269.81510959999287,269.81510959999287,269.81510959999287,270.1648006000032,270.1648006000032,270.1648006000032,270.1648006000032,270.1648006000032,270.1648006000032,270.1648006000032,270.1648006000032,270.1648006000032,21,1,[0.15043919999152422],[0.16699199998402037],270.1648006000032,270.3670501000015,1000,270.3670501000015,1000,1000,1000,1000,1,num_2,0.5273198999930173,,21,12,2026-03-02_18h17.07.675,2026A_exp2,2022.2.4,59.94765371495749,
,,,,,,,,,,,,,,,,,,,,,,,,,,,,,,,,,,,,,,,,,,,,,,,,,,,,270.9244894000003,,,,,,,
