validity,detectorcomp,contrastCW,contrastCCW,precueCWorCCW,block_80trials.thisRepN,block_80trials.thisTrialN,block_80trials.thisN,block_80trials.thisIndex,etRecord.started,etRecord.stopped,text.started,text.stopped,text_4.started,text_4.stopped,text_6.started,text_6.stopped,oriCW,oriCCW,roi_2.started,grating_UR.started,grating_UL.started,grating_LR.started,grating_LL.started,noise_UR.started,noise_UL.started,noise_LR.started,noise_LL.started,roi_2.stopped,grating_UR.stopped,grating_UL.stopped,grating_LR.stopped,grating_LL.stopped,noise_UR.stopped,noise_UL.stopped,noise_LR.stopped,noise_LL.stopped,outframe,roi_2.numLooks,roi_2.timesOn,roi_2.timesOff,text_2.started,text_2.stopped,probedcontrast,key_resp.started,respdetect,relevantContrast,correctDetect,TorFdetect,respCWorCCW,key_resp.keys,key_resp.rt,feedback_display_.started,participantNo,blockNo,date,expName,psychopyVersion,frameRate,
1,0,0.0,3.7,0,0,0,0,1,5.859998054802418e-05,5.859998054802418e-05,54.34755600010976,56.3523131001275,56.3523131001275,56.983234600163996,56.983234600163996,57.506288500037044,45,315,57.506288500037044,57.506288500037044,57.506288500037044,57.506288500037044,57.506288500037044,57.506288500037044,57.506288500037044,57.506288500037044,57.506288500037044,57.85077280015685,57.85077280015685,57.85077280015685,57.85077280015685,57.85077280015685,57.85077280015685,57.85077280015685,57.85077280015685,57.85077280015685,23,0,,,57.85077280015685,58.051383200101554,0.0,58.051383200101554,0,0.0,0,1,1000,num_1,0.7118033999577165,,35,8,2026-03-13_14h01.05.805,2026A_exp2,2022.2.4,59.78533471554739,
1,0,3.7,4.9,0,0,1,1,31,,,,,58.78495240001939,59.41904460010119,59.41904460010119,59.92019059997983,45,315,59.92019059997983,59.92019059997983,59.92019059997983,59.92019059997983,59.92019059997983,59.92019059997983,59.92019059997983,59.92019059997983,59.92019059997983,60.2865493001882,60.2865493001882,60.2865493001882,60.2865493001882,60.2865493001882,60.2865493001882,60.2865493001882,60.2865493001882,60.2865493001882,7,7,"[0.0007278998382389545, 0.033828499959781766, 0.06707259989343584, 0.10058819991536438, 0.15058399992994964, 0.2505899998359382, 0.2840658000204712]","[0.01756870001554489, 0.05113909998908639, 0.08393089985474944, 0.13395309983752668, 0.21697129984386265, 0.26769549981690943, 0.36720469989813864]",60.2865493001882,60.48663390008733,3.7,60.48663390008733,0,3.7,1,0,1000,num_1,0.9567199000157416,,35,8,2026-03-13_14h01.05.805,2026A_exp2,2022.2.4,59.78533471554739,
1000,1,6.1,6.1,0,0,2,2,74,,,,,61.471247900044546,62.10492900013924,62.10492900013924,62.6061060000211,315,45,62.6061060000211,62.6061060000211,62.6061060000211,62.6061060000211,62.6061060000211,62.6061060000211,62.6061060000211,62.6061060000211,62.6061060000211,62.972466400125995,62.972466400125995,62.972466400125995,62.972466400125995,62.972466400125995,62.972466400125995,62.972466400125995,62.972466400125995,62.972466400125995,1,2,"[0.0007966000121086836, 0.3003298998810351]","[0.2839039999525994, 0.3670655998867005]",62.972466400125995,63.17292480007745,1000,63.17292480007745,1000,1000,1000,1000,0,num_3,1.1185405997093767,,35,8,2026-03-13_14h01.05.805,2026A_exp2,2022.2.4,59.78533471554739,
1000,1,4.9,0.0,0,0,3,3,20,,,,,64.30721160001121,64.95790160004981,64.95790160004981,65.44231820013374,45,315,65.44231820013374,65.44231820013374,65.44231820013374,65.44231820013374,65.44231820013374,65.44231820013374,65.44231820013374,65.44231820013374,65.44231820013374,65.80870579998009,65.80870579998009,65.80870579998009,65.80870579998009,65.80870579998009,65.80870579998009,65.80870579998009,65.80870579998009,65.80870579998009,20,1,[0.017623099964112043],[0.06719159986823797],65.80870579998009,66.00889280019328,1000,66.00889280019328,1000,1000,1000,1000,0,num_3,0.6982615999877453,,35,8,2026-03-13_14h01.05.805,2026A_exp2,2022.2.4,59.78533471554739,
1,0,3.7,0.0,1,0,4,4,59,,,,,66.72651100018993,67.37695390009321,67.37695390009321,67.87806690018624,315,45,67.87806690018624,67.87806690018624,67.87806690018624,67.87806690018624,67.87806690018624,67.87806690018624,67.87806690018624,67.87806690018624,67.87806690018624,68.24460860015824,68.24460860015824,68.24460860015824,68.24460860015824,68.24460860015824,68.24460860015824,68.24460860015824,68.24460860015824,68.24460860015824,0,1,[0.0007281999569386244],[0.36757240002043545],68.24460860015824,68.4446489000693,0.0,68.4446489000693,0,0.0,0,1,1000,num_1,0.7744264998473227,,35,8,2026-03-13_14h01.05.805,2026A_exp2,2022.2.4,59.78533471554739,
1000,1,0.0,4.9,0,0,5,5,27,,,,,69.24582260008901,69.89607630018145,69.89607630018145,70.38125540013425,315,45,70.38125540013425,70.38125540013425,70.38125540013425,70.38125540013425,70.38125540013425,70.38125540013425,70.38125540013425,70.38125540013425,70.38125540013425,70.74697360000573,70.74697360000573,70.74697360000573,70.74697360000573,70.74697360000573,70.74697360000573,70.74697360000573,70.74697360000573,70.74697360000573,0,1,[0.0008960000704973936],[0.36704890010878444],70.74697360000573,70.94758310006,1000,70.94758310006,1000,1000,1000,1000,1,num_2,0.6238026998471469,,35,8,2026-03-13_14h01.05.805,2026A_exp2,2022.2.4,59.78533471554739,
1,0,0.0,0.0,1,0,6,6,82,,,,,71.59809030010365,72.24857520009391,72.24857520009391,72.74991510016844,45,45,72.74991510016844,72.74991510016844,72.74991510016844,72.74991510016844,72.74991510016844,72.74991510016844,72.74991510016844,72.74991510016844,72.74991510016844,73.11594539997168,73.11594539997168,73.11594539997168,73.11594539997168,73.11594539997168,73.11594539997168,73.11594539997168,73.11594539997168,73.11594539997168,18,2,"[0.033674699952825904, 0.21794839994981885]","[0.08339299983344972, 0.25054079992696643]",73.11594539997168,73.31630480010062,0.0,73.31630480010062,1,0.0,0,0,1000,num_4,0.799358099931851,,35,8,2026-03-13_14h01.05.805,2026A_exp2,2022.2.4,59.78533471554739,
1000,1,0.0,0.0,1,0,7,7,40,,,,,74.1337760000024,74.76776720001362,74.76776720001362,75.26996470009908,315,45,75.26996470009908,75.26996470009908,75.26996470009908,75.26996470009908,75.26996470009908,75.26996470009908,75.26996470009908,75.26996470009908,75.26996470009908,75.63522830000147,75.63522830000147,75.63522830000147,75.63522830000147,75.63522830000147,75.63522830000147,75.63522830000147,75.63522830000147,75.63522830000147,23,0,,,75.63522830000147,75.83554080012254,1000,75.83554080012254,1000,1000,1000,1000,0,num_3,0.5923690998461097,,35,8,2026-03-13_14h01.05.805,2026A_exp2,2022.2.4,59.78533471554739,
1,0,6.1,6.1,0,0,8,8,11,,,,,76.45279940008186,77.10342100006528,77.10342100006528,77.58783820015378,315,45,77.58783820015378,77.58783820015378,77.58783820015378,77.58783820015378,77.58783820015378,77.58783820015378,77.58783820015378,77.58783820015378,77.58783820015378,77.95418900018558,77.95418900018558,77.95418900018558,77.95418900018558,77.95418900018558,77.95418900018558,77.95418900018558,77.95418900018558,77.95418900018558,21,2,"[0.10004129982553422, 0.30065549979917705]","[0.11676399991847575, 0.31759609980508685]",77.95418900018558,78.15440720017068,6.1,78.15440720017068,1,6.1,1,1,1000,num_4,0.7205727999098599,,35,8,2026-03-13_14h01.05.805,2026A_exp2,2022.2.4,59.78533471554739,
1,0,6.1,0.0,0,0,9,9,24,,,,,78.90520050004125,79.53920650016516,79.53920650016516,80.0402695001103,315,45,80.0402695001103,80.0402695001103,80.0402695001103,80.0402695001103,80.0402695001103,80.0402695001103,80.0402695001103,80.0402695001103,80.0402695001103,80.40664270007983,80.40664270007983,80.40664270007983,80.40664270007983,80.40664270007983,80.40664270007983,80.40664270007983,80.40664270007983,80.40664270007983,22,1,[0.31738509982824326],[0.3356927998829633],80.40664270007983,80.606828100048,6.1,80.606828100048,1,6.1,1,1,1000,num_4,0.5007458997424692,,35,8,2026-03-13_14h01.05.805,2026A_exp2,2022.2.4,59.78533471554739,
1,0,4.9,0.0,0,0,10,10,23,,,,,81.12406340008602,81.75802220008336,81.75802220008336,82.25921060005203,315,45,82.25921060005203,82.25921060005203,82.25921060005203,82.25921060005203,82.25921060005203,82.25921060005203,82.25921060005203,82.25921060005203,82.25921060005203,82.62539180018939,82.62539180018939,82.62539180018939,82.62539180018939,82.62539180018939,82.62539180018939,82.62539180018939,82.62539180018939,82.62539180018939,20,3,"[0.13461980014108121, 0.2680803001858294, 0.35064960015006363]","[0.15096850018016994, 0.28429169999435544, 0.36732010007835925]",82.62539180018939,82.82566880015656,4.9,82.82566880015656,1,4.9,1,1,1000,num_4,0.3935361998155713,,35,8,2026-03-13_14h01.05.805,2026A_exp2,2022.2.4,59.78533471554739,
1000,1,3.7,4.9,0,0,11,11,13,,,,,83.24324239999987,83.89347210014239,83.89347210014239,84.3778733999934,45,45,84.3778733999934,84.3778733999934,84.3778733999934,84.3778733999934,84.3778733999934,84.3778733999934,84.3778733999934,84.3778733999934,84.3778733999934,84.74462540005334,84.74462540005334,84.74462540005334,84.74462540005334,84.74462540005334,84.74462540005334,84.74462540005334,84.74462540005334,84.74462540005334,21,1,[0.23383620008826256],[0.26780949998646975],84.74462540005334,84.94477519998327,1000,84.94477519998327,1000,1000,1000,1000,1,num_2,0.6182185998186469,,35,8,2026-03-13_14h01.05.805,2026A_exp2,2022.2.4,59.78533471554739,
0,0,0.0,0.0,0,0,12,12,4,,,,,85.57921620015986,86.21313000004739,86.21313000004739,86.71376680000685,45,45,86.71376680000685,86.71376680000685,86.71376680000685,86.71376680000685,86.71376680000685,86.71376680000685,86.71376680000685,86.71376680000685,86.71376680000685,87.08044579997659,87.08044579997659,87.08044579997659,87.08044579997659,87.08044579997659,87.08044579997659,87.08044579997659,87.08044579997659,87.08044579997659,23,0,,,87.08044579997659,87.28036170010455,0.0,87.28036170010455,0,0.0,0,1,1000,num_1,0.8594394000247121,,35,8,2026-03-13_14h01.05.805,2026A_exp2,2022.2.4,59.78533471554739,
1000,1,4.9,0.0,1,0,13,13,7,,,,,88.16499850014225,88.79850360006094,88.79850360006094,89.29967660014518,45,315,89.29967660014518,89.29967660014518,89.29967660014518,89.29967660014518,89.29967660014518,89.29967660014518,89.29967660014518,89.29967660014518,89.29967660014518,89.66639610007405,89.66639610007405,89.66639610007405,89.66639610007405,89.66639610007405,89.66639610007405,89.66639610007405,89.66639610007405,89.66639610007405,23,0,,,89.66639610007405,89.86640739999712,1000,89.86640739999712,1000,1000,1000,1000,0,num_3,0.5687136999331415,,35,8,2026-03-13_14h01.05.805,2026A_exp2,2022.2.4,59.78533471554739,
1000,1,0.0,0.0,0,0,14,14,47,,,,,90.46700810012408,91.11807349999435,91.11807349999435,91.6019201001618,45,315,91.6019201001618,91.6019201001618,91.6019201001618,91.6019201001618,91.6019201001618,91.6019201001618,91.6019201001618,91.6019201001618,91.6019201001618,91.96842689998448,91.96842689998448,91.96842689998448,91.96842689998448,91.96842689998448,91.96842689998448,91.96842689998448,91.96842689998448,91.96842689998448,3,3,"[0.0008002999238669872, 0.30072590010240674, 0.3674542000517249]","[0.28399490006268024, 0.31727240001782775, 0.3674588000867516]",91.96842689998448,92.1685566001106,1000,92.1685566001106,1000,1000,1000,1000,1,num_2,1.4673347999341786,,35,8,2026-03-13_14h01.05.805,2026A_exp2,2022.2.4,59.78533471554739,
1000,1,0.0,4.9,1,0,15,15,73,,,,,93.65354980016127,94.28841789998114,94.28841789998114,94.80516740004532,45,45,94.80516740004532,94.80516740004532,94.80516740004532,94.80516740004532,94.80516740004532,94.80516740004532,94.80516740004532,94.80516740004532,94.80516740004532,95.17158700013533,95.17158700013533,95.17158700013533,95.17158700013533,95.17158700013533,95.17158700013533,95.17158700013533,95.17158700013533,95.17158700013533,22,1,[0.06699130008928478],[0.0836760001257062],95.17158700013533,95.37183640012518,1000,95.37183640012518,1000,1000,1000,1000,1,num_2,0.8159071998670697,,35,8,2026-03-13_14h01.05.805,2026A_exp2,2022.2.4,59.78533471554739,
1,0,0.0,0.0,0,0,16,16,66,,,,,96.2060243000742,96.85651080007665,96.85651080007665,97.35753520019352,315,45,97.35753520019352,97.35753520019352,97.35753520019352,97.35753520019352,97.35753520019352,97.35753520019352,97.35753520019352,97.35753520019352,97.35753520019352,97.70725730014965,97.70725730014965,97.70725730014965,97.70725730014965,97.70725730014965,97.70725730014965,97.70725730014965,97.70725730014965,97.70725730014965,21,1,[0.15097269997932017],[0.16733829979784787],97.70725730014965,97.90740500018,0.0,97.90740500018,1,0.0,0,0,1000,num_4,0.743731799768284,,35,8,2026-03-13_14h01.05.805,2026A_exp2,2022.2.4,59.78533471554739,
1000,1,6.1,3.7,0,0,17,17,61,,,,,98.67481840006076,99.30905700009316,99.30905700009316,99.8099027001299,45,315,99.8099027001299,99.8099027001299,99.8099027001299,99.8099027001299,99.8099027001299,99.8099027001299,99.8099027001299,99.8099027001299,99.8099027001299,100.17649159999564,100.17649159999564,100.17649159999564,100.17649159999564,100.17649159999564,100.17649159999564,100.17649159999564,100.17649159999564,100.17649159999564,23,0,,,100.17649159999564,100.37712349998765,1000,100.37712349998765,1000,1000,1000,1000,0,num_3,0.6018461999483407,,35,8,2026-03-13_14h01.05.805,2026A_exp2,2022.2.4,59.78533471554739,
1,0,6.1,0.0,1,0,18,18,38,,,,,100.99412799999118,101.64496250008233,101.64496250008233,102.1459478000179,45,45,102.1459478000179,102.1459478000179,102.1459478000179,102.1459478000179,102.1459478000179,102.1459478000179,102.1459478000179,102.1459478000179,102.1459478000179,102.51243850006722,102.51243850006722,102.51243850006722,102.51243850006722,102.51243850006722,102.51243850006722,102.51243850006722,102.51243850006722,102.51243850006722,22,1,[0.3671285999007523],[0.367133199935779],102.51243850006722,102.71247140015475,0.0,102.71247140015475,0,0.0,0,1,1000,num_1,0.3798724999651313,,35,8,2026-03-13_14h01.05.805,2026A_exp2,2022.2.4,59.78533471554739,
1000,1,4.9,4.9,1,0,19,19,26,,,,,103.11294180015102,103.76372530008666,103.76372530008666,104.24820120004006,45,315,104.24820120004006,104.24820120004006,104.24820120004006,104.24820120004006,104.24820120004006,104.24820120004006,104.24820120004006,104.24820120004006,104.24820120004006,104.61448170011863,104.61448170011863,104.61448170011863,104.61448170011863,104.61448170011863,104.61448170011863,104.61448170011863,104.61448170011863,104.61448170011863,21,1,[0.3169704999309033],[0.35050909989513457],104.61448170011863,104.81646330002695,1000,104.81646330002695,1000,1000,1000,1000,0,num_3,0.49936280003748834,,35,8,2026-03-13_14h01.05.805,2026A_exp2,2022.2.4,59.78533471554739,
1000,1,6.1,3.7,1,0,20,20,45,,,,,105.3318287001457,105.98263940005563,105.98263940005563,106.4837489000056,315,45,106.4837489000056,106.4837489000056,106.4837489000056,106.4837489000056,106.4837489000056,106.4837489000056,106.4837489000056,106.4837489000056,106.4837489000056,106.85014320001937,106.85014320001937,106.85014320001937,106.85014320001937,106.85014320001937,106.85014320001937,106.85014320001937,106.85014320001937,106.85014320001937,20,2,"[0.08391489996574819, 0.25055709993466735]","[0.10049079987220466, 0.26737100002355874]",106.85014320001937,107.05199930001982,1000,107.05199930001982,1000,1000,1000,1000,0,num_3,0.5038924999535084,,35,8,2026-03-13_14h01.05.805,2026A_exp2,2022.2.4,59.78533471554739,
1000,1,6.1,6.1,0,0,21,21,56,,,,,107.58408050006256,108.2348005999811,108.2348005999811,108.73583780019544,45,315,108.73583780019544,108.73583780019544,108.73583780019544,108.73583780019544,108.73583780019544,108.73583780019544,108.73583780019544,108.73583780019544,108.73583780019544,109.0856946001295,109.0856946001295,109.0856946001295,109.0856946001295,109.0856946001295,109.0856946001295,109.0856946001295,109.0856946001295,109.0856946001295,18,4,"[0.03339869994670153, 0.21693630004301667, 0.26707389997318387, 0.33382329996675253]","[0.05022019986063242, 0.2337332998868078, 0.2837385998573154, 0.3507054999936372]",109.0856946001295,109.28758870018646,1000,109.3026811000891,1000,1000,1000,1000,0,num_3,0.420338099822402,,35,8,2026-03-13_14h01.05.805,2026A_exp2,2022.2.4,59.78533471554739,
1000,1,0.0,6.1,1,0,22,22,3,,,,,109.75317550008185,110.39614760014229,110.39614760014229,110.88816880015656,315,315,110.88816880015656,110.88816880015656,110.88816880015656,110.88816880015656,110.88816880015656,110.88816880015656,110.88816880015656,110.88816880015656,110.88816880015656,111.254593500169,111.254593500169,111.254593500169,111.254593500169,111.254593500169,111.254593500169,111.254593500169,111.254593500169,111.254593500169,22,1,[0.3508746998850256],[0.3674608999863267],111.254593500169,111.4602713000495,1000,111.4602713000495,1000,1000,1000,1000,1,num_2,0.6150760999880731,,35,8,2026-03-13_14h01.05.805,2026A_exp2,2022.2.4,59.78533471554739,
1,0,0.0,6.1,0,0,23,23,57,,,,,112.1054887000937,112.75604610005394,112.75604610005394,113.25711510004476,315,45,113.25711510004476,113.25711510004476,113.25711510004476,113.25711510004476,113.25711510004476,113.25711510004476,113.25711510004476,113.25711510004476,113.25711510004476,113.60683240019716,113.60683240019716,113.60683240019716,113.60683240019716,113.60683240019716,113.60683240019716,113.60683240019716,113.60683240019716,113.60683240019716,20,2,"[0.0013387000653892756, 0.2169145999941975]","[0.017310600029304624, 0.2337409001775086]",113.60683240019716,113.80694980011322,0.0,113.80694980011322,0,0.0,0,1,1000,num_1,0.9484113997314125,,35,8,2026-03-13_14h01.05.805,2026A_exp2,2022.2.4,59.78533471554739,
1000,1,3.7,3.7,0,0,24,24,16,,,,,114.77448150003329,115.42545159999281,115.42545159999281,115.90969510003924,45,45,115.90969510003924,115.90969510003924,115.90969510003924,115.90969510003924,115.90969510003924,115.90969510003924,115.90969510003924,115.90969510003924,115.90969510003924,116.27651810017414,116.27651810017414,116.27651810017414,116.27651810017414,116.27651810017414,116.27651810017414,116.27651810017414,116.27651810017414,116.27651810017414,22,1,[0.3671761997975409],[0.36717929993756115],116.27651810017414,116.48244370007887,1000,116.48244370007887,1000,1000,1000,1000,1,num_2,0.5538252999540418,,35,8,2026-03-13_14h01.05.805,2026A_exp2,2022.2.4,59.78533471554739,
1,0,0.0,0.0,1,0,25,25,53,,,,,117.06052729999647,117.71103630005382,117.71103630005382,118.212083700113,45,315,118.212083700113,118.212083700113,118.212083700113,118.212083700113,118.212083700113,118.212083700113,118.212083700113,118.212083700113,118.212083700113,118.56188140017912,118.56188140017912,118.56188140017912,118.56188140017912,118.56188140017912,118.56188140017912,118.56188140017912,118.56188140017912,118.56188140017912,19,2,"[0.1335072999354452, 0.2671020000707358]","[0.15012239990755916, 0.30052029993385077]",118.56188140017912,118.76190100004897,0.0,118.76190100004897,0,0.0,0,1,1000,num_1,1.2419743998907506,,35,8,2026-03-13_14h01.05.805,2026A_exp2,2022.2.4,59.78533471554739,
1,0,6.1,0.0,1,0,26,26,54,,,,,120.02984150010161,120.68056650017388,120.68056650017388,121.16500190016814,315,315,121.16500190016814,121.16500190016814,121.16500190016814,121.16500190016814,121.16500190016814,121.16500190016814,121.16500190016814,121.16500190016814,121.16500190016814,121.53139070002362,121.53139070002362,121.53139070002362,121.53139070002362,121.53139070002362,121.53139070002362,121.53139070002362,121.53139070002362,121.53139070002362,17,2,"[0.2337381998077035, 0.3171454998664558]","[0.26712239999324083, 0.36738660000264645]",121.53139070002362,121.73155650007538,0.0,121.73155650007538,1,0.0,0,0,1000,num_4,2.104100299766287,,35,8,2026-03-13_14h01.05.805,2026A_exp2,2022.2.4,59.78533471554739,
1000,1,6.1,4.9,1,0,27,27,76,,,,,123.86699250014499,124.51758300000802,124.51758300000802,125.00227190018632,315,45,125.00227190018632,125.00227190018632,125.00227190018632,125.00227190018632,125.00227190018632,125.00227190018632,125.00227190018632,125.00227190018632,125.00227190018632,125.36867380002514,125.36867380002514,125.36867380002514,125.36867380002514,125.36867380002514,125.36867380002514,125.36867380002514,125.36867380002514,125.36867380002514,21,2,"[0.18373159994371235, 0.25027820002287626]","[0.2002258999273181, 0.2669647999573499]",125.36867380002514,125.57079100003466,1000,125.57079100003466,1000,1000,1000,1000,0,num_3,0.6087772997561842,,35,8,2026-03-13_14h01.05.805,2026A_exp2,2022.2.4,59.78533471554739,
1,0,0.0,6.1,0,0,28,28,72,,,,,126.20281639997847,126.85346250003204,126.85346250003204,127.35453960020095,45,315,127.35453960020095,127.35453960020095,127.35453960020095,127.35453960020095,127.35453960020095,127.35453960020095,127.35453960020095,127.35453960020095,127.35453960020095,127.70434330007993,127.70434330007993,127.70434330007993,127.70434330007993,127.70434330007993,127.70434330007993,127.70434330007993,127.70434330007993,127.70434330007993,17,4,"[0.0011959997937083244, 0.06680209981277585, 0.13357109995558858, 0.26719909999519587]","[0.017266899812966585, 0.08351809997111559, 0.16689839982427657, 0.2835971999447793]",127.70434330007993,127.90452760015614,0.0,127.90452760015614,0,0.0,0,1,1000,num_1,0.7074082000181079,,35,8,2026-03-13_14h01.05.805,2026A_exp2,2022.2.4,59.78533471554739,
1000,1,4.9,0.0,1,0,29,29,28,,,,,128.63845179998316,129.2891712000128,129.2891712000128,129.77370370016433,45,315,129.77370370016433,129.77370370016433,129.77370370016433,129.77370370016433,129.77370370016433,129.77370370016433,129.77370370016433,129.77370370016433,129.77370370016433,130.14002600009553,130.14002600009553,130.14002600009553,130.14002600009553,130.14002600009553,130.14002600009553,130.14002600009553,130.14002600009553,130.14002600009553,23,0,,,130.14002600009553,130.34212300018407,1000,130.34212300018407,1000,1000,1000,1000,0,num_3,0.39778939983807504,,35,8,2026-03-13_14h01.05.805,2026A_exp2,2022.2.4,59.78533471554739,
1,0,0.0,3.7,1,0,30,30,12,,,,,130.7571339001879,131.4079116000794,131.4079116000794,131.9090642000083,315,45,131.9090642000083,131.9090642000083,131.9090642000083,131.9090642000083,131.9090642000083,131.9090642000083,131.9090642000083,131.9090642000083,131.9090642000083,132.27552790008485,132.27552790008485,132.27552790008485,132.27552790008485,132.27552790008485,132.27552790008485,132.27552790008485,132.27552790008485,132.27552790008485,23,0,,,132.27552790008485,132.47562330006622,3.7,132.47562330006622,0,3.7,1,0,1000,num_1,0.6247295998036861,,35,8,2026-03-13_14h01.05.805,2026A_exp2,2022.2.4,59.78533471554739,
1000,1,6.1,0.0,1,0,31,31,52,,,,,133.12623950000852,133.77707820013165,133.77707820013165,134.26154120010324,45,45,134.26154120010324,134.26154120010324,134.26154120010324,134.26154120010324,134.26154120010324,134.26154120010324,134.26154120010324,134.26154120010324,134.26154120010324,134.62781900004484,134.62781900004484,134.62781900004484,134.62781900004484,134.62781900004484,134.62781900004484,134.62781900004484,134.62781900004484,134.62781900004484,23,0,,,134.62781900004484,134.82991500012577,1000,134.82991500012577,1000,1000,1000,1000,0,num_3,0.34247149992734194,,35,8,2026-03-13_14h01.05.805,2026A_exp2,2022.2.4,59.78533471554739,
1000,1,4.9,6.1,1,0,32,32,18,,,,,135.19518250017427,135.84580760006793,135.84580760006793,136.34709290019237,315,315,136.34709290019237,136.34709290019237,136.34709290019237,136.34709290019237,136.34709290019237,136.34709290019237,136.34709290019237,136.34709290019237,136.34709290019237,136.7133763001766,136.7133763001766,136.7133763001766,136.7133763001766,136.7133763001766,136.7133763001766,136.7133763001766,136.7133763001766,136.7133763001766,22,1,[0.08346390002407134],[0.10006750002503395],136.7133763001766,136.91537260008045,1000,136.91537260008045,1000,1000,1000,1000,1,num_2,0.5840049998369068,,35,8,2026-03-13_14h01.05.805,2026A_exp2,2022.2.4,59.78533471554739,
1000,1,0.0,0.0,1,0,33,33,70,,,,,137.51427000015974,138.16465590009466,138.16465590009466,138.66575570008717,45,315,138.66575570008717,138.66575570008717,138.66575570008717,138.66575570008717,138.66575570008717,138.66575570008717,138.66575570008717,138.66575570008717,138.66575570008717,139.03228679997846,139.03228679997846,139.03228679997846,139.03228679997846,139.03228679997846,139.03228679997846,139.03228679997846,139.03228679997846,139.03228679997846,20,1,[0.30028460011817515],[0.3502395001705736],139.03228679997846,139.23460760014132,1000,139.23460760014132,1000,1000,1000,1000,0,num_3,0.47361959982663393,,35,8,2026-03-13_14h01.05.805,2026A_exp2,2022.2.4,59.78533471554739,
1,0,0.0,0.0,0,0,34,34,49,,,,,139.73300060001202,140.38358630007133,140.38358630007133,140.88464950001799,45,315,140.88464950001799,140.88464950001799,140.88464950001799,140.88464950001799,140.88464950001799,140.88464950001799,140.88464950001799,140.88464950001799,140.88464950001799,141.23431440000422,141.23431440000422,141.23431440000422,141.23431440000422,141.23431440000422,141.23431440000422,141.23431440000422,141.23431440000422,141.23431440000422,19,3,"[0.03342340001836419, 0.1170393000356853, 0.15040970011614263]","[0.05023670010268688, 0.13370010000653565, 0.16690540011040866]",141.23431440000422,141.434574900195,0.0,141.434574900195,0,0.0,0,1,1000,num_1,1.2811416999902576,,35,8,2026-03-13_14h01.05.805,2026A_exp2,2022.2.4,59.78533471554739,
1,0,0.0,4.9,1,0,35,35,36,,,,,142.73592600016855,143.36986970016733,143.36986970016733,143.87105299998075,315,315,143.87105299998075,143.87105299998075,143.87105299998075,143.87105299998075,143.87105299998075,143.87105299998075,143.87105299998075,143.87105299998075,143.87105299998075,144.2374813000206,144.2374813000206,144.2374813000206,144.2374813000206,144.2374813000206,144.2374813000206,144.2374813000206,144.2374813000206,144.2374813000206,21,2,"[0.18341870000585914, 0.3672110999468714]","[0.20038160006515682, 0.36721640010364354]",144.2374813000206,144.43776100012474,4.9,144.43776100012474,0,4.9,1,0,1000,num_1,0.742672799853608,,35,8,2026-03-13_14h01.05.805,2026A_exp2,2022.2.4,59.78533471554739,
1000,1,3.7,6.1,0,0,36,36,81,,,,,145.20495340018533,145.8557089001406,145.8557089001406,146.3402826001402,45,45,146.3402826001402,146.3402826001402,146.3402826001402,146.3402826001402,146.3402826001402,146.3402826001402,146.3402826001402,146.3402826001402,146.3402826001402,146.70664150011726,146.70664150011726,146.70664150011726,146.70664150011726,146.70664150011726,146.70664150011726,146.70664150011726,146.70664150011726,146.70664150011726,12,5,"[0.0012258000206202269, 0.0836793000344187, 0.20034509990364313, 0.23375290003605187, 0.2836951999925077]","[0.017467200057581067, 0.18359849997796118, 0.21686129993759096, 0.2670225999318063, 0.3004050999879837]",146.70664150011726,146.90892640012316,1000,146.90892640012316,1000,1000,1000,1000,1,num_2,0.4549524998292327,,35,8,2026-03-13_14h01.05.805,2026A_exp2,2022.2.4,59.78533471554739,
1,0,0.0,3.7,1,0,37,37,25,,,,,147.39077890012413,148.04132220009342,148.04132220009342,148.5257129999809,315,45,148.5257129999809,148.5257129999809,148.5257129999809,148.5257129999809,148.5257129999809,148.5257129999809,148.5257129999809,148.5257129999809,148.5257129999809,148.89206370012835,148.89206370012835,148.89206370012835,148.89206370012835,148.89206370012835,148.89206370012835,148.89206370012835,148.89206370012835,148.89206370012835,2,2,"[0.01718929992057383, 0.3668754999525845]","[0.350350399967283, 0.3668801998719573]",148.89206370012835,149.0923620001413,3.7,149.0923620001413,0,3.7,1,0,1000,num_1,0.5354491998441517,,35,8,2026-03-13_14h01.05.805,2026A_exp2,2022.2.4,59.78533471554739,
1000,1,6.1,0.0,0,0,38,38,58,,,,,149.65946039999835,150.30994520010427,150.30994520010427,150.7953027000185,315,45,150.7953027000185,150.7953027000185,150.7953027000185,150.7953027000185,150.7953027000185,150.7953027000185,150.7953027000185,150.7953027000185,150.7953027000185,151.1615731001366,151.1615731001366,151.1615731001366,151.1615731001366,151.1615731001366,151.1615731001366,151.1615731001366,151.1615731001366,151.1615731001366,5,3,"[0.033608000027015805, 0.06855749990791082, 0.3176219000015408]","[0.050015500048175454, 0.2837070000823587, 0.36846660007722676]",151.1615731001366,151.36113390000537,1000,151.36113390000537,1000,1000,1000,1000,0,num_3,0.4342968000564724,,35,8,2026-03-13_14h01.05.805,2026A_exp2,2022.2.4,59.78533471554739,
1000,1,0.0,0.0,1,0,39,39,62,,,,,151.81161170010455,152.44576240004972,152.44576240004972,152.94660050002858,315,45,152.94660050002858,152.94660050002858,152.94660050002858,152.94660050002858,152.94660050002858,152.94660050002858,152.94660050002858,152.94660050002858,152.94660050002858,153.3130171999801,153.3130171999801,153.3130171999801,153.3130171999801,153.3130171999801,153.3130171999801,153.3130171999801,153.3130171999801,153.3130171999801,23,0,,,153.3130171999801,153.51478200010024,1000,153.51478200010024,1000,1000,1000,1000,1,num_2,0.9126338998321444,,35,8,2026-03-13_14h01.05.805,2026A_exp2,2022.2.4,59.78533471554739,
1,0,3.7,4.9,0,0,40,40,84,,,,,154.44765030010603,155.09832570003346,155.09832570003346,155.58287510019727,45,315,155.58287510019727,155.58287510019727,155.58287510019727,155.58287510019727,155.58287510019727,155.58287510019727,155.58287510019727,155.58287510019727,155.58287510019727,155.94887170009315,155.94887170009315,155.94887170009315,155.94887170009315,155.94887170009315,155.94887170009315,155.94887170009315,155.94887170009315,155.94887170009315,23,0,,,155.94887170009315,156.14919600007124,3.7,156.14919600007124,0,3.7,1,0,1000,num_1,1.0222157998941839,,35,8,2026-03-13_14h01.05.805,2026A_exp2,2022.2.4,59.78533471554739,
1,0,0.0,3.7,1,0,41,41,10,,,,,157.2003650001716,157.85112470015883,157.85112470015883,158.3355382999871,315,315,158.3355382999871,158.3355382999871,158.3355382999871,158.3355382999871,158.3355382999871,158.3355382999871,158.3355382999871,158.3355382999871,158.3355382999871,158.7019313001074,158.7019313001074,158.7019313001074,158.7019313001074,158.7019313001074,158.7019313001074,158.7019313001074,158.7019313001074,158.7019313001074,7,5,"[0.0012160998303443193, 0.06690460001118481, 0.16693409997969866, 0.23383849998936057, 0.3171353000216186]","[0.05017169984057546, 0.10036489996127784, 0.2170825998764485, 0.3004270000383258, 0.36711079999804497]",158.7019313001074,158.90213589998893,3.7,158.90213589998893,0,3.7,1,0,1000,num_1,0.48508119978941977,,35,8,2026-03-13_14h01.05.805,2026A_exp2,2022.2.4,59.78533471554739,
1,0,0.0,4.9,1,0,42,42,65,,,,,159.41941760014743,160.05336150014773,160.05336150014773,160.55429130000994,45,315,160.55429130000994,160.55429130000994,160.55429130000994,160.55429130000994,160.55429130000994,160.55429130000994,160.55429130000994,160.55429130000994,160.55429130000994,160.92085009999573,160.92085009999573,160.92085009999573,160.92085009999573,160.92085009999573,160.92085009999573,160.92085009999573,160.92085009999573,160.92085009999573,23,0,,,160.92085009999573,161.12110009999014,4.9,161.12110009999014,1,4.9,1,1,1000,num_4,1.0826755999587476,,35,8,2026-03-13_14h01.05.805,2026A_exp2,2022.2.4,59.78533471554739,
1,0,3.7,3.7,1,0,43,43,64,,,,,162.22206140006892,162.8726604001131,162.8726604001131,163.35705980006605,315,45,163.35705980006605,163.35705980006605,163.35705980006605,163.35705980006605,163.35705980006605,163.35705980006605,163.35705980006605,163.35705980006605,163.35705980006605,163.72350369999185,163.72350369999185,163.72350369999185,163.72350369999185,163.72350369999185,163.72350369999185,163.72350369999185,163.72350369999185,163.72350369999185,23,0,,,163.72350369999185,163.92368500004523,3.7,163.92368500004523,0,3.7,1,0,1000,num_1,0.6727666999213398,,35,8,2026-03-13_14h01.05.805,2026A_exp2,2022.2.4,59.78533471554739,
1,0,6.1,4.9,0,0,44,44,30,,,,,164.62441550008953,165.2753614000976,165.2753614000976,165.75957690016367,315,315,165.75957690016367,165.75957690016367,165.75957690016367,165.75957690016367,165.75957690016367,165.75957690016367,165.75957690016367,165.75957690016367,165.75957690016367,166.12586460006423,166.12586460006423,166.12586460006423,166.12586460006423,166.12586460006423,166.12586460006423,166.12586460006423,166.12586460006423,166.12586460006423,22,0,,,166.12586460006423,166.32631739997305,6.1,166.32631739997305,1,6.1,1,1,1000,num_4,0.41292320005595684,,35,8,2026-03-13_14h01.05.805,2026A_exp2,2022.2.4,59.78533471554739,
1,0,4.9,0.0,1,0,45,45,15,,,,,166.75976480008103,167.41074210009538,167.41074210009538,167.89515520003624,315,315,167.89515520003624,167.89515520003624,167.89515520003624,167.89515520003624,167.89515520003624,167.89515520003624,167.89515520003624,167.89515520003624,167.89515520003624,168.26157940016128,168.26157940016128,168.26157940016128,168.26157940016128,168.26157940016128,168.26157940016128,168.26157940016128,168.26157940016128,168.26157940016128,21,1,[0.18334269989281893],[0.2011162000708282],168.26157940016128,168.46163729997352,0.0,168.46163729997352,0,0.0,0,1,1000,num_1,0.42965739988721907,,35,8,2026-03-13_14h01.05.805,2026A_exp2,2022.2.4,59.78533471554739,
1000,1,0.0,0.0,0,0,46,46,41,,,,,168.9119909000583,169.56281190016307,169.56281190016307,170.06380580016412,315,315,170.06380580016412,170.06380580016412,170.06380580016412,170.06380580016412,170.06380580016412,170.06380580016412,170.06380580016412,170.06380580016412,170.06380580016412,170.41368440003134,170.41368440003134,170.41368440003134,170.41368440003134,170.41368440003134,170.41368440003134,170.41368440003134,170.41368440003134,170.41368440003134,22,0,,,170.41368440003134,170.61551300017163,1000,170.61551300017163,1000,1000,1000,1000,1,num_2,0.684467899845913,,35,8,2026-03-13_14h01.05.805,2026A_exp2,2022.2.4,59.78533471554739,
1,0,0.0,3.7,0,0,47,47,2,,,,,171.33126790006645,171.98192599997856,171.98192599997856,172.48306470015086,45,45,172.48306470015086,172.48306470015086,172.48306470015086,172.48306470015086,172.48306470015086,172.48306470015086,172.48306470015086,172.48306470015086,172.48306470015086,172.83277880004607,172.83277880004607,172.83277880004607,172.83277880004607,172.83277880004607,172.83277880004607,172.83277880004607,172.83277880004607,172.83277880004607,22,0,,,172.83277880004607,173.03314710012637,0.0,173.03314710012637,0,0.0,0,1,1000,num_1,1.3861555999610573,,35,8,2026-03-13_14h01.05.805,2026A_exp2,2022.2.4,59.78533471554739,
1,0,0.0,4.9,0,0,48,48,35,,,,,174.4512112000957,175.085050099995,175.085050099995,175.58599990000948,315,315,175.58599990000948,175.58599990000948,175.58599990000948,175.58599990000948,175.58599990000948,175.58599990000948,175.58599990000948,175.58599990000948,175.58599990000948,175.95223690010607,175.95223690010607,175.95223690010607,175.95223690010607,175.95223690010607,175.95223690010607,175.95223690010607,175.95223690010607,175.95223690010607,23,0,,,175.95223690010607,176.15269140014425,0.0,176.15269140014425,0,0.0,0,1,1000,num_1,0.5305051000323147,,35,8,2026-03-13_14h01.05.805,2026A_exp2,2022.2.4,59.78533471554739,
1000,1,4.9,3.7,1,0,49,49,14,,,,,176.70308370003477,177.35405930015258,177.35405930015258,177.83842110005207,45,45,177.83842110005207,177.83842110005207,177.83842110005207,177.83842110005207,177.83842110005207,177.83842110005207,177.83842110005207,177.83842110005207,177.83842110005207,178.20483970013447,178.20483970013447,178.20483970013447,178.20483970013447,178.20483970013447,178.20483970013447,178.20483970013447,178.20483970013447,178.20483970013447,22,1,[0.06685099983587861],[0.08344869990833104],178.20483970013447,178.40569570008665,1000,178.40569570008665,1000,1000,1000,1000,0,num_3,0.5180365997366607,,35,8,2026-03-13_14h01.05.805,2026A_exp2,2022.2.4,59.78533471554739,
1000,1,3.7,3.7,1,0,50,50,46,,,,,178.93879380007274,179.58958400017582,179.58958400017582,180.0906254001893,315,45,180.0906254001893,180.0906254001893,180.0906254001893,180.0906254001893,180.0906254001893,180.0906254001893,180.0906254001893,180.0906254001893,180.0906254001893,180.4570196000859,180.4570196000859,180.4570196000859,180.4570196000859,180.4570196000859,180.4570196000859,180.4570196000859,180.4570196000859,180.4570196000859,23,0,,,180.4570196000859,180.65734510007314,1000,180.65734510007314,1000,1000,1000,1000,0,num_3,0.5625915999989957,,35,8,2026-03-13_14h01.05.805,2026A_exp2,2022.2.4,59.78533471554739,
0,0,3.7,3.7,0,0,51,51,63,,,,,181.24107960006222,181.89178290008567,181.89178290008567,182.39284169999883,315,315,182.39284169999883,182.39284169999883,182.39284169999883,182.39284169999883,182.39284169999883,182.39284169999883,182.39284169999883,182.39284169999883,182.39284169999883,182.75938980001956,182.75938980001956,182.75938980001956,182.75938980001956,182.75938980001956,182.75938980001956,182.75938980001956,182.75938980001956,182.75938980001956,23,0,,,182.75938980001956,182.95955220004544,3.7,182.95955220004544,0,3.7,1,0,1000,num_1,0.8040773998945951,,35,8,2026-03-13_14h01.05.805,2026A_exp2,2022.2.4,59.78533471554739,
1000,1,6.1,0.0,1,0,52,52,79,,,,,183.79341490007937,184.44434970011935,184.44434970011935,184.92888940009288,45,45,184.92888940009288,184.92888940009288,184.92888940009288,184.92888940009288,184.92888940009288,184.92888940009288,184.92888940009288,184.92888940009288,184.92888940009288,185.29516710015014,185.29516710015014,185.29516710015014,185.29516710015014,185.29516710015014,185.29516710015014,185.29516710015014,185.29516710015014,185.29516710015014,22,1,[0.2504425998777151],[0.28370369994081557],185.29516710015014,185.49728010012768,1000,185.49728010012768,1000,1000,1000,1000,0,num_3,0.6420126997400075,,35,8,2026-03-13_14h01.05.805,2026A_exp2,2022.2.4,59.78533471554739,
0,0,3.7,6.1,1,0,53,53,17,,,,,186.16269540018402,186.81335170008242,186.81335170008242,187.31442640000023,45,45,187.31442640000023,187.31442640000023,187.31442640000023,187.31442640000023,187.31442640000023,187.31442640000023,187.31442640000023,187.31442640000023,187.31442640000023,187.68090840009972,187.68090840009972,187.68090840009972,187.68090840009972,187.68090840009972,187.68090840009972,187.68090840009972,187.68090840009972,187.68090840009972,23,0,,,187.68090840009972,187.8810413000174,3.7,187.8810413000174,0,3.7,1,0,1000,num_1,0.5859367998782545,,35,8,2026-03-13_14h01.05.805,2026A_exp2,2022.2.4,59.78533471554739,
1,0,6.1,3.7,0,0,54,54,86,,,,,188.49833630002104,189.14907780010253,189.14907780010253,189.6333670001477,315,45,189.6333670001477,189.6333670001477,189.6333670001477,189.6333670001477,189.6333670001477,189.6333670001477,189.6333670001477,189.6333670001477,189.6333670001477,189.99993639998138,189.99993639998138,189.99993639998138,189.99993639998138,189.99993639998138,189.99993639998138,189.99993639998138,189.99993639998138,189.99993639998138,23,0,,,189.99993639998138,190.2000302001834,6.1,190.21664620004594,1,6.1,1,1,1000,num_4,0.4349340999033302,,35,8,2026-03-13_14h01.05.805,2026A_exp2,2022.2.4,59.78533471554739,
1,0,3.7,6.1,0,0,55,55,55,,,,,190.66707510012202,191.3293180000037,191.3293180000037,191.80238480004482,45,315,191.80238480004482,191.80238480004482,191.80238480004482,191.80238480004482,191.80238480004482,191.80238480004482,191.80238480004482,191.80238480004482,191.80238480004482,192.16875750012696,192.16875750012696,192.16875750012696,192.16875750012696,192.16875750012696,192.16875750012696,192.16875750012696,192.16875750012696,192.16875750012696,23,0,,,192.16875750012696,192.36899089999497,3.7,192.36899089999497,0,3.7,1,0,1000,num_1,0.5626864999067038,,35,8,2026-03-13_14h01.05.805,2026A_exp2,2022.2.4,59.78533471554739,
1000,1,0.0,3.7,1,0,56,56,43,,,,,192.95278880000114,193.61164290015586,193.61164290015586,194.08795630000532,45,45,194.08795630000532,194.08795630000532,194.08795630000532,194.08795630000532,194.08795630000532,194.08795630000532,194.08795630000532,194.08795630000532,194.08795630000532,194.4543884000741,194.4543884000741,194.4543884000741,194.4543884000741,194.4543884000741,194.4543884000741,194.4543884000741,194.4543884000741,194.4543884000741,23,0,,,194.4543884000741,194.6563434000127,1000,194.6563434000127,1000,1000,1000,1000,0,num_3,0.46697129984386265,,35,8,2026-03-13_14h01.05.805,2026A_exp2,2022.2.4,59.78533471554739,
0,0,0.0,0.0,0,0,57,57,67,,,,,195.15515020000748,195.80567899998277,195.80567899998277,196.3066934000235,315,45,196.3066934000235,196.3066934000235,196.3066934000235,196.3066934000235,196.3066934000235,196.3066934000235,196.3066934000235,196.3066934000235,196.3066934000235,196.67310340004042,196.67310340004042,196.67310340004042,196.67310340004042,196.67310340004042,196.67310340004042,196.67310340004042,196.67310340004042,196.67310340004042,23,0,,,196.67310340004042,196.87331679998897,0.0,196.87331679998897,0,0.0,0,1,1000,num_1,0.5546388998627663,,35,8,2026-03-13_14h01.05.805,2026A_exp2,2022.2.4,59.78533471554739,
1000,1,3.7,0.0,1,0,58,58,21,,,,,197.45711650000885,198.10820880020037,198.10820880020037,198.6090349999722,45,45,198.6090349999722,198.6090349999722,198.6090349999722,198.6090349999722,198.6090349999722,198.6090349999722,198.6090349999722,198.6090349999722,198.6090349999722,198.9755371999927,198.9755371999927,198.9755371999927,198.9755371999927,198.9755371999927,198.9755371999927,198.9755371999927,198.9755371999927,198.9755371999927,23,0,,,198.9755371999927,199.17589840013534,1000,199.17589840013534,1000,1000,1000,1000,1,num_2,1.4030504000838846,,35,8,2026-03-13_14h01.05.805,2026A_exp2,2022.2.4,59.78533471554739,
1000,1,0.0,3.7,1,0,59,59,75,,,,,200.61065230006352,201.26091100019403,201.26091100019403,201.7454927000217,315,315,201.7454927000217,201.7454927000217,201.7454927000217,201.7454927000217,201.7454927000217,201.7454927000217,201.7454927000217,201.7454927000217,201.7454927000217,202.1120541000273,202.1120541000273,202.1120541000273,202.1120541000273,202.1120541000273,202.1120541000273,202.1120541000273,202.1120541000273,202.1120541000273,23,0,,,202.1120541000273,202.3143854001537,1000,202.3143854001537,1000,1000,1000,1000,0,num_3,0.47361079999245703,,35,8,2026-03-13_14h01.05.805,2026A_exp2,2022.2.4,59.78533471554739,
1000,1,0.0,3.7,0,0,60,60,32,,,,,202.81261680019088,203.46328969998285,203.46328969998285,203.96449120016769,45,315,203.96449120016769,203.96449120016769,203.96449120016769,203.96449120016769,203.96449120016769,203.96449120016769,203.96449120016769,203.96449120016769,203.96449120016769,204.33087339997292,204.33087339997292,204.33087339997292,204.33087339997292,204.33087339997292,204.33087339997292,204.33087339997292,204.33087339997292,204.33087339997292,23,0,,,204.33087339997292,204.53296440001577,1000,204.53296440001577,1000,1000,1000,1000,0,num_3,0.5182012999430299,,35,8,2026-03-13_14h01.05.805,2026A_exp2,2022.2.4,59.78533471554739,
1,0,6.1,6.1,0,0,61,61,51,,,,,205.08156309998594,205.73219100013375,205.73219100013375,206.2332868000958,315,45,206.2332868000958,206.2332868000958,206.2332868000958,206.2332868000958,206.2332868000958,206.2332868000958,206.2332868000958,206.2332868000958,206.2332868000958,206.59988300013356,206.59988300013356,206.59988300013356,206.59988300013356,206.59988300013356,206.59988300013356,206.59988300013356,206.59988300013356,206.59988300013356,23,0,,,206.59988300013356,206.80010100011714,6.1,206.80010100011714,0,6.1,1,0,1000,num_1,0.5563843999989331,,35,8,2026-03-13_14h01.05.805,2026A_exp2,2022.2.4,59.78533471554739,
1000,1,6.1,0.0,0,0,62,62,8,,,,,207.38403710001148,208.0280291000381,208.0280291000381,208.51928790006787,45,315,208.51928790006787,208.51928790006787,208.51928790006787,208.51928790006787,208.51928790006787,208.51928790006787,208.51928790006787,208.51928790006787,208.51928790006787,208.8854427000042,208.8854427000042,208.8854427000042,208.8854427000042,208.8854427000042,208.8854427000042,208.8854427000042,208.8854427000042,208.8854427000042,23,0,,,208.8854427000042,209.08726459997706,1000,209.08726459997706,1000,1000,1000,1000,0,num_3,0.5164359000045806,,35,8,2026-03-13_14h01.05.805,2026A_exp2,2022.2.4,59.78533471554739,
1000,1,0.0,6.1,0,0,63,63,83,,,,,209.61965200002305,210.26979549997486,210.26979549997486,210.75452299998142,45,315,210.75452299998142,210.75452299998142,210.75452299998142,210.75452299998142,210.75452299998142,210.75452299998142,210.75452299998142,210.75452299998142,210.75452299998142,211.12110630003735,211.12110630003735,211.12110630003735,211.12110630003735,211.12110630003735,211.12110630003735,211.12110630003735,211.12110630003735,211.12110630003735,23,0,,,211.12110630003735,211.3229404001031,1000,211.3229404001031,1000,1000,1000,1000,1,num_2,0.6161700999364257,,35,8,2026-03-13_14h01.05.805,2026A_exp2,2022.2.4,59.78533471554739,
1000,1,6.1,0.0,0,0,64,64,68,,,,,211.95515780011192,212.60588480019942,212.60588480019942,213.10700660012662,315,315,213.10700660012662,213.10700660012662,213.10700660012662,213.10700660012662,213.10700660012662,213.10700660012662,213.10700660012662,213.10700660012662,213.10700660012662,213.45672400016338,213.45672400016338,213.45672400016338,213.45672400016338,213.45672400016338,213.45672400016338,213.45672400016338,213.45672400016338,213.45672400016338,22,0,,,213.45672400016338,213.6586151001975,1000,213.67337179998867,1000,1000,1000,1000,0,num_3,0.4176958999596536,,35,8,2026-03-13_14h01.05.805,2026A_exp2,2022.2.4,59.78533471554739,
1,0,4.9,0.0,1,0,65,65,48,,,,,214.1072429001797,214.75804520002566,214.75804520002566,215.25921100005507,315,45,215.25921100005507,215.25921100005507,215.25921100005507,215.25921100005507,215.25921100005507,215.25921100005507,215.25921100005507,215.25921100005507,215.25921100005507,215.6255809001159,215.6255809001159,215.6255809001159,215.6255809001159,215.6255809001159,215.6255809001159,215.6255809001159,215.6255809001159,215.6255809001159,23,0,,,215.6255809001159,215.8257706000004,0.0,215.8257706000004,0,0.0,0,1,1000,num_1,0.9627411998808384,,35,8,2026-03-13_14h01.05.805,2026A_exp2,2022.2.4,59.78533471554739,
0,0,0.0,0.0,0,0,66,66,69,,,,,216.8098561000079,217.4607306001708,217.4607306001708,217.96175860008225,45,45,217.96175860008225,217.96175860008225,217.96175860008225,217.96175860008225,217.96175860008225,217.96175860008225,217.96175860008225,217.96175860008225,217.96175860008225,218.3282598000951,218.3282598000951,218.3282598000951,218.3282598000951,218.3282598000951,218.3282598000951,218.3282598000951,218.3282598000951,218.3282598000951,23,0,,,218.3282598000951,218.5282778001856,0.0,218.5282778001856,0,0.0,0,1,1000,num_1,0.8671330998186022,,35,8,2026-03-13_14h01.05.805,2026A_exp2,2022.2.4,59.78533471554739,
1000,1,3.7,0.0,1,0,67,67,44,,,,,219.41257930011488,220.06351180002093,220.06351180002093,220.5476049000863,45,315,220.5476049000863,220.5476049000863,220.5476049000863,220.5476049000863,220.5476049000863,220.5476049000863,220.5476049000863,220.5476049000863,220.5476049000863,220.9141430000309,220.9141430000309,220.9141430000309,220.9141430000309,220.9141430000309,220.9141430000309,220.9141430000309,220.9141430000309,220.9141430000309,23,0,,,220.9141430000309,221.11584860016592,1000,221.11584860016592,1000,1000,1000,1000,0,num_3,1.1675621999893337,,35,8,2026-03-13_14h01.05.805,2026A_exp2,2022.2.4,59.78533471554739,
1,0,4.9,0.0,0,0,68,68,87,,,,,222.2990931000095,222.94956320011988,222.94956320011988,223.43397900019772,45,45,223.43397900019772,223.43397900019772,223.43397900019772,223.43397900019772,223.43397900019772,223.43397900019772,223.43397900019772,223.43397900019772,223.43397900019772,223.80027070012875,223.80027070012875,223.80027070012875,223.80027070012875,223.80027070012875,223.80027070012875,223.80027070012875,223.80027070012875,223.80027070012875,23,0,,,223.80027070012875,224.0001946000848,4.9,224.0001946000848,1,4.9,1,1,1000,num_4,0.5791176999919116,,35,8,2026-03-13_14h01.05.805,2026A_exp2,2022.2.4,59.78533471554739,
1000,1,0.0,0.0,1,0,69,69,42,,,,,224.6008384001907,225.23499490018003,225.23499490018003,225.7361985000316,45,45,225.7361985000316,225.7361985000316,225.7361985000316,225.7361985000316,225.7361985000316,225.7361985000316,225.7361985000316,225.7361985000316,225.7361985000316,226.10264690010808,226.10264690010808,226.10264690010808,226.10264690010808,226.10264690010808,226.10264690010808,226.10264690010808,226.10264690010808,226.10264690010808,18,5,"[0.11693689995445311, 0.1502521000802517, 0.20033539994619787, 0.23361909994855523, 0.2837157000321895]","[0.13350420002825558, 0.16686660004779696, 0.21690919995307922, 0.2504177999217063, 0.3004471999593079]",226.10264690010808,226.30453730002046,1000,226.30453730002046,1000,1000,1000,1000,0,num_3,0.524068099912256,,35,8,2026-03-13_14h01.05.805,2026A_exp2,2022.2.4,59.78533471554739,
1000,1,0.0,0.0,0,0,70,70,5,,,,,226.8534876999911,227.5040147001855,227.5040147001855,228.00507510011084,315,315,228.00507510011084,228.00507510011084,228.00507510011084,228.00507510011084,228.00507510011084,228.00507510011084,228.00507510011084,228.00507510011084,228.00507510011084,228.37157470011152,228.37157470011152,228.37157470011152,228.37157470011152,228.37157470011152,228.37157470011152,228.37157470011152,228.37157470011152,228.37157470011152,23,0,,,228.37157470011152,228.57349560013972,1000,228.57349560013972,1000,1000,1000,1000,0,num_3,0.43775949999690056,,35,8,2026-03-13_14h01.05.805,2026A_exp2,2022.2.4,59.78533471554739,
1,0,0.0,0.0,0,0,71,71,0,,,,,229.03886650013737,229.68959940015338,229.68959940015338,230.1907693000976,315,315,230.1907693000976,230.1907693000976,230.1907693000976,230.1907693000976,230.1907693000976,230.1907693000976,230.1907693000976,230.1907693000976,230.1907693000976,230.5571071000304,230.5571071000304,230.5571071000304,230.5571071000304,230.5571071000304,230.5571071000304,230.5571071000304,230.5571071000304,230.5571071000304,23,0,,,230.5571071000304,230.75735260010697,0.0,230.75735260010697,0,0.0,0,1,1000,num_1,0.48704989976249635,,35,8,2026-03-13_14h01.05.805,2026A_exp2,2022.2.4,59.78533471554739,
1000,1,4.9,4.9,1,0,72,72,85,,,,,231.27437790017575,231.9251621000003,231.9251621000003,232.40949930017814,45,45,232.40949930017814,232.40949930017814,232.40949930017814,232.40949930017814,232.40949930017814,232.40949930017814,232.40949930017814,232.40949930017814,232.40949930017814,232.77611090010032,232.77611090010032,232.77611090010032,232.77611090010032,232.77611090010032,232.77611090010032,232.77611090010032,232.77611090010032,232.77611090010032,23,0,,,232.77611090010032,232.9780131999869,1000,232.9780131999869,1000,1000,1000,1000,1,num_2,0.7861929999198765,,35,8,2026-03-13_14h01.05.805,2026A_exp2,2022.2.4,59.78533471554739,
1000,1,6.1,6.1,0,0,73,73,50,,,,,233.79355990001932,234.4441581000574,234.4441581000574,234.94536860007793,315,315,234.94536860007793,234.94536860007793,234.94536860007793,234.94536860007793,234.94536860007793,234.94536860007793,234.94536860007793,234.94536860007793,234.94536860007793,235.31194290006533,235.31194290006533,235.31194290006533,235.31194290006533,235.31194290006533,235.31194290006533,235.31194290006533,235.31194290006533,235.31194290006533,12,4,"[0.0012471000663936138, 0.08347820001654327, 0.25052770017646253, 0.3505140000488609]","[0.03355460008606315, 0.16684300010092556, 0.28365630004554987, 0.3668667001184076]",235.31194290006533,235.51411109999754,1000,235.51411109999754,1000,1000,1000,1000,0,num_3,0.5130952999461442,,35,8,2026-03-13_14h01.05.805,2026A_exp2,2022.2.4,59.78533471554739,
1000,1,6.1,4.9,0,0,74,74,77,,,,,236.0460042001214,236.67986980010755,236.67986980010755,237.1810453000944,45,315,237.1810453000944,237.1810453000944,237.1810453000944,237.1810453000944,237.1810453000944,237.1810453000944,237.1810453000944,237.1810453000944,237.1810453000944,237.5474031001795,237.5474031001795,237.5474031001795,237.5474031001795,237.5474031001795,237.5474031001795,237.5474031001795,237.5474031001795,237.5474031001795,23,0,,,237.5474031001795,237.74979300005361,1000,237.74979300005361,1000,1000,1000,1000,0,num_3,0.6546604000031948,,35,8,2026-03-13_14h01.05.805,2026A_exp2,2022.2.4,59.78533471554739,
1000,1,0.0,0.0,1,0,75,75,39,,,,,238.4316347001586,239.0823292999994,239.0823292999994,239.5834869001992,45,45,239.5834869001992,239.5834869001992,239.5834869001992,239.5834869001992,239.5834869001992,239.5834869001992,239.5834869001992,239.5834869001992,239.5834869001992,239.94986190018244,239.94986190018244,239.94986190018244,239.94986190018244,239.94986190018244,239.94986190018244,239.94986190018244,239.94986190018244,239.94986190018244,23,0,,,239.94986190018244,240.1519104000181,1000,240.1519104000181,1000,1000,1000,1000,0,num_3,0.6444580999668688,,35,8,2026-03-13_14h01.05.805,2026A_exp2,2022.2.4,59.78533471554739,
1000,1,4.9,4.9,0,0,76,76,34,,,,,240.817201100057,241.46804279997014,241.46804279997014,241.96907460014336,315,315,241.96907460014336,241.96907460014336,241.96907460014336,241.96907460014336,241.96907460014336,241.96907460014336,241.96907460014336,241.96907460014336,241.96907460014336,242.33560770004988,242.33560770004988,242.33560770004988,242.33560770004988,242.33560770004988,242.33560770004988,242.33560770004988,242.33560770004988,242.33560770004988,15,4,"[0.0012100997846573591, 0.0334073998965323, 0.26701769977808, 0.33371639996767044]","[0.017274699872359633, 0.05011259997263551, 0.31703419983386993, 0.3671496999450028]",242.33560770004988,242.53793780016713,1000,242.53793780016713,1000,1000,1000,1000,0,num_3,0.4254717999137938,,35,8,2026-03-13_14h01.05.805,2026A_exp2,2022.2.4,59.78533471554739,
1,0,0.0,0.0,0,0,77,77,19,,,,,242.9860951001756,243.63685400015675,243.63685400015675,244.13804000010714,315,45,244.13804000010714,244.13804000010714,244.13804000010714,244.13804000010714,244.13804000010714,244.13804000010714,244.13804000010714,244.13804000010714,244.13804000010714,244.5043337000534,244.5043337000534,244.5043337000534,244.5043337000534,244.5043337000534,244.5043337000534,244.5043337000534,244.5043337000534,244.5043337000534,14,6,"[0.050095600076019764, 0.10029339999891818, 0.18364530010148883, 0.25032490002922714, 0.2838661000132561, 0.31722480012103915]","[0.06692950008437037, 0.11697940016165376, 0.23369919997639954, 0.2670158001128584, 0.3003619001246989, 0.3503519999794662]",244.5043337000534,244.70463970000856,0.0,244.70463970000856,0,0.0,0,1,1000,num_1,1.25983119988814,,35,8,2026-03-13_14h01.05.805,2026A_exp2,2022.2.4,59.78533471554739,
1000,1,4.9,0.0,0,0,78,78,78,,,,,245.98919810005464,246.6398160001263,246.6398160001263,247.12429470010102,315,315,247.12429470010102,247.12429470010102,247.12429470010102,247.12429470010102,247.12429470010102,247.12429470010102,247.12429470010102,247.12429470010102,247.12429470010102,247.49076080019586,247.49076080019586,247.49076080019586,247.49076080019586,247.49076080019586,247.49076080019586,247.49076080019586,247.49076080019586,247.49076080019586,23,0,,,247.49076080019586,247.69322340004146,1000,247.69322340004146,1000,1000,1000,1000,0,num_3,0.4704748997464776,,35,8,2026-03-13_14h01.05.805,2026A_exp2,2022.2.4,59.78533471554739,
1000,1,4.9,4.9,1,0,79,79,60,,,,,248.19131440017372,248.84198800008744,248.84198800008744,249.34315289999358,45,45,249.34315289999358,249.34315289999358,249.34315289999358,249.34315289999358,249.34315289999358,249.34315289999358,249.34315289999358,249.34315289999358,249.34315289999358,249.70945540000685,249.70945540000685,249.70945540000685,249.70945540000685,249.70945540000685,249.70945540000685,249.70945540000685,249.70945540000685,249.70945540000685,23,0,,,249.70945540000685,249.91157710016705,1000,249.91157710016705,1000,1000,1000,1000,1,num_2,0.4841313997749239,,35,8,2026-03-13_14h01.05.805,2026A_exp2,2022.2.4,59.78533471554739,
1,0,6.1,6.1,1,0,80,80,89,,,,,250.42700990010053,251.06096350005828,251.06096350005828,251.56194730009884,45,315,251.56194730009884,251.56194730009884,251.56194730009884,251.56194730009884,251.56194730009884,251.56194730009884,251.56194730009884,251.56194730009884,251.56194730009884,251.92853779997677,251.92853779997677,251.92853779997677,251.92853779997677,251.92853779997677,251.92853779997677,251.92853779997677,251.92853779997677,251.92853779997677,20,1,[0.3002625999506563],[0.3504262000788003],251.92853779997677,252.1286178000737,6.1,252.1286178000737,1,6.1,1,1,1000,num_4,1.0034010999370366,,35,8,2026-03-13_14h01.05.805,2026A_exp2,2022.2.4,59.78533471554739,
1,0,3.7,6.1,1,0,81,81,6,,,,,253.16303210007027,253.79701270000078,253.79701270000078,254.29816070012748,45,45,254.29816070012748,254.29816070012748,254.29816070012748,254.29816070012748,254.29816070012748,254.29816070012748,254.29816070012748,254.29816070012748,254.29816070012748,254.66456679999828,254.66456679999828,254.66456679999828,254.66456679999828,254.66456679999828,254.66456679999828,254.66456679999828,254.66456679999828,254.66456679999828,23,0,,,254.66456679999828,254.86461120005697,6.1,254.86461120005697,1,6.1,1,1,1000,num_4,0.5236356998793781,,35,8,2026-03-13_14h01.05.805,2026A_exp2,2022.2.4,59.78533471554739,
1000,1,3.7,0.0,0,0,82,82,37,,,,,255.41536680003628,256.0660571001936,256.0660571001936,256.55047970009036,45,315,256.55047970009036,256.55047970009036,256.55047970009036,256.55047970009036,256.55047970009036,256.55047970009036,256.55047970009036,256.55047970009036,256.55047970009036,256.9168500001542,256.9168500001542,256.9168500001542,256.9168500001542,256.9168500001542,256.9168500001542,256.9168500001542,256.9168500001542,256.9168500001542,23,0,,,256.9168500001542,257.119424500037,1000,257.119424500037,1000,1000,1000,1000,0,num_3,0.36437450000084937,,35,8,2026-03-13_14h01.05.805,2026A_exp2,2022.2.4,59.78533471554739,
1000,1,3.7,0.0,1,0,83,83,33,,,,,257.5008598000277,258.1513575001154,258.1513575001154,258.65255270013586,45,45,258.65255270013586,258.65255270013586,258.65255270013586,258.65255270013586,258.65255270013586,258.65255270013586,258.65255270013586,258.65255270013586,258.65255270013586,259.0022329001222,259.0022329001222,259.0022329001222,259.0022329001222,259.0022329001222,259.0022329001222,259.0022329001222,259.0022329001222,259.0022329001222,22,0,,,259.0022329001222,259.2044822999742,1000,259.2044822999742,1000,1000,1000,1000,1,num_2,0.47047320008277893,,35,8,2026-03-13_14h01.05.805,2026A_exp2,2022.2.4,59.78533471554739,
1000,1,3.7,3.7,1,0,84,84,88,,,,,259.7029727001209,260.3536347001791,260.3536347001791,260.854697200004,315,45,260.854697200004,260.854697200004,260.854697200004,260.854697200004,260.854697200004,260.854697200004,260.854697200004,260.854697200004,260.854697200004,261.22119750012644,261.22119750012644,261.22119750012644,261.22119750012644,261.22119750012644,261.22119750012644,261.22119750012644,261.22119750012644,261.22119750012644,23,0,,,261.22119750012644,261.42153160017915,1000,261.42153160017915,1000,1000,1000,1000,0,num_3,0.7660531997680664,,35,8,2026-03-13_14h01.05.805,2026A_exp2,2022.2.4,59.78533471554739,
1000,1,0.0,4.9,0,0,85,85,9,,,,,262.20556650008075,262.85613130009733,262.85613130009733,263.3570698001422,315,315,263.3570698001422,263.3570698001422,263.3570698001422,263.3570698001422,263.3570698001422,263.3570698001422,263.3570698001422,263.3570698001422,263.3570698001422,263.7236966001801,263.7236966001801,263.7236966001801,263.7236966001801,263.7236966001801,263.7236966001801,263.7236966001801,263.7236966001801,263.7236966001801,21,1,[0.33372270013205707],[0.367039900040254],263.7236966001801,263.9258369000163,1000,263.9258369000163,1000,1000,1000,1000,1,num_2,0.44563039974309504,,35,8,2026-03-13_14h01.05.805,2026A_exp2,2022.2.4,59.78533471554739,
1,0,0.0,3.7,0,0,86,86,22,,,,,264.39099019998685,265.0416235001758,265.0416235001758,265.542928900104,45,45,265.542928900104,265.542928900104,265.542928900104,265.542928900104,265.542928900104,265.542928900104,265.542928900104,265.542928900104,265.542928900104,265.9092308001127,265.9092308001127,265.9092308001127,265.9092308001127,265.9092308001127,265.9092308001127,265.9092308001127,265.9092308001127,265.9092308001127,17,2,"[0.2175006999168545, 0.33430479979142547]","[0.3176822999957949, 0.3509394999127835]",265.9092308001127,266.1091799000278,0.0,266.1091799000278,0,0.0,0,1,1000,num_1,0.7265472998842597,,35,8,2026-03-13_14h01.05.805,2026A_exp2,2022.2.4,59.78533471554739,
1,0,0.0,0.0,0,0,87,87,29,,,,,266.86011410015635,267.5108347001951,267.5108347001951,267.99523700005375,315,315,267.99523700005375,267.99523700005375,267.99523700005375,267.99523700005375,267.99523700005375,267.99523700005375,267.99523700005375,267.99523700005375,267.99523700005375,268.36154299997725,268.36154299997725,268.36154299997725,268.36154299997725,268.36154299997725,268.36154299997725,268.36154299997725,268.36154299997725,268.36154299997725,23,0,,,268.36154299997725,268.561640500091,0.0,268.561640500091,0,0.0,0,1,1000,num_1,0.7940829999279231,,35,8,2026-03-13_14h01.05.805,2026A_exp2,2022.2.4,59.78533471554739,
1000,1,0.0,0.0,1,0,88,88,71,,,,,269.3792659000028,270.02993299998343,270.02993299998343,270.5142378001474,315,45,270.5142378001474,270.5142378001474,270.5142378001474,270.5142378001474,270.5142378001474,270.5142378001474,270.5142378001474,270.5142378001474,270.5142378001474,270.8807259001769,270.8807259001769,270.8807259001769,270.8807259001769,270.8807259001769,270.8807259001769,270.8807259001769,270.8807259001769,270.8807259001769,23,0,,,270.8807259001769,271.08266630000435,1000,271.08266630000435,1000,1000,1000,1000,0,num_3,0.4168213999364525,,35,8,2026-03-13_14h01.05.805,2026A_exp2,2022.2.4,59.78533471554739,
1000,1,6.1,0.0,0,0,89,89,80,,,,,271.51474700006656,272.1653818001505,272.1653818001505,272.666545300046,45,45,272.666545300046,272.666545300046,272.666545300046,272.666545300046,272.666545300046,272.666545300046,272.666545300046,272.666545300046,272.666545300046,273.03297220007516,273.03297220007516,273.03297220007516,273.03297220007516,273.03297220007516,273.03297220007516,273.03297220007516,273.03297220007516,273.03297220007516,16,3,"[0.06683810008689761, 0.1337467001285404, 0.3172483001835644]","[0.10030800011008978, 0.20035569998435676, 0.3337414001580328]",273.03297220007516,273.2344384000171,1000,273.2344384000171,1000,1000,1000,1000,0,num_3,0.44860749994404614,,35,8,2026-03-13_14h01.05.805,2026A_exp2,2022.2.4,59.78533471554739,
,,,,,,,,,,,,,,,,,,,,,,,,,,,,,,,,,,,,,,,,,,,,,,,,,,,,273.70798330008984,,,,,,,
