validity,detectorcomp,contrastCW,contrastCCW,precueCWorCCW,block_80trials.thisRepN,block_80trials.thisTrialN,block_80trials.thisN,block_80trials.thisIndex,etRecord.started,etRecord.stopped,text.started,text.stopped,text_4.started,text_4.stopped,text_6.started,text_6.stopped,oriCW,oriCCW,roi_2.started,grating_UR.started,grating_UL.started,grating_LR.started,grating_LL.started,noise_UR.started,noise_UL.started,noise_LR.started,noise_LL.started,roi_2.stopped,grating_UR.stopped,grating_UL.stopped,grating_LR.stopped,grating_LL.stopped,noise_UR.stopped,noise_UL.stopped,noise_LR.stopped,noise_LL.stopped,outframe,roi_2.numLooks,roi_2.timesOn,roi_2.timesOff,text_2.started,text_2.stopped,probedcontrast,key_resp.started,respdetect,relevantContrast,correctDetect,TorFdetect,respCWorCCW,key_resp.keys,key_resp.rt,feedback_display_.started,participantNo,blockNo,date,expName,psychopyVersion,frameRate,
1000,1,6.1,0.0,0,0,0,0,89,7.460001506842673e-05,7.460001506842673e-05,62.098011599999154,64.10061180000775,64.10061180000775,64.73450190000585,64.73450190000585,65.25616220000666,315,45,65.25616220000666,65.25616220000666,65.25616220000666,65.25616220000666,65.25616220000666,65.25616220000666,65.25616220000666,65.25616220000666,65.25616220000666,65.60226230000262,65.60226230000262,65.60226230000262,65.60226230000262,65.60226230000262,65.60226230000262,65.60226230000262,65.60226230000262,65.60226230000262,3,3,"[0.0009057999996002764, 0.2844591000175569, 0.3509121000242885]","[0.23444870000821538, 0.3344799000187777, 0.36779780001961626]",65.60226230000262,65.80998630000977,1000,65.80998630000977,1000,1000,1000,1000,0,num_3,1.2408837999973912,,20,1,2026-03-02_15h28.17.226,2026A_exp2,2022.2.4,59.95929962811778,
1000,1,0.0,4.9,0,0,1,1,53,,,,,67.07046330001322,67.73026599999866,67.73026599999866,68.22201650001807,45,45,68.22201650001807,68.22201650001807,68.22201650001807,68.22201650001807,68.22201650001807,68.22201650001807,68.22201650001807,68.22201650001807,68.22201650001807,68.58854679999058,68.58854679999058,68.58854679999058,68.58854679999058,68.58854679999058,68.58854679999058,68.58854679999058,68.58854679999058,68.58854679999058,13,1,[0.0014533000066876411],[0.16698119998909533],68.58854679999058,68.79291600000579,1000,68.79291600000579,1000,1000,1000,1000,1,num_2,0.6827737000130583,,20,1,2026-03-02_15h28.17.226,2026A_exp2,2022.2.4,59.95929962811778,
1000,1,0.0,0.0,0,0,2,2,67,,,,,69.50623150001047,70.15678950000438,70.15678950000438,70.65790320001543,45,315,70.65790320001543,70.65790320001543,70.65790320001543,70.65790320001543,70.65790320001543,70.65790320001543,70.65790320001543,70.65790320001543,70.65790320001543,71.02417630000855,71.02417630000855,71.02417630000855,71.02417630000855,71.02417630000855,71.02417630000855,71.02417630000855,71.02417630000855,71.02417630000855,23,0,,,71.02417630000855,71.22612090001348,1000,71.22612090001348,1000,1000,1000,1000,1,num_2,1.3849413999996614,,20,1,2026-03-02_15h28.17.226,2026A_exp2,2022.2.4,59.95929962811778,
1,0,4.9,0.0,0,0,3,3,4,,,,,72.64261519999127,73.2931615000125,73.2931615000125,73.79441100000986,315,315,73.79441100000986,73.79441100000986,73.79441100000986,73.79441100000986,73.79441100000986,73.79441100000986,73.79441100000986,73.79441100000986,73.79441100000986,74.16067919999477,74.16067919999477,74.16067919999477,74.16067919999477,74.16067919999477,74.16067919999477,74.16067919999477,74.16067919999477,74.16067919999477,23,0,,,74.16067919999477,74.3609734000056,4.9,74.3609734000056,1,4.9,1,1,1000,num_4,1.122453799995128,,20,1,2026-03-02_15h28.17.226,2026A_exp2,2022.2.4,59.95929962811778,
1000,1,0.0,4.9,1,0,4,4,78,,,,,75.51217120001093,76.16275390001829,76.16275390001829,76.6472815000161,45,315,76.6472815000161,76.6472815000161,76.6472815000161,76.6472815000161,76.6472815000161,76.6472815000161,76.6472815000161,76.6472815000161,76.6472815000161,77.01346919999924,77.01346919999924,77.01346919999924,77.01346919999924,77.01346919999924,77.01346919999924,77.01346919999924,77.01346919999924,77.01346919999924,23,0,,,77.01346919999924,77.21558869999717,1000,77.21558869999717,1000,1000,1000,1000,1,num_2,0.8915797999943607,,20,1,2026-03-02_15h28.17.226,2026A_exp2,2022.2.4,59.95929962811778,
0,0,0.0,3.7,0,0,5,5,47,,,,,78.13149620001786,78.78201419999823,78.78201419999823,79.28296989999944,45,315,79.28296989999944,79.28296989999944,79.28296989999944,79.28296989999944,79.28296989999944,79.28296989999944,79.28296989999944,79.28296989999944,79.28296989999944,79.63292000000365,79.63292000000365,79.63292000000365,79.63292000000365,79.63292000000365,79.63292000000365,79.63292000000365,79.63292000000365,79.63292000000365,22,0,,,79.63292000000365,79.83315849999781,3.7,79.84960720001254,1,3.7,1,1,1000,num_4,0.9463885999866761,,20,1,2026-03-02_15h28.17.226,2026A_exp2,2022.2.4,59.95929962811778,
1000,1,0.0,0.0,1,0,6,6,60,,,,,80.81737689999864,81.46794060000684,81.46794060000684,81.95252399999299,45,315,81.95252399999299,81.95252399999299,81.95252399999299,81.95252399999299,81.95252399999299,81.95252399999299,81.95252399999299,81.95252399999299,81.95252399999299,82.31880420001107,82.31880420001107,82.31880420001107,82.31880420001107,82.31880420001107,82.31880420001107,82.31880420001107,82.31880420001107,82.31880420001107,23,0,,,82.31880420001107,82.52132120000897,1000,82.52132120000897,1000,1000,1000,1000,1,num_2,1.0174176000000443,,20,1,2026-03-02_15h28.17.226,2026A_exp2,2022.2.4,59.95929962811778,
1000,1,0.0,0.0,1,0,7,7,40,,,,,83.57031129999086,84.220828599995,84.220828599995,84.72194439999294,45,45,84.72194439999294,84.72194439999294,84.72194439999294,84.72194439999294,84.72194439999294,84.72194439999294,84.72194439999294,84.72194439999294,84.72194439999294,85.07168729999103,85.07168729999103,85.07168729999103,85.07168729999103,85.07168729999103,85.07168729999103,85.07168729999103,85.07168729999103,85.07168729999103,22,0,,,85.07168729999103,85.27387870001257,1000,85.2884650999913,1000,1000,1000,1000,0,num_3,0.5870056000130717,,20,1,2026-03-02_15h28.17.226,2026A_exp2,2022.2.4,59.95929962811778,
0,0,6.1,6.1,0,0,8,8,42,,,,,85.90572340000654,86.55651630001375,86.55651630001375,87.05748089999543,45,315,87.05748089999543,87.05748089999543,87.05748089999543,87.05748089999543,87.05748089999543,87.05748089999543,87.05748089999543,87.05748089999543,87.05748089999543,87.40734219999285,87.40734219999285,87.40734219999285,87.40734219999285,87.40734219999285,87.40734219999285,87.40734219999285,87.40734219999285,87.40734219999285,3,4,"[0.0012500000011641532, 0.13386679999530315, 0.16717400000197813, 0.28393609999329783]","[0.11719029999221675, 0.15049820000422187, 0.26728269999148324, 0.35069920000387356]",87.40734219999285,87.60757590000867,6.1,87.6241796000104,1,6.1,1,1,1000,num_4,0.9951831999933347,,20,1,2026-03-02_15h28.17.226,2026A_exp2,2022.2.4,59.95929962811778,
1,0,4.9,3.7,0,0,9,9,63,,,,,88.6418718000059,89.29255149999517,89.29255149999517,89.7770739000116,315,45,89.7770739000116,89.7770739000116,89.7770739000116,89.7770739000116,89.7770739000116,89.7770739000116,89.7770739000116,89.7770739000116,89.7770739000116,90.1434145999956,90.1434145999956,90.1434145999956,90.1434145999956,90.1434145999956,90.1434145999956,90.1434145999956,90.1434145999956,90.1434145999956,21,2,"[0.0008890999888535589, 0.3676321000093594]","[0.017526499985251576, 0.36763759999303147]",90.1434145999956,90.34348810001393,4.9,90.34348810001393,1,4.9,1,1,1000,num_4,1.2047177999920677,,20,1,2026-03-02_15h28.17.226,2026A_exp2,2022.2.4,59.95929962811778,
0,0,4.9,4.9,1,0,10,10,48,,,,,91.57814040000085,92.2287723000045,92.2287723000045,92.71328809999977,315,45,92.71328809999977,92.71328809999977,92.71328809999977,92.71328809999977,92.71328809999977,92.71328809999977,92.71328809999977,92.71328809999977,92.71328809999977,93.07964390001143,93.07964390001143,93.07964390001143,93.07964390001143,93.07964390001143,93.07964390001143,93.07964390001143,93.07964390001143,93.07964390001143,23,0,,,93.07964390001143,93.27979709999636,4.9,93.27979709999636,0,4.9,1,0,1000,num_1,1.210893399984343,,20,1,2026-03-02_15h28.17.226,2026A_exp2,2022.2.4,59.95929962811778,
1000,1,3.7,6.1,1,0,11,11,29,,,,,94.51421320001828,95.16504260001238,95.16504260001238,95.64947599999141,315,45,95.64947599999141,95.64947599999141,95.64947599999141,95.64947599999141,95.64947599999141,95.64947599999141,95.64947599999141,95.64947599999141,95.64947599999141,96.01598840000224,96.01598840000224,96.01598840000224,96.01598840000224,96.01598840000224,96.01598840000224,96.01598840000224,96.01598840000224,96.01598840000224,23,0,,,96.01598840000224,96.21804589999374,1000,96.21804589999374,1000,1000,1000,1000,1,num_2,0.8811302999965847,,20,1,2026-03-02_15h28.17.226,2026A_exp2,2022.2.4,59.95929962811778,
1000,1,0.0,0.0,0,0,12,12,36,,,,,97.11692990001757,97.7676798000175,97.7676798000175,98.26879729999928,315,315,98.26879729999928,98.26879729999928,98.26879729999928,98.26879729999928,98.26879729999928,98.26879729999928,98.26879729999928,98.26879729999928,98.26879729999928,98.635165100015,98.635165100015,98.635165100015,98.635165100015,98.635165100015,98.635165100015,98.635165100015,98.635165100015,98.635165100015,23,0,,,98.635165100015,98.83735799998976,1000,98.83735799998976,1000,1000,1000,1000,0,num_3,0.5899501999956556,,20,1,2026-03-02_15h28.17.226,2026A_exp2,2022.2.4,59.95929962811778,
1,0,0.0,0.0,1,0,13,13,41,,,,,99.45249930000864,100.10344710000209,100.10344710000209,100.60431620001327,45,315,100.60431620001327,100.60431620001327,100.60431620001327,100.60431620001327,100.60431620001327,100.60431620001327,100.60431620001327,100.60431620001327,100.60431620001327,100.97097829999984,100.97097829999984,100.97097829999984,100.97097829999984,100.97097829999984,100.97097829999984,100.97097829999984,100.97097829999984,100.97097829999984,13,6,"[0.0012320999812800437, 0.033360700006596744, 0.09976690000621602, 0.1332447000022512, 0.2187483999878168, 0.33537049998994917]","[0.017106099985539913, 0.06683870000415482, 0.11625150000327267, 0.20209899998735636, 0.23538349999580532, 0.35200549999717623]",100.97097829999984,101.17746780000743,0.0,101.17746780000743,0,0.0,0,1,1000,num_1,0.8732915000000503,,20,1,2026-03-02_15h28.17.226,2026A_exp2,2022.2.4,59.95929962811778,
1,0,0.0,3.7,0,0,14,14,61,,,,,102.07182690000627,102.7226961000124,102.7226961000124,103.20703700001468,45,45,103.20703700001468,103.20703700001468,103.20703700001468,103.20703700001468,103.20703700001468,103.20703700001468,103.20703700001468,103.20703700001468,103.20703700001468,103.57357589999447,103.57357589999447,103.57357589999447,103.57357589999447,103.57357589999447,103.57357589999447,103.57357589999447,103.57357589999447,103.57357589999447,19,3,"[0.06697310000890866, 0.11697120001190342, 0.15026880000368692]","[0.10021500001312234, 0.13360490000923164, 0.16695650000474416]",103.57357589999447,103.77371400000993,0.0,103.77371400000993,0,0.0,0,1,1000,num_1,1.6617205000075046,,20,1,2026-03-02_15h28.17.226,2026A_exp2,2022.2.4,59.95929962811778,
1000,1,6.1,4.9,0,0,15,15,49,,,,,105.45854540000437,106.10923999999068,106.10923999999068,106.59373120000237,45,45,106.59373120000237,106.59373120000237,106.59373120000237,106.59373120000237,106.59373120000237,106.59373120000237,106.59373120000237,106.59373120000237,106.59373120000237,106.95993280000403,106.95993280000403,106.95993280000403,106.95993280000403,106.95993280000403,106.95993280000403,106.95993280000403,106.95993280000403,106.95993280000403,23,0,,,106.95993280000403,107.16226740001002,1000,107.16226740001002,1000,1000,1000,1000,0,num_3,1.1452489999937825,,20,1,2026-03-02_15h28.17.226,2026A_exp2,2022.2.4,59.95929962811778,
1,0,3.7,0.0,1,0,16,16,11,,,,,108.32814430000144,108.97880700000678,108.97880700000678,109.48005209999974,45,315,109.48005209999974,109.48005209999974,109.48005209999974,109.48005209999974,109.48005209999974,109.48005209999974,109.48005209999974,109.48005209999974,109.48005209999974,109.84629079999286,109.84629079999286,109.84629079999286,109.84629079999286,109.84629079999286,109.84629079999286,109.84629079999286,109.84629079999286,109.84629079999286,13,4,"[0.0012218000192660838, 0.05035269999643788, 0.13371140000526793, 0.20033510000212118]","[0.03359979999368079, 0.0835646000050474, 0.1835391000204254, 0.2504415000148583]",109.84629079999286,110.04657830001088,0.0,110.04657830001088,0,0.0,0,1,1000,num_1,1.1971566999854986,,20,1,2026-03-02_15h28.17.226,2026A_exp2,2022.2.4,59.95929962811778,
1,0,4.9,4.9,0,0,17,17,39,,,,,111.26442560000578,111.91523579999921,111.91523579999921,112.39965209999355,315,45,112.39965209999355,112.39965209999355,112.39965209999355,112.39965209999355,112.39965209999355,112.39965209999355,112.39965209999355,112.39965209999355,112.39965209999355,112.76608619999024,112.76608619999024,112.76608619999024,112.76608619999024,112.76608619999024,112.76608619999024,112.76608619999024,112.76608619999024,112.76608619999024,20,2,"[0.0012085000053048134, 0.06682639999780804]","[0.03349440000602044, 0.08355009998194873]",112.76608619999024,112.96605010001804,4.9,112.96605010001804,1,4.9,1,1,1000,num_4,1.661032600008184,,20,1,2026-03-02_15h28.17.226,2026A_exp2,2022.2.4,59.95929962811778,
1000,1,0.0,0.0,1,0,18,18,23,,,,,114.65117190001183,115.302021600015,115.302021600015,115.786242400005,315,315,115.786242400005,115.786242400005,115.786242400005,115.786242400005,115.786242400005,115.786242400005,115.786242400005,115.786242400005,115.786242400005,116.15274960000534,116.15274960000534,116.15274960000534,116.15274960000534,116.15274960000534,116.15274960000534,116.15274960000534,116.15274960000534,116.15274960000534,23,0,,,116.15274960000534,116.35492290000548,1000,116.35492290000548,1000,1000,1000,1000,0,num_3,1.0968393000075594,,20,1,2026-03-02_15h28.17.226,2026A_exp2,2022.2.4,59.95929962811778,
1000,1,3.7,0.0,1,0,19,19,54,,,,,117.4707122000109,118.12937830001465,118.12937830001465,118.62434939999366,45,45,118.62434939999366,118.62434939999366,118.62434939999366,118.62434939999366,118.62434939999366,118.62434939999366,118.62434939999366,118.62434939999366,118.62434939999366,118.98897289999877,118.98897289999877,118.98897289999877,118.98897289999877,118.98897289999877,118.98897289999877,118.98897289999877,118.98897289999877,118.98897289999877,23,0,,,118.98897289999877,119.19081719999667,1000,119.19081719999667,1000,1000,1000,1000,1,num_2,0.9000799999921583,,20,1,2026-03-02_15h28.17.226,2026A_exp2,2022.2.4,59.95929962811778,
1000,1,0.0,4.9,1,0,20,20,55,,,,,120.10669740001322,120.75736980000511,120.75736980000511,121.25837369999499,45,45,121.25837369999499,121.25837369999499,121.25837369999499,121.25837369999499,121.25837369999499,121.25837369999499,121.25837369999499,121.25837369999499,121.25837369999499,121.62484770000447,121.62484770000447,121.62484770000447,121.62484770000447,121.62484770000447,121.62484770000447,121.62484770000447,121.62484770000447,121.62484770000447,23,0,,,121.62484770000447,121.8251719000109,1000,121.8251719000109,1000,1000,1000,1000,1,num_2,1.186464700003853,,20,1,2026-03-02_15h28.17.226,2026A_exp2,2022.2.4,59.95929962811778,
1000,1,0.0,6.1,0,0,21,21,75,,,,,123.04308160001528,123.69366600000649,123.69366600000649,124.19464910001261,315,45,124.19464910001261,124.19464910001261,124.19464910001261,124.19464910001261,124.19464910001261,124.19464910001261,124.19464910001261,124.19464910001261,124.19464910001261,124.56119189999299,124.56119189999299,124.56119189999299,124.56119189999299,124.56119189999299,124.56119189999299,124.56119189999299,124.56119189999299,124.56119189999299,23,0,,,124.56119189999299,124.76324560001376,1000,124.76324560001376,1000,1000,1000,1000,1,num_2,0.7840702999965288,,20,1,2026-03-02_15h28.17.226,2026A_exp2,2022.2.4,59.95929962811778,
1000,1,3.7,0.0,0,0,22,22,32,,,,,125.5785307000042,126.22942180000246,126.22942180000246,126.73062469999422,315,315,126.73062469999422,126.73062469999422,126.73062469999422,126.73062469999422,126.73062469999422,126.73062469999422,126.73062469999422,126.73062469999422,126.73062469999422,127.09697050001705,127.09697050001705,127.09697050001705,127.09697050001705,127.09697050001705,127.09697050001705,127.09697050001705,127.09697050001705,127.09697050001705,19,2,"[0.1171881000045687, 0.3006147999840323]","[0.15040899999439716, 0.35057149999192916]",127.09697050001705,127.29894179999246,1000,127.29894179999246,1000,1000,1000,1000,0,num_3,0.4399649999977555,,20,1,2026-03-02_15h28.17.226,2026A_exp2,2022.2.4,59.95929962811778,
1,0,3.7,3.7,1,0,23,23,86,,,,,127.76432680001017,128.41502740001306,128.41502740001306,128.91632590000518,45,45,128.91632590000518,128.91632590000518,128.91632590000518,128.91632590000518,128.91632590000518,128.91632590000518,128.91632590000518,128.91632590000518,128.91632590000518,129.26582120000967,129.26582120000967,129.26582120000967,129.26582120000967,129.26582120000967,129.26582120000967,129.26582120000967,129.26582120000967,129.26582120000967,22,0,,,129.26582120000967,129.4659709999978,3.7,129.4659709999978,1,3.7,1,1,1000,num_4,1.7129939000005834,,20,1,2026-03-02_15h28.17.226,2026A_exp2,2022.2.4,59.95929962811778,
1000,1,3.7,0.0,0,0,24,24,66,,,,,131.20092380000278,131.83493400001316,131.83493400001316,132.3360704999941,45,315,132.3360704999941,132.3360704999941,132.3360704999941,132.3360704999941,132.3360704999941,132.3360704999941,132.3360704999941,132.3360704999941,132.3360704999941,132.70263300000806,132.70263300000806,132.70263300000806,132.70263300000806,132.70263300000806,132.70263300000806,132.70263300000806,132.70263300000806,132.70263300000806,10,4,"[0.0011817000049632043, 0.1502567999996245, 0.21702290000393987, 0.25043290000758134]","[0.13366320001659915, 0.16705129999900237, 0.23375210000085644, 0.30029390001436695]",132.70263300000806,132.90480720001506,1000,132.90480720001506,1000,1000,1000,1000,0,num_3,0.49119290002272464,,20,1,2026-03-02_15h28.17.226,2026A_exp2,2022.2.4,59.95929962811778,
1,0,0.0,3.7,1,0,25,25,0,,,,,133.41989180000382,134.07052199999453,134.07052199999453,134.5717968000099,315,315,134.5717968000099,134.5717968000099,134.5717968000099,134.5717968000099,134.5717968000099,134.5717968000099,134.5717968000099,134.5717968000099,134.5717968000099,134.93804219999583,134.93804219999583,134.93804219999583,134.93804219999583,134.93804219999583,134.93804219999583,134.93804219999583,134.93804219999583,134.93804219999583,23,0,,,134.93804219999583,135.13827049999963,3.7,135.13827049999963,0,3.7,1,0,1000,num_1,1.4406592000159435,,20,1,2026-03-02_15h28.17.226,2026A_exp2,2022.2.4,59.95929962811778,
0,0,0.0,0.0,0,0,26,26,70,,,,,136.60630330001004,137.25710260000778,137.25710260000778,137.74145359999966,315,45,137.74145359999966,137.74145359999966,137.74145359999966,137.74145359999966,137.74145359999966,137.74145359999966,137.74145359999966,137.74145359999966,137.74145359999966,138.10798420000356,138.10798420000356,138.10798420000356,138.10798420000356,138.10798420000356,138.10798420000356,138.10798420000356,138.10798420000356,138.10798420000356,21,2,"[0.29984769999282435, 0.3501041000126861]","[0.31652439999743365, 0.3663157999981195]",138.10798420000356,138.30829559999984,0.0,138.30829559999984,0,0.0,0,1,1000,num_1,0.9345704999868758,,20,1,2026-03-02_15h28.17.226,2026A_exp2,2022.2.4,59.95929962811778,
1000,1,6.1,4.9,0,0,27,27,68,,,,,139.25928060000297,139.89302770001814,139.89302770001814,140.39428659999976,45,315,140.39428659999976,140.39428659999976,140.39428659999976,140.39428659999976,140.39428659999976,140.39428659999976,140.39428659999976,140.39428659999976,140.39428659999976,140.7606892999902,140.7606892999902,140.7606892999902,140.7606892999902,140.7606892999902,140.7606892999902,140.7606892999902,140.7606892999902,140.7606892999902,22,1,[0.01765200000954792],[0.03380850001121871],140.7606892999902,140.96291319999727,1000,140.96291319999727,1000,1000,1000,1000,0,num_3,0.9286107000079937,,20,1,2026-03-02_15h28.17.226,2026A_exp2,2022.2.4,59.95929962811778,
1,0,4.9,4.9,0,0,28,28,84,,,,,141.91175850000582,142.5625052000105,142.5625052000105,143.06368409999413,45,45,143.06368409999413,143.06368409999413,143.06368409999413,143.06368409999413,143.06368409999413,143.06368409999413,143.06368409999413,143.06368409999413,143.06368409999413,143.4299733999942,143.4299733999942,143.4299733999942,143.4299733999942,143.4299733999942,143.4299733999942,143.4299733999942,143.4299733999942,143.4299733999942,23,0,,,143.4299733999942,143.63011160001042,4.9,143.63011160001042,0,4.9,1,0,1000,num_1,1.2059326999878976,,20,1,2026-03-02_15h28.17.226,2026A_exp2,2022.2.4,59.95929962811778,
1,0,0.0,4.9,1,0,29,29,1,,,,,144.8647185000009,145.51547169999685,145.51547169999685,145.99983010001597,315,315,145.99983010001597,145.99983010001597,145.99983010001597,145.99983010001597,145.99983010001597,145.99983010001597,145.99983010001597,145.99983010001597,145.99983010001597,146.36631320000743,146.36631320000743,146.36631320000743,146.36631320000743,146.36631320000743,146.36631320000743,146.36631320000743,146.36631320000743,146.36631320000743,0,1,[0.0012229999992996454],[0.3670992999977898],146.36631320000743,146.56660409999313,4.9,146.56660409999313,1,4.9,1,1,1000,num_4,0.5728010000020731,,20,1,2026-03-02_15h28.17.226,2026A_exp2,2022.2.4,59.95929962811778,
1,0,0.0,0.0,0,0,30,30,44,,,,,147.1671473000024,147.82189479999943,147.82189479999943,148.31871560000582,315,315,148.31871560000582,148.31871560000582,148.31871560000582,148.31871560000582,148.31871560000582,148.31871560000582,148.31871560000582,148.31871560000582,148.31871560000582,148.68520810001064,148.68520810001064,148.68520810001064,148.68520810001064,148.68520810001064,148.68520810001064,148.68520810001064,148.68520810001064,148.68520810001064,0,1,[0.0012485000188462436],[0.3670982000185177],148.68520810001064,148.88542989999405,0.0,148.88542989999405,0,0.0,0,1,1000,num_1,1.2215447000053246,,20,1,2026-03-02_15h28.17.226,2026A_exp2,2022.2.4,59.95929962811778,
1,0,4.9,6.1,0,0,31,31,33,,,,,150.13662679999834,150.7872527000145,150.7872527000145,151.27184100000886,45,315,151.27184100000886,151.27184100000886,151.27184100000886,151.27184100000886,151.27184100000886,151.27184100000886,151.27184100000886,151.27184100000886,151.27184100000886,151.6382649000152,151.6382649000152,151.6382649000152,151.6382649000152,151.6382649000152,151.6382649000152,151.6382649000152,151.6382649000152,151.6382649000152,21,2,"[0.266958699998213, 0.30034379998687655]","[0.2836861000105273, 0.31715620000613853]",151.6382649000152,151.8383646000002,4.9,151.8383646000002,0,4.9,1,0,1000,num_1,1.2458472000143956,,20,1,2026-03-02_15h28.17.226,2026A_exp2,2022.2.4,59.95929962811778,
1,0,0.0,0.0,0,0,32,32,34,,,,,153.10630189999938,153.7569375000021,153.7569375000021,154.2412706000032,45,45,154.2412706000032,154.2412706000032,154.2412706000032,154.2412706000032,154.2412706000032,154.2412706000032,154.2412706000032,154.2412706000032,154.2412706000032,154.60774830001174,154.60774830001174,154.60774830001174,154.60774830001174,154.60774830001174,154.60774830001174,154.60774830001174,154.60774830001174,154.60774830001174,19,4,"[0.13353880000067875, 0.20041869999840856, 0.3001726999937091, 0.3668726999894716]","[0.1503532000060659, 0.21714160000556149, 0.3171516000002157, 0.3668757999839727]",154.60774830001174,154.80806850001682,0.0,154.80806850001682,1,0.0,0,0,1000,num_4,1.5074475999863353,,20,1,2026-03-02_15h28.17.226,2026A_exp2,2022.2.4,59.95929962811778,
1,0,0.0,0.0,1,0,33,33,24,,,,,156.3428736999922,156.99361199999112,156.99361199999112,157.4778992999927,45,45,157.4778992999927,157.4778992999927,157.4778992999927,157.4778992999927,157.4778992999927,157.4778992999927,157.4778992999927,157.4778992999927,157.4778992999927,157.84435460000532,157.84435460000532,157.84435460000532,157.84435460000532,157.84435460000532,157.84435460000532,157.84435460000532,157.84435460000532,157.84435460000532,13,6,"[0.0012189999979455024, 0.08355680000386201, 0.11694959999294952, 0.25031969998963177, 0.2837040000013076, 0.3170834000047762]","[0.06674079998629168, 0.10028789998614229, 0.13361960000474937, 0.26709939999273047, 0.30050260000280105, 0.3338064999843482]",157.84435460000532,158.04470420000143,0.0,158.04470420000143,0,0.0,0,1,1000,num_1,0.8233976000046823,,20,1,2026-03-02_15h28.17.226,2026A_exp2,2022.2.4,59.95929962811778,
1000,1,0.0,0.0,0,0,34,34,7,,,,,158.895379900001,159.54617600000347,159.54617600000347,160.03061889999663,45,315,160.03061889999663,160.03061889999663,160.03061889999663,160.03061889999663,160.03061889999663,160.03061889999663,160.03061889999663,160.03061889999663,160.03061889999663,160.39677769999253,160.39677769999253,160.39677769999253,160.39677769999253,160.39677769999253,160.39677769999253,160.39677769999253,160.39677769999253,160.39677769999253,23,0,,,160.39677769999253,160.59888559998944,1000,160.59888559998944,1000,1000,1000,1000,0,num_3,0.8679917000117712,,20,1,2026-03-02_15h28.17.226,2026A_exp2,2022.2.4,59.95929962811778,
0,0,0.0,3.7,0,0,35,35,83,,,,,161.49817639999674,162.14877890000935,162.14877890000935,162.63307260000147,45,45,162.63307260000147,162.63307260000147,162.63307260000147,162.63307260000147,162.63307260000147,162.63307260000147,162.63307260000147,162.63307260000147,162.63307260000147,162.99963040000875,162.99963040000875,162.99963040000875,162.99963040000875,162.99963040000875,162.99963040000875,162.99963040000875,162.99963040000875,162.99963040000875,19,2,"[0.01726829999824986, 0.06749230000423267]","[0.050246500002685934, 0.10023549999459647]",162.99963040000875,163.19974179999554,3.7,163.19974179999554,1,3.7,1,1,1000,num_4,0.9071076000109315,,20,1,2026-03-02_15h28.17.226,2026A_exp2,2022.2.4,59.95929962811778,
1,0,0.0,0.0,0,0,36,36,17,,,,,164.13474070001394,164.7868959000043,164.7868959000043,165.28574369999114,45,315,165.28574369999114,165.28574369999114,165.28574369999114,165.28574369999114,165.28574369999114,165.28574369999114,165.28574369999114,165.28574369999114,165.28574369999114,165.65229570001247,165.65229570001247,165.65229570001247,165.65229570001247,165.65229570001247,165.65229570001247,165.65229570001247,165.65229570001247,165.65229570001247,23,0,,,165.65229570001247,165.85246950000874,0.0,165.85246950000874,1,0.0,0,0,1000,num_4,1.2555832999933045,,20,1,2026-03-02_15h28.17.226,2026A_exp2,2022.2.4,59.95929962811778,
1,0,3.7,0.0,1,0,37,37,13,,,,,167.13706020000973,167.78772660001414,167.78772660001414,168.2721617000061,45,45,168.2721617000061,168.2721617000061,168.2721617000061,168.2721617000061,168.2721617000061,168.2721617000061,168.2721617000061,168.2721617000061,168.2721617000061,168.63838140000007,168.63838140000007,168.63838140000007,168.63838140000007,168.63838140000007,168.63838140000007,168.63838140000007,168.63838140000007,168.63838140000007,23,0,,,168.63838140000007,168.83863879999262,0.0,168.83863879999262,0,0.0,0,1,1000,num_1,1.1252454999776091,,20,1,2026-03-02_15h28.17.226,2026A_exp2,2022.2.4,59.95929962811778,
1,0,3.7,0.0,0,0,38,38,8,,,,,169.98993050001445,170.64047980000032,170.64047980000032,171.12491859999136,315,315,171.12491859999136,171.12491859999136,171.12491859999136,171.12491859999136,171.12491859999136,171.12491859999136,171.12491859999136,171.12491859999136,171.12491859999136,171.4913787000114,171.4913787000114,171.4913787000114,171.4913787000114,171.4913787000114,171.4913787000114,171.4913787000114,171.4913787000114,171.4913787000114,4,5,"[0.0012147999950684607, 0.10004049999406561, 0.13355980001506396, 0.2669311999925412, 0.3003810000082012]","[0.0833686999976635, 0.11655969999264926, 0.25028649999876507, 0.2836173000105191, 0.3670204000081867]",171.4913787000114,171.6915804000164,3.7,171.6915804000164,1,3.7,1,1,1000,num_4,0.8319403000059538,,20,1,2026-03-02_15h28.17.226,2026A_exp2,2022.2.4,59.95929962811778,
1,0,0.0,6.1,0,0,39,39,82,,,,,172.5423041000031,173.19310289999703,173.19310289999703,173.69410550000612,315,315,173.69410550000612,173.69410550000612,173.69410550000612,173.69410550000612,173.69410550000612,173.69410550000612,173.69410550000612,173.69410550000612,173.69410550000612,174.04380069999024,174.04380069999024,174.04380069999024,174.04380069999024,174.04380069999024,174.04380069999024,174.04380069999024,174.04380069999024,174.04380069999024,0,1,[0.00118680001469329],[0.350557600002503],174.04380069999024,174.24418340000557,0.0,174.24418340000557,0,0.0,0,1,1000,num_1,0.9908265999983996,,20,1,2026-03-02_15h28.17.226,2026A_exp2,2022.2.4,59.95929962811778,
1000,1,0.0,4.9,0,0,40,40,74,,,,,175.26176719999057,175.9224058999971,175.9224058999971,176.40182299999287,45,45,176.40182299999287,176.40182299999287,176.40182299999287,176.40182299999287,176.40182299999287,176.40182299999287,176.40182299999287,176.40182299999287,176.40182299999287,176.76331290000235,176.76331290000235,176.76331290000235,176.76331290000235,176.76331290000235,176.76331290000235,176.76331290000235,176.76331290000235,176.76331290000235,23,0,,,176.76331290000235,176.9674345999956,1000,176.9674345999956,1000,1000,1000,1000,1,num_2,0.7156346999981906,,20,1,2026-03-02_15h28.17.226,2026A_exp2,2022.2.4,59.95929962811778,
1000,1,3.7,4.9,1,0,41,41,20,,,,,177.71441489999415,178.3649921999895,178.3649921999895,178.8661146000086,315,315,178.8661146000086,178.8661146000086,178.8661146000086,178.8661146000086,178.8661146000086,178.8661146000086,178.8661146000086,178.8661146000086,178.8661146000086,179.21581829999923,179.21581829999923,179.21581829999923,179.21581829999923,179.21581829999923,179.21581829999923,179.21581829999923,179.21581829999923,179.21581829999923,22,0,,,179.21581829999923,179.43104719999246,1000,179.43104719999246,1000,1000,1000,1000,1,num_2,0.6443116999871563,,20,1,2026-03-02_15h28.17.226,2026A_exp2,2022.2.4,59.95929962811778,
1000,1,0.0,0.0,0,0,42,42,45,,,,,180.09998639998958,180.75065210001776,180.75065210001776,181.25172739999834,45,315,181.25172739999834,181.25172739999834,181.25172739999834,181.25172739999834,181.25172739999834,181.25172739999834,181.25172739999834,181.25172739999834,181.25172739999834,181.60126490000403,181.60126490000403,181.60126490000403,181.60126490000403,181.60126490000403,181.60126490000403,181.60126490000403,181.60126490000403,181.60126490000403,18,2,"[0.01742390001891181, 0.11699020001105964]","[0.049772400001529604, 0.13382640000781976]",181.60126490000403,181.80363030001172,1000,181.81845009999233,1000,1000,1000,1000,1,num_2,0.6882304000027943,,20,1,2026-03-02_15h28.17.226,2026A_exp2,2022.2.4,59.95929962811778,
1,0,0.0,0.0,1,0,43,43,21,,,,,182.53580990000046,183.18648999999277,183.18648999999277,183.68749959999695,45,315,183.68749959999695,183.68749959999695,183.68749959999695,183.68749959999695,183.68749959999695,183.68749959999695,183.68749959999695,183.68749959999695,183.68749959999695,184.05399040001794,184.05399040001794,184.05399040001794,184.05399040001794,184.05399040001794,184.05399040001794,184.05399040001794,184.05399040001794,184.05399040001794,23,0,,,184.05399040001794,184.26573720001034,0.0,184.26573720001034,0,0.0,0,1,1000,num_1,0.9062119000009261,,20,1,2026-03-02_15h28.17.226,2026A_exp2,2022.2.4,59.95929962811778,
1000,1,0.0,0.0,0,0,44,44,37,,,,,185.18835850001778,185.83911729999818,185.83911729999818,186.3235595000151,45,315,186.3235595000151,186.3235595000151,186.3235595000151,186.3235595000151,186.3235595000151,186.3235595000151,186.3235595000151,186.3235595000151,186.3235595000151,186.68998570000986,186.68998570000986,186.68998570000986,186.68998570000986,186.68998570000986,186.68998570000986,186.68998570000986,186.68998570000986,186.68998570000986,23,0,,,186.68998570000986,186.89203439999255,1000,186.89203439999255,1000,1000,1000,1000,0,num_3,1.0559628999908455,,20,1,2026-03-02_15h28.17.226,2026A_exp2,2022.2.4,59.95929962811778,
1000,1,0.0,6.1,1,0,45,45,52,,,,,187.97463519999292,188.62508840000373,188.62508840000373,189.12621200000285,45,45,189.12621200000285,189.12621200000285,189.12621200000285,189.12621200000285,189.12621200000285,189.12621200000285,189.12621200000285,189.12621200000285,189.12621200000285,189.49279079999542,189.49279079999542,189.49279079999542,189.49279079999542,189.49279079999542,189.49279079999542,189.49279079999542,189.49279079999542,189.49279079999542,23,0,,,189.49279079999542,189.69480369999656,1000,189.69480369999656,1000,1000,1000,1000,1,num_2,0.7565636000072118,,20,1,2026-03-02_15h28.17.226,2026A_exp2,2022.2.4,59.95929962811778,
1000,1,0.0,4.9,0,0,46,46,5,,,,,190.47717790000024,191.12772479999694,191.12772479999694,191.61209979999694,45,315,191.61209979999694,191.61209979999694,191.61209979999694,191.61209979999694,191.61209979999694,191.61209979999694,191.61209979999694,191.61209979999694,191.61209979999694,191.97848230000818,191.97848230000818,191.97848230000818,191.97848230000818,191.97848230000818,191.97848230000818,191.97848230000818,191.97848230000818,191.97848230000818,23,0,,,191.97848230000818,192.1811888999946,1000,192.1811888999946,1000,1000,1000,1000,1,num_2,0.6136234999867156,,20,1,2026-03-02_15h28.17.226,2026A_exp2,2022.2.4,59.95929962811778,
1,0,6.1,3.7,0,0,47,47,31,,,,,192.81265390000772,193.46336650001467,193.46336650001467,193.96446970000397,45,45,193.96446970000397,193.96446970000397,193.96446970000397,193.96446970000397,193.96446970000397,193.96446970000397,193.96446970000397,193.96446970000397,193.96446970000397,194.3309014000115,194.3309014000115,194.3309014000115,194.3309014000115,194.3309014000115,194.3309014000115,194.3309014000115,194.3309014000115,194.3309014000115,22,1,[0.28404619998764247],[0.3004951000039],194.3309014000115,194.53103660000488,6.1,194.53103660000488,1,6.1,1,1,1000,num_4,2.4006033000187017,,20,1,2026-03-02_15h28.17.226,2026A_exp2,2022.2.4,59.95929962811778,
1000,1,0.0,6.1,0,0,48,48,35,,,,,196.95008579999558,197.60093939999933,197.60093939999933,198.08534079999663,45,315,198.08534079999663,198.08534079999663,198.08534079999663,198.08534079999663,198.08534079999663,198.08534079999663,198.08534079999663,198.08534079999663,198.08534079999663,198.45156610000413,198.45156610000413,198.45156610000413,198.45156610000413,198.45156610000413,198.45156610000413,198.45156610000413,198.45156610000413,198.45156610000413,18,2,"[0.1833782000176143, 0.3672315000148956]","[0.25023249999503605, 0.367237300000852]",198.45156610000413,198.65396349999355,1000,198.65396349999355,1000,1000,1000,1000,1,num_2,0.62886980001349,,20,1,2026-03-02_15h28.17.226,2026A_exp2,2022.2.4,59.95929962811778,
1000,1,0.0,0.0,0,0,49,49,15,,,,,199.30282889999216,199.93645169999218,199.93645169999218,200.43766500000493,45,45,200.43766500000493,200.43766500000493,200.43766500000493,200.43766500000493,200.43766500000493,200.43766500000493,200.43766500000493,200.43766500000493,200.43766500000493,200.80407839998952,200.80407839998952,200.80407839998952,200.80407839998952,200.80407839998952,200.80407839998952,200.80407839998952,200.80407839998952,200.80407839998952,17,2,"[0.23327160000917502, 0.31721800001105294]","[0.26660780000383966, 0.36716470000101253]",200.80407839998952,201.00638890001574,1000,201.00638890001574,1000,1000,1000,1000,1,num_2,1.2056835999828763,,20,1,2026-03-02_15h28.17.226,2026A_exp2,2022.2.4,59.95929962811778,
1,0,4.9,0.0,1,0,50,50,25,,,,,202.23906150000403,202.88934550000704,202.88934550000704,203.39052030001767,315,45,203.39052030001767,203.39052030001767,203.39052030001767,203.39052030001767,203.39052030001767,203.39052030001767,203.39052030001767,203.39052030001767,203.39052030001767,203.75701699999627,203.75701699999627,203.75701699999627,203.75701699999627,203.75701699999627,203.75701699999627,203.75701699999627,203.75701699999627,203.75701699999627,22,1,[0.13362789998063818],[0.1503478999948129],203.75701699999627,203.9570987999905,0.0,203.9570987999905,0,0.0,0,1,1000,num_1,0.7590748000075109,,20,1,2026-03-02_15h28.17.226,2026A_exp2,2022.2.4,59.95929962811778,
1,0,4.9,3.7,1,0,51,51,26,,,,,204.74126300000353,205.39186209999025,205.39186209999025,205.87643730000127,315,45,205.87643730000127,205.87643730000127,205.87643730000127,205.87643730000127,205.87643730000127,205.87643730000127,205.87643730000127,205.87643730000127,205.87643730000127,206.24282260000473,206.24282260000473,206.24282260000473,206.24282260000473,206.24282260000473,206.24282260000473,206.24282260000473,206.24282260000473,206.24282260000473,1,2,"[0.0012303999974392354, 0.13371310001821257]","[0.11697080000885762, 0.3673332000034861]",206.24282260000473,206.4428845999937,3.7,206.4428845999937,0,3.7,1,0,1000,num_1,1.0093026999966241,,20,1,2026-03-02_15h28.17.226,2026A_exp2,2022.2.4,59.95929962811778,
1000,1,3.7,4.9,0,0,52,52,64,,,,,207.47734469998977,208.12804939999478,208.12804939999478,208.61253780001425,45,315,208.61253780001425,208.61253780001425,208.61253780001425,208.61253780001425,208.61253780001425,208.61253780001425,208.61253780001425,208.61253780001425,208.61253780001425,208.97893539999495,208.97893539999495,208.97893539999495,208.97893539999495,208.97893539999495,208.97893539999495,208.97893539999495,208.97893539999495,208.97893539999495,23,0,,,208.97893539999495,209.17994970001746,1000,209.17994970001746,1000,1000,1000,1000,1,num_2,0.6555910000170115,,20,1,2026-03-02_15h28.17.226,2026A_exp2,2022.2.4,59.95929962811778,
1,0,0.0,0.0,0,0,53,53,51,,,,,209.86302550000255,210.51366500000586,210.51366500000586,211.01490199999535,315,315,211.01490199999535,211.01490199999535,211.01490199999535,211.01490199999535,211.01490199999535,211.01490199999535,211.01490199999535,211.01490199999535,211.01490199999535,211.38121690001572,211.38121690001572,211.38121690001572,211.38121690001572,211.38121690001572,211.38121690001572,211.38121690001572,211.38121690001572,211.38121690001572,23,0,,,211.38121690001572,211.58154919999652,0.0,211.58154919999652,1,0.0,0,0,1000,num_4,1.5266662999929395,,20,1,2026-03-02_15h28.17.226,2026A_exp2,2022.2.4,59.95929962811778,
1000,1,0.0,6.1,1,0,54,54,62,,,,,213.1330622000096,213.78359189999173,213.78359189999173,214.26814180001384,315,315,214.26814180001384,214.26814180001384,214.26814180001384,214.26814180001384,214.26814180001384,214.26814180001384,214.26814180001384,214.26814180001384,214.26814180001384,214.63457379999454,214.63457379999454,214.63457379999454,214.63457379999454,214.63457379999454,214.63457379999454,214.63457379999454,214.63457379999454,214.63457379999454,23,0,,,214.63457379999454,214.83665499999188,1000,214.83665499999188,1000,1000,1000,1000,1,num_2,0.5830295999767259,,20,1,2026-03-02_15h28.17.226,2026A_exp2,2022.2.4,59.95929962811778,
1000,1,0.0,6.1,0,0,55,55,85,,,,,215.4353548999934,216.0860135999974,216.0860135999974,216.5869548000046,45,45,216.5869548000046,216.5869548000046,216.5869548000046,216.5869548000046,216.5869548000046,216.5869548000046,216.5869548000046,216.5869548000046,216.5869548000046,216.95349390001502,216.95349390001502,216.95349390001502,216.95349390001502,216.95349390001502,216.95349390001502,216.95349390001502,216.95349390001502,216.95349390001502,14,2,"[0.18364510001265444, 0.24995950001175515]","[0.23320129999774508, 0.35053620001417585]",216.95349390001502,217.15551020001294,1000,217.15551020001294,1000,1000,1000,1000,1,num_2,0.5767953000031412,,20,1,2026-03-02_15h28.17.226,2026A_exp2,2022.2.4,59.95929962811778,
1000,1,0.0,6.1,1,0,56,56,3,,,,,217.75425570001244,218.40495880000526,218.40495880000526,218.9060107000114,45,45,218.9060107000114,218.9060107000114,218.9060107000114,218.9060107000114,218.9060107000114,218.9060107000114,218.9060107000114,218.9060107000114,218.9060107000114,219.27251070001512,219.27251070001512,219.27251070001512,219.27251070001512,219.27251070001512,219.27251070001512,219.27251070001512,219.27251070001512,219.27251070001512,23,0,,,219.27251070001512,219.4747927999997,1000,219.4747927999997,1000,1000,1000,1000,1,num_2,0.43282560000079684,,20,1,2026-03-02_15h28.17.226,2026A_exp2,2022.2.4,59.95929962811778,
1000,1,0.0,3.7,0,0,57,57,57,,,,,219.92314369999804,220.57383179999306,220.57383179999306,221.0747820000106,315,315,221.0747820000106,221.0747820000106,221.0747820000106,221.0747820000106,221.0747820000106,221.0747820000106,221.0747820000106,221.0747820000106,221.0747820000106,221.44129350001458,221.44129350001458,221.44129350001458,221.44129350001458,221.44129350001458,221.44129350001458,221.44129350001458,221.44129350001458,221.44129350001458,13,3,"[0.0011929000029340386, 0.08361820000573061, 0.18386410002131015]","[0.06708700000308454, 0.16722740000113845, 0.2004910999967251]",221.44129350001458,221.64311920001637,1000,221.64311920001637,1000,1000,1000,1000,1,num_2,0.40059000000474043,,20,1,2026-03-02_15h28.17.226,2026A_exp2,2022.2.4,59.95929962811778,
1000,1,0.0,0.0,0,0,58,58,72,,,,,222.07543470000383,222.72595670001465,222.72595670001465,223.21034900000086,315,45,223.21034900000086,223.21034900000086,223.21034900000086,223.21034900000086,223.21034900000086,223.21034900000086,223.21034900000086,223.21034900000086,223.21034900000086,223.5768728000112,223.5768728000112,223.5768728000112,223.5768728000112,223.5768728000112,223.5768728000112,223.5768728000112,223.5768728000112,223.5768728000112,1,2,"[0.0012338999949861318, 0.25048859999515116]","[0.23364419999415986, 0.367228699993575]",223.5768728000112,223.77882629999658,1000,223.77882629999658,1000,1000,1000,1000,0,num_3,0.5840249999891967,,20,1,2026-03-02_15h28.17.226,2026A_exp2,2022.2.4,59.95929962811778,
1,0,3.7,6.1,1,0,59,59,77,,,,,224.39438420001534,225.04500139999436,225.04500139999436,225.54609950000304,315,315,225.54609950000304,225.54609950000304,225.54609950000304,225.54609950000304,225.54609950000304,225.54609950000304,225.54609950000304,225.54609950000304,225.54609950000304,225.91245360000175,225.91245360000175,225.91245360000175,225.91245360000175,225.91245360000175,225.91245360000175,225.91245360000175,225.91245360000175,225.91245360000175,2,1,[0.033384300011675805],[0.36714390001725405],225.91245360000175,226.11266579999938,6.1,226.11266579999938,1,6.1,1,1,1000,num_4,0.9073124999704305,,20,1,2026-03-02_15h28.17.226,2026A_exp2,2022.2.4,59.95929962811778,
1,0,6.1,4.9,0,0,60,60,81,,,,,227.04685720000998,227.6974814000132,227.6974814000132,228.18206819999614,315,315,228.18206819999614,228.18206819999614,228.18206819999614,228.18206819999614,228.18206819999614,228.18206819999614,228.18206819999614,228.18206819999614,228.18206819999614,228.54849770001601,228.54849770001601,228.54849770001601,228.54849770001601,228.54849770001601,228.54849770001601,228.54849770001601,228.54849770001601,228.54849770001601,23,0,,,228.54849770001601,228.74862790000043,6.1,228.74862790000043,1,6.1,1,1,1000,num_4,1.1263797999999952,,20,1,2026-03-02_15h28.17.226,2026A_exp2,2022.2.4,59.95929962811778,
1,0,4.9,3.7,1,0,61,61,10,,,,,229.89972660000785,230.5503422000038,230.5503422000038,231.0348605000181,45,315,231.0348605000181,231.0348605000181,231.0348605000181,231.0348605000181,231.0348605000181,231.0348605000181,231.0348605000181,231.0348605000181,231.0348605000181,231.40132030000677,231.40132030000677,231.40132030000677,231.40132030000677,231.40132030000677,231.40132030000677,231.40132030000677,231.40132030000677,231.40132030000677,23,0,,,231.40132030000677,231.60150439999416,3.7,231.60150439999416,0,3.7,1,0,1000,num_1,1.5935872999834828,,20,1,2026-03-02_15h28.17.226,2026A_exp2,2022.2.4,59.95929962811778,
0,0,6.1,0.0,1,0,62,62,30,,,,,233.2196713000012,233.8703427000146,233.8703427000146,234.35503299999982,315,315,234.35503299999982,234.35503299999982,234.35503299999982,234.35503299999982,234.35503299999982,234.35503299999982,234.35503299999982,234.35503299999982,234.35503299999982,234.72134489999735,234.72134489999735,234.72134489999735,234.72134489999735,234.72134489999735,234.72134489999735,234.72134489999735,234.72134489999735,234.72134489999735,23,0,,,234.72134489999735,234.92135479999706,6.1,234.93810430000303,1,6.1,1,1,1000,num_4,0.6656226999766659,,20,1,2026-03-02_15h28.17.226,2026A_exp2,2022.2.4,59.95929962811778,
1000,1,0.0,0.0,1,0,63,63,56,,,,,235.62210659999982,236.27288219999173,236.27288219999173,236.75725689998944,315,315,236.75725689998944,236.75725689998944,236.75725689998944,236.75725689998944,236.75725689998944,236.75725689998944,236.75725689998944,236.75725689998944,236.75725689998944,237.12361209999654,237.12361209999654,237.12361209999654,237.12361209999654,237.12361209999654,237.12361209999654,237.12361209999654,237.12361209999654,237.12361209999654,0,1,[0.0012375999940559268],[0.3670341999968514],237.12361209999654,237.32583799998974,1000,237.32583799998974,1000,1000,1000,1000,0,num_3,1.253315800015116,,20,1,2026-03-02_15h28.17.226,2026A_exp2,2022.2.4,59.95929962811778,
1000,1,3.7,4.9,0,0,64,64,80,,,,,238.60859119999805,239.2592008000065,239.2592008000065,239.76019040000392,45,45,239.76019040000392,239.76019040000392,239.76019040000392,239.76019040000392,239.76019040000392,239.76019040000392,239.76019040000392,239.76019040000392,239.76019040000392,240.12670779999462,240.12670779999462,240.12670779999462,240.12670779999462,240.12670779999462,240.12670779999462,240.12670779999462,240.12670779999462,240.12670779999462,23,0,,,240.12670779999462,240.3289172000077,1000,240.3289172000077,1000,1000,1000,1000,1,num_2,0.49035369997727685,,20,1,2026-03-02_15h28.17.226,2026A_exp2,2022.2.4,59.95929962811778,
1000,1,0.0,6.1,0,0,65,65,2,,,,,240.84424239999498,241.47808910001186,241.47808910001186,241.97899950001738,315,315,241.97899950001738,241.97899950001738,241.97899950001738,241.97899950001738,241.97899950001738,241.97899950001738,241.97899950001738,241.97899950001738,241.97899950001738,242.3457725000044,242.3457725000044,242.3457725000044,242.3457725000044,242.3457725000044,242.3457725000044,242.3457725000044,242.3457725000044,242.3457725000044,3,2,"[0.03282809999655001, 0.23317819999647327]","[0.21652059999178164, 0.3664068999933079]",242.3457725000044,242.5481117000163,1000,242.5481117000163,1000,1000,1000,1000,1,num_2,0.22371869999915361,,20,1,2026-03-02_15h28.17.226,2026A_exp2,2022.2.4,59.95929962811778,
1000,1,0.0,3.7,1,0,66,66,65,,,,,242.7960180999944,243.4466514000087,243.4466514000087,243.94778089999454,45,45,243.94778089999454,243.94778089999454,243.94778089999454,243.94778089999454,243.94778089999454,243.94778089999454,243.94778089999454,243.94778089999454,243.94778089999454,244.31421929999487,244.31421929999487,244.31421929999487,244.31421929999487,244.31421929999487,244.31421929999487,244.31421929999487,244.31421929999487,244.31421929999487,23,0,,,244.31421929999487,244.51628619999974,1000,244.51628619999974,1000,1000,1000,1000,1,num_2,0.6144732999964617,,20,1,2026-03-02_15h28.17.226,2026A_exp2,2022.2.4,59.95929962811778,
1000,1,6.1,0.0,0,0,67,67,59,,,,,245.14844160000212,245.79889820000972,245.79889820000972,246.31300180000835,315,45,246.31300180000835,246.31300180000835,246.31300180000835,246.31300180000835,246.31300180000835,246.31300180000835,246.31300180000835,246.31300180000835,246.31300180000835,246.66652279999107,246.66652279999107,246.66652279999107,246.66652279999107,246.66652279999107,246.66652279999107,246.66652279999107,246.66652279999107,246.66652279999107,20,1,[0.003822700004093349],[0.0512876000138931],246.66652279999107,246.86845700000413,1000,246.86845700000413,1000,1000,1000,1000,0,num_3,0.4464441000018269,,20,1,2026-03-02_15h28.17.226,2026A_exp2,2022.2.4,59.95929962811778,
1000,1,4.9,0.0,0,0,68,68,50,,,,,247.33386370001244,247.98451360000763,247.98451360000763,248.46889300001203,315,45,248.46889300001203,248.46889300001203,248.46889300001203,248.46889300001203,248.46889300001203,248.46889300001203,248.46889300001203,248.46889300001203,248.46889300001203,248.8352639999939,248.8352639999939,248.8352639999939,248.8352639999939,248.8352639999939,248.8352639999939,248.8352639999939,248.8352639999939,248.8352639999939,12,5,"[0.033578200003830716, 0.11702240002341568, 0.21703010000055656, 0.28374860002077185, 0.3172970000014175]","[0.10006890000659041, 0.18339970000670291, 0.23354030001792125, 0.3002459999988787, 0.35031530002015643]",248.8352639999939,249.03725680001662,1000,249.03725680001662,1000,1000,1000,1000,0,num_3,0.39806619999581017,,20,1,2026-03-02_15h28.17.226,2026A_exp2,2022.2.4,59.95929962811778,
1,0,3.7,4.9,0,0,69,69,76,,,,,249.45260710001457,250.1032688000123,250.1032688000123,250.60451269999612,315,315,250.60451269999612,250.60451269999612,250.60451269999612,250.60451269999612,250.60451269999612,250.60451269999612,250.60451269999612,250.60451269999612,250.60451269999612,250.97089620001498,250.97089620001498,250.97089620001498,250.97089620001498,250.97089620001498,250.97089620001498,250.97089620001498,250.97089620001498,250.97089620001498,14,3,"[0.0011986999888904393, 0.050207499996759, 0.2170728999772109]","[0.03358039999147877, 0.15032019998761825, 0.23317479999968782]",250.97089620001498,251.1711149000039,3.7,251.1711149000039,0,3.7,1,0,1000,num_1,2.297105300007388,,20,1,2026-03-02_15h28.17.226,2026A_exp2,2022.2.4,59.95929962811778,
1000,1,0.0,6.1,1,0,70,70,69,,,,,253.49000990000786,254.14071959999274,254.14071959999274,254.62523760000477,45,315,254.62523760000477,254.62523760000477,254.62523760000477,254.62523760000477,254.62523760000477,254.62523760000477,254.62523760000477,254.62523760000477,254.62523760000477,254.99147609999636,254.99147609999636,254.99147609999636,254.99147609999636,254.99147609999636,254.99147609999636,254.99147609999636,254.99147609999636,254.99147609999636,9,5,"[0.0010062000073958188, 0.18404439999721944, 0.217222600011155, 0.28391679999185726, 0.35075360001064837]","[0.16724209999665618, 0.20034159999340773, 0.23367489999509417, 0.30068970000138506, 0.3673943000030704]",254.99147609999636,255.19345799999428,1000,255.19345799999428,1000,1000,1000,1000,1,num_2,0.5374992999713868,,20,1,2026-03-02_15h28.17.226,2026A_exp2,2022.2.4,59.95929962811778,
1,0,3.7,0.0,1,0,71,71,28,,,,,255.75901060001343,256.40968109999085,256.40968109999085,256.9107161000138,45,45,256.9107161000138,256.9107161000138,256.9107161000138,256.9107161000138,256.9107161000138,256.9107161000138,256.9107161000138,256.9107161000138,256.9107161000138,257.2772330000007,257.2772330000007,257.2772330000007,257.2772330000007,257.2772330000007,257.2772330000007,257.2772330000007,257.2772330000007,257.2772330000007,23,0,,,257.2772330000007,257.47715200000675,0.0,257.47715200000675,0,0.0,0,1,1000,num_1,0.9337797999905888,,20,1,2026-03-02_15h28.17.226,2026A_exp2,2022.2.4,59.95929962811778,
1,0,3.7,0.0,1,0,72,72,12,,,,,258.42820280001615,259.07899110001745,259.07899110001745,259.5801785000076,45,315,259.5801785000076,259.5801785000076,259.5801785000076,259.5801785000076,259.5801785000076,259.5801785000076,259.5801785000076,259.5801785000076,259.5801785000076,259.92985420001787,259.92985420001787,259.92985420001787,259.92985420001787,259.92985420001787,259.92985420001787,259.92985420001787,259.92985420001787,259.92985420001787,0,1,[0.0007245999877341092],[0.3509528999857139],259.92985420001787,260.130057900009,0.0,260.130057900009,0,0.0,0,1,1000,num_1,1.8409006999863777,,20,1,2026-03-02_15h28.17.226,2026A_exp2,2022.2.4,59.95929962811778,
1000,1,0.0,6.1,0,0,73,73,58,,,,,261.9985780999996,262.64928240000154,262.64928240000154,263.13353839999763,315,315,263.13353839999763,263.13353839999763,263.13353839999763,263.13353839999763,263.13353839999763,263.13353839999763,263.13353839999763,263.13353839999763,263.13353839999763,263.50001489999704,263.50001489999704,263.50001489999704,263.50001489999704,263.50001489999704,263.50001489999704,263.50001489999704,263.50001489999704,263.50001489999704,0,1,[0.00118830002611503],[0.36727660000906326],263.50001489999704,263.70202170000994,1000,263.70202170000994,1000,1000,1000,1000,1,num_2,0.7014109000156168,,20,1,2026-03-02_15h28.17.226,2026A_exp2,2022.2.4,59.95929962811778,
1000,1,0.0,0.0,0,0,74,74,6,,,,,264.4342954000167,265.07041280000703,265.07041280000703,265.5694328999962,45,315,265.5694328999962,265.5694328999962,265.5694328999962,265.5694328999962,265.5694328999962,265.5694328999962,265.5694328999962,265.5694328999962,265.5694328999962,265.9357577000046,265.9357577000046,265.9357577000046,265.9357577000046,265.9357577000046,265.9357577000046,265.9357577000046,265.9357577000046,265.9357577000046,23,0,,,265.9357577000046,266.14011390000815,1000,266.14011390000815,1000,1000,1000,1000,0,num_3,0.446691599994665,,20,1,2026-03-02_15h28.17.226,2026A_exp2,2022.2.4,59.95929962811778,
0,0,0.0,0.0,0,0,75,75,22,,,,,266.60308500000974,267.25381920000655,267.25381920000655,267.7548781000078,45,315,267.7548781000078,267.7548781000078,267.7548781000078,267.7548781000078,267.7548781000078,267.7548781000078,267.7548781000078,267.7548781000078,267.7548781000078,268.12141190000693,268.12141190000693,268.12141190000693,268.12141190000693,268.12141190000693,268.12141190000693,268.12141190000693,268.12141190000693,268.12141190000693,23,0,,,268.12141190000693,268.3216315000027,0.0,268.3216315000027,1,0.0,0,0,1000,num_4,1.0252923000080045,,20,1,2026-03-02_15h28.17.226,2026A_exp2,2022.2.4,59.95929962811778,
1,0,0.0,6.1,0,0,76,76,43,,,,,269.37255470000673,270.02323250001064,270.02323250001064,270.50780019999365,315,315,270.50780019999365,270.50780019999365,270.50780019999365,270.50780019999365,270.50780019999365,270.50780019999365,270.50780019999365,270.50780019999365,270.50780019999365,270.87416390000726,270.87416390000726,270.87416390000726,270.87416390000726,270.87416390000726,270.87416390000726,270.87416390000726,270.87416390000726,270.87416390000726,0,1,[0.0012270000006537884],[0.36728810000931844],270.87416390000726,271.07424710001214,0.0,271.07424710001214,1,0.0,0,0,1000,num_4,0.7617048999818508,,20,1,2026-03-02_15h28.17.226,2026A_exp2,2022.2.4,59.95929962811778,
1,0,6.1,6.1,0,0,77,77,27,,,,,271.8583854000026,272.50898179999785,272.50898179999785,272.9934596999956,45,45,272.9934596999956,272.9934596999956,272.9934596999956,272.9934596999956,272.9934596999956,272.9934596999956,272.9934596999956,272.9934596999956,272.9934596999956,273.35994610001217,273.35994610001217,273.35994610001217,273.35994610001217,273.35994610001217,273.35994610001217,273.35994610001217,273.35994610001217,273.35994610001217,6,4,"[0.0012248000130057335, 0.23372740001650527, 0.31698560001677833, 0.3504189000232145]","[0.18363139999564737, 0.30038230001810007, 0.3337441000039689, 0.36704460001783445]",273.35994610001217,273.5601483999926,6.1,273.5601483999926,0,6.1,1,0,1000,num_1,0.6669068000046536,,20,1,2026-03-02_15h28.17.226,2026A_exp2,2022.2.4,59.95929962811778,
1000,1,0.0,0.0,1,0,78,78,46,,,,,274.24430890000076,274.89484339999035,274.89484339999035,275.3792156999989,45,315,275.3792156999989,275.3792156999989,275.3792156999989,275.3792156999989,275.3792156999989,275.3792156999989,275.3792156999989,275.3792156999989,275.3792156999989,275.7456291000126,275.7456291000126,275.7456291000126,275.7456291000126,275.7456291000126,275.7456291000126,275.7456291000126,275.7456291000126,275.7456291000126,23,0,,,275.7456291000126,275.9475131999934,1000,275.9475131999934,1000,1000,1000,1000,0,num_3,0.5281679999898188,,20,1,2026-03-02_15h28.17.226,2026A_exp2,2022.2.4,59.95929962811778,
0,0,0.0,4.9,0,0,79,79,14,,,,,276.4963676999905,277.14704050001455,277.14704050001455,277.6480523000064,45,315,277.6480523000064,277.6480523000064,277.6480523000064,277.6480523000064,277.6480523000064,277.6480523000064,277.6480523000064,277.6480523000064,277.6480523000064,278.01462880001054,278.01462880001054,278.01462880001054,278.01462880001054,278.01462880001054,278.01462880001054,278.01462880001054,278.01462880001054,278.01462880001054,19,2,"[0.11674570001196116, 0.1835422999865841]","[0.13345349999144673, 0.23340299999108538]",278.01462880001054,278.21462790001533,4.9,278.21462790001533,1,4.9,1,1,1000,num_4,0.8362755000125617,,20,1,2026-03-02_15h28.17.226,2026A_exp2,2022.2.4,59.95929962811778,
0,0,3.7,6.1,0,0,80,80,73,,,,,279.0823171999946,279.7327065000136,279.7327065000136,280.2172583999927,45,315,280.2172583999927,280.2172583999927,280.2172583999927,280.2172583999927,280.2172583999927,280.2172583999927,280.2172583999927,280.2172583999927,280.2172583999927,280.5836793000053,280.5836793000053,280.5836793000053,280.5836793000053,280.5836793000053,280.5836793000053,280.5836793000053,280.5836793000053,280.5836793000053,1,2,"[0.0012212000146973878, 0.16695230000186712]","[0.15030320000369102, 0.3671990000002552]",280.5836793000053,280.78402449999703,6.1,280.78402449999703,1,6.1,1,1,1000,num_4,0.714918600016972,,20,1,2026-03-02_15h28.17.226,2026A_exp2,2022.2.4,59.95929962811778,
1000,1,0.0,6.1,1,0,81,81,19,,,,,281.51799459999893,282.1688400999992,282.1688400999992,282.65322430001106,45,45,282.65322430001106,282.65322430001106,282.65322430001106,282.65322430001106,282.65322430001106,282.65322430001106,282.65322430001106,282.65322430001106,282.65322430001106,283.01937180000823,283.01937180000823,283.01937180000823,283.01937180000823,283.01937180000823,283.01937180000823,283.01937180000823,283.01937180000823,283.01937180000823,22,1,[0.35064100002637133],[0.3670997000008356],283.01937180000823,283.22162100000423,1000,283.22162100000423,1000,1000,1000,1000,1,num_2,0.7976573999912944,,20,1,2026-03-02_15h28.17.226,2026A_exp2,2022.2.4,59.95929962811778,
0,0,0.0,0.0,1,0,82,82,38,,,,,284.0371228000149,284.68799770000624,284.68799770000624,285.18884710001294,45,315,285.18884710001294,285.18884710001294,285.18884710001294,285.18884710001294,285.18884710001294,285.18884710001294,285.18884710001294,285.18884710001294,285.18884710001294,285.5555056000012,285.5555056000012,285.5555056000012,285.5555056000012,285.5555056000012,285.5555056000012,285.5555056000012,285.5555056000012,285.5555056000012,23,0,,,285.5555056000012,285.75571279998985,0.0,285.75571279998985,1,0.0,0,0,1000,num_4,0.8714397999865469,,20,1,2026-03-02_15h28.17.226,2026A_exp2,2022.2.4,59.95929962811778,
1,0,3.7,4.9,1,0,83,83,71,,,,,286.65630100001,287.30041709999205,287.30041709999205,287.7969163999951,45,45,287.7969163999951,287.7969163999951,287.7969163999951,287.7969163999951,287.7969163999951,287.7969163999951,287.7969163999951,287.7969163999951,287.7969163999951,288.1580939000123,288.1580939000123,288.1580939000123,288.1580939000123,288.1580939000123,288.1580939000123,288.1580939000123,288.1580939000123,288.1580939000123,23,0,,,288.1580939000123,288.3581535000121,4.9,288.3581535000121,1,4.9,1,1,1000,num_4,0.7247360000037588,,20,1,2026-03-02_15h28.17.226,2026A_exp2,2022.2.4,59.95929962811778,
1,0,4.9,3.7,0,0,84,84,9,,,,,289.1089500999951,289.75963509999565,289.75963509999565,290.2441598000005,315,315,290.2441598000005,290.2441598000005,290.2441598000005,290.2441598000005,290.2441598000005,290.2441598000005,290.2441598000005,290.2441598000005,290.2441598000005,290.6105074000079,290.6105074000079,290.6105074000079,290.6105074000079,290.6105074000079,290.6105074000079,290.6105074000079,290.6105074000079,290.6105074000079,23,0,,,290.6105074000079,290.81085800001165,4.9,290.81085800001165,1,4.9,1,1,1000,num_4,2.6485152000095695,,20,1,2026-03-02_15h28.17.226,2026A_exp2,2022.2.4,59.95929962811778,
1000,1,0.0,4.9,1,0,85,85,79,,,,,293.47991190000903,294.13057130001835,294.13057130001835,294.617170100013,45,45,294.617170100013,294.617170100013,294.617170100013,294.617170100013,294.617170100013,294.617170100013,294.617170100013,294.617170100013,294.617170100013,294.981520500005,294.981520500005,294.981520500005,294.981520500005,294.981520500005,294.981520500005,294.981520500005,294.981520500005,294.981520500005,23,0,,,294.981520500005,295.21027609999874,1000,295.21027609999874,1000,1000,1000,1000,1,num_2,0.5299246999784373,,20,1,2026-03-02_15h28.17.226,2026A_exp2,2022.2.4,59.95929962811778,
1000,1,3.7,0.0,1,0,86,86,88,,,,,295.7655606000044,296.41622559999814,296.41622559999814,296.9174396000162,315,45,296.9174396000162,296.9174396000162,296.9174396000162,296.9174396000162,296.9174396000162,296.9174396000162,296.9174396000162,296.9174396000162,296.9174396000162,297.28389690001495,297.28389690001495,297.28389690001495,297.28389690001495,297.28389690001495,297.28389690001495,297.28389690001495,297.28389690001495,297.28389690001495,23,0,,,297.28389690001495,297.48595699999714,1000,297.48595699999714,1000,1000,1000,1000,0,num_3,0.30103719999897294,,20,1,2026-03-02_15h28.17.226,2026A_exp2,2022.2.4,59.95929962811778,
1000,1,6.1,3.7,0,0,87,87,18,,,,,297.81772720001754,298.4683151000063,298.4683151000063,298.96936310001183,315,315,298.96936310001183,298.96936310001183,298.96936310001183,298.96936310001183,298.96936310001183,298.96936310001183,298.96936310001183,298.96936310001183,298.96936310001183,299.3359427000105,299.3359427000105,299.3359427000105,299.3359427000105,299.3359427000105,299.3359427000105,299.3359427000105,299.3359427000105,299.3359427000105,23,0,,,299.3359427000105,299.5382105000026,1000,299.5382105000026,1000,1000,1000,1000,0,num_3,0.34531149998656474,,20,1,2026-03-02_15h28.17.226,2026A_exp2,2022.2.4,59.95929962811778,
1000,1,0.0,0.0,0,0,88,88,87,,,,,299.90313560000504,300.5538239000016,300.5538239000016,301.0548861999996,315,315,301.0548861999996,301.0548861999996,301.0548861999996,301.0548861999996,301.0548861999996,301.0548861999996,301.0548861999996,301.0548861999996,301.0548861999996,301.4213424999907,301.4213424999907,301.4213424999907,301.4213424999907,301.4213424999907,301.4213424999907,301.4213424999907,301.4213424999907,301.4213424999907,23,0,,,301.4213424999907,301.62336500000674,1000,301.62336500000674,1000,1000,1000,1000,0,num_3,0.5081888999848161,,20,1,2026-03-02_15h28.17.226,2026A_exp2,2022.2.4,59.95929962811778,
1000,1,0.0,0.0,1,0,89,89,16,,,,,302.15538470001775,302.80612310001743,302.80612310001743,303.30703890000586,315,45,303.30703890000586,303.30703890000586,303.30703890000586,303.30703890000586,303.30703890000586,303.30703890000586,303.30703890000586,303.30703890000586,303.30703890000586,303.67374080000445,303.67374080000445,303.67374080000445,303.67374080000445,303.67374080000445,303.67374080000445,303.67374080000445,303.67374080000445,303.67374080000445,23,0,,,303.67374080000445,303.873662900005,1000,303.873662900005,1000,1000,1000,1000,1,num_2,1.842340500006685,,20,1,2026-03-02_15h28.17.226,2026A_exp2,2022.2.4,59.95929962811778,
,,,,,,,,,,,,,,,,,,,,,,,,,,,,,,,,,,,,,,,,,,,,,,,,,,,,305.75261170000886,,,,,,,
