validity,detectorcomp,contrastCW,contrastCCW,precueCWorCCW,block_80trials.thisRepN,block_80trials.thisTrialN,block_80trials.thisN,block_80trials.thisIndex,etRecord.started,etRecord.stopped,text.started,text.stopped,text_4.started,text_4.stopped,text_6.started,text_6.stopped,oriCW,oriCCW,roi_2.started,grating_UR.started,grating_UL.started,grating_LR.started,grating_LL.started,noise_UR.started,noise_UL.started,noise_LR.started,noise_LL.started,roi_2.stopped,grating_UR.stopped,grating_UL.stopped,grating_LR.stopped,grating_LL.stopped,noise_UR.stopped,noise_UL.stopped,noise_LR.stopped,noise_LL.stopped,outframe,roi_2.numLooks,roi_2.timesOn,roi_2.timesOff,text_2.started,text_2.stopped,probedcontrast,key_resp.started,respdetect,relevantContrast,correctDetect,TorFdetect,respCWorCCW,key_resp.keys,key_resp.rt,feedback_display_.started,participantNo,blockNo,date,expName,psychopyVersion,frameRate,
1000,1,4.9,4.9,1,0,0,0,85,4.099999205209315e-05,4.099999205209315e-05,62.00133949998417,64.0047690999927,64.0047690999927,64.6385970999836,64.6385970999836,65.15774599998258,45,315,65.15774599998258,65.15774599998258,65.15774599998258,65.15774599998258,65.15774599998258,65.15774599998258,65.15774599998258,65.15774599998258,65.15774599998258,65.50641750000068,65.50641750000068,65.50641750000068,65.50641750000068,65.50641750000068,65.50641750000068,65.50641750000068,65.50641750000068,65.50641750000068,0,1,[0.000909099995624274],[0.3678985000005923],65.50641750000068,65.71338569998625,1000,65.71338569998625,1000,1000,1000,1000,1,num_2,1.0154806000064127,,20,8,2026-03-02_16h06.28.467,2026A_exp2,2022.2.4,59.87468229414791,
0,0,0.0,0.0,0,0,1,1,67,,,,,66.7576795000059,67.40816190000623,67.40816190000623,67.90920449999976,315,315,67.90920449999976,67.90920449999976,67.90920449999976,67.90920449999976,67.90920449999976,67.90920449999976,67.90920449999976,67.90920449999976,67.90920449999976,68.27563190000365,68.27563190000365,68.27563190000365,68.27563190000365,68.27563190000365,68.27563190000365,68.27563190000365,68.27563190000365,68.27563190000365,0,1,[0.0012083000037819147],[0.3673024000017904],68.27563190000365,68.47594969999045,0.0,68.47594969999045,0,0.0,0,1,1000,num_1,1.3563947999791708,,20,8,2026-03-02_16h06.28.467,2026A_exp2,2022.2.4,59.87468229414791,
1000,1,6.1,3.7,0,0,2,2,61,,,,,69.8606644999818,70.51120849998551,70.51120849998551,70.99558230000548,315,315,70.99558230000548,70.99558230000548,70.99558230000548,70.99558230000548,70.99558230000548,70.99558230000548,70.99558230000548,70.99558230000548,70.99558230000548,71.36216610000702,71.36216610000702,71.36216610000702,71.36216610000702,71.36216610000702,71.36216610000702,71.36216610000702,71.36216610000702,71.36216610000702,23,0,,,71.36216610000702,71.5644789999933,1000,71.5644789999933,1000,1000,1000,1000,0,num_3,0.40328920001047663,,20,8,2026-03-02_16h06.28.467,2026A_exp2,2022.2.4,59.87468229414791,
1,0,0.0,3.7,0,0,3,3,1,,,,,71.996100999997,72.64673979999498,72.64673979999498,73.14793209999334,45,315,73.14793209999334,73.14793209999334,73.14793209999334,73.14793209999334,73.14793209999334,73.14793209999334,73.14793209999334,73.14793209999334,73.14793209999334,73.51425700000254,73.51425700000254,73.51425700000254,73.51425700000254,73.51425700000254,73.51425700000254,73.51425700000254,73.51425700000254,73.51425700000254,0,1,[0.001215500000398606],[0.3674429000238888],73.51425700000254,73.71441459999187,0.0,73.71441459999187,0,0.0,0,1,1000,num_1,0.7744151999941096,,20,8,2026-03-02_16h06.28.467,2026A_exp2,2022.2.4,59.87468229414791,
1000,1,6.1,4.9,0,0,4,4,77,,,,,74.51532109998516,75.16561699999147,75.16561699999147,75.66703089998919,45,315,75.66703089998919,75.66703089998919,75.66703089998919,75.66703089998919,75.66703089998919,75.66703089998919,75.66703089998919,75.66703089998919,75.66703089998919,76.03344379999908,76.03344379999908,76.03344379999908,76.03344379999908,76.03344379999908,76.03344379999908,76.03344379999908,76.03344379999908,76.03344379999908,23,0,,,76.03344379999908,76.24650079998537,1000,76.24650079998537,1000,1000,1000,1000,0,num_3,0.3541984999901615,,20,8,2026-03-02_16h06.28.467,2026A_exp2,2022.2.4,59.87468229414791,
1000,1,0.0,0.0,1,0,5,5,40,,,,,76.6174325000029,77.26884139998583,77.26884139998583,77.76904680000735,45,45,77.76904680000735,77.76904680000735,77.76904680000735,77.76904680000735,77.76904680000735,77.76904680000735,77.76904680000735,77.76904680000735,77.76904680000735,78.13568000000669,78.13568000000669,78.13568000000669,78.13568000000669,78.13568000000669,78.13568000000669,78.13568000000669,78.13568000000669,78.13568000000669,0,1,[0.0007858000171836466],[0.36756360001163557],78.13568000000669,78.33753499999875,1000,78.33753499999875,1000,1000,1000,1000,0,num_3,0.534411899978295,,20,8,2026-03-02_16h06.28.467,2026A_exp2,2022.2.4,59.87468229414791,
1,0,4.9,0.0,0,0,6,6,23,,,,,78.90293729997938,79.55365929999971,79.55365929999971,80.05461560000549,45,315,80.05461560000549,80.05461560000549,80.05461560000549,80.05461560000549,80.05461560000549,80.05461560000549,80.05461560000549,80.05461560000549,80.05461560000549,80.42099369998323,80.42099369998323,80.42099369998323,80.42099369998323,80.42099369998323,80.42099369998323,80.42099369998323,80.42099369998323,80.42099369998323,23,0,,,80.42099369998323,80.62132949999068,4.9,80.62132949999068,1,4.9,1,1,1000,num_4,0.7145106999960262,,20,8,2026-03-02_16h06.28.467,2026A_exp2,2022.2.4,59.87468229414791,
1,0,0.0,4.9,0,0,7,7,35,,,,,81.35530209998251,82.00618060000124,82.00618060000124,82.49056909998762,315,45,82.49056909998762,82.49056909998762,82.49056909998762,82.49056909998762,82.49056909998762,82.49056909998762,82.49056909998762,82.49056909998762,82.49056909998762,82.85697259998415,82.85697259998415,82.85697259998415,82.85697259998415,82.85697259998415,82.85697259998415,82.85697259998415,82.85697259998415,82.85697259998415,19,1,[0.0011019999801646918],[0.06689200000255369],82.85697259998415,83.0571541999816,0.0,83.0571541999816,0,0.0,0,1,1000,num_1,1.7995697999722324,,20,8,2026-03-02_16h06.28.467,2026A_exp2,2022.2.4,59.87468229414791,
1,0,4.9,0.0,0,0,8,8,87,,,,,84.8754682999861,85.5263879999984,85.5263879999984,86.0272976999986,45,45,86.0272976999986,86.0272976999986,86.0272976999986,86.0272976999986,86.0272976999986,86.0272976999986,86.0272976999986,86.0272976999986,86.0272976999986,86.37718529999256,86.37718529999256,86.37718529999256,86.37718529999256,86.37718529999256,86.37718529999256,86.37718529999256,86.37718529999256,86.37718529999256,12,3,"[0.06677010000566952, 0.23369350002030842, 0.3004234000109136]","[0.1835999000177253, 0.26690260000759736, 0.31661440001334995]",86.37718529999256,86.57723439999972,4.9,86.57723439999972,1,4.9,1,1,1000,num_4,0.6466591999924276,,20,8,2026-03-02_16h06.28.467,2026A_exp2,2022.2.4,59.87468229414791,
1,0,3.7,4.9,0,0,9,9,84,,,,,87.2447625999921,87.87879029999021,87.87879029999021,88.37949449999724,45,45,88.37949449999724,88.37949449999724,88.37949449999724,88.37949449999724,88.37949449999724,88.37949449999724,88.37949449999724,88.37949449999724,88.37949449999724,88.7461164999986,88.7461164999986,88.7461164999986,88.7461164999986,88.7461164999986,88.7461164999986,88.7461164999986,88.7461164999986,88.7461164999986,0,1,[0.0012196000025141984],[0.36735280000721104],88.7461164999986,88.94630039998447,3.7,88.94630039998447,1,3.7,1,1,1000,num_4,0.8303301999985706,,20,8,2026-03-02_16h06.28.467,2026A_exp2,2022.2.4,59.87468229414791,
1000,1,6.1,0.0,0,0,10,10,68,,,,,89.79708590000519,90.44782820000546,90.44782820000546,90.93236390000675,45,45,90.93236390000675,90.93236390000675,90.93236390000675,90.93236390000675,90.93236390000675,90.93236390000675,90.93236390000675,90.93236390000675,90.93236390000675,91.29861030000029,91.29861030000029,91.29861030000029,91.29861030000029,91.29861030000029,91.29861030000029,91.29861030000029,91.29861030000029,91.29861030000029,1,2,"[0.00120310002239421, 0.35022620001109317]","[0.3336674000020139, 0.36717400001361966]",91.29861030000029,91.50087659998098,1000,91.50087659998098,1000,1000,1000,1000,0,num_3,0.42706129999714904,,20,8,2026-03-02_16h06.28.467,2026A_exp2,2022.2.4,59.87468229414791,
1,0,0.0,3.7,1,0,11,11,10,,,,,91.94931579998229,92.60010680000414,92.60010680000414,93.10103849999723,45,45,93.10103849999723,93.10103849999723,93.10103849999723,93.10103849999723,93.10103849999723,93.10103849999723,93.10103849999723,93.10103849999723,93.10103849999723,93.4508896000043,93.4508896000043,93.4508896000043,93.4508896000043,93.4508896000043,93.4508896000043,93.4508896000043,93.4508896000043,93.4508896000043,10,2,"[0.06693179998546839, 0.18380559998331591]","[0.0836725999834016, 0.35058979998575523]",93.4508896000043,93.65098639999633,3.7,93.65098639999633,1,3.7,1,1,1000,num_4,0.7487006000010297,,20,8,2026-03-02_16h06.28.467,2026A_exp2,2022.2.4,59.87468229414791,
1000,1,3.7,3.7,1,0,12,12,46,,,,,94.41826899998705,95.06918799999403,95.06918799999403,95.55348499998217,315,45,95.55348499998217,95.55348499998217,95.55348499998217,95.55348499998217,95.55348499998217,95.55348499998217,95.55348499998217,95.55348499998217,95.55348499998217,95.91997610000544,95.91997610000544,95.91997610000544,95.91997610000544,95.91997610000544,95.91997610000544,95.91997610000544,95.91997610000544,95.91997610000544,23,0,,,95.91997610000544,96.12181579999742,1000,96.12181579999742,1000,1000,1000,1000,0,num_3,0.42329539998900145,,20,8,2026-03-02_16h06.28.467,2026A_exp2,2022.2.4,59.87468229414791,
1000,1,0.0,3.7,1,0,13,13,75,,,,,96.57089579998865,97.22136229998432,97.22136229998432,97.72241719998419,315,315,97.72241719998419,97.72241719998419,97.72241719998419,97.72241719998419,97.72241719998419,97.72241719998419,97.72241719998419,97.72241719998419,97.72241719998419,98.07223550000344,98.07223550000344,98.07223550000344,98.07223550000344,98.07223550000344,98.07223550000344,98.07223550000344,98.07223550000344,98.07223550000344,21,1,[0.16668280001613311],[0.18313580000540242],98.07223550000344,98.27404259998002,1000,98.27404259998002,1000,1000,1000,1000,1,num_2,0.48648630001116544,,20,8,2026-03-02_16h06.28.467,2026A_exp2,2022.2.4,59.87468229414791,
1000,1,4.9,0.0,0,0,14,14,20,,,,,98.78979769998114,99.44021679999423,99.44021679999423,99.92454249999719,45,315,99.92454249999719,99.92454249999719,99.92454249999719,99.92454249999719,99.92454249999719,99.92454249999719,99.92454249999719,99.92454249999719,99.92454249999719,100.29106439999305,100.29106439999305,100.29106439999305,100.29106439999305,100.29106439999305,100.29106439999305,100.29106439999305,100.29106439999305,100.29106439999305,23,0,,,100.29106439999305,100.4931629000057,1000,100.4931629000057,1000,1000,1000,1000,0,num_3,0.3474660999781918,,20,8,2026-03-02_16h06.28.467,2026A_exp2,2022.2.4,59.87468229414791,
1,0,6.1,0.0,1,0,15,15,54,,,,,100.85834929998964,101.50902959998348,101.50902959998348,102.0101950999815,45,45,102.0101950999815,102.0101950999815,102.0101950999815,102.0101950999815,102.0101950999815,102.0101950999815,102.0101950999815,102.0101950999815,102.0101950999815,102.37634789998992,102.37634789998992,102.37634789998992,102.37634789998992,102.37634789998992,102.37634789998992,102.37634789998992,102.37634789998992,102.37634789998992,23,0,,,102.37634789998992,102.57688380000764,0.0,102.57688380000764,0,0.0,0,1,1000,num_1,0.7511546000023372,,20,8,2026-03-02_16h06.28.467,2026A_exp2,2022.2.4,59.87468229414791,
1000,1,3.7,0.0,1,0,16,16,44,,,,,103.34398299999884,103.99462579999818,103.99462579999818,104.47893739998108,45,315,104.47893739998108,104.47893739998108,104.47893739998108,104.47893739998108,104.47893739998108,104.47893739998108,104.47893739998108,104.47893739998108,104.47893739998108,104.84570219999296,104.84570219999296,104.84570219999296,104.84570219999296,104.84570219999296,104.84570219999296,104.84570219999296,104.84570219999296,104.84570219999296,23,0,,,104.84570219999296,105.04564029999892,1000,105.06238349998603,1000,1000,1000,1000,0,num_3,0.314093299995875,,20,8,2026-03-02_16h06.28.467,2026A_exp2,2022.2.4,59.87468229414791,
1000,1,3.7,4.9,0,0,17,17,13,,,,,105.39628459999221,106.04675310000312,106.04675310000312,106.54794089999632,45,315,106.54794089999632,106.54794089999632,106.54794089999632,106.54794089999632,106.54794089999632,106.54794089999632,106.54794089999632,106.54794089999632,106.54794089999632,106.91439079999691,106.91439079999691,106.91439079999691,106.91439079999691,106.91439079999691,106.91439079999691,106.91439079999691,106.91439079999691,106.91439079999691,3,3,"[0.0012027000193484128, 0.13382490002550185, 0.36741710000205785]","[0.10036680000484921, 0.3505791000206955, 0.36742160000721924]",106.91439079999691,107.11651269998401,1000,107.11651269998401,1000,1000,1000,1000,1,num_2,0.404108200018527,,20,8,2026-03-02_16h06.28.467,2026A_exp2,2022.2.4,59.87468229414791,
1000,1,6.1,0.0,1,0,18,18,52,,,,,107.54813360000844,108.19891020000796,108.19891020000796,108.7001775999961,315,315,108.7001775999961,108.7001775999961,108.7001775999961,108.7001775999961,108.7001775999961,108.7001775999961,108.7001775999961,108.7001775999961,108.7001775999961,109.0663377000019,109.0663377000019,109.0663377000019,109.0663377000019,109.0663377000019,109.0663377000019,109.0663377000019,109.0663377000019,109.0663377000019,0,1,[0.0012030999932903796],[0.3672258000005968],109.0663377000019,109.26863159998902,1000,109.26863159998902,1000,1000,1000,1000,0,num_3,0.34723549999762326,,20,8,2026-03-02_16h06.28.467,2026A_exp2,2022.2.4,59.87468229414791,
1,0,6.1,3.7,0,0,19,19,86,,,,,109.6341438999807,110.28443369999877,110.28443369999877,110.76877719999175,45,315,110.76877719999175,110.76877719999175,110.76877719999175,110.76877719999175,110.76877719999175,110.76877719999175,110.76877719999175,110.76877719999175,110.76877719999175,111.13492769998265,111.13492769998265,111.13492769998265,111.13492769998265,111.13492769998265,111.13492769998265,111.13492769998265,111.13492769998265,111.13492769998265,4,4,"[0.0012239000061526895, 0.08345420000841841, 0.16704380000010133, 0.31673160000354983]","[0.06685160001507029, 0.13360390000161715, 0.3003779000137001, 0.3672636999981478]",111.13492769998265,111.33537509999587,6.1,111.33537509999587,1,6.1,1,1,1000,num_4,0.648399600002449,,20,8,2026-03-02_16h06.28.467,2026A_exp2,2022.2.4,59.87468229414791,
1000,1,6.1,3.7,1,0,20,20,45,,,,,112.00257310000597,112.65356499998597,112.65356499998597,113.15466589998687,45,315,113.15466589998687,113.15466589998687,113.15466589998687,113.15466589998687,113.15466589998687,113.15466589998687,113.15466589998687,113.15466589998687,113.15466589998687,113.50434680000762,113.50434680000762,113.50434680000762,113.50434680000762,113.50434680000762,113.50434680000762,113.50434680000762,113.50434680000762,113.50434680000762,22,0,,,113.50434680000762,113.70615129999351,1000,113.70615129999351,1000,1000,1000,1000,1,num_2,0.6947439999785274,,20,8,2026-03-02_16h06.28.467,2026A_exp2,2022.2.4,59.87468229414791,
1,0,6.1,4.9,0,0,21,21,30,,,,,114.42165529998601,115.072476500005,115.072476500005,115.57370479998644,315,315,115.57370479998644,115.57370479998644,115.57370479998644,115.57370479998644,115.57370479998644,115.57370479998644,115.57370479998644,115.57370479998644,115.57370479998644,115.94006719999015,115.94006719999015,115.94006719999015,115.94006719999015,115.94006719999015,115.94006719999015,115.94006719999015,115.94006719999015,115.94006719999015,3,2,"[0.001199499994982034, 0.08360829998855479]","[0.01757649998762645, 0.36710209999000654]",115.94006719999015,116.1402143999876,6.1,116.1402143999876,0,6.1,1,0,1000,num_1,0.7002290000091307,,20,8,2026-03-02_16h06.28.467,2026A_exp2,2022.2.4,59.87468229414791,
1,0,6.1,0.0,0,0,22,22,24,,,,,116.85750149999512,117.50812489999225,117.50812489999225,117.99269849999109,315,315,117.99269849999109,117.99269849999109,117.99269849999109,117.99269849999109,117.99269849999109,117.99269849999109,117.99269849999109,117.99269849999109,117.99269849999109,118.35923850000836,118.35923850000836,118.35923850000836,118.35923850000836,118.35923850000836,118.35923850000836,118.35923850000836,118.35923850000836,118.35923850000836,0,1,[0.0012369999894872308],[0.36704630000167526],118.35923850000836,118.55922870000359,6.1,118.55922870000359,1,6.1,1,1,1000,num_4,0.6725183000089601,,20,8,2026-03-02_16h06.28.467,2026A_exp2,2022.2.4,59.87468229414791,
1000,1,0.0,0.0,0,0,23,23,5,,,,,119.25991729999078,119.91064089999418,119.91064089999418,120.39498199999798,315,315,120.39498199999798,120.39498199999798,120.39498199999798,120.39498199999798,120.39498199999798,120.39498199999798,120.39498199999798,120.39498199999798,120.39498199999798,120.76158319998649,120.76158319998649,120.76158319998649,120.76158319998649,120.76158319998649,120.76158319998649,120.76158319998649,120.76158319998649,120.76158319998649,23,0,,,120.76158319998649,120.96344349998981,1000,120.96344349998981,1000,1000,1000,1000,1,num_2,1.2614124999963678,,20,8,2026-03-02_16h06.28.467,2026A_exp2,2022.2.4,59.87468229414791,
1,0,6.1,6.1,0,0,24,24,11,,,,,122.24626670000725,122.89699049998308,122.89699049998308,123.39818449999439,45,45,123.39818449999439,123.39818449999439,123.39818449999439,123.39818449999439,123.39818449999439,123.39818449999439,123.39818449999439,123.39818449999439,123.39818449999439,123.76453119999496,123.76453119999496,123.76453119999496,123.76453119999496,123.76453119999496,123.76453119999496,123.76453119999496,123.76453119999496,123.76453119999496,22,1,[0.35054420001688413],[0.3672343000071123],123.76453119999496,123.96474219998345,6.1,123.96474219998345,0,6.1,1,0,1000,num_1,0.7317580999806523,,20,8,2026-03-02_16h06.28.467,2026A_exp2,2022.2.4,59.87468229414791,
1000,1,0.0,0.0,1,0,25,25,62,,,,,124.7152889999852,125.36610409998684,125.36610409998684,125.85059709998313,315,45,125.85059709998313,125.85059709998313,125.85059709998313,125.85059709998313,125.85059709998313,125.85059709998313,125.85059709998313,125.85059709998313,125.85059709998313,126.21701979998033,126.21701979998033,126.21701979998033,126.21701979998033,126.21701979998033,126.21701979998033,126.21701979998033,126.21701979998033,126.21701979998033,23,0,,,126.21701979998033,126.41867799998727,1000,126.41867799998727,1000,1000,1000,1000,1,num_2,0.7499582000018563,,20,8,2026-03-02_16h06.28.467,2026A_exp2,2022.2.4,59.87468229414791,
1000,1,0.0,0.0,1,0,26,26,39,,,,,127.18451160000404,127.83519939999678,127.83519939999678,128.33628849999513,315,45,128.33628849999513,128.33628849999513,128.33628849999513,128.33628849999513,128.33628849999513,128.33628849999513,128.33628849999513,128.33628849999513,128.33628849999513,128.70285709999735,128.70285709999735,128.70285709999735,128.70285709999735,128.70285709999735,128.70285709999735,128.70285709999735,128.70285709999735,128.70285709999735,6,3,"[0.0013399999879766256, 0.15039249998517334, 0.23357419998501427]","[0.13368939998326823, 0.16691199998604134, 0.36711779999313876]",128.70285709999735,128.90440379999927,1000,128.90440379999927,1000,1000,1000,1000,0,num_3,0.4798585999815259,,20,8,2026-03-02_16h06.28.467,2026A_exp2,2022.2.4,59.87468229414791,
1,0,0.0,0.0,0,0,27,27,0,,,,,129.4034898999962,130.05418439998175,130.05418439998175,130.55533309999737,315,315,130.55533309999737,130.55533309999737,130.55533309999737,130.55533309999737,130.55533309999737,130.55533309999737,130.55533309999737,130.55533309999737,130.55533309999737,130.90503900000476,130.90503900000476,130.90503900000476,130.90503900000476,130.90503900000476,130.90503900000476,130.90503900000476,130.90503900000476,130.90503900000476,0,1,[0.0011903000122401863],[0.3504648999951314],130.90503900000476,131.1052589000028,0.0,131.1052589000028,0,0.0,0,1,1000,num_1,1.2232184000022244,,20,8,2026-03-02_16h06.28.467,2026A_exp2,2022.2.4,59.87468229414791,
0,0,3.7,3.7,0,0,28,28,63,,,,,132.35642279998865,133.00713139999425,133.00713139999425,133.4914379999973,315,45,133.4914379999973,133.4914379999973,133.4914379999973,133.4914379999973,133.4914379999973,133.4914379999973,133.4914379999973,133.4914379999973,133.4914379999973,133.8579730000056,133.8579730000056,133.8579730000056,133.8579730000056,133.8579730000056,133.8579730000056,133.8579730000056,133.8579730000056,133.8579730000056,0,1,[0.0007112000021152198],[0.36761449999175966],133.8579730000056,134.05814929999178,3.7,134.05814929999178,0,3.7,1,0,1000,num_1,0.8696461000072304,,20,8,2026-03-02_16h06.28.467,2026A_exp2,2022.2.4,59.87468229414791,
1000,1,0.0,0.0,1,0,29,29,71,,,,,134.95876280000084,135.59290849999525,135.59290849999525,136.09420039999532,315,315,136.09420039999532,136.09420039999532,136.09420039999532,136.09420039999532,136.09420039999532,136.09420039999532,136.09420039999532,136.09420039999532,136.09420039999532,136.46048959999462,136.46048959999462,136.46048959999462,136.46048959999462,136.46048959999462,136.46048959999462,136.46048959999462,136.46048959999462,136.46048959999462,0,1,[0.0008397999918088317],[0.3675998999970034],136.46048959999462,136.6627424999897,1000,136.6627424999897,1000,1000,1000,1000,1,num_2,0.5299151999934111,,20,8,2026-03-02_16h06.28.467,2026A_exp2,2022.2.4,59.87468229414791,
0,0,0.0,0.0,0,0,30,30,4,,,,,137.21118489999208,137.8619955999893,137.8619955999893,138.36312140000518,315,45,138.36312140000518,138.36312140000518,138.36312140000518,138.36312140000518,138.36312140000518,138.36312140000518,138.36312140000518,138.36312140000518,138.36312140000518,138.72952679998707,138.72952679998707,138.72952679998707,138.72952679998707,138.72952679998707,138.72952679998707,138.72952679998707,138.72952679998707,138.72952679998707,6,4,"[0.0011825999827124178, 0.05021409998880699, 0.2171047999872826, 0.25039500001003034]","[0.03356569999596104, 0.15021699998760596, 0.23379769999883138, 0.3671895999868866]",138.72952679998707,138.92974839999806,0.0,138.92974839999806,0,0.0,0,1,1000,num_1,0.7505963000003248,,20,8,2026-03-02_16h06.28.467,2026A_exp2,2022.2.4,59.87468229414791,
1000,1,4.9,0.0,1,0,31,31,7,,,,,139.69697669998277,140.3477772999904,140.3477772999904,140.83217539999168,315,45,140.83217539999168,140.83217539999168,140.83217539999168,140.83217539999168,140.83217539999168,140.83217539999168,140.83217539999168,140.83217539999168,140.83217539999168,141.1986430999823,141.1986430999823,141.1986430999823,141.1986430999823,141.1986430999823,141.1986430999823,141.1986430999823,141.1986430999823,141.1986430999823,16,1,[0.0012514999834820628],[0.11692500000935979],141.1986430999823,141.4003601000004,1000,141.4003601000004,1000,1000,1000,1000,0,num_3,0.39247960000648163,,20,8,2026-03-02_16h06.28.467,2026A_exp2,2022.2.4,59.87468229414791,
1,0,3.7,6.1,1,0,32,32,6,,,,,141.81579860000056,142.4665999999852,142.4665999999852,142.96757609999622,45,315,142.96757609999622,142.96757609999622,142.96757609999622,142.96757609999622,142.96757609999622,142.96757609999622,142.96757609999622,142.96757609999622,142.96757609999622,143.31744359998265,143.31744359998265,143.31744359998265,143.31744359998265,143.31744359998265,143.31744359998265,143.31744359998265,143.31744359998265,143.31744359998265,19,3,"[0.04977489999146201, 0.2504428999964148, 0.35052820001146756]","[0.06657910000649281, 0.26698849999229424, 0.35053299998980947]",143.31744359998265,143.5175718999817,6.1,143.5343845000025,0,6.1,1,0,1000,num_1,0.5778514000121504,,20,8,2026-03-02_16h06.28.467,2026A_exp2,2022.2.4,59.87468229414791,
1000,1,4.9,4.9,1,0,33,33,60,,,,,144.1347539999988,144.78560629999265,144.78560629999265,145.27004050000687,45,45,145.27004050000687,145.27004050000687,145.27004050000687,145.27004050000687,145.27004050000687,145.27004050000687,145.27004050000687,145.27004050000687,145.27004050000687,145.63645839999663,145.63645839999663,145.63645839999663,145.63645839999663,145.63645839999663,145.63645839999663,145.63645839999663,145.63645839999663,145.63645839999663,23,0,,,145.63645839999663,145.83882859998266,1000,145.83882859998266,1000,1000,1000,1000,0,num_3,0.4737109999987297,,20,8,2026-03-02_16h06.28.467,2026A_exp2,2022.2.4,59.87468229414791,
1,0,6.1,6.1,1,0,34,34,89,,,,,146.33714899999904,146.98775430000387,146.98775430000387,147.48873389998334,315,45,147.48873389998334,147.48873389998334,147.48873389998334,147.48873389998334,147.48873389998334,147.48873389998334,147.48873389998334,147.48873389998334,147.48873389998334,147.855424999987,147.855424999987,147.855424999987,147.855424999987,147.855424999987,147.855424999987,147.855424999987,147.855424999987,147.855424999987,1,1,[0.001232499984325841],[0.36717009998392314],147.855424999987,148.05537839999306,6.1,148.05537839999306,1,6.1,1,1,1000,num_4,0.7208008000161499,,20,8,2026-03-02_16h06.28.467,2026A_exp2,2022.2.4,59.87468229414791,
1,0,0.0,0.0,0,0,35,35,66,,,,,148.80606299999636,149.45698039999115,149.45698039999115,149.94112589998986,315,45,149.94112589998986,149.94112589998986,149.94112589998986,149.94112589998986,149.94112589998986,149.94112589998986,149.94112589998986,149.94112589998986,149.94112589998986,150.30777879999368,150.30777879999368,150.30777879999368,150.30777879999368,150.30777879999368,150.30777879999368,150.30777879999368,150.30777879999368,150.30777879999368,20,1,[0.001202500017825514],[0.05015630001435056],150.30777879999368,150.50797199999215,0.0,150.50797199999215,1,0.0,0,0,1000,num_4,0.8681143999856431,,20,8,2026-03-02_16h06.28.467,2026A_exp2,2022.2.4,59.87468229414791,
1000,1,6.1,6.1,0,0,36,36,56,,,,,151.39201749998028,152.0428394000046,152.0428394000046,152.54379929997958,45,45,152.54379929997958,152.54379929997958,152.54379929997958,152.54379929997958,152.54379929997958,152.54379929997958,152.54379929997958,152.54379929997958,152.54379929997958,152.9102457999834,152.9102457999834,152.9102457999834,152.9102457999834,152.9102457999834,152.9102457999834,152.9102457999834,152.9102457999834,152.9102457999834,23,0,,,152.9102457999834,153.11220939998748,1000,153.11220939998748,1000,1000,1000,1000,0,num_3,0.5674864000175148,,20,8,2026-03-02_16h06.28.467,2026A_exp2,2022.2.4,59.87468229414791,
1,0,6.1,6.1,0,0,37,37,51,,,,,153.7110754000023,154.36178119998658,154.36178119998658,154.86290700000245,315,45,154.86290700000245,154.86290700000245,154.86290700000245,154.86290700000245,154.86290700000245,154.86290700000245,154.86290700000245,154.86290700000245,154.86290700000245,155.22934990000795,155.22934990000795,155.22934990000795,155.22934990000795,155.22934990000795,155.22934990000795,155.22934990000795,155.22934990000795,155.22934990000795,9,1,[0.03336840000702068],[0.28361640000366606],155.22934990000795,155.42954219999956,6.1,155.42954219999956,1,6.1,1,1,1000,num_4,2.5866721000056714,,20,8,2026-03-02_16h06.28.467,2026A_exp2,2022.2.4,59.87468229414791,
1,0,0.0,0.0,1,0,38,38,53,,,,,158.03201569998055,158.68277789998683,158.68277789998683,159.18390149998595,45,45,159.18390149998595,159.18390149998595,159.18390149998595,159.18390149998595,159.18390149998595,159.18390149998595,159.18390149998595,159.18390149998595,159.18390149998595,159.53361159999622,159.53361159999622,159.53361159999622,159.53361159999622,159.53361159999622,159.53361159999622,159.53361159999622,159.53361159999622,159.53361159999622,22,0,,,159.53361159999622,159.73380019998876,0.0,159.75053289998323,1,0.0,0,0,1000,num_4,0.8501591999956872,,20,8,2026-03-02_16h06.28.467,2026A_exp2,2022.2.4,59.87468229414791,
1,0,0.0,4.9,1,0,39,39,65,,,,,160.61786969998502,161.26874259999022,161.26874259999022,161.76985290000448,45,315,161.76985290000448,161.76985290000448,161.76985290000448,161.76985290000448,161.76985290000448,161.76985290000448,161.76985290000448,161.76985290000448,161.76985290000448,162.11951879999833,162.11951879999833,162.11951879999833,162.11951879999833,162.11951879999833,162.11951879999833,162.11951879999833,162.11951879999833,162.11951879999833,22,0,,,162.11951879999833,162.31962080000085,4.9,162.31962080000085,1,4.9,1,1,1000,num_4,0.47334959998261184,,20,8,2026-03-02_16h06.28.467,2026A_exp2,2022.2.4,59.87468229414791,
1,0,0.0,3.7,1,0,40,40,25,,,,,162.82012170000235,163.4707845999801,163.4707845999801,163.95522129998426,315,45,163.95522129998426,163.95522129998426,163.95522129998426,163.95522129998426,163.95522129998426,163.95522129998426,163.95522129998426,163.95522129998426,163.95522129998426,164.3217173999874,164.3217173999874,164.3217173999874,164.3217173999874,164.3217173999874,164.3217173999874,164.3217173999874,164.3217173999874,164.3217173999874,23,0,,,164.3217173999874,164.52195819999906,3.7,164.52195819999906,1,3.7,1,1,1000,num_4,0.43826709999120794,,20,8,2026-03-02_16h06.28.467,2026A_exp2,2022.2.4,59.87468229414791,
1000,1,3.7,6.1,0,0,41,41,81,,,,,164.98881720000645,165.63972159998957,165.63972159998957,166.1241444000043,45,45,166.1241444000043,166.1241444000043,166.1241444000043,166.1241444000043,166.1241444000043,166.1241444000043,166.1241444000043,166.1241444000043,166.1241444000043,166.49063089999254,166.49063089999254,166.49063089999254,166.49063089999254,166.49063089999254,166.49063089999254,166.49063089999254,166.49063089999254,166.49063089999254,23,0,,,166.49063089999254,166.69257859999198,1000,166.69257859999198,1000,1000,1000,1000,1,num_2,0.6993936999933794,,20,8,2026-03-02_16h06.28.467,2026A_exp2,2022.2.4,59.87468229414791,
1,0,0.0,0.0,0,0,42,42,19,,,,,167.4081312000053,168.05887380000786,168.05887380000786,168.56000989998574,315,45,168.56000989998574,168.56000989998574,168.56000989998574,168.56000989998574,168.56000989998574,168.56000989998574,168.56000989998574,168.56000989998574,168.56000989998574,168.92634330000146,168.92634330000146,168.92634330000146,168.92634330000146,168.92634330000146,168.92634330000146,168.92634330000146,168.92634330000146,168.92634330000146,23,0,,,168.92634330000146,169.126371499995,0.0,169.126371499995,1,0.0,0,0,1000,num_4,1.618320900015533,,20,8,2026-03-02_16h06.28.467,2026A_exp2,2022.2.4,59.87468229414791,
1,0,0.0,3.7,0,0,43,43,2,,,,,170.76132349998807,171.41205929999705,171.41205929999705,171.8965571000008,315,45,171.8965571000008,171.8965571000008,171.8965571000008,171.8965571000008,171.8965571000008,171.8965571000008,171.8965571000008,171.8965571000008,171.8965571000008,172.26293520000763,172.26293520000763,172.26293520000763,172.26293520000763,172.26293520000763,172.26293520000763,172.26293520000763,172.26293520000763,172.26293520000763,23,0,,,172.26293520000763,172.4632714999898,0.0,172.4632714999898,0,0.0,0,1,1000,num_1,0.7127130000153556,,20,8,2026-03-02_16h06.28.467,2026A_exp2,2022.2.4,59.87468229414791,
1,0,3.7,4.9,0,0,44,44,31,,,,,173.1972198000003,173.8479824999813,173.8479824999813,174.33237359998748,45,45,174.33237359998748,174.33237359998748,174.33237359998748,174.33237359998748,174.33237359998748,174.33237359998748,174.33237359998748,174.33237359998748,174.33237359998748,174.69879589998163,174.69879589998163,174.69879589998163,174.69879589998163,174.69879589998163,174.69879589998163,174.69879589998163,174.69879589998163,174.69879589998163,23,0,,,174.69879589998163,174.89895659999456,3.7,174.89895659999456,0,3.7,1,0,1000,num_1,0.7168816000048537,,20,8,2026-03-02_16h06.28.467,2026A_exp2,2022.2.4,59.87468229414791,
0,0,0.0,0.0,0,0,45,45,69,,,,,175.6329204000067,176.283729399991,176.283729399991,176.76805509999394,315,45,176.76805509999394,176.76805509999394,176.76805509999394,176.76805509999394,176.76805509999394,176.76805509999394,176.76805509999394,176.76805509999394,176.76805509999394,177.13461239999742,177.13461239999742,177.13461239999742,177.13461239999742,177.13461239999742,177.13461239999742,177.13461239999742,177.13461239999742,177.13461239999742,23,0,,,177.13461239999742,177.33483209999395,0.0,177.33483209999395,0,0.0,0,1,1000,num_1,0.5775239999929909,,20,8,2026-03-02_16h06.28.467,2026A_exp2,2022.2.4,59.87468229414791,
1000,1,0.0,3.7,0,0,46,46,32,,,,,177.93525879998924,178.5859475999896,178.5859475999896,179.07044359997963,315,315,179.07044359997963,179.07044359997963,179.07044359997963,179.07044359997963,179.07044359997963,179.07044359997963,179.07044359997963,179.07044359997963,179.07044359997963,179.43685929998173,179.43685929998173,179.43685929998173,179.43685929998173,179.43685929998173,179.43685929998173,179.43685929998173,179.43685929998173,179.43685929998173,23,0,,,179.43685929998173,179.6393670999969,1000,179.6393670999969,1000,1000,1000,1000,1,num_2,0.47250809997785836,,20,8,2026-03-02_16h06.28.467,2026A_exp2,2022.2.4,59.87468229414791,
1,0,0.0,4.9,1,0,47,47,36,,,,,180.13744709998718,180.78831079998054,180.78831079998054,181.2893242999853,315,45,181.2893242999853,181.2893242999853,181.2893242999853,181.2893242999853,181.2893242999853,181.2893242999853,181.2893242999853,181.2893242999853,181.2893242999853,181.65583179998794,181.65583179998794,181.65583179998794,181.65583179998794,181.65583179998794,181.65583179998794,181.65583179998794,181.65583179998794,181.65583179998794,23,0,,,181.65583179998794,181.8559918999963,4.9,181.8559918999963,1,4.9,1,1,1000,num_4,0.7124258000112604,,20,8,2026-03-02_16h06.28.467,2026A_exp2,2022.2.4,59.87468229414791,
1000,1,3.7,3.7,0,0,48,48,16,,,,,182.5900779000076,183.22401519998675,183.22401519998675,183.725065000006,45,315,183.725065000006,183.725065000006,183.725065000006,183.725065000006,183.725065000006,183.725065000006,183.725065000006,183.725065000006,183.725065000006,184.09137939999346,184.09137939999346,184.09137939999346,184.09137939999346,184.09137939999346,184.09137939999346,184.09137939999346,184.09137939999346,184.09137939999346,23,0,,,184.09137939999346,184.29361719998997,1000,184.29361719998997,1000,1000,1000,1000,1,num_2,0.6826515999855474,,20,8,2026-03-02_16h06.28.467,2026A_exp2,2022.2.4,59.87468229414791,
1,0,6.1,0.0,1,0,49,49,38,,,,,184.99232970000594,185.6430640000035,185.6430640000035,186.14415229999577,45,315,186.14415229999577,186.14415229999577,186.14415229999577,186.14415229999577,186.14415229999577,186.14415229999577,186.14415229999577,186.14415229999577,186.14415229999577,186.51064809999662,186.51064809999662,186.51064809999662,186.51064809999662,186.51064809999662,186.51064809999662,186.51064809999662,186.51064809999662,186.51064809999662,23,0,,,186.51064809999662,186.71084240000346,0.0,186.71084240000346,0,0.0,0,1,1000,num_1,0.7370133999793325,,20,8,2026-03-02_16h06.28.467,2026A_exp2,2022.2.4,59.87468229414791,
1000,1,6.1,0.0,0,0,50,50,58,,,,,187.47810109998682,188.1287398999848,188.1287398999848,188.61337949999142,315,45,188.61337949999142,188.61337949999142,188.61337949999142,188.61337949999142,188.61337949999142,188.61337949999142,188.61337949999142,188.61337949999142,188.61337949999142,188.97974619999877,188.97974619999877,188.97974619999877,188.97974619999877,188.97974619999877,188.97974619999877,188.97974619999877,188.97974619999877,188.97974619999877,23,0,,,188.97974619999877,189.18186989999958,1000,189.18186989999958,1000,1000,1000,1000,0,num_3,0.5462209999968763,,20,8,2026-03-02_16h06.28.467,2026A_exp2,2022.2.4,59.87468229414791,
1000,1,0.0,3.7,1,0,51,51,43,,,,,189.74725109999417,190.39781619998394,190.39781619998394,190.89899039999,315,45,190.89899039999,190.89899039999,190.89899039999,190.89899039999,190.89899039999,190.89899039999,190.89899039999,190.89899039999,190.89899039999,191.26519279999775,191.26519279999775,191.26519279999775,191.26519279999775,191.26519279999775,191.26519279999775,191.26519279999775,191.26519279999775,191.26519279999775,23,0,,,191.26519279999775,191.46729199998663,1000,191.46729199998663,1000,1000,1000,1000,1,num_2,0.39633459999458864,,20,8,2026-03-02_16h06.28.467,2026A_exp2,2022.2.4,59.87468229414791,
1,0,0.0,0.0,0,0,52,52,49,,,,,191.88252779998584,192.5332417000027,192.5332417000027,193.03443509998033,45,315,193.03443509998033,193.03443509998033,193.03443509998033,193.03443509998033,193.03443509998033,193.03443509998033,193.03443509998033,193.03443509998033,193.03443509998033,193.40090099998633,193.40090099998633,193.40090099998633,193.40090099998633,193.40090099998633,193.40090099998633,193.40090099998633,193.40090099998633,193.40090099998633,23,0,,,193.40090099998633,193.60095870000077,0.0,193.60095870000077,1,0.0,0,0,1000,num_4,0.967428200005088,,20,8,2026-03-02_16h06.28.467,2026A_exp2,2022.2.4,59.87468229414791,
1,0,3.7,0.0,1,0,53,53,59,,,,,194.58541110000806,195.2360600999964,195.2360600999964,195.7204236999969,45,45,195.7204236999969,195.7204236999969,195.7204236999969,195.7204236999969,195.7204236999969,195.7204236999969,195.7204236999969,195.7204236999969,195.7204236999969,196.08669809999992,196.08669809999992,196.08669809999992,196.08669809999992,196.08669809999992,196.08669809999992,196.08669809999992,196.08669809999992,196.08669809999992,22,1,[0.05024519999278709],[0.0668615999747999],196.08669809999992,196.28711099998327,0.0,196.28711099998327,0,0.0,0,1,1000,num_1,0.48934440000448376,,20,8,2026-03-02_16h06.28.467,2026A_exp2,2022.2.4,59.87468229414791,
1000,1,0.0,6.1,0,0,54,54,83,,,,,196.8039943999902,197.45489140000427,197.45489140000427,197.93929049998405,315,315,197.93929049998405,197.93929049998405,197.93929049998405,197.93929049998405,197.93929049998405,197.93929049998405,197.93929049998405,197.93929049998405,197.93929049998405,198.30578179997974,198.30578179997974,198.30578179997974,198.30578179997974,198.30578179997974,198.30578179997974,198.30578179997974,198.30578179997974,198.30578179997974,18,1,[0.28326039999956265],[0.36957760000950657],198.30578179997974,198.52153589998488,1000,198.52153589998488,1000,1000,1000,1000,1,num_2,0.42337569998926483,,20,8,2026-03-02_16h06.28.467,2026A_exp2,2022.2.4,59.87468229414791,
1,0,4.9,0.0,1,0,55,55,48,,,,,198.97298469999805,199.62362420000136,199.62362420000136,200.124865699996,315,45,200.124865699996,200.124865699996,200.124865699996,200.124865699996,200.124865699996,200.124865699996,200.124865699996,200.124865699996,200.124865699996,200.49125960000674,200.49125960000674,200.49125960000674,200.49125960000674,200.49125960000674,200.49125960000674,200.49125960000674,200.49125960000674,200.49125960000674,18,1,[0.26708449999568984],[0.35043429999495856],200.49125960000674,200.69150799998897,0.0,200.69150799998897,0,0.0,0,1,1000,num_1,0.684476900001755,,20,8,2026-03-02_16h06.28.467,2026A_exp2,2022.2.4,59.87468229414791,
1000,1,4.9,6.1,1,0,56,56,18,,,,,201.39199949998874,202.0428755999892,202.0428755999892,202.5272691999853,315,315,202.5272691999853,202.5272691999853,202.5272691999853,202.5272691999853,202.5272691999853,202.5272691999853,202.5272691999853,202.5272691999853,202.5272691999853,202.89362899999833,202.89362899999833,202.89362899999833,202.89362899999833,202.89362899999833,202.89362899999833,202.89362899999833,202.89362899999833,202.89362899999833,10,2,"[0.0012137999874539673, 0.10035369999241084]","[0.08351369999581948, 0.2505172999808565]",202.89362899999833,203.0955615999992,1000,203.0955615999992,1000,1000,1000,1000,1,num_2,0.393246799998451,,20,8,2026-03-02_16h06.28.467,2026A_exp2,2022.2.4,59.87468229414791,
1000,1,4.9,0.0,0,0,57,57,78,,,,,203.51089069998125,204.16164509998634,204.16164509998634,204.66274679999333,45,45,204.66274679999333,204.66274679999333,204.66274679999333,204.66274679999333,204.66274679999333,204.66274679999333,204.66274679999333,204.66274679999333,204.66274679999333,205.0291661999945,205.0291661999945,205.0291661999945,205.0291661999945,205.0291661999945,205.0291661999945,205.0291661999945,205.0291661999945,205.0291661999945,0,1,[0.0011953999928664416],[0.3671029999968596],205.0291661999945,205.23127809999278,1000,205.23127809999278,1000,1000,1000,1000,0,num_3,0.3135589999728836,,20,8,2026-03-02_16h06.28.467,2026A_exp2,2022.2.4,59.87468229414791,
1000,1,6.1,4.9,1,0,58,58,76,,,,,205.56289139998262,206.21366949999356,206.21366949999356,206.71480549999978,315,315,206.71480549999978,206.71480549999978,206.71480549999978,206.71480549999978,206.71480549999978,206.71480549999978,206.71480549999978,206.71480549999978,206.71480549999978,207.08123029998387,207.08123029998387,207.08123029998387,207.08123029998387,207.08123029998387,207.08123029998387,207.08123029998387,207.08123029998387,207.08123029998387,21,2,"[0.001197900011902675, 0.03366790001746267]","[0.017455300025176257, 0.050317700020968914]",207.08123029998387,207.28303659998346,1000,207.28303659998346,1000,1000,1000,1000,1,num_2,0.38951690000249073,,20,8,2026-03-02_16h06.28.467,2026A_exp2,2022.2.4,59.87468229414791,
1,0,0.0,3.7,0,0,59,59,22,,,,,207.69833739998285,208.34912979998626,208.34912979998626,208.85015209999983,45,45,208.85015209999983,208.85015209999983,208.85015209999983,208.85015209999983,208.85015209999983,208.85015209999983,208.85015209999983,208.85015209999983,208.85015209999983,209.2167070999858,209.2167070999858,209.2167070999858,209.2167070999858,209.2167070999858,209.2167070999858,209.2167070999858,209.2167070999858,209.2167070999858,23,0,,,209.2167070999858,209.41681110000354,0.0,209.41681110000354,0,0.0,0,1,1000,num_1,0.7189736999862362,,20,8,2026-03-02_16h06.28.467,2026A_exp2,2022.2.4,59.87468229414791,
1000,1,0.0,0.0,0,0,60,60,47,,,,,210.16763660000288,210.81145670000114,210.81145670000114,211.30264129998977,315,315,211.30264129998977,211.30264129998977,211.30264129998977,211.30264129998977,211.30264129998977,211.30264129998977,211.30264129998977,211.30264129998977,211.30264129998977,211.66904849998537,211.66904849998537,211.66904849998537,211.66904849998537,211.66904849998537,211.66904849998537,211.66904849998537,211.66904849998537,211.66904849998537,23,0,,,211.66904849998537,211.87087859999156,1000,211.87087859999156,1000,1000,1000,1000,0,num_3,0.6255269999965094,,20,8,2026-03-02_16h06.28.467,2026A_exp2,2022.2.4,59.87468229414791,
1000,1,4.9,0.0,1,0,61,61,28,,,,,212.5198023999983,213.17948089999845,213.17948089999845,213.67164099999354,315,45,213.67164099999354,213.67164099999354,213.67164099999354,213.67164099999354,213.67164099999354,213.67164099999354,213.67164099999354,213.67164099999354,213.67164099999354,214.03816430000006,214.03816430000006,214.03816430000006,214.03816430000006,214.03816430000006,214.03816430000006,214.03816430000006,214.03816430000006,214.03816430000006,23,0,,,214.03816430000006,214.24024429998826,1000,214.24024429998826,1000,1000,1000,1000,0,num_3,0.42359799999394454,,20,8,2026-03-02_16h06.28.467,2026A_exp2,2022.2.4,59.87468229414791,
1000,1,0.0,4.9,0,0,62,62,9,,,,,214.68864340000437,215.33945569998468,215.33945569998468,215.84062109998195,315,45,215.84062109998195,215.84062109998195,215.84062109998195,215.84062109998195,215.84062109998195,215.84062109998195,215.84062109998195,215.84062109998195,215.84062109998195,216.20701939999708,216.20701939999708,216.20701939999708,216.20701939999708,216.20701939999708,216.20701939999708,216.20701939999708,216.20701939999708,216.20701939999708,23,0,,,216.20701939999708,216.40876990000834,1000,216.40876990000834,1000,1000,1000,1000,1,num_2,0.360129800013965,,20,8,2026-03-02_16h06.28.467,2026A_exp2,2022.2.4,59.87468229414791,
1000,1,0.0,6.1,1,0,63,63,3,,,,,216.79084010000224,217.4415360999992,217.4415360999992,217.9425088999851,315,45,217.9425088999851,217.9425088999851,217.9425088999851,217.9425088999851,217.9425088999851,217.9425088999851,217.9425088999851,217.9425088999851,217.9425088999851,218.30902290000813,218.30902290000813,218.30902290000813,218.30902290000813,218.30902290000813,218.30902290000813,218.30902290000813,218.30902290000813,218.30902290000813,23,0,,,218.30902290000813,218.51109329998144,1000,218.51109329998144,1000,1000,1000,1000,1,num_2,0.3376793999923393,,20,8,2026-03-02_16h06.28.467,2026A_exp2,2022.2.4,59.87468229414791,
1000,1,6.1,0.0,1,0,64,64,79,,,,,218.8761409999861,219.52692909998586,219.52692909998586,220.0280591000046,315,315,220.0280591000046,220.0280591000046,220.0280591000046,220.0280591000046,220.0280591000046,220.0280591000046,220.0280591000046,220.0280591000046,220.0280591000046,220.39455019999878,220.39455019999878,220.39455019999878,220.39455019999878,220.39455019999878,220.39455019999878,220.39455019999878,220.39455019999878,220.39455019999878,23,0,,,220.39455019999878,220.5964078999823,1000,220.5964078999823,1000,1000,1000,1000,0,num_3,0.3318913000111934,,20,8,2026-03-02_16h06.28.467,2026A_exp2,2022.2.4,59.87468229414791,
1000,1,6.1,0.0,0,0,65,65,8,,,,,220.9449582999805,221.59569519999786,221.59569519999786,222.09679710000637,315,45,222.09679710000637,222.09679710000637,222.09679710000637,222.09679710000637,222.09679710000637,222.09679710000637,222.09679710000637,222.09679710000637,222.09679710000637,222.46317999999155,222.46317999999155,222.46317999999155,222.46317999999155,222.46317999999155,222.46317999999155,222.46317999999155,222.46317999999155,222.46317999999155,23,0,,,222.46317999999155,222.66513019998092,1000,222.66513019998092,1000,1000,1000,1000,0,num_3,0.3105943000118714,,20,8,2026-03-02_16h06.28.467,2026A_exp2,2022.2.4,59.87468229414791,
1000,1,6.1,0.0,0,0,66,66,80,,,,,222.9969917999988,223.6477704999852,223.6477704999852,224.14878299998236,45,315,224.14878299998236,224.14878299998236,224.14878299998236,224.14878299998236,224.14878299998236,224.14878299998236,224.14878299998236,224.14878299998236,224.14878299998236,224.51510799999232,224.51510799999232,224.51510799999232,224.51510799999232,224.51510799999232,224.51510799999232,224.51510799999232,224.51510799999232,224.51510799999232,18,2,"[0.2836508999753278, 0.35037659999215975]","[0.3338180999853648, 0.3670732000027783]",224.51510799999232,224.71716129998094,1000,224.71716129998094,1000,1000,1000,1000,0,num_3,0.2757541000028141,,20,8,2026-03-02_16h06.28.467,2026A_exp2,2022.2.4,59.87468229414791,
1000,1,0.0,0.0,1,0,67,67,42,,,,,225.0157201999973,225.66762900000322,225.66762900000322,226.17290710000088,45,45,226.17290710000088,226.17290710000088,226.17290710000088,226.17290710000088,226.17290710000088,226.17290710000088,226.17290710000088,226.17290710000088,226.17290710000088,226.53399050000007,226.53399050000007,226.53399050000007,226.53399050000007,226.53399050000007,226.53399050000007,226.53399050000007,226.53399050000007,226.53399050000007,23,0,,,226.53399050000007,226.7390400999866,1000,226.7390400999866,1000,1000,1000,1000,1,num_2,0.3173145000182558,,20,8,2026-03-02_16h06.28.467,2026A_exp2,2022.2.4,59.87468229414791,
1000,1,3.7,3.7,1,0,68,68,88,,,,,227.08443269997952,227.73491129998,227.73491129998,228.23618310000165,315,45,228.23618310000165,228.23618310000165,228.23618310000165,228.23618310000165,228.23618310000165,228.23618310000165,228.23618310000165,228.23618310000165,228.23618310000165,228.60271519998787,228.60271519998787,228.60271519998787,228.60271519998787,228.60271519998787,228.60271519998787,228.60271519998787,228.60271519998787,228.60271519998787,5,2,"[0.05027840001275763, 0.35067750001326203]","[0.3338180000137072, 0.3672861999948509]",228.60271519998787,228.80480310000712,1000,228.80480310000712,1000,1000,1000,1000,1,num_2,0.5158570999919903,,20,8,2026-03-02_16h06.28.467,2026A_exp2,2022.2.4,59.87468229414791,
1000,1,6.1,6.1,0,0,69,69,50,,,,,229.33663439998054,229.99783269999898,229.99783269999898,230.49031110000215,45,315,230.49031110000215,230.49031110000215,230.49031110000215,230.49031110000215,230.49031110000215,230.49031110000215,230.49031110000215,230.49031110000215,230.49031110000215,230.8548540000047,230.8548540000047,230.8548540000047,230.8548540000047,230.8548540000047,230.8548540000047,230.8548540000047,230.8548540000047,230.8548540000047,23,0,,,230.8548540000047,231.05714269998134,1000,231.05714269998134,1000,1000,1000,1000,0,num_3,0.41547899998840876,,20,8,2026-03-02_16h06.28.467,2026A_exp2,2022.2.4,59.87468229414791,
0,0,3.7,6.1,1,0,70,70,17,,,,,231.48878980000154,232.13952999998583,232.13952999998583,232.64068439998664,315,45,232.64068439998664,232.64068439998664,232.64068439998664,232.64068439998664,232.64068439998664,232.64068439998664,232.64068439998664,232.64068439998664,232.64068439998664,233.0071107999829,233.0071107999829,233.0071107999829,233.0071107999829,233.0071107999829,233.0071107999829,233.0071107999829,233.0071107999829,233.0071107999829,23,0,,,233.0071107999829,233.20721669998602,3.7,233.20721669998602,0,3.7,1,0,1000,num_1,1.4725721999711823,,20,8,2026-03-02_16h06.28.467,2026A_exp2,2022.2.4,59.87468229414791,
1000,1,4.9,3.7,1,0,71,71,14,,,,,234.70853790000547,235.35940119999577,235.35940119999577,235.8439116999798,315,45,235.8439116999798,235.8439116999798,235.8439116999798,235.8439116999798,235.8439116999798,235.8439116999798,235.8439116999798,235.8439116999798,235.8439116999798,236.2103467999841,236.2103467999841,236.2103467999841,236.2103467999841,236.2103467999841,236.2103467999841,236.2103467999841,236.2103467999841,236.2103467999841,23,0,,,236.2103467999841,236.41259459999856,1000,236.41259459999856,1000,1000,1000,1000,1,num_2,0.4522385999734979,,20,8,2026-03-02_16h06.28.467,2026A_exp2,2022.2.4,59.87468229414791,
1,0,4.9,0.0,1,0,72,72,15,,,,,236.89422319998266,237.54473180000787,237.54473180000787,238.06094049999956,45,315,238.06094049999956,238.06094049999956,238.06094049999956,238.06094049999956,238.06094049999956,238.06094049999956,238.06094049999956,238.06094049999956,238.06094049999956,238.41263790000812,238.41263790000812,238.41263790000812,238.41263790000812,238.41263790000812,238.41263790000812,238.41263790000812,238.41263790000812,238.41263790000812,23,0,,,238.41263790000812,,0.0,238.61277680000057,0,0.0,0,1,1000,num_1,0.7309427000000142,,20,8,2026-03-02_16h06.28.467,2026A_exp2,2022.2.4,59.87468229414791,
1,0,0.0,6.1,0,0,73,73,57,,,,,239.36333419999573,240.01413910000701,240.01413910000701,240.49857719999272,315,45,240.49857719999272,240.49857719999272,240.49857719999272,240.49857719999272,240.49857719999272,240.49857719999272,240.49857719999272,240.49857719999272,240.49857719999272,240.86475819998304,240.86475819998304,240.86475819998304,240.86475819998304,240.86475819998304,240.86475819998304,240.86475819998304,240.86475819998304,240.86475819998304,23,0,,,240.86475819998304,241.06503130000783,0.0,241.06503130000783,0,0.0,0,1,1000,num_1,0.8399764999921899,,20,8,2026-03-02_16h06.28.467,2026A_exp2,2022.2.4,59.87468229414791,
1000,1,4.9,4.9,1,0,74,74,26,,,,,241.9325433000049,242.5833644999948,242.5833644999948,243.06790669998736,315,315,243.06790669998736,243.06790669998736,243.06790669998736,243.06790669998736,243.06790669998736,243.06790669998736,243.06790669998736,243.06790669998736,243.06790669998736,243.43384169999626,243.43384169999626,243.43384169999626,243.43384169999626,243.43384169999626,243.43384169999626,243.43384169999626,243.43384169999626,243.43384169999626,23,0,,,243.43384169999626,243.63435129998834,1000,243.63435129998834,1000,1000,1000,1000,1,num_2,0.40542439999990165,,20,8,2026-03-02_16h06.28.467,2026A_exp2,2022.2.4,59.87468229414791,
1000,1,3.7,0.0,0,0,75,75,37,,,,,244.06805339999846,244.71868629998062,244.71868629998062,245.21987869997974,315,315,245.21987869997974,245.21987869997974,245.21987869997974,245.21987869997974,245.21987869997974,245.21987869997974,245.21987869997974,245.21987869997974,245.21987869997974,245.58625920000486,245.58625920000486,245.58625920000486,245.58625920000486,245.58625920000486,245.58625920000486,245.58625920000486,245.58625920000486,245.58625920000486,0,1,[0.0012311000027693808],[0.3671463999780826],245.58625920000486,245.788453199988,1000,245.788453199988,1000,1000,1000,1000,0,num_3,0.09917689999565482,,20,8,2026-03-02_16h06.28.467,2026A_exp2,2022.2.4,59.87468229414791,
1000,1,3.7,0.0,1,0,76,76,21,,,,,245.90317559998948,246.55414969997946,246.55414969997946,247.05496270000003,315,315,247.05496270000003,247.05496270000003,247.05496270000003,247.05496270000003,247.05496270000003,247.05496270000003,247.05496270000003,247.05496270000003,247.05496270000003,247.42151129999547,247.42151129999547,247.42151129999547,247.42151129999547,247.42151129999547,247.42151129999547,247.42151129999547,247.42151129999547,247.42151129999547,2,3,"[0.001286599988816306, 0.2502890999894589, 0.3503978999797255]","[0.23350969998864457, 0.33375469999737106, 0.3669942999840714]",247.42151129999547,247.6236251000082,1000,247.6236251000082,1000,1000,1000,1000,0,num_3,0.27257609998923726,,20,8,2026-03-02_16h06.28.467,2026A_exp2,2022.2.4,59.87468229414791,
1,0,0.0,3.7,1,0,77,77,12,,,,,247.9217720000015,248.57280419999734,248.57280419999734,249.07379019999644,45,315,249.07379019999644,249.07379019999644,249.07379019999644,249.07379019999644,249.07379019999644,249.07379019999644,249.07379019999644,249.07379019999644,249.07379019999644,249.44017590000294,249.44017590000294,249.44017590000294,249.44017590000294,249.44017590000294,249.44017590000294,249.44017590000294,249.44017590000294,249.44017590000294,23,0,,,249.44017590000294,249.64038329999312,3.7,249.64038329999312,1,3.7,1,1,1000,num_4,0.6958718000096269,,20,8,2026-03-02_16h06.28.467,2026A_exp2,2022.2.4,59.87468229414791,
1,0,3.7,3.7,1,0,78,78,64,,,,,250.35775269998703,251.00839770000312,251.00839770000312,251.50944130000426,45,315,251.50944130000426,251.50944130000426,251.50944130000426,251.50944130000426,251.50944130000426,251.50944130000426,251.50944130000426,251.50944130000426,251.50944130000426,251.85933740000473,251.85933740000473,251.85933740000473,251.85933740000473,251.85933740000473,251.85933740000473,251.85933740000473,251.85933740000473,251.85933740000473,22,0,,,251.85933740000473,252.05950639999355,3.7,252.05950639999355,0,3.7,1,0,1000,num_1,0.6763402000069618,,20,8,2026-03-02_16h06.28.467,2026A_exp2,2022.2.4,59.87468229414791,
1000,1,0.0,4.9,0,0,79,79,27,,,,,252.76016000000527,253.41077059999225,253.41077059999225,253.89529779998702,45,45,253.89529779998702,253.89529779998702,253.89529779998702,253.89529779998702,253.89529779998702,253.89529779998702,253.89529779998702,253.89529779998702,253.89529779998702,254.26173639998888,254.26173639998888,254.26173639998888,254.26173639998888,254.26173639998888,254.26173639998888,254.26173639998888,254.26173639998888,254.26173639998888,23,0,,,254.26173639998888,254.46353680000175,1000,254.46353680000175,1000,1000,1000,1000,1,num_2,0.36821700001019053,,20,8,2026-03-02_16h06.28.467,2026A_exp2,2022.2.4,59.87468229414791,
1000,1,0.0,0.0,1,0,80,80,70,,,,,254.86218510000617,255.5128149999946,255.5128149999946,256.01414240000304,45,315,256.01414240000304,256.01414240000304,256.01414240000304,256.01414240000304,256.01414240000304,256.01414240000304,256.01414240000304,256.01414240000304,256.01414240000304,256.3805364999862,256.3805364999862,256.3805364999862,256.3805364999862,256.3805364999862,256.3805364999862,256.3805364999862,256.3805364999862,256.3805364999862,23,0,,,256.3805364999862,256.5825865000079,1000,256.5825865000079,1000,1000,1000,1000,0,num_3,0.32225510000716895,,20,8,2026-03-02_16h06.28.467,2026A_exp2,2022.2.4,59.87468229414791,
1,0,0.0,0.0,0,0,81,81,29,,,,,256.93106609999086,257.58171289999154,257.58171289999154,258.0828646000009,45,45,258.0828646000009,258.0828646000009,258.0828646000009,258.0828646000009,258.0828646000009,258.0828646000009,258.0828646000009,258.0828646000009,258.0828646000009,258.4490625000035,258.4490625000035,258.4490625000035,258.4490625000035,258.4490625000035,258.4490625000035,258.4490625000035,258.4490625000035,258.4490625000035,23,0,,,258.4490625000035,258.64937400000053,0.0,258.64937400000053,1,0.0,0,0,1000,num_4,0.7590690999932121,,20,8,2026-03-02_16h06.28.467,2026A_exp2,2022.2.4,59.87468229414791,
1000,1,6.1,6.1,0,0,82,82,74,,,,,259.4335820999986,260.08412449999014,260.08412449999014,260.5853540999815,315,315,260.5853540999815,260.5853540999815,260.5853540999815,260.5853540999815,260.5853540999815,260.5853540999815,260.5853540999815,260.5853540999815,260.5853540999815,260.93495239998447,260.93495239998447,260.93495239998447,260.93495239998447,260.93495239998447,260.93495239998447,260.93495239998447,260.93495239998447,260.93495239998447,17,3,"[0.001243599981535226, 0.10032440000213683, 0.2336578999820631]","[0.05026079999515787, 0.11689589999150485, 0.2505358999769669]",260.93495239998447,261.13695119999466,1000,261.13695119999466,1000,1000,1000,1000,1,num_2,0.3830080000043381,,20,8,2026-03-02_16h06.28.467,2026A_exp2,2022.2.4,59.87468229414791,
1,0,0.0,0.0,1,0,83,83,82,,,,,261.5357212999952,262.1862053000077,262.1862053000077,262.6873185999866,315,315,262.6873185999866,262.6873185999866,262.6873185999866,262.6873185999866,262.6873185999866,262.6873185999866,262.6873185999866,262.6873185999866,262.6873185999866,263.0539761999971,263.0539761999971,263.0539761999971,263.0539761999971,263.0539761999971,263.0539761999971,263.0539761999971,263.0539761999971,263.0539761999971,23,0,,,263.0539761999971,263.25397079999675,0.0,263.25397079999675,1,0.0,0,0,1000,num_4,0.8257358999981079,,20,8,2026-03-02_16h06.28.467,2026A_exp2,2022.2.4,59.87468229414791,
1,0,3.7,6.1,0,0,84,84,55,,,,,264.1048693000048,264.75561170000583,264.75561170000583,265.2399755999795,315,45,265.2399755999795,265.2399755999795,265.2399755999795,265.2399755999795,265.2399755999795,265.2399755999795,265.2399755999795,265.2399755999795,265.2399755999795,265.6062810999865,265.6062810999865,265.6062810999865,265.6062810999865,265.6062810999865,265.6062810999865,265.6062810999865,265.6062810999865,265.6062810999865,23,0,,,265.6062810999865,265.8064543000073,3.7,265.8064543000073,0,3.7,1,0,1000,num_1,0.7531785999890417,,20,8,2026-03-02_16h06.28.467,2026A_exp2,2022.2.4,59.87468229414791,
1000,1,4.9,4.9,0,0,85,85,34,,,,,266.5907423000026,267.2246291000047,267.2246291000047,267.72568889998365,315,315,267.72568889998365,267.72568889998365,267.72568889998365,267.72568889998365,267.72568889998365,267.72568889998365,267.72568889998365,267.72568889998365,267.72568889998365,268.09214910000446,268.09214910000446,268.09214910000446,268.09214910000446,268.09214910000446,268.09214910000446,268.09214910000446,268.09214910000446,268.09214910000446,23,0,,,268.09214910000446,268.2944482000021,1000,268.2944482000021,1000,1000,1000,1000,1,num_2,0.3135632000048645,,20,8,2026-03-02_16h06.28.467,2026A_exp2,2022.2.4,59.87468229414791,
1000,1,3.7,0.0,1,0,86,86,33,,,,,268.62592709998717,269.27668439998524,269.27668439998524,269.77769240000634,315,45,269.77769240000634,269.77769240000634,269.77769240000634,269.77769240000634,269.77769240000634,269.77769240000634,269.77769240000634,269.77769240000634,269.77769240000634,270.1442293,270.1442293,270.1442293,270.1442293,270.1442293,270.1442293,270.1442293,270.1442293,270.1442293,23,0,,,270.1442293,270.34632029998465,1000,270.34632029998465,1000,1000,1000,1000,0,num_3,0.3099108000169508,,20,8,2026-03-02_16h06.28.467,2026A_exp2,2022.2.4,59.87468229414791,
1000,1,0.0,4.9,1,0,87,87,73,,,,,270.67789520000224,271.32877870000084,271.32877870000084,271.8298446999979,45,315,271.8298446999979,271.8298446999979,271.8298446999979,271.8298446999979,271.8298446999979,271.8298446999979,271.8298446999979,271.8298446999979,271.8298446999979,272.19633770000655,272.19633770000655,272.19633770000655,272.19633770000655,272.19633770000655,272.19633770000655,272.19633770000655,272.19633770000655,272.19633770000655,23,0,,,272.19633770000655,272.39838229998713,1000,272.39838229998713,1000,1000,1000,1000,1,num_2,0.42658219998702407,,20,8,2026-03-02_16h06.28.467,2026A_exp2,2022.2.4,59.87468229414791,
1000,1,0.0,0.0,0,0,88,88,41,,,,,272.8466150999884,273.4976240999822,273.4976240999822,273.9985977000033,315,315,273.9985977000033,273.9985977000033,273.9985977000033,273.9985977000033,273.9985977000033,273.9985977000033,273.9985977000033,273.9985977000033,273.9985977000033,274.36498149999534,274.36498149999534,274.36498149999534,274.36498149999534,274.36498149999534,274.36498149999534,274.36498149999534,274.36498149999534,274.36498149999534,23,0,,,274.36498149999534,274.5670154999825,1000,274.5670154999825,1000,1000,1000,1000,1,num_2,0.4330173999769613,,20,8,2026-03-02_16h06.28.467,2026A_exp2,2022.2.4,59.87468229414791,
1,0,0.0,6.1,0,0,89,89,72,,,,,275.015814399987,275.6664450999815,275.6664450999815,276.1674645000021,315,315,276.1674645000021,276.1674645000021,276.1674645000021,276.1674645000021,276.1674645000021,276.1674645000021,276.1674645000021,276.1674645000021,276.1674645000021,276.5339728999825,276.5339728999825,276.5339728999825,276.5339728999825,276.5339728999825,276.5339728999825,276.5339728999825,276.5339728999825,276.5339728999825,23,0,,,276.5339728999825,276.73420720000286,0.0,276.73420720000286,0,0.0,0,1,1000,num_1,0.8428754000051413,,20,8,2026-03-02_16h06.28.467,2026A_exp2,2022.2.4,59.87468229414791,
,,,,,,,,,,,,,,,,,,,,,,,,,,,,,,,,,,,,,,,,,,,,,,,,,,,,277.6110217999958,,,,,,,
