validity,detectorcomp,contrastCW,contrastCCW,precueCWorCCW,block_80trials.thisRepN,block_80trials.thisTrialN,block_80trials.thisN,block_80trials.thisIndex,etRecord.started,etRecord.stopped,text.started,text.stopped,text_4.started,text_4.stopped,text_6.started,text_6.stopped,oriCW,oriCCW,roi_2.started,grating_UR.started,grating_UL.started,grating_LR.started,grating_LL.started,noise_UR.started,noise_UL.started,noise_LR.started,noise_LL.started,roi_2.stopped,grating_UR.stopped,grating_UL.stopped,grating_LR.stopped,grating_LL.stopped,noise_UR.stopped,noise_UL.stopped,noise_LR.stopped,noise_LL.stopped,outframe,roi_2.numLooks,roi_2.timesOn,roi_2.timesOff,text_2.started,text_2.stopped,probedcontrast,key_resp.started,respdetect,relevantContrast,correctDetect,TorFdetect,respCWorCCW,key_resp.keys,key_resp.rt,feedback_display_.started,participantNo,blockNo,date,expName,psychopyVersion,frameRate,
1000,1,6.1,0.0,1,0,0,0,60,5.879998207092285e-05,5.879998207092285e-05,50.48166749998927,52.48625770001672,52.48625770001672,53.11866080015898,53.11866080015898,53.63954060012475,45,45,53.63954060012475,53.63954060012475,53.63954060012475,53.63954060012475,53.63954060012475,53.63954060012475,53.63954060012475,53.63954060012475,53.63954060012475,53.98488620016724,53.98488620016724,53.98488620016724,53.98488620016724,53.98488620016724,53.98488620016724,53.98488620016724,53.98488620016724,53.98488620016724,23,0,,,53.98488620016724,54.188066500006244,1000,54.188066500006244,1000,1000,1000,1000,0,num_3,1.1306521000806242,,32,3,2026-03-12_15h22.21.527,2026A_exp2,2022.2.4,59.99822406698353,
1,0,0.0,4.9,1,0,1,1,45,,,,,55.3363419000525,55.987259899964556,55.987259899964556,56.47141860006377,315,45,56.47141860006377,56.47141860006377,56.47141860006377,56.47141860006377,56.47141860006377,56.47141860006377,56.47141860006377,56.47141860006377,56.47141860006377,56.83790559996851,56.83790559996851,56.83790559996851,56.83790559996851,56.83790559996851,56.83790559996851,56.83790559996851,56.83790559996851,56.83790559996851,23,0,,,56.83790559996851,57.03803570009768,4.9,57.03803570009768,1,4.9,1,1,1000,num_4,0.6482335000764579,,32,3,2026-03-12_15h22.21.527,2026A_exp2,2022.2.4,59.99822406698353,
1000,1,0.0,0.0,1,0,2,2,47,,,,,57.705316400155425,58.33940430008806,58.33940430008806,58.84063130011782,45,315,58.84063130011782,58.84063130011782,58.84063130011782,58.84063130011782,58.84063130011782,58.84063130011782,58.84063130011782,58.84063130011782,58.84063130011782,59.20688890013844,59.20688890013844,59.20688890013844,59.20688890013844,59.20688890013844,59.20688890013844,59.20688890013844,59.20688890013844,59.20688890013844,23,0,,,59.20688890013844,59.407282300060615,1000,59.407282300060615,1000,1000,1000,1000,0,num_3,0.6226504000369459,,32,3,2026-03-12_15h22.21.527,2026A_exp2,2022.2.4,59.99822406698353,
1000,1,6.1,4.9,1,0,3,3,53,,,,,60.05774680012837,60.69194720010273,60.69194720010273,61.192809000145644,315,45,61.192809000145644,61.192809000145644,61.192809000145644,61.192809000145644,61.192809000145644,61.192809000145644,61.192809000145644,61.192809000145644,61.192809000145644,61.55947870016098,61.55947870016098,61.55947870016098,61.55947870016098,61.55947870016098,61.55947870016098,61.55947870016098,61.55947870016098,61.55947870016098,23,0,,,61.55947870016098,61.75940310000442,1000,61.75940310000442,1000,1000,1000,1000,1,num_2,0.5584904998540878,,32,3,2026-03-12_15h22.21.527,2026A_exp2,2022.2.4,59.99822406698353,
1000,1,0.0,0.0,0,0,4,4,69,,,,,62.3435586001724,62.99415450007655,62.99415450007655,63.49520060000941,315,45,63.49520060000941,63.49520060000941,63.49520060000941,63.49520060000941,63.49520060000941,63.49520060000941,63.49520060000941,63.49520060000941,63.49520060000941,63.844879100099206,63.844879100099206,63.844879100099206,63.844879100099206,63.844879100099206,63.844879100099206,63.844879100099206,63.844879100099206,63.844879100099206,22,0,,,63.844879100099206,64.04555939999409,1000,64.04555939999409,1000,1000,1000,1000,0,num_3,0.3928757000248879,,32,3,2026-03-12_15h22.21.527,2026A_exp2,2022.2.4,59.99822406698353,
1,0,6.1,0.0,0,0,5,5,50,,,,,64.46216700016521,65.11279510008171,65.11279510008171,65.59728360013105,315,45,65.59728360013105,65.59728360013105,65.59728360013105,65.59728360013105,65.59728360013105,65.59728360013105,65.59728360013105,65.59728360013105,65.59728360013105,65.96366580016911,65.96366580016911,65.96366580016911,65.96366580016911,65.96366580016911,65.96366580016911,65.96366580016911,65.96366580016911,65.96366580016911,23,0,,,65.96366580016911,66.1639275001362,6.1,66.1639275001362,1,6.1,1,1,1000,num_4,0.6821691000368446,,32,3,2026-03-12_15h22.21.527,2026A_exp2,2022.2.4,59.99822406698353,
1,0,0.0,0.0,1,0,6,6,70,,,,,66.86497470014729,67.51582710002549,67.51582710002549,68.01627709995955,45,45,68.01627709995955,68.01627709995955,68.01627709995955,68.01627709995955,68.01627709995955,68.01627709995955,68.01627709995955,68.01627709995955,68.01627709995955,68.36616640002467,68.36616640002467,68.36616640002467,68.36616640002467,68.36616640002467,68.36616640002467,68.36616640002467,68.36616640002467,68.36616640002467,22,0,,,68.36616640002467,68.5663984999992,0.0,68.5663984999992,1,0.0,0,0,1000,num_4,0.6079154999461025,,32,3,2026-03-12_15h22.21.527,2026A_exp2,2022.2.4,59.99822406698353,
1,0,3.7,4.9,1,0,7,7,39,,,,,69.2004788001068,69.85076480009593,69.85076480009593,70.33554899995215,315,315,70.33554899995215,70.33554899995215,70.33554899995215,70.33554899995215,70.33554899995215,70.33554899995215,70.33554899995215,70.33554899995215,70.33554899995215,70.7016658000648,70.7016658000648,70.7016658000648,70.7016658000648,70.7016658000648,70.7016658000648,70.7016658000648,70.7016658000648,70.7016658000648,23,0,,,70.7016658000648,70.90211639995687,4.9,70.90211639995687,1,4.9,1,1,1000,num_4,0.616343199973926,,32,3,2026-03-12_15h22.21.527,2026A_exp2,2022.2.4,59.99822406698353,
1,0,4.9,0.0,1,0,8,8,82,,,,,71.53594760014676,72.17009890009649,72.17009890009649,72.67103120009415,45,45,72.67103120009415,72.67103120009415,72.67103120009415,72.67103120009415,72.67103120009415,72.67103120009415,72.67103120009415,72.67103120009415,72.67103120009415,73.0373397001531,73.0373397001531,73.0373397001531,73.0373397001531,73.0373397001531,73.0373397001531,73.0373397001531,73.0373397001531,73.0373397001531,23,0,,,73.0373397001531,73.23759600007907,0.0,73.23759600007907,0,0.0,0,1,1000,num_1,0.6407872000709176,,32,3,2026-03-12_15h22.21.527,2026A_exp2,2022.2.4,59.99822406698353,
1000,1,4.9,4.9,0,0,9,9,31,,,,,73.90581030002795,74.53903500013985,74.53903500013985,75.04133970011026,45,45,75.04133970011026,75.04133970011026,75.04133970011026,75.04133970011026,75.04133970011026,75.04133970011026,75.04133970011026,75.04133970011026,75.04133970011026,75.40650409995578,75.40650409995578,75.40650409995578,75.40650409995578,75.40650409995578,75.40650409995578,75.40650409995578,75.40650409995578,75.40650409995578,23,0,,,75.40650409995578,75.60672709997743,1000,75.60672709997743,1000,1000,1000,1000,1,num_2,0.8238711999729276,,32,3,2026-03-12_15h22.21.527,2026A_exp2,2022.2.4,59.99822406698353,
1,0,4.9,0.0,1,0,10,10,84,,,,,76.4580993000418,77.10809770016931,77.10809770016931,77.60925500001758,315,315,77.60925500001758,77.60925500001758,77.60925500001758,77.60925500001758,77.60925500001758,77.60925500001758,77.60925500001758,77.60925500001758,77.60925500001758,77.95911359996535,77.95911359996535,77.95911359996535,77.95911359996535,77.95911359996535,77.95911359996535,77.95911359996535,77.95911359996535,77.95911359996535,22,0,,,77.95911359996535,78.15922529995441,0.0,78.15922529995441,0,0.0,0,1,1000,num_1,0.7026494001038373,,32,3,2026-03-12_15h22.21.527,2026A_exp2,2022.2.4,59.99822406698353,
1000,1,0.0,4.9,0,0,11,11,11,,,,,78.89367450005375,79.52716100006364,79.52716100006364,80.02841350017115,315,315,80.02841350017115,80.02841350017115,80.02841350017115,80.02841350017115,80.02841350017115,80.02841350017115,80.02841350017115,80.02841350017115,80.02841350017115,80.39507300010882,80.39507300010882,80.39507300010882,80.39507300010882,80.39507300010882,80.39507300010882,80.39507300010882,80.39507300010882,80.39507300010882,23,0,,,80.39507300010882,80.59507030015811,1000,80.59507030015811,1000,1000,1000,1000,1,num_2,0.5712730998639017,,32,3,2026-03-12_15h22.21.527,2026A_exp2,2022.2.4,59.99822406698353,
1,0,0.0,0.0,0,0,12,12,49,,,,,81.19571340014227,81.82989819999784,81.82989819999784,82.3310128999874,45,315,82.3310128999874,82.3310128999874,82.3310128999874,82.3310128999874,82.3310128999874,82.3310128999874,82.3310128999874,82.3310128999874,82.3310128999874,82.69706280017272,82.69706280017272,82.69706280017272,82.69706280017272,82.69706280017272,82.69706280017272,82.69706280017272,82.69706280017272,82.69706280017272,23,0,,,82.69706280017272,82.89732280001044,0.0,82.89732280001044,1,0.0,0,0,1000,num_4,0.581191300181672,,32,3,2026-03-12_15h22.21.527,2026A_exp2,2022.2.4,59.99822406698353,
1,0,0.0,0.0,0,0,13,13,64,,,,,83.49803650006652,84.13180029997602,84.13180029997602,84.63373290002346,315,45,84.63373290002346,84.63373290002346,84.63373290002346,84.63373290002346,84.63373290002346,84.63373290002346,84.63373290002346,84.63373290002346,84.63373290002346,84.99955649999902,84.99955649999902,84.99955649999902,84.99955649999902,84.99955649999902,84.99955649999902,84.99955649999902,84.99955649999902,84.99955649999902,23,0,,,84.99955649999902,85.1996265000198,0.0,85.1996265000198,1,0.0,0,0,1000,num_4,0.95812730002217,,32,3,2026-03-12_15h22.21.527,2026A_exp2,2022.2.4,59.99822406698353,
1000,1,6.1,3.7,0,0,14,14,87,,,,,86.18405700009316,86.8178836000152,86.8178836000152,87.31935180001892,315,315,87.31935180001892,87.31935180001892,87.31935180001892,87.31935180001892,87.31935180001892,87.31935180001892,87.31935180001892,87.31935180001892,87.31935180001892,87.68877420015633,87.68877420015633,87.68877420015633,87.68877420015633,87.68877420015633,87.68877420015633,87.68877420015633,87.68877420015633,87.68877420015633,23,0,,,87.68877420015633,,1000,87.90311840013601,1000,1000,1000,1000,0,num_3,0.6231986000202596,,32,3,2026-03-12_15h22.21.527,2026A_exp2,2022.2.4,59.99822406698353,
1000,1,0.0,0.0,1,0,15,15,29,,,,,88.55301290005445,89.20347890001722,89.20347890001722,89.68805350014009,45,45,89.68805350014009,89.68805350014009,89.68805350014009,89.68805350014009,89.68805350014009,89.68805350014009,89.68805350014009,89.68805350014009,89.68805350014009,90.05457450007088,90.05457450007088,90.05457450007088,90.05457450007088,90.05457450007088,90.05457450007088,90.05457450007088,90.05457450007088,90.05457450007088,23,0,,,90.05457450007088,90.2545482001733,1000,90.2545482001733,1000,1000,1000,1000,0,num_3,1.0238630000967532,,32,3,2026-03-12_15h22.21.527,2026A_exp2,2022.2.4,59.99822406698353,
1000,1,0.0,0.0,0,0,16,16,61,,,,,91.30564590007998,91.93958940007724,91.93958940007724,92.4409791000653,315,315,92.4409791000653,92.4409791000653,92.4409791000653,92.4409791000653,92.4409791000653,92.4409791000653,92.4409791000653,92.4409791000653,92.4409791000653,92.80714599997737,92.80714599997737,92.80714599997737,92.80714599997737,92.80714599997737,92.80714599997737,92.80714599997737,92.80714599997737,92.80714599997737,23,0,,,92.80714599997737,93.00732890004292,1000,93.00732890004292,1000,1000,1000,1000,0,num_3,0.47889459994621575,,32,3,2026-03-12_15h22.21.527,2026A_exp2,2022.2.4,59.99822406698353,
1,0,0.0,0.0,1,0,17,17,18,,,,,93.50797240016982,94.15854790015146,94.15854790015146,94.6430894001387,45,45,94.6430894001387,94.6430894001387,94.6430894001387,94.6430894001387,94.6430894001387,94.6430894001387,94.6430894001387,94.6430894001387,94.6430894001387,95.00925070000812,95.00925070000812,95.00925070000812,95.00925070000812,95.00925070000812,95.00925070000812,95.00925070000812,95.00925070000812,95.00925070000812,23,0,,,95.00925070000812,95.20986320008524,0.0,95.20986320008524,1,0.0,0,0,1000,num_4,0.7249155000317842,,32,3,2026-03-12_15h22.21.527,2026A_exp2,2022.2.4,59.99822406698353,
1000,1,0.0,6.1,1,0,18,18,88,,,,,95.96020280010998,96.59431880014017,96.59431880014017,97.09617200004868,315,45,97.09617200004868,97.09617200004868,97.09617200004868,97.09617200004868,97.09617200004868,97.09617200004868,97.09617200004868,97.09617200004868,97.09617200004868,97.4618806000799,97.4618806000799,97.4618806000799,97.4618806000799,97.4618806000799,97.4618806000799,97.4618806000799,97.4618806000799,97.4618806000799,23,0,,,97.4618806000799,97.66207680013031,1000,97.66207680013031,1000,1000,1000,1000,1,num_2,0.6162259001284838,,32,3,2026-03-12_15h22.21.527,2026A_exp2,2022.2.4,59.99822406698353,
1000,1,4.9,0.0,0,0,19,19,58,,,,,98.2960564000532,98.94662750000134,98.94662750000134,99.43123620003462,45,45,99.43123620003462,99.43123620003462,99.43123620003462,99.43123620003462,99.43123620003462,99.43123620003462,99.43123620003462,99.43123620003462,99.43123620003462,99.79757030005567,99.79757030005567,99.79757030005567,99.79757030005567,99.79757030005567,99.79757030005567,99.79757030005567,99.79757030005567,99.79757030005567,23,0,,,99.79757030005567,99.99771020002663,1000,99.99771020002663,1000,1000,1000,1000,0,num_3,0.6003544998820871,,32,3,2026-03-12_15h22.21.527,2026A_exp2,2022.2.4,59.99822406698353,
0,0,4.9,0.0,0,0,20,20,30,,,,,100.6153291000519,101.26548520009965,101.26548520009965,101.7668153999839,315,315,101.7668153999839,101.7668153999839,101.7668153999839,101.7668153999839,101.7668153999839,101.7668153999839,101.7668153999839,101.7668153999839,101.7668153999839,102.11655670008622,102.11655670008622,102.11655670008622,102.11655670008622,102.11655670008622,102.11655670008622,102.11655670008622,102.11655670008622,102.11655670008622,22,0,,,102.11655670008622,102.31660480005667,0.0,102.31660480005667,0,0.0,0,1,1000,num_1,0.7292547000106424,,32,3,2026-03-12_15h22.21.527,2026A_exp2,2022.2.4,59.99822406698353,
1000,1,6.1,4.9,1,0,21,21,16,,,,,103.06739780004136,103.70126260002144,103.70126260002144,104.20301289996132,45,45,104.20301289996132,104.20301289996132,104.20301289996132,104.20301289996132,104.20301289996132,104.20301289996132,104.20301289996132,104.20301289996132,104.20301289996132,104.56965690013021,104.56965690013021,104.56965690013021,104.56965690013021,104.56965690013021,104.56965690013021,104.56965690013021,104.56965690013021,104.56965690013021,23,0,,,104.56965690013021,104.7692442999687,1000,104.7692442999687,1000,1000,1000,1000,0,num_3,0.5888356999494135,,32,3,2026-03-12_15h22.21.527,2026A_exp2,2022.2.4,59.99822406698353,
1,0,0.0,6.1,0,0,22,22,68,,,,,105.38653200003318,106.02112290007062,106.02112290007062,106.52163300011307,45,45,106.52163300011307,106.52163300011307,106.52163300011307,106.52163300011307,106.52163300011307,106.52163300011307,106.52163300011307,106.52163300011307,106.52163300011307,106.8883428000845,106.8883428000845,106.8883428000845,106.8883428000845,106.8883428000845,106.8883428000845,106.8883428000845,106.8883428000845,106.8883428000845,23,0,,,106.8883428000845,107.08808010001667,0.0,107.08808010001667,0,0.0,0,1,1000,num_1,0.6386567999143153,,32,3,2026-03-12_15h22.21.527,2026A_exp2,2022.2.4,59.99822406698353,
1000,1,6.1,3.7,1,0,23,23,10,,,,,107.75550270010717,108.38964830012992,108.38964830012992,108.89061919995584,45,45,108.89061919995584,108.89061919995584,108.89061919995584,108.89061919995584,108.89061919995584,108.89061919995584,108.89061919995584,108.89061919995584,108.89061919995584,109.2570613999851,109.2570613999851,109.2570613999851,109.2570613999851,109.2570613999851,109.2570613999851,109.2570613999851,109.2570613999851,109.2570613999851,23,0,,,109.2570613999851,109.45824609999545,1000,109.45824609999545,1000,1000,1000,1000,0,num_3,0.5396651001647115,,32,3,2026-03-12_15h22.21.527,2026A_exp2,2022.2.4,59.99822406698353,
1,0,0.0,3.7,0,0,24,24,78,,,,,110.02466400014237,110.67530860006809,110.67530860006809,111.17626249999739,45,45,111.17626249999739,111.17626249999739,111.17626249999739,111.17626249999739,111.17626249999739,111.17626249999739,111.17626249999739,111.17626249999739,111.17626249999739,111.52630880009383,111.52630880009383,111.52630880009383,111.52630880009383,111.52630880009383,111.52630880009383,111.52630880009383,111.52630880009383,111.52630880009383,22,0,,,111.52630880009383,111.72648030007258,0.0,111.72648030007258,0,0.0,0,1,1000,num_1,1.0394230999518186,,32,3,2026-03-12_15h22.21.527,2026A_exp2,2022.2.4,59.99822406698353,
1,0,4.9,0.0,1,0,25,25,4,,,,,112.79399999999441,113.44447630015202,113.44447630015202,113.92931940010749,315,45,113.92931940010749,113.92931940010749,113.92931940010749,113.92931940010749,113.92931940010749,113.92931940010749,113.92931940010749,113.92931940010749,113.92931940010749,114.29531450010836,114.29531450010836,114.29531450010836,114.29531450010836,114.29531450010836,114.29531450010836,114.29531450010836,114.29531450010836,114.29531450010836,23,0,,,114.29531450010836,114.4955854001455,0.0,114.4955854001455,0,0.0,0,1,1000,num_1,0.5504209999926388,,32,3,2026-03-12_15h22.21.527,2026A_exp2,2022.2.4,59.99822406698353,
1000,1,0.0,3.7,1,0,26,26,80,,,,,115.0629311001394,115.71347630000673,115.71347630000673,116.19794730003923,315,315,116.19794730003923,116.19794730003923,116.19794730003923,116.19794730003923,116.19794730003923,116.19794730003923,116.19794730003923,116.19794730003923,116.19794730003923,116.5643587000668,116.5643587000668,116.5643587000668,116.5643587000668,116.5643587000668,116.5643587000668,116.5643587000668,116.5643587000668,116.5643587000668,23,0,,,116.5643587000668,116.76478510000743,1000,116.76478510000743,1000,1000,1000,1000,1,num_2,0.6410829999949783,,32,3,2026-03-12_15h22.21.527,2026A_exp2,2022.2.4,59.99822406698353,
1000,1,6.1,0.0,0,0,27,27,19,,,,,117.43206360004842,118.06643640017137,118.06643640017137,118.56715000001714,315,45,118.56715000001714,118.56715000001714,118.56715000001714,118.56715000001714,118.56715000001714,118.56715000001714,118.56715000001714,118.56715000001714,118.56715000001714,118.93421850004233,118.93421850004233,118.93421850004233,118.93421850004233,118.93421850004233,118.93421850004233,118.93421850004233,118.93421850004233,118.93421850004233,23,0,,,118.93421850004233,119.13395850011148,1000,119.13395850011148,1000,1000,1000,1000,0,num_3,0.5843366999179125,,32,3,2026-03-12_15h22.21.527,2026A_exp2,2022.2.4,59.99822406698353,
1,0,0.0,0.0,0,0,28,28,59,,,,,119.73429130017757,120.38469550013542,120.38469550013542,120.88609270006418,45,45,120.88609270006418,120.88609270006418,120.88609270006418,120.88609270006418,120.88609270006418,120.88609270006418,120.88609270006418,120.88609270006418,120.88609270006418,121.23627610015683,121.23627610015683,121.23627610015683,121.23627610015683,121.23627610015683,121.23627610015683,121.23627610015683,121.23627610015683,121.23627610015683,22,0,,,121.23627610015683,121.43591820006259,0.0,121.43591820006259,1,0.0,0,0,1000,num_4,1.074561399873346,,32,3,2026-03-12_15h22.21.527,2026A_exp2,2022.2.4,59.99822406698353,
1000,1,3.7,0.0,1,0,29,29,55,,,,,122.5370094999671,123.17078489996493,123.17078489996493,123.67218520003371,315,315,123.67218520003371,123.67218520003371,123.67218520003371,123.67218520003371,123.67218520003371,123.67218520003371,123.67218520003371,123.67218520003371,123.67218520003371,124.03836460015737,124.03836460015737,124.03836460015737,124.03836460015737,124.03836460015737,124.03836460015737,124.03836460015737,124.03836460015737,124.03836460015737,23,0,,,124.03836460015737,124.23887180001475,1000,124.23887180001475,1000,1000,1000,1000,0,num_3,0.5591693001333624,,32,3,2026-03-12_15h22.21.527,2026A_exp2,2022.2.4,59.99822406698353,
1,0,0.0,4.9,0,0,30,30,85,,,,,124.82269860012457,125.45705550001003,125.45705550001003,125.95781480008736,315,45,125.95781480008736,125.95781480008736,125.95781480008736,125.95781480008736,125.95781480008736,125.95781480008736,125.95781480008736,125.95781480008736,125.95781480008736,126.32421770016663,126.32421770016663,126.32421770016663,126.32421770016663,126.32421770016663,126.32421770016663,126.32421770016663,126.32421770016663,126.32421770016663,23,0,,,126.32421770016663,126.52452710014768,0.0,126.52452710014768,0,0.0,0,1,1000,num_1,0.7541454997844994,,32,3,2026-03-12_15h22.21.527,2026A_exp2,2022.2.4,59.99822406698353,
1000,1,0.0,0.0,1,0,31,31,14,,,,,127.30861990014091,127.9426166000776,127.9426166000776,128.44370880001225,45,315,128.44370880001225,128.44370880001225,128.44370880001225,128.44370880001225,128.44370880001225,128.44370880001225,128.44370880001225,128.44370880001225,128.44370880001225,128.81022029998712,128.81022029998712,128.81022029998712,128.81022029998712,128.81022029998712,128.81022029998712,128.81022029998712,128.81022029998712,128.81022029998712,23,0,,,128.81022029998712,129.01236440008506,1000,129.01236440008506,1000,1000,1000,1000,0,num_3,1.1536547001451254,,32,3,2026-03-12_15h22.21.527,2026A_exp2,2022.2.4,59.99822406698353,
1000,1,4.9,0.0,1,0,32,32,25,,,,,130.19493780005723,130.8455730001442,130.8455730001442,131.34658650006168,315,315,131.34658650006168,131.34658650006168,131.34658650006168,131.34658650006168,131.34658650006168,131.34658650006168,131.34658650006168,131.34658650006168,131.34658650006168,131.69635770004243,131.69635770004243,131.69635770004243,131.69635770004243,131.69635770004243,131.69635770004243,131.69635770004243,131.69635770004243,131.69635770004243,22,0,,,131.69635770004243,131.8985964001622,1000,131.91337279998697,1000,1000,1000,1000,0,num_3,0.5653192000463605,,32,3,2026-03-12_15h22.21.527,2026A_exp2,2022.2.4,59.99822406698353,
1000,1,0.0,0.0,0,0,33,33,20,,,,,132.49710780009627,133.14778360002674,133.14778360002674,133.64885080000386,45,315,133.64885080000386,133.64885080000386,133.64885080000386,133.64885080000386,133.64885080000386,133.64885080000386,133.64885080000386,133.64885080000386,133.64885080000386,134.01537439995445,134.01537439995445,134.01537439995445,134.01537439995445,134.01537439995445,134.01537439995445,134.01537439995445,134.01537439995445,134.01537439995445,23,0,,,134.01537439995445,134.21736160013825,1000,134.21736160013825,1000,1000,1000,1000,0,num_3,0.4449785000178963,,32,3,2026-03-12_15h22.21.527,2026A_exp2,2022.2.4,59.99822406698353,
1000,1,0.0,4.9,0,0,34,34,77,,,,,134.6826751001645,135.34401070000604,135.34401070000604,135.83435580017976,315,45,135.83435580017976,135.83435580017976,135.83435580017976,135.83435580017976,135.83435580017976,135.83435580017976,135.83435580017976,135.83435580017976,135.83435580017976,136.18424880015664,136.18424880015664,136.18424880015664,136.18424880015664,136.18424880015664,136.18424880015664,136.18424880015664,136.18424880015664,136.18424880015664,22,0,,,136.18424880015664,136.38647749996744,1000,136.38647749996744,1000,1000,1000,1000,1,num_2,0.4680639000143856,,32,3,2026-03-12_15h22.21.527,2026A_exp2,2022.2.4,59.99822406698353,
1000,1,3.7,6.1,0,0,35,35,28,,,,,136.88488190015778,137.5355488001369,137.5355488001369,138.03670720010996,45,45,138.03670720010996,138.03670720010996,138.03670720010996,138.03670720010996,138.03670720010996,138.03670720010996,138.03670720010996,138.03670720010996,138.03670720010996,138.40310090011917,138.40310090011917,138.40310090011917,138.40310090011917,138.40310090011917,138.40310090011917,138.40310090011917,138.40310090011917,138.40310090011917,23,0,,,138.40310090011917,138.6055461000651,1000,138.6055461000651,1000,1000,1000,1000,1,num_2,0.3532869000919163,,32,3,2026-03-12_15h22.21.527,2026A_exp2,2022.2.4,59.99822406698353,
1000,1,0.0,4.9,1,0,36,36,27,,,,,138.9872528000269,139.63766070012935,139.63766070012935,140.13878970011137,45,45,140.13878970011137,140.13878970011137,140.13878970011137,140.13878970011137,140.13878970011137,140.13878970011137,140.13878970011137,140.13878970011137,140.13878970011137,140.5051748000551,140.5051748000551,140.5051748000551,140.5051748000551,140.5051748000551,140.5051748000551,140.5051748000551,140.5051748000551,140.5051748000551,23,0,,,140.5051748000551,140.70723890000954,1000,140.70723890000954,1000,1000,1000,1000,1,num_2,0.28352109994739294,,32,3,2026-03-12_15h22.21.527,2026A_exp2,2022.2.4,59.99822406698353,
1000,1,4.9,0.0,0,0,37,37,22,,,,,141.0224290001206,141.67269410006702,141.67269410006702,142.18941660015844,45,45,142.18941660015844,142.18941660015844,142.18941660015844,142.18941660015844,142.18941660015844,142.18941660015844,142.18941660015844,142.18941660015844,142.18941660015844,142.54052520007826,142.54052520007826,142.54052520007826,142.54052520007826,142.54052520007826,142.54052520007826,142.54052520007826,142.54052520007826,142.54052520007826,23,0,,,142.54052520007826,142.7450115000829,1000,142.7450115000829,1000,1000,1000,1000,0,num_3,0.501117300009355,,32,3,2026-03-12_15h22.21.527,2026A_exp2,2022.2.4,59.99822406698353,
1,0,4.9,0.0,1,0,38,38,6,,,,,143.27504610014148,143.91937140002847,143.91937140002847,144.41452750004828,315,315,144.41452750004828,144.41452750004828,144.41452750004828,144.41452750004828,144.41452750004828,144.41452750004828,144.41452750004828,144.41452750004828,144.41452750004828,144.77615500008687,144.77615500008687,144.77615500008687,144.77615500008687,144.77615500008687,144.77615500008687,144.77615500008687,144.77615500008687,144.77615500008687,23,0,,,144.77615500008687,144.97633390012197,0.0,144.97633390012197,0,0.0,0,1,1000,num_1,0.6299654000904411,,32,3,2026-03-12_15h22.21.527,2026A_exp2,2022.2.4,59.99822406698353,
1000,1,4.9,3.7,1,0,39,39,67,,,,,145.6268510001246,146.2775205001235,146.2775205001235,146.76208960008807,45,45,146.76208960008807,146.76208960008807,146.76208960008807,146.76208960008807,146.76208960008807,146.76208960008807,146.76208960008807,146.76208960008807,146.76208960008807,147.12848910014145,147.12848910014145,147.12848910014145,147.12848910014145,147.12848910014145,147.12848910014145,147.12848910014145,147.12848910014145,147.12848910014145,23,0,,,147.12848910014145,147.3289330000989,1000,147.3289330000989,1000,1000,1000,1000,0,num_3,0.6448182000312954,,32,3,2026-03-12_15h22.21.527,2026A_exp2,2022.2.4,59.99822406698353,
0,0,0.0,0.0,1,0,40,40,8,,,,,147.99602150009014,148.64661100017838,148.64661100017838,149.1477806000039,315,315,149.1477806000039,149.1477806000039,149.1477806000039,149.1477806000039,149.1477806000039,149.1477806000039,149.1477806000039,149.1477806000039,149.1477806000039,149.51424639998004,149.51424639998004,149.51424639998004,149.51424639998004,149.51424639998004,149.51424639998004,149.51424639998004,149.51424639998004,149.51424639998004,23,0,,,149.51424639998004,149.71437790011987,0.0,149.71437790011987,0,0.0,0,1,1000,num_1,0.7636758999433368,,32,3,2026-03-12_15h22.21.527,2026A_exp2,2022.2.4,59.99822406698353,
1,0,0.0,0.0,1,0,41,41,43,,,,,150.49852150003426,151.14918490010314,151.14918490010314,151.63343550008722,315,45,151.63343550008722,151.63343550008722,151.63343550008722,151.63343550008722,151.63343550008722,151.63343550008722,151.63343550008722,151.63343550008722,151.63343550008722,151.9999780000653,151.9999780000653,151.9999780000653,151.9999780000653,151.9999780000653,151.9999780000653,151.9999780000653,151.9999780000653,151.9999780000653,23,0,,,151.9999780000653,152.20013889996335,0.0,152.20013889996335,0,0.0,0,1,1000,num_1,1.847022500121966,,32,3,2026-03-12_15h22.21.527,2026A_exp2,2022.2.4,59.99822406698353,
1000,1,4.9,0.0,0,0,42,42,36,,,,,154.06879230006598,154.71928500011563,154.71928500011563,155.2205839001108,315,45,155.2205839001108,155.2205839001108,155.2205839001108,155.2205839001108,155.2205839001108,155.2205839001108,155.2205839001108,155.2205839001108,155.2205839001108,155.5867965000216,155.5867965000216,155.5867965000216,155.5867965000216,155.5867965000216,155.5867965000216,155.5867965000216,155.5867965000216,155.5867965000216,23,0,,,155.5867965000216,155.78732919995673,1000,155.78732919995673,1000,1000,1000,1000,0,num_3,0.4435936000663787,,32,3,2026-03-12_15h22.21.527,2026A_exp2,2022.2.4,59.99822406698353,
0,0,0.0,4.9,1,0,43,43,56,,,,,156.25419929996133,156.9048705000896,156.9048705000896,157.4059075000696,315,45,157.4059075000696,157.4059075000696,157.4059075000696,157.4059075000696,157.4059075000696,157.4059075000696,157.4059075000696,157.4059075000696,157.4059075000696,157.77243540016934,157.77243540016934,157.77243540016934,157.77243540016934,157.77243540016934,157.77243540016934,157.77243540016934,157.77243540016934,157.77243540016934,23,0,,,157.77243540016934,157.97270270017907,0.0,157.97270270017907,0,0.0,0,1,1000,num_1,0.705945499939844,,32,3,2026-03-12_15h22.21.527,2026A_exp2,2022.2.4,59.99822406698353,
1,0,0.0,0.0,0,0,44,44,2,,,,,158.70660579996184,159.3574082001578,159.3574082001578,159.84168750001118,45,45,159.84168750001118,159.84168750001118,159.84168750001118,159.84168750001118,159.84168750001118,159.84168750001118,159.84168750001118,159.84168750001118,159.84168750001118,160.208096700022,160.208096700022,160.208096700022,160.208096700022,160.208096700022,160.208096700022,160.208096700022,160.208096700022,160.208096700022,23,0,,,160.208096700022,160.40833030012436,0.0,160.40833030012436,1,0.0,0,0,1000,num_4,0.4297429998405278,,32,3,2026-03-12_15h22.21.527,2026A_exp2,2022.2.4,59.99822406698353,
0,0,0.0,0.0,1,0,45,45,62,,,,,160.8590157001745,161.5094477001112,161.5094477001112,161.99397159996442,45,45,161.99397159996442,161.99397159996442,161.99397159996442,161.99397159996442,161.99397159996442,161.99397159996442,161.99397159996442,161.99397159996442,161.99397159996442,162.3604229001794,162.3604229001794,162.3604229001794,162.3604229001794,162.3604229001794,162.3604229001794,162.3604229001794,162.3604229001794,162.3604229001794,23,0,,,162.3604229001794,162.56067120004445,0.0,162.56067120004445,1,0.0,0,0,1000,num_4,0.7580361999571323,,32,3,2026-03-12_15h22.21.527,2026A_exp2,2022.2.4,59.99822406698353,
1,0,0.0,4.9,0,0,46,46,71,,,,,163.34465620014817,163.9808984999545,163.9808984999545,164.48464340018108,45,45,164.48464340018108,164.48464340018108,164.48464340018108,164.48464340018108,164.48464340018108,164.48464340018108,164.48464340018108,164.48464340018108,164.48464340018108,164.84624850004911,164.84624850004911,164.84624850004911,164.84624850004911,164.84624850004911,164.84624850004911,164.84624850004911,164.84624850004911,164.84624850004911,23,0,,,164.84624850004911,165.04638870013878,0.0,165.04638870013878,0,0.0,0,1,1000,num_1,0.6237162000034004,,32,3,2026-03-12_15h22.21.527,2026A_exp2,2022.2.4,59.99822406698353,
0,0,0.0,3.7,1,0,47,47,21,,,,,165.69698660005815,166.33081039995886,166.33081039995886,166.8321198001504,315,315,166.8321198001504,166.8321198001504,166.8321198001504,166.8321198001504,166.8321198001504,166.8321198001504,166.8321198001504,166.8321198001504,166.8321198001504,167.1984731000848,167.1984731000848,167.1984731000848,167.1984731000848,167.1984731000848,167.1984731000848,167.1984731000848,167.1984731000848,167.1984731000848,23,0,,,167.1984731000848,167.39875080017373,0.0,167.39875080017373,0,0.0,0,1,1000,num_1,0.8001369000412524,,32,3,2026-03-12_15h22.21.527,2026A_exp2,2022.2.4,59.99822406698353,
1,0,4.9,4.9,1,0,48,48,89,,,,,168.21602519997396,168.8669412001036,168.8669412001036,169.35136279999278,315,315,169.35136279999278,169.35136279999278,169.35136279999278,169.35136279999278,169.35136279999278,169.35136279999278,169.35136279999278,169.35136279999278,169.35136279999278,169.7177375999745,169.7177375999745,169.7177375999745,169.7177375999745,169.7177375999745,169.7177375999745,169.7177375999745,169.7177375999745,169.7177375999745,23,0,,,169.7177375999745,169.91799790016375,4.9,169.91799790016375,1,4.9,1,1,1000,num_4,0.6399002000689507,,32,3,2026-03-12_15h22.21.527,2026A_exp2,2022.2.4,59.99822406698353,
1,0,3.7,0.0,1,0,49,49,74,,,,,170.585144800134,171.21928249998018,171.21928249998018,171.7201686000917,45,315,171.7201686000917,171.7201686000917,171.7201686000917,171.7201686000917,171.7201686000917,171.7201686000917,171.7201686000917,171.7201686000917,171.7201686000917,172.08698520017788,172.08698520017788,172.08698520017788,172.08698520017788,172.08698520017788,172.08698520017788,172.08698520017788,172.08698520017788,172.08698520017788,23,0,,,172.08698520017788,172.28688500006683,0.0,172.28688500006683,0,0.0,0,1,1000,num_1,0.9993706999812275,,32,3,2026-03-12_15h22.21.527,2026A_exp2,2022.2.4,59.99822406698353,
1,0,6.1,3.7,0,0,50,50,26,,,,,173.30452110012993,173.95518860011362,173.95518860011362,174.43964260001667,45,45,174.43964260001667,174.43964260001667,174.43964260001667,174.43964260001667,174.43964260001667,174.43964260001667,174.43964260001667,174.43964260001667,174.43964260001667,174.80616859998554,174.80616859998554,174.80616859998554,174.80616859998554,174.80616859998554,174.80616859998554,174.80616859998554,174.80616859998554,174.80616859998554,23,0,,,174.80616859998554,175.00640910002403,6.1,175.00640910002403,1,6.1,1,1,1000,num_4,0.5362569999415427,,32,3,2026-03-12_15h22.21.527,2026A_exp2,2022.2.4,59.99822406698353,
1000,1,0.0,6.1,0,0,51,51,34,,,,,175.57350100018084,176.22423030016944,176.22423030016944,176.70876160007901,315,315,176.70876160007901,176.70876160007901,176.70876160007901,176.70876160007901,176.70876160007901,176.70876160007901,176.70876160007901,176.70876160007901,176.70876160007901,177.07510490017012,177.07510490017012,177.07510490017012,177.07510490017012,177.07510490017012,177.07510490017012,177.07510490017012,177.07510490017012,177.07510490017012,23,0,,,177.07510490017012,177.27713449997827,1000,177.27713449997827,1000,1000,1000,1000,1,num_2,0.7774366000667214,,32,3,2026-03-12_15h22.21.527,2026A_exp2,2022.2.4,59.99822406698353,
1000,1,4.9,4.9,0,0,52,52,42,,,,,178.07592890015803,178.7267185000237,178.7267185000237,179.22775100008585,45,315,179.22775100008585,179.22775100008585,179.22775100008585,179.22775100008585,179.22775100008585,179.22775100008585,179.22775100008585,179.22775100008585,179.22775100008585,179.5943016000092,179.5943016000092,179.5943016000092,179.5943016000092,179.5943016000092,179.5943016000092,179.5943016000092,179.5943016000092,179.5943016000092,23,0,,,179.5943016000092,179.79650359996594,1000,179.79650359996594,1000,1000,1000,1000,1,num_2,0.5143871000036597,,32,3,2026-03-12_15h22.21.527,2026A_exp2,2022.2.4,59.99822406698353,
1,0,6.1,4.9,1,0,53,53,35,,,,,180.32845499995165,180.9790132001508,180.9790132001508,181.48022669996135,45,45,181.48022669996135,181.48022669996135,181.48022669996135,181.48022669996135,181.48022669996135,181.48022669996135,181.48022669996135,181.48022669996135,181.48022669996135,181.84652390005067,181.84652390005067,181.84652390005067,181.84652390005067,181.84652390005067,181.84652390005067,181.84652390005067,181.84652390005067,181.84652390005067,23,0,,,181.84652390005067,182.04679140006192,4.9,182.04679140006192,1,4.9,1,1,1000,num_4,0.615578800207004,,32,3,2026-03-12_15h22.21.527,2026A_exp2,2022.2.4,59.99822406698353,
1,0,0.0,0.0,1,0,54,54,41,,,,,182.68058130005375,183.33152450015768,183.33152450015768,183.8157411001157,45,315,183.8157411001157,183.8157411001157,183.8157411001157,183.8157411001157,183.8157411001157,183.8157411001157,183.8157411001157,183.8157411001157,183.8157411001157,184.1821527001448,184.1821527001448,184.1821527001448,184.1821527001448,184.1821527001448,184.1821527001448,184.1821527001448,184.1821527001448,184.1821527001448,23,0,,,184.1821527001448,184.3824061001651,0.0,184.3824061001651,0,0.0,0,1,1000,num_1,1.6400168999098241,,32,3,2026-03-12_15h22.21.527,2026A_exp2,2022.2.4,59.99822406698353,
1,0,4.9,6.1,0,0,55,55,15,,,,,186.05115970014594,186.70139580010436,186.70139580010436,187.20234280009754,45,45,187.20234280009754,187.20234280009754,187.20234280009754,187.20234280009754,187.20234280009754,187.20234280009754,187.20234280009754,187.20234280009754,187.20234280009754,187.56898030010052,187.56898030010052,187.56898030010052,187.56898030010052,187.56898030010052,187.56898030010052,187.56898030010052,187.56898030010052,187.56898030010052,23,0,,,187.56898030010052,187.769143700134,4.9,187.769143700134,0,4.9,1,0,1000,num_1,0.8449836999643594,,32,3,2026-03-12_15h22.21.527,2026A_exp2,2022.2.4,59.99822406698353,
1,0,0.0,0.0,0,0,56,56,81,,,,,188.63664799998514,189.28729630005546,189.28729630005546,189.77171600004658,315,45,189.77171600004658,189.77171600004658,189.77171600004658,189.77171600004658,189.77171600004658,189.77171600004658,189.77171600004658,189.77171600004658,189.77171600004658,190.13823150005192,190.13823150005192,190.13823150005192,190.13823150005192,190.13823150005192,190.13823150005192,190.13823150005192,190.13823150005192,190.13823150005192,23,0,,,190.13823150005192,190.3383196000941,0.0,190.3383196000941,1,0.0,0,0,1000,num_4,0.6444705000612885,,32,3,2026-03-12_15h22.21.527,2026A_exp2,2022.2.4,59.99822406698353,
1000,1,0.0,4.9,1,0,57,57,51,,,,,191.0056352999527,191.6595390001312,191.6595390001312,192.14826530008577,45,45,192.14826530008577,192.14826530008577,192.14826530008577,192.14826530008577,192.14826530008577,192.14826530008577,192.14826530008577,192.14826530008577,192.14826530008577,192.507219000021,192.507219000021,192.507219000021,192.507219000021,192.507219000021,192.507219000021,192.507219000021,192.507219000021,192.507219000021,23,0,,,192.507219000021,192.71384370001033,1000,192.71384370001033,1000,1000,1000,1000,1,num_2,0.8041368999984115,,32,3,2026-03-12_15h22.21.527,2026A_exp2,2022.2.4,59.99822406698353,
0,0,3.7,4.9,1,0,58,58,3,,,,,193.54157260013744,194.1921131000854,194.1921131000854,194.6933655999601,315,45,194.6933655999601,194.6933655999601,194.6933655999601,194.6933655999601,194.6933655999601,194.6933655999601,194.6933655999601,194.6933655999601,194.6933655999601,195.05982069997117,195.05982069997117,195.05982069997117,195.05982069997117,195.05982069997117,195.05982069997117,195.05982069997117,195.05982069997117,195.05982069997117,23,0,,,195.05982069997117,195.25998620013706,3.7,195.25998620013706,0,3.7,1,0,1000,num_1,1.6503006001003087,,32,3,2026-03-12_15h22.21.527,2026A_exp2,2022.2.4,59.99822406698353,
1000,1,0.0,0.0,1,0,59,59,23,,,,,196.92816710006446,197.57890289998613,197.57890289998613,198.0799567999784,315,45,198.0799567999784,198.0799567999784,198.0799567999784,198.0799567999784,198.0799567999784,198.0799567999784,198.0799567999784,198.0799567999784,198.0799567999784,198.42983669997193,198.42983669997193,198.42983669997193,198.42983669997193,198.42983669997193,198.42983669997193,198.42983669997193,198.42983669997193,198.42983669997193,22,0,,,198.42983669997193,198.63210250018165,1000,198.63210250018165,1000,1000,1000,1000,0,num_3,1.1657471999060363,,32,3,2026-03-12_15h22.21.527,2026A_exp2,2022.2.4,59.99822406698353,
0,0,0.0,4.9,0,0,60,60,54,,,,,199.81429330003448,200.46520420000888,200.46520420000888,200.96624310011975,45,315,200.96624310011975,200.96624310011975,200.96624310011975,200.96624310011975,200.96624310011975,200.96624310011975,200.96624310011975,200.96624310011975,200.96624310011975,201.3169003999792,201.3169003999792,201.3169003999792,201.3169003999792,201.3169003999792,201.3169003999792,201.3169003999792,201.3169003999792,201.3169003999792,19,1,[0.0012292000465095043],[0.049671699991449714],201.3169003999792,201.51682430016808,4.9,201.5337370999623,1,4.9,1,1,1000,num_4,0.6807454000227153,,32,3,2026-03-12_15h22.21.527,2026A_exp2,2022.2.4,59.99822406698353,
1000,1,0.0,0.0,0,0,61,61,65,,,,,202.23341310000978,202.88428070000373,202.88428070000373,203.36866080015898,45,45,203.36866080015898,203.36866080015898,203.36866080015898,203.36866080015898,203.36866080015898,203.36866080015898,203.36866080015898,203.36866080015898,203.36866080015898,203.73508490016684,203.73508490016684,203.73508490016684,203.73508490016684,203.73508490016684,203.73508490016684,203.73508490016684,203.73508490016684,203.73508490016684,23,0,,,203.73508490016684,203.9371099001728,1000,203.9371099001728,1000,1000,1000,1000,0,num_3,0.6061921000946313,,32,3,2026-03-12_15h22.21.527,2026A_exp2,2022.2.4,59.99822406698353,
1000,1,3.7,3.7,1,0,62,62,40,,,,,204.56931910011917,205.219912200002,205.219912200002,205.72095340001397,45,45,205.72095340001397,205.72095340001397,205.72095340001397,205.72095340001397,205.72095340001397,205.72095340001397,205.72095340001397,205.72095340001397,205.72095340001397,206.07077310001478,206.07077310001478,206.07077310001478,206.07077310001478,206.07077310001478,206.07077310001478,206.07077310001478,206.07077310001478,206.07077310001478,22,0,,,206.07077310001478,206.2708028999623,1000,206.287668999983,1000,1000,1000,1000,1,num_2,0.5593983998987824,,32,3,2026-03-12_15h22.21.527,2026A_exp2,2022.2.4,59.99822406698353,
1,0,0.0,4.9,0,0,63,63,17,,,,,206.87169550010003,207.52229960006662,207.52229960006662,208.02314550010487,45,315,208.02314550010487,208.02314550010487,208.02314550010487,208.02314550010487,208.02314550010487,208.02314550010487,208.02314550010487,208.02314550010487,208.02314550010487,208.3897635000758,208.3897635000758,208.3897635000758,208.3897635000758,208.3897635000758,208.3897635000758,208.3897635000758,208.3897635000758,208.3897635000758,23,0,,,208.3897635000758,208.5898249000311,0.0,208.5898249000311,0,0.0,0,1,1000,num_1,0.8089895998127759,,32,3,2026-03-12_15h22.21.527,2026A_exp2,2022.2.4,59.99822406698353,
1,0,0.0,6.1,0,0,64,64,5,,,,,209.4241371001117,210.0747122000903,210.0747122000903,210.5590898001101,45,45,210.5590898001101,210.5590898001101,210.5590898001101,210.5590898001101,210.5590898001101,210.5590898001101,210.5590898001101,210.5590898001101,210.5590898001101,210.9255286999978,210.9255286999978,210.9255286999978,210.9255286999978,210.9255286999978,210.9255286999978,210.9255286999978,210.9255286999978,210.9255286999978,23,0,,,210.9255286999978,211.12576600001194,0.0,211.12576600001194,0,0.0,0,1,1000,num_1,0.7053300000261515,,32,3,2026-03-12_15h22.21.527,2026A_exp2,2022.2.4,59.99822406698353,
0,0,3.7,0.0,1,0,65,65,83,,,,,211.8597534999717,212.51045510009862,212.51045510009862,212.99481890001334,45,315,212.99481890001334,212.99481890001334,212.99481890001334,212.99481890001334,212.99481890001334,212.99481890001334,212.99481890001334,212.99481890001334,212.99481890001334,213.36140620009974,213.36140620009974,213.36140620009974,213.36140620009974,213.36140620009974,213.36140620009974,213.36140620009974,213.36140620009974,213.36140620009974,23,0,,,213.36140620009974,213.56152960006148,3.7,213.56152960006148,1,3.7,1,1,1000,num_4,0.6372756001073867,,32,3,2026-03-12_15h22.21.527,2026A_exp2,2022.2.4,59.99822406698353,
1000,1,6.1,0.0,0,0,66,66,33,,,,,214.22878840006888,214.87948540016077,214.87948540016077,215.3639603999909,45,45,215.3639603999909,215.3639603999909,215.3639603999909,215.3639603999909,215.3639603999909,215.3639603999909,215.3639603999909,215.3639603999909,215.3639603999909,215.73041820013896,215.73041820013896,215.73041820013896,215.73041820013896,215.73041820013896,215.73041820013896,215.73041820013896,215.73041820013896,215.73041820013896,23,0,,,215.73041820013896,215.93215290014632,1000,215.93215290014632,1000,1000,1000,1000,0,num_3,0.5304684999864548,,32,3,2026-03-12_15h22.21.527,2026A_exp2,2022.2.4,59.99822406698353,
1000,1,0.0,0.0,0,0,67,67,75,,,,,216.4812954000663,217.13183369999751,217.13183369999751,217.63298090011813,315,45,217.63298090011813,217.63298090011813,217.63298090011813,217.63298090011813,217.63298090011813,217.63298090011813,217.63298090011813,217.63298090011813,217.63298090011813,217.99933940009214,217.99933940009214,217.99933940009214,217.99933940009214,217.99933940009214,217.99933940009214,217.99933940009214,217.99933940009214,217.99933940009214,23,0,,,217.99933940009214,218.20144530013204,1000,218.20144530013204,1000,1000,1000,1000,0,num_3,0.6052435000892729,,32,3,2026-03-12_15h22.21.527,2026A_exp2,2022.2.4,59.99822406698353,
1,0,0.0,0.0,1,0,68,68,73,,,,,218.83363340003416,219.4841383001767,219.4841383001767,219.98522000014782,45,45,219.98522000014782,219.98522000014782,219.98522000014782,219.98522000014782,219.98522000014782,219.98522000014782,219.98522000014782,219.98522000014782,219.98522000014782,220.35174380009994,220.35174380009994,220.35174380009994,220.35174380009994,220.35174380009994,220.35174380009994,220.35174380009994,220.35174380009994,220.35174380009994,23,0,,,220.35174380009994,220.55196120007895,0.0,220.55196120007895,1,0.0,0,0,1000,num_4,0.7660630000755191,,32,3,2026-03-12_15h22.21.527,2026A_exp2,2022.2.4,59.99822406698353,
1000,1,3.7,0.0,1,0,69,69,79,,,,,221.33607740001753,221.98652700008824,221.98652700008824,222.48757250001654,45,315,222.48757250001654,222.48757250001654,222.48757250001654,222.48757250001654,222.48757250001654,222.48757250001654,222.48757250001654,222.48757250001654,222.48757250001654,222.8542290001642,222.8542290001642,222.8542290001642,222.8542290001642,222.8542290001642,222.8542290001642,222.8542290001642,222.8542290001642,222.8542290001642,23,0,,,222.8542290001642,223.05846690014005,1000,223.05846690014005,1000,1000,1000,1000,0,num_3,0.5718247001059353,,32,3,2026-03-12_15h22.21.527,2026A_exp2,2022.2.4,59.99822406698353,
1,0,0.0,0.0,0,0,70,70,9,,,,,223.65490970015526,224.30560700013302,224.30560700013302,224.80681900004856,45,315,224.80681900004856,224.80681900004856,224.80681900004856,224.80681900004856,224.80681900004856,224.80681900004856,224.80681900004856,224.80681900004856,224.80681900004856,225.17319940007292,225.17319940007292,225.17319940007292,225.17319940007292,225.17319940007292,225.17319940007292,225.17319940007292,225.17319940007292,225.17319940007292,23,0,,,225.17319940007292,225.37345580011606,0.0,225.37345580011606,1,0.0,0,0,1000,num_4,0.6090279000345618,,32,3,2026-03-12_15h22.21.527,2026A_exp2,2022.2.4,59.99822406698353,
1,0,0.0,0.0,1,0,71,71,66,,,,,226.00727359997109,226.65880620013922,226.65880620013922,227.14251699997112,315,315,227.14251699997112,227.14251699997112,227.14251699997112,227.14251699997112,227.14251699997112,227.14251699997112,227.14251699997112,227.14251699997112,227.14251699997112,227.50881929998286,227.50881929998286,227.50881929998286,227.50881929998286,227.50881929998286,227.50881929998286,227.50881929998286,227.50881929998286,227.50881929998286,23,0,,,227.50881929998286,227.7090426001232,0.0,227.7090426001232,0,0.0,0,1,1000,num_1,0.9694214998744428,,32,3,2026-03-12_15h22.21.527,2026A_exp2,2022.2.4,59.99822406698353,
0,0,0.0,6.1,1,0,72,72,76,,,,,228.71012950013392,229.36072760005482,229.36072760005482,229.86179510015063,45,315,229.86179510015063,229.86179510015063,229.86179510015063,229.86179510015063,229.86179510015063,229.86179510015063,229.86179510015063,229.86179510015063,229.86179510015063,230.21153199998662,230.21153199998662,230.21153199998662,230.21153199998662,230.21153199998662,230.21153199998662,230.21153199998662,230.21153199998662,230.21153199998662,22,0,,,230.21153199998662,230.41181250009686,0.0,230.41181250009686,0,0.0,0,1,1000,num_1,0.6115462998859584,,32,3,2026-03-12_15h22.21.527,2026A_exp2,2022.2.4,59.99822406698353,
1000,1,4.9,0.0,1,0,73,73,72,,,,,231.04563690000214,231.69614570005797,231.69614570005797,232.19681260013022,45,45,232.19681260013022,232.19681260013022,232.19681260013022,232.19681260013022,232.19681260013022,232.19681260013022,232.19681260013022,232.19681260013022,232.19681260013022,232.54741340014152,232.54741340014152,232.54741340014152,232.54741340014152,232.54741340014152,232.54741340014152,232.54741340014152,232.54741340014152,232.54741340014152,23,0,,,232.54741340014152,232.76162880007178,1000,232.76162880007178,1000,1000,1000,1000,0,num_3,0.5888048999477178,,32,3,2026-03-12_15h22.21.527,2026A_exp2,2022.2.4,59.99822406698353,
1000,1,0.0,3.7,0,0,74,74,52,,,,,233.36479580006562,234.0154367000796,234.0154367000796,234.5163634000346,45,315,234.5163634000346,234.5163634000346,234.5163634000346,234.5163634000346,234.5163634000346,234.5163634000346,234.5163634000346,234.5163634000346,234.5163634000346,234.88289880007505,234.88289880007505,234.88289880007505,234.88289880007505,234.88289880007505,234.88289880007505,234.88289880007505,234.88289880007505,234.88289880007505,23,0,,,234.88289880007505,235.08495060005225,1000,235.08495060005225,1000,1000,1000,1000,1,num_2,0.45710540004074574,,32,3,2026-03-12_15h22.21.527,2026A_exp2,2022.2.4,59.99822406698353,
1000,1,0.0,0.0,1,0,75,75,7,,,,,235.5669574001804,236.2175517999567,236.2175517999567,236.73038029996678,315,315,236.73038029996678,236.73038029996678,236.73038029996678,236.73038029996678,236.73038029996678,236.73038029996678,236.73038029996678,236.73038029996678,236.73038029996678,237.08536930009723,237.08536930009723,237.08536930009723,237.08536930009723,237.08536930009723,237.08536930009723,237.08536930009723,237.08536930009723,237.08536930009723,23,0,,,237.08536930009723,237.30618610000238,1000,237.30618610000238,1000,1000,1000,1000,0,num_3,0.6690868001896888,,32,3,2026-03-12_15h22.21.527,2026A_exp2,2022.2.4,59.99822406698353,
1,0,0.0,3.7,1,0,76,76,57,,,,,238.00267129996791,238.65327330003493,238.65327330003493,239.15443750005215,45,45,239.15443750005215,239.15443750005215,239.15443750005215,239.15443750005215,239.15443750005215,239.15443750005215,239.15443750005215,239.15443750005215,239.15443750005215,239.52083030017093,239.52083030017093,239.52083030017093,239.52083030017093,239.52083030017093,239.52083030017093,239.52083030017093,239.52083030017093,239.52083030017093,23,0,,,239.52083030017093,239.72101079998538,3.7,239.72101079998538,1,3.7,1,1,1000,num_4,0.8941522999666631,,32,3,2026-03-12_15h22.21.527,2026A_exp2,2022.2.4,59.99822406698353,
1,0,0.0,3.7,0,0,77,77,12,,,,,240.6385666001588,241.29827770008706,241.29827770008706,241.77871260000393,45,45,241.77871260000393,241.77871260000393,241.77871260000393,241.77871260000393,241.77871260000393,241.77871260000393,241.77871260000393,241.77871260000393,241.77871260000393,242.14008509996347,242.14008509996347,242.14008509996347,242.14008509996347,242.14008509996347,242.14008509996347,242.14008509996347,242.14008509996347,242.14008509996347,23,0,,,242.14008509996347,242.34026399999857,0.0,242.34026399999857,0,0.0,0,1,1000,num_1,1.001806000014767,,32,3,2026-03-12_15h22.21.527,2026A_exp2,2022.2.4,59.99822406698353,
1,0,6.1,0.0,1,0,78,78,13,,,,,243.3579559000209,244.00866560009308,244.00866560009308,244.49307300010696,315,315,244.49307300010696,244.49307300010696,244.49307300010696,244.49307300010696,244.49307300010696,244.49307300010696,244.49307300010696,244.49307300010696,244.49307300010696,244.85949210007675,244.85949210007675,244.85949210007675,244.85949210007675,244.85949210007675,244.85949210007675,244.85949210007675,244.85949210007675,244.85949210007675,23,0,,,244.85949210007675,245.05972380004823,0.0,245.05972380004823,0,0.0,0,1,1000,num_1,0.6031549999024719,,32,3,2026-03-12_15h22.21.527,2026A_exp2,2022.2.4,59.99822406698353,
1,0,4.9,6.1,1,0,79,79,46,,,,,245.67723860009573,246.3332464999985,246.3332464999985,246.83825920009986,315,315,246.83825920009986,246.83825920009986,246.83825920009986,246.83825920009986,246.83825920009986,246.83825920009986,246.83825920009986,246.83825920009986,246.83825920009986,247.19486070005223,247.19486070005223,247.19486070005223,247.19486070005223,247.19486070005223,247.19486070005223,247.19486070005223,247.19486070005223,247.19486070005223,23,0,,,247.19486070005223,247.3952979000751,6.1,247.3952979000751,1,6.1,1,1,1000,num_4,0.8190297998953611,,32,3,2026-03-12_15h22.21.527,2026A_exp2,2022.2.4,59.99822406698353,
1000,1,6.1,3.7,1,0,80,80,24,,,,,248.2294634000864,248.8801925999578,248.8801925999578,249.38117359997705,45,45,249.38117359997705,249.38117359997705,249.38117359997705,249.38117359997705,249.38117359997705,249.38117359997705,249.38117359997705,249.38117359997705,249.38117359997705,249.7477835000027,249.7477835000027,249.7477835000027,249.7477835000027,249.7477835000027,249.7477835000027,249.7477835000027,249.7477835000027,249.7477835000027,23,0,,,249.7477835000027,249.94959000009112,1000,249.94959000009112,1000,1000,1000,1000,0,num_3,0.6731775000225753,,32,3,2026-03-12_15h22.21.527,2026A_exp2,2022.2.4,59.99822406698353,
1,0,4.9,6.1,1,0,81,81,86,,,,,250.64858250017278,251.29939010017551,251.29939010017551,251.80032320017926,45,315,251.80032320017926,251.80032320017926,251.80032320017926,251.80032320017926,251.80032320017926,251.80032320017926,251.80032320017926,251.80032320017926,251.80032320017926,252.1501653001178,252.1501653001178,252.1501653001178,252.1501653001178,252.1501653001178,252.1501653001178,252.1501653001178,252.1501653001178,252.1501653001178,22,0,,,252.1501653001178,252.35032830014825,6.1,252.36707040015608,1,6.1,1,1,1000,num_4,0.7911257999949157,,32,3,2026-03-12_15h22.21.527,2026A_exp2,2022.2.4,59.99822406698353,
1,0,4.9,4.9,0,0,82,82,63,,,,,253.18442500010133,253.83521530008875,253.83521530008875,254.3194995999802,45,45,254.3194995999802,254.3194995999802,254.3194995999802,254.3194995999802,254.3194995999802,254.3194995999802,254.3194995999802,254.3194995999802,254.3194995999802,254.68594880006276,254.68594880006276,254.68594880006276,254.68594880006276,254.68594880006276,254.68594880006276,254.68594880006276,254.68594880006276,254.68594880006276,23,0,,,254.68594880006276,254.88613460003398,4.9,254.88613460003398,0,4.9,1,0,1000,num_1,1.057170500047505,,32,3,2026-03-12_15h22.21.527,2026A_exp2,2022.2.4,59.99822406698353,
1,0,4.9,0.0,0,0,83,83,48,,,,,255.97063580015674,256.6213678000495,256.6213678000495,257.10579439997673,45,315,257.10579439997673,257.10579439997673,257.10579439997673,257.10579439997673,257.10579439997673,257.10579439997673,257.10579439997673,257.10579439997673,257.10579439997673,257.47218400007114,257.47218400007114,257.47218400007114,257.47218400007114,257.47218400007114,257.47218400007114,257.47218400007114,257.47218400007114,257.47218400007114,23,0,,,257.47218400007114,257.6720010000281,4.9,257.6720010000281,1,4.9,1,1,1000,num_4,0.44666039990261197,,32,3,2026-03-12_15h22.21.527,2026A_exp2,2022.2.4,59.99822406698353,
1,0,0.0,0.0,0,0,84,84,38,,,,,258.13927459996194,258.7900805999525,258.7900805999525,259.2744748000987,45,315,259.2744748000987,259.2744748000987,259.2744748000987,259.2744748000987,259.2744748000987,259.2744748000987,259.2744748000987,259.2744748000987,259.2744748000987,259.6409963001497,259.6409963001497,259.6409963001497,259.6409963001497,259.6409963001497,259.6409963001497,259.6409963001497,259.6409963001497,259.6409963001497,23,0,,,259.6409963001497,259.8413040000014,0.0,259.8413040000014,1,0.0,0,0,1000,num_4,0.4853129000402987,,32,3,2026-03-12_15h22.21.527,2026A_exp2,2022.2.4,59.99822406698353,
1000,1,4.9,6.1,1,0,85,85,1,,,,,260.3582789001521,261.00972410012037,261.00972410012037,261.49334589997306,45,45,261.49334589997306,261.49334589997306,261.49334589997306,261.49334589997306,261.49334589997306,261.49334589997306,261.49334589997306,261.49334589997306,261.49334589997306,261.8596527001355,261.8596527001355,261.8596527001355,261.8596527001355,261.8596527001355,261.8596527001355,261.8596527001355,261.8596527001355,261.8596527001355,23,0,,,261.8596527001355,262.06072610011324,1000,262.06072610011324,1000,1000,1000,1000,1,num_2,0.6660671001300216,,32,3,2026-03-12_15h22.21.527,2026A_exp2,2022.2.4,59.99822406698353,
1000,1,6.1,3.7,1,0,86,86,0,,,,,262.7439860999584,263.39480979996733,263.39480979996733,263.89574480010197,315,45,263.89574480010197,263.89574480010197,263.89574480010197,263.89574480010197,263.89574480010197,263.89574480010197,263.89574480010197,263.89574480010197,263.89574480010197,264.2622593000997,264.2622593000997,264.2622593000997,264.2622593000997,264.2622593000997,264.2622593000997,264.2622593000997,264.2622593000997,264.2622593000997,23,0,,,264.2622593000997,264.4644621000625,1000,264.4644621000625,1000,1000,1000,1000,0,num_3,1.1579495000187308,,32,3,2026-03-12_15h22.21.527,2026A_exp2,2022.2.4,59.99822406698353,
1,0,0.0,0.0,1,0,87,87,37,,,,,265.64705580007285,266.2975459001027,266.2975459001027,266.7820811001584,45,315,266.7820811001584,266.7820811001584,266.7820811001584,266.7820811001584,266.7820811001584,266.7820811001584,266.7820811001584,266.7820811001584,266.7820811001584,267.16513249999844,267.16513249999844,267.16513249999844,267.16513249999844,267.16513249999844,267.16513249999844,267.16513249999844,267.16513249999844,267.16513249999844,24,0,,,267.16513249999844,267.3654067001771,0.0,267.3654067001771,0,0.0,0,1,1000,num_1,0.8085695998743176,,32,3,2026-03-12_15h22.21.527,2026A_exp2,2022.2.4,59.99822406698353,
1000,1,4.9,3.7,1,0,88,88,32,,,,,268.19929859996773,268.85028560017236,268.85028560017236,269.33468720014207,315,315,269.33468720014207,269.33468720014207,269.33468720014207,269.33468720014207,269.33468720014207,269.33468720014207,269.33468720014207,269.33468720014207,269.33468720014207,269.70113610010594,269.70113610010594,269.70113610010594,269.70113610010594,269.70113610010594,269.70113610010594,269.70113610010594,269.70113610010594,269.70113610010594,23,0,,,269.70113610010594,269.90280589996837,1000,269.90280589996837,1000,1000,1000,1000,0,num_3,0.5437020999379456,,32,3,2026-03-12_15h22.21.527,2026A_exp2,2022.2.4,59.99822406698353,
1000,1,0.0,3.7,0,0,89,89,44,,,,,270.4683565001469,271.1190816999879,271.1190816999879,271.62008280004375,315,45,271.62008280004375,271.62008280004375,271.62008280004375,271.62008280004375,271.62008280004375,271.62008280004375,271.62008280004375,271.62008280004375,271.62008280004375,271.98660000017844,271.98660000017844,271.98660000017844,271.98660000017844,271.98660000017844,271.98660000017844,271.98660000017844,271.98660000017844,271.98660000017844,23,0,,,271.98660000017844,272.1869391000364,1000,272.1869391000364,1000,1000,1000,1000,1,num_2,0.8357484999578446,,32,3,2026-03-12_15h22.21.527,2026A_exp2,2022.2.4,59.99822406698353,
,,,,,,,,,,,,,,,,,,,,,,,,,,,,,,,,,,,,,,,,,,,,,,,,,,,,273.04330110014416,,,,,,,
