validity,detectorcomp,contrastCW,contrastCCW,precueCWorCCW,block_80trials.thisRepN,block_80trials.thisTrialN,block_80trials.thisN,block_80trials.thisIndex,etRecord.started,etRecord.stopped,text.started,text.stopped,text_4.started,text_4.stopped,text_6.started,text_6.stopped,oriCW,oriCCW,roi_2.started,grating_UR.started,grating_UL.started,grating_LR.started,grating_LL.started,noise_UR.started,noise_UL.started,noise_LR.started,noise_LL.started,roi_2.stopped,grating_UR.stopped,grating_UL.stopped,grating_LR.stopped,grating_LL.stopped,noise_UR.stopped,noise_UL.stopped,noise_LR.stopped,noise_LL.stopped,outframe,roi_2.numLooks,roi_2.timesOn,roi_2.timesOff,text_2.started,text_2.stopped,probedcontrast,key_resp.started,respdetect,relevantContrast,correctDetect,TorFdetect,respCWorCCW,key_resp.keys,key_resp.rt,feedback_display_.started,participantNo,blockNo,date,expName,psychopyVersion,frameRate,
1000,1,4.9,4.9,1,0,0,0,60,4.359986633062363e-05,4.359986633062363e-05,48.03922880021855,50.04436830012128,50.04436830012128,50.676124199992046,50.676124199992046,51.20059630018659,45,315,51.20059630018659,51.20059630018659,51.20059630018659,51.20059630018659,51.20059630018659,51.20059630018659,51.20059630018659,51.20059630018659,51.20059630018659,51.54361470020376,51.54361470020376,51.54361470020376,51.54361470020376,51.54361470020376,51.54361470020376,51.54361470020376,51.54361470020376,51.54361470020376,0,1,[0.0009147999808192253],[0.3676716999616474],51.54361470020376,51.75063950009644,1000,51.75063950009644,1000,1000,1000,1000,1,num_2,0.6029032999649644,,33,16,2026-03-12_18h38.13.351,2026A_exp2,2022.2.4,60.14878401669135,
0,0,0.0,0.0,0,0,1,1,67,,,,,52.3779516001232,53.028443600051105,53.028443600051105,53.52968280017376,45,315,53.52968280017376,53.52968280017376,53.52968280017376,53.52968280017376,53.52968280017376,53.52968280017376,53.52968280017376,53.52968280017376,53.52968280017376,53.89583610021509,53.89583610021509,53.89583610021509,53.89583610021509,53.89583610021509,53.89583610021509,53.89583610021509,53.89583610021509,53.89583610021509,0,1,[0.0012342999689280987],[0.3668754999525845],53.89583610021509,54.09621550003067,0.0,54.09621550003067,1,0.0,0,0,1000,num_4,0.6977285000029951,,33,16,2026-03-12_18h38.13.351,2026A_exp2,2022.2.4,60.14878401669135,
1000,1,6.1,6.1,0,0,2,2,56,,,,,54.81351030012593,55.46421740017831,55.46421740017831,55.949210999999195,315,315,55.949210999999195,55.949210999999195,55.949210999999195,55.949210999999195,55.949210999999195,55.949210999999195,55.949210999999195,55.949210999999195,55.949210999999195,56.31508250022307,56.31508250022307,56.31508250022307,56.31508250022307,56.31508250022307,56.31508250022307,56.31508250022307,56.31508250022307,56.31508250022307,0,1,[0.0007434999570250511],[0.3668551000300795],56.31508250022307,56.515324800042436,1000,56.515324800042436,1000,1000,1000,1000,0,num_3,0.5350947000551969,,33,16,2026-03-12_18h38.13.351,2026A_exp2,2022.2.4,60.14878401669135,
1,0,0.0,0.0,0,0,3,3,19,,,,,57.06616160017438,57.7163514001295,57.7163514001295,58.217608500039205,315,45,58.217608500039205,58.217608500039205,58.217608500039205,58.217608500039205,58.217608500039205,58.217608500039205,58.217608500039205,58.217608500039205,58.217608500039205,58.56732180016115,58.56732180016115,58.56732180016115,58.56732180016115,58.56732180016115,58.56732180016115,58.56732180016115,58.56732180016115,58.56732180016115,12,3,"[0.033256700029596686, 0.2499508000910282, 0.3335128000471741]","[0.09971500001847744, 0.31698960019275546, 0.3501216000877321]",58.56732180016115,58.76742819999345,0.0,58.78422280005179,1,0.0,0,0,1000,num_4,0.9464037998113781,,33,16,2026-03-12_18h38.13.351,2026A_exp2,2022.2.4,60.14878401669135,
1000,1,0.0,4.9,1,0,4,4,73,,,,,59.75199170014821,60.402464400045574,60.402464400045574,60.88682820019312,45,315,60.88682820019312,60.88682820019312,60.88682820019312,60.88682820019312,60.88682820019312,60.88682820019312,60.88682820019312,60.88682820019312,60.88682820019312,61.253197400132194,61.253197400132194,61.253197400132194,61.253197400132194,61.253197400132194,61.253197400132194,61.253197400132194,61.253197400132194,61.253197400132194,0,1,[0.0012205000966787338],[0.3666691000107676],61.253197400132194,61.45541310007684,1000,61.45541310007684,1000,1000,1000,1000,1,num_2,0.5461977999657393,,33,16,2026-03-12_18h38.13.351,2026A_exp2,2022.2.4,60.14878401669135,
1,0,4.9,0.0,0,0,5,5,23,,,,,62.020638400223106,62.67144659999758,62.67144659999758,63.15581090003252,45,45,63.15581090003252,63.15581090003252,63.15581090003252,63.15581090003252,63.15581090003252,63.15581090003252,63.15581090003252,63.15581090003252,63.15581090003252,63.52228120015934,63.52228120015934,63.52228120015934,63.52228120015934,63.52228120015934,63.52228120015934,63.52228120015934,63.52228120015934,63.52228120015934,23,0,,,63.52228120015934,63.72247300017625,4.9,63.72247300017625,1,4.9,1,1,1000,num_4,0.599287899909541,,33,16,2026-03-12_18h38.13.351,2026A_exp2,2022.2.4,60.14878401669135,
1,0,0.0,3.7,1,0,6,6,25,,,,,64.3395367001649,64.99036280019209,64.99036280019209,65.47474100021645,315,315,65.47474100021645,65.47474100021645,65.47474100021645,65.47474100021645,65.47474100021645,65.47474100021645,65.47474100021645,65.47474100021645,65.47474100021645,65.84111390006728,65.84111390006728,65.84111390006728,65.84111390006728,65.84111390006728,65.84111390006728,65.84111390006728,65.84111390006728,65.84111390006728,12,4,"[0.001006399979814887, 0.1839501999784261, 0.21720850002020597, 0.25057030003517866]","[0.017282099928706884, 0.2006385000422597, 0.23391570011153817, 0.3674874999560416]",65.84111390006728,66.041449500015,3.7,66.041449500015,1,3.7,1,1,1000,num_4,0.6081199999898672,,33,16,2026-03-12_18h38.13.351,2026A_exp2,2022.2.4,60.14878401669135,
1,0,0.0,0.0,0,0,7,7,49,,,,,66.67523480020463,67.32615400012583,67.32615400012583,67.82714980002493,45,315,67.82714980002493,67.82714980002493,67.82714980002493,67.82714980002493,67.82714980002493,67.82714980002493,67.82714980002493,67.82714980002493,67.82714980002493,68.19362140004523,68.19362140004523,68.19362140004523,68.19362140004523,68.19362140004523,68.19362140004523,68.19362140004523,68.19362140004523,68.19362140004523,14,4,"[0.13414049986749887, 0.1677802000194788, 0.21782829985022545, 0.2840952000115067]","[0.15102609992027283, 0.1843248000368476, 0.23450109991244972, 0.36791080003604293]",68.19362140004523,68.39373470004648,0.0,68.39373470004648,1,0.0,0,0,1000,num_4,0.7929231999441981,,33,16,2026-03-12_18h38.13.351,2026A_exp2,2022.2.4,60.14878401669135,
1000,1,4.9,3.7,1,0,8,8,14,,,,,69.21122000017203,69.84727600007318,69.84727600007318,70.35188240022399,45,315,70.35188240022399,70.35188240022399,70.35188240022399,70.35188240022399,70.35188240022399,70.35188240022399,70.35188240022399,70.35188240022399,70.35188240022399,70.71293959999457,70.71293959999457,70.71293959999457,70.71293959999457,70.71293959999457,70.71293959999457,70.71293959999457,70.71293959999457,70.71293959999457,0,1,[0.0026233999524265528],[0.3671240999829024],70.71293959999457,70.92931730020791,1000,70.92931730020791,1000,1000,1000,1000,0,num_3,0.4565729999449104,,33,16,2026-03-12_18h38.13.351,2026A_exp2,2022.2.4,60.14878401669135,
1,0,3.7,6.1,0,0,9,9,55,,,,,71.41363550000824,72.06408170005307,72.06408170005307,72.56512939999811,45,45,72.56512939999811,72.56512939999811,72.56512939999811,72.56512939999811,72.56512939999811,72.56512939999811,72.56512939999811,72.56512939999811,72.56512939999811,72.93169240001589,72.93169240001589,72.93169240001589,72.93169240001589,72.93169240001589,72.93169240001589,72.93169240001589,72.93169240001589,72.93169240001589,8,2,"[0.11700819991528988, 0.15028379997238517]","[0.133564000017941, 0.367241800064221]",72.93169240001589,73.13178390008397,3.7,73.13178390008397,0,3.7,1,0,1000,num_1,0.6147042000666261,,33,16,2026-03-12_18h38.13.351,2026A_exp2,2022.2.4,60.14878401669135,
1,0,3.7,4.9,0,0,10,10,84,,,,,73.76561320014298,74.41645970009267,74.41645970009267,74.90088630001992,45,315,74.90088630001992,74.90088630001992,74.90088630001992,74.90088630001992,74.90088630001992,74.90088630001992,74.90088630001992,74.90088630001992,74.90088630001992,75.26727000018582,75.26727000018582,75.26727000018582,75.26727000018582,75.26727000018582,75.26727000018582,75.26727000018582,75.26727000018582,75.26727000018582,14,3,"[0.18406330002471805, 0.23430759995244443, 0.30085999984294176]","[0.21751379990018904, 0.2675735999364406, 0.3676781998947263]",75.26727000018582,75.46741860010661,3.7,75.46741860010661,0,3.7,1,0,1000,num_1,0.710242300061509,,33,16,2026-03-12_18h38.13.351,2026A_exp2,2022.2.4,60.14878401669135,
1000,1,0.0,3.7,0,0,11,11,32,,,,,76.20151000004262,76.85225220001303,76.85225220001303,77.35320950020105,315,315,77.35320950020105,77.35320950020105,77.35320950020105,77.35320950020105,77.35320950020105,77.35320950020105,77.35320950020105,77.35320950020105,77.35320950020105,77.7198168002069,77.7198168002069,77.7198168002069,77.7198168002069,77.7198168002069,77.7198168002069,77.7198168002069,77.7198168002069,77.7198168002069,14,5,"[0.0012147000525146723, 0.10020940005779266, 0.1669644999783486, 0.21704629994928837, 0.3170511000789702]","[0.017412099987268448, 0.13353989995084703, 0.18385159992612898, 0.28370280005037785, 0.33394280006177723]",77.7198168002069,77.94893790013157,1000,77.94893790013157,1000,1000,1000,1000,0,num_3,0.5645816000178456,,33,16,2026-03-12_18h38.13.351,2026A_exp2,2022.2.4,60.14878401669135,
1000,1,0.0,4.9,0,0,12,12,27,,,,,78.53703740006313,79.1879818001762,79.1879818001762,79.68896710011177,315,315,79.68896710011177,79.68896710011177,79.68896710011177,79.68896710011177,79.68896710011177,79.68896710011177,79.68896710011177,79.68896710011177,79.68896710011177,80.05535880010575,80.05535880010575,80.05535880010575,80.05535880010575,80.05535880010575,80.05535880010575,80.05535880010575,80.05535880010575,80.05535880010575,12,5,"[0.0012040999718010426, 0.10022939997725189, 0.150106200017035, 0.2002646999899298, 0.3673425999004394]","[0.08369220001623034, 0.13415569998323917, 0.18355720001272857, 0.21715459995903075, 0.367347699822858]",80.05535880010575,80.25753640010953,1000,80.25753640010953,1000,1000,1000,1000,1,num_2,0.40027800016105175,,33,16,2026-03-12_18h38.13.351,2026A_exp2,2022.2.4,60.14878401669135,
1,0,6.1,0.0,1,0,13,13,38,,,,,80.68959120009094,81.3232504001353,81.3232504001353,81.82432840019464,315,45,81.82432840019464,81.82432840019464,81.82432840019464,81.82432840019464,81.82432840019464,81.82432840019464,81.82432840019464,81.82432840019464,81.82432840019464,82.19098390010186,82.19098390010186,82.19098390010186,82.19098390010186,82.19098390010186,82.19098390010186,82.19098390010186,82.19098390010186,82.19098390010186,22,1,[0.017123400000855327],[0.03340750001370907],82.19098390010186,82.39115690020844,0.0,82.39115690020844,0,0.0,0,1,1000,num_1,0.6028964999131858,,33,16,2026-03-12_18h38.13.351,2026A_exp2,2022.2.4,60.14878401669135,
1000,1,0.0,0.0,1,0,14,14,40,,,,,83.0251286001876,83.659035500139,83.659035500139,84.1601876001805,315,315,84.1601876001805,84.1601876001805,84.1601876001805,84.1601876001805,84.1601876001805,84.1601876001805,84.1601876001805,84.1601876001805,84.1601876001805,84.5266530001536,84.5266530001536,84.5266530001536,84.5266530001536,84.5266530001536,84.5266530001536,84.5266530001536,84.5266530001536,84.5266530001536,23,0,,,84.5266530001536,84.72883690008894,1000,84.72883690008894,1000,1000,1000,1000,0,num_3,0.40979130007326603,,33,16,2026-03-12_18h38.13.351,2026A_exp2,2022.2.4,60.14878401669135,
1,0,0.0,0.0,0,0,15,15,0,,,,,85.16039520013146,85.81119300005957,85.81119300005957,86.31231130007654,315,315,86.31231130007654,86.31231130007654,86.31231130007654,86.31231130007654,86.31231130007654,86.31231130007654,86.31231130007654,86.31231130007654,86.31231130007654,86.67869080021046,86.67869080021046,86.67869080021046,86.67869080021046,86.67869080021046,86.67869080021046,86.67869080021046,86.67869080021046,86.67869080021046,21,2,"[0.050218299962580204, 0.13315230002626777]","[0.06676890002563596, 0.14942939998582006]",86.67869080021046,86.87891450012103,0.0,86.87891450012103,0,0.0,0,1,1000,num_1,0.5871226999443024,,33,16,2026-03-12_18h38.13.351,2026A_exp2,2022.2.4,60.14878401669135,
1000,1,6.1,4.9,0,0,16,16,77,,,,,87.49609570018947,88.1299301001709,88.1299301001709,88.63123699999414,315,45,88.63123699999414,88.63123699999414,88.63123699999414,88.63123699999414,88.63123699999414,88.63123699999414,88.63123699999414,88.63123699999414,88.63123699999414,88.99776250007562,88.99776250007562,88.99776250007562,88.99776250007562,88.99776250007562,88.99776250007562,88.99776250007562,88.99776250007562,88.99776250007562,2,2,"[0.0012461000587791204, 0.11684969998896122]","[0.08356920001097023, 0.3670864999294281]",88.99776250007562,89.2001836001873,1000,89.2001836001873,1000,1000,1000,1000,1,num_2,0.26574399997480214,,33,16,2026-03-12_18h38.13.351,2026A_exp2,2022.2.4,60.14878401669135,
1,0,3.7,0.0,1,0,17,17,59,,,,,89.48144710017368,90.13215920003131,90.13215920003131,90.63332550018094,45,45,90.63332550018094,90.63332550018094,90.63332550018094,90.63332550018094,90.63332550018094,90.63332550018094,90.63332550018094,90.63332550018094,90.63332550018094,90.9997408001218,90.9997408001218,90.9997408001218,90.9997408001218,90.9997408001218,90.9997408001218,90.9997408001218,90.9997408001218,90.9997408001218,10,3,"[0.001209000125527382, 0.15027380012907088, 0.2503284001722932]","[0.1169291001278907, 0.20028430013917387, 0.2838435999583453]",90.9997408001218,91.19999580015428,0.0,91.19999580015428,0,0.0,0,1,1000,num_1,0.48961399984546006,,33,16,2026-03-12_18h38.13.351,2026A_exp2,2022.2.4,60.14878401669135,
1000,1,4.9,4.9,1,0,18,18,85,,,,,91.71699010021985,92.3676980000455,92.3676980000455,92.85226090019569,315,315,92.85226090019569,92.85226090019569,92.85226090019569,92.85226090019569,92.85226090019569,92.85226090019569,92.85226090019569,92.85226090019569,92.85226090019569,93.21855020010844,93.21855020010844,93.21855020010844,93.21855020010844,93.21855020010844,93.21855020010844,93.21855020010844,93.21855020010844,93.21855020010844,0,1,[0.0012463000603020191],[0.36702270014211535],93.21855020010844,93.42094140010886,1000,93.42094140010886,1000,1000,1000,1000,1,num_2,0.38875190005637705,,33,16,2026-03-12_18h38.13.351,2026A_exp2,2022.2.4,60.14878401669135,
1000,1,4.9,0.0,1,0,19,19,28,,,,,93.83577910019085,94.48657639999874,94.48657639999874,94.98758000019006,315,315,94.98758000019006,94.98758000019006,94.98758000019006,94.98758000019006,94.98758000019006,94.98758000019006,94.98758000019006,94.98758000019006,94.98758000019006,95.35408540000208,95.35408540000208,95.35408540000208,95.35408540000208,95.35408540000208,95.35408540000208,95.35408540000208,95.35408540000208,95.35408540000208,0,1,[0.0012203999795019627],[0.36715160007588565],95.35408540000208,95.55623220000416,1000,95.55623220000416,1000,1000,1000,1000,0,num_3,0.26132960012182593,,33,16,2026-03-12_18h38.13.351,2026A_exp2,2022.2.4,60.14878401669135,
1000,1,0.0,0.0,1,0,20,20,42,,,,,95.83779740007594,96.48830070020631,96.48830070020631,96.98968840017915,315,315,96.98968840017915,96.98968840017915,96.98968840017915,96.98968840017915,96.98968840017915,96.98968840017915,96.98968840017915,96.98968840017915,96.98968840017915,97.35604560002685,97.35604560002685,97.35604560002685,97.35604560002685,97.35604560002685,97.35604560002685,97.35604560002685,97.35604560002685,97.35604560002685,0,1,[0.0012067998759448528],[0.3674338997807354],97.35604560002685,97.55799260013737,1000,97.55799260013737,1000,1000,1000,1000,1,num_2,0.46058860002085567,,33,16,2026-03-12_18h38.13.351,2026A_exp2,2022.2.4,60.14878401669135,
1,0,0.0,0.0,0,0,21,21,66,,,,,98.04003700008616,98.70127420010976,98.70127420010976,99.19190880004317,45,315,99.19190880004317,99.19190880004317,99.19190880004317,99.19190880004317,99.19190880004317,99.19190880004317,99.19190880004317,99.19190880004317,99.19190880004317,99.55824350006878,99.55824350006878,99.55824350006878,99.55824350006878,99.55824350006878,99.55824350006878,99.55824350006878,99.55824350006878,99.55824350006878,10,6,"[0.033191399881616235, 0.08344580000266433, 0.11680069984868169, 0.20030449982732534, 0.31696569989435375, 0.36704209982417524]","[0.0667053998913616, 0.10013779997825623, 0.15073649981059134, 0.2837478998117149, 0.35049419989809394, 0.3670468998607248]",99.55824350006878,99.75842540012673,0.0,99.75842540012673,0,0.0,0,1,1000,num_1,0.618926600087434,,33,16,2026-03-12_18h38.13.351,2026A_exp2,2022.2.4,60.14878401669135,
1,0,6.1,3.7,0,0,22,22,86,,,,,100.4092572000809,101.05973020009696,101.05973020009696,101.54418190009892,45,315,101.54418190009892,101.54418190009892,101.54418190009892,101.54418190009892,101.54418190009892,101.54418190009892,101.54418190009892,101.54418190009892,101.54418190009892,101.91064540017396,101.91064540017396,101.91064540017396,101.91064540017396,101.91064540017396,101.91064540017396,101.91064540017396,101.91064540017396,101.91064540017396,8,5,"[0.0014112999197095633, 0.10005820007063448, 0.15022840001620352, 0.23369869985617697, 0.3004010000731796]","[0.05018349993042648, 0.11690959986299276, 0.2003901000134647, 0.28364509996026754, 0.36717989994212985]",101.91064540017396,102.1108534000814,6.1,102.1108534000814,1,6.1,1,1,1000,num_4,0.5873497000429779,,33,16,2026-03-12_18h38.13.351,2026A_exp2,2022.2.4,60.14878401669135,
1000,1,3.7,0.0,0,0,23,23,37,,,,,102.72811480006203,103.36212150007486,103.36212150007486,103.86304040020332,45,315,103.86304040020332,103.86304040020332,103.86304040020332,103.86304040020332,103.86304040020332,103.86304040020332,103.86304040020332,103.86304040020332,103.86304040020332,104.22952430020086,104.22952430020086,104.22952430020086,104.22952430020086,104.22952430020086,104.22952430020086,104.22952430020086,104.22952430020086,104.22952430020086,14,5,"[0.0011986999306827784, 0.08353039994835854, 0.11675389995798469, 0.16705950000323355, 0.2503364000003785]","[0.06699090008623898, 0.1002273999620229, 0.15028829989023507, 0.18360650003887713, 0.2671060999855399]",104.22952430020086,104.43168090004474,1000,104.43168090004474,1000,1000,1000,1000,0,num_3,0.3783462999854237,,33,16,2026-03-12_18h38.13.351,2026A_exp2,2022.2.4,60.14878401669135,
1000,1,6.1,0.0,0,0,24,24,58,,,,,104.83016650006175,105.4807601000648,105.4807601000648,105.98186470009387,315,315,105.98186470009387,105.98186470009387,105.98186470009387,105.98186470009387,105.98186470009387,105.98186470009387,105.98186470009387,105.98186470009387,105.98186470009387,106.33171650022268,106.33171650022268,106.33171650022268,106.33171650022268,106.33171650022268,106.33171650022268,106.33171650022268,106.33171650022268,106.33171650022268,20,1,[0.10016979998908937],[0.13349290005862713],106.33171650022268,106.53411430004053,1000,106.53411430004053,1000,1000,1000,1000,0,num_3,0.37981120008043945,,33,16,2026-03-12_18h38.13.351,2026A_exp2,2022.2.4,60.14878401669135,
1000,1,0.0,3.7,1,0,25,25,43,,,,,106.93215480004437,107.58316170005128,107.58316170005128,108.08410960016772,45,315,108.08410960016772,108.08410960016772,108.08410960016772,108.08410960016772,108.08410960016772,108.08410960016772,108.08410960016772,108.08410960016772,108.08410960016772,108.45055630011484,108.45055630011484,108.45055630011484,108.45055630011484,108.45055630011484,108.45055630011484,108.45055630011484,108.45055630011484,108.45055630011484,0,1,[0.0012420001439750195],[0.367091900203377],108.45055630011484,108.65281200013123,1000,108.65281200013123,1000,1000,1000,1000,1,num_2,0.29310969985090196,,33,16,2026-03-12_18h38.13.351,2026A_exp2,2022.2.4,60.14878401669135,
1,0,4.9,0.0,1,0,26,26,15,,,,,108.96779670007527,109.61829890008084,109.61829890008084,110.11945540015586,45,315,110.11945540015586,110.11945540015586,110.11945540015586,110.11945540015586,110.11945540015586,110.11945540015586,110.11945540015586,110.11945540015586,110.11945540015586,110.46912370016798,110.46912370016798,110.46912370016798,110.46912370016798,110.46912370016798,110.46912370016798,110.46912370016798,110.46912370016798,110.46912370016798,0,1,[0.0012529999949038029],[0.3504345000255853],110.46912370016798,110.66942160017788,0.0,110.66942160017788,0,0.0,0,1,1000,num_1,0.571991499979049,,33,16,2026-03-12_18h38.13.351,2026A_exp2,2022.2.4,60.14878401669135,
1000,1,4.9,0.0,0,0,27,27,20,,,,,111.26984260021709,111.92052360018715,111.92052360018715,112.40511160017923,45,315,112.40511160017923,112.40511160017923,112.40511160017923,112.40511160017923,112.40511160017923,112.40511160017923,112.40511160017923,112.40511160017923,112.40511160017923,112.77151870005764,112.77151870005764,112.77151870005764,112.77151870005764,112.77151870005764,112.77151870005764,112.77151870005764,112.77151870005764,112.77151870005764,0,1,[0.0012258999049663544],[0.36680519999936223],112.77151870005764,112.97362490021624,1000,112.97362490021624,1000,1000,1000,1000,0,num_3,0.3970111000817269,,33,16,2026-03-12_18h38.13.351,2026A_exp2,2022.2.4,60.14878401669135,
1000,1,0.0,0.0,0,0,28,28,5,,,,,113.38863739999942,114.03946590004489,114.03946590004489,114.54044400015846,315,45,114.54044400015846,114.54044400015846,114.54044400015846,114.54044400015846,114.54044400015846,114.54044400015846,114.54044400015846,114.54044400015846,114.54044400015846,114.9068894002121,114.9068894002121,114.9068894002121,114.9068894002121,114.9068894002121,114.9068894002121,114.9068894002121,114.9068894002121,114.9068894002121,1,2,"[0.0011985001619905233, 0.033729400020092726]","[0.017458500107750297, 0.3673533000983298]",114.9068894002121,115.12766510015354,1000,115.12766510015354,1000,1000,1000,1000,1,num_2,0.3619039000477642,,33,16,2026-03-12_18h38.13.351,2026A_exp2,2022.2.4,60.14878401669135,
1000,1,4.9,0.0,1,0,29,29,7,,,,,115.50757350004278,116.15819530002773,116.15819530002773,116.65901280008256,315,45,116.65901280008256,116.65901280008256,116.65901280008256,116.65901280008256,116.65901280008256,116.65901280008256,116.65901280008256,116.65901280008256,116.65901280008256,117.02577220019884,117.02577220019884,117.02577220019884,117.02577220019884,117.02577220019884,117.02577220019884,117.02577220019884,117.02577220019884,117.02577220019884,16,3,"[0.0008283001370728016, 0.1006664999295026, 0.13388000009581447]","[0.08384520001709461, 0.11726909992285073, 0.1506265001371503]",117.02577220019884,117.2258536000736,1000,117.2258536000736,1000,1000,1000,1000,0,num_3,0.7355473998468369,,33,16,2026-03-12_18h38.13.351,2026A_exp2,2022.2.4,60.14878401669135,
1000,1,6.1,0.0,0,0,30,30,8,,,,,117.9766311000567,118.62736680009402,118.62736680009402,119.12838300014846,45,45,119.12838300014846,119.12838300014846,119.12838300014846,119.12838300014846,119.12838300014846,119.12838300014846,119.12838300014846,119.12838300014846,119.12838300014846,119.49481220007874,119.49481220007874,119.49481220007874,119.49481220007874,119.49481220007874,119.49481220007874,119.49481220007874,119.49481220007874,119.49481220007874,23,0,,,119.49481220007874,119.69714100006968,1000,119.69714100006968,1000,1000,1000,1000,0,num_3,0.4257612000219524,,33,16,2026-03-12_18h38.13.351,2026A_exp2,2022.2.4,60.14878401669135,
1000,1,4.9,4.9,1,0,31,31,26,,,,,120.14540720009245,120.79622190003283,120.79622190003283,121.29732330003753,315,45,121.29732330003753,121.29732330003753,121.29732330003753,121.29732330003753,121.29732330003753,121.29732330003753,121.29732330003753,121.29732330003753,121.29732330003753,121.66365310014226,121.66365310014226,121.66365310014226,121.66365310014226,121.66365310014226,121.66365310014226,121.66365310014226,121.66365310014226,121.66365310014226,21,1,[0.250541300047189],[0.28379799984395504],121.66365310014226,121.86559990001842,1000,121.86559990001842,1000,1000,1000,1000,1,num_2,0.2885584000032395,,33,16,2026-03-12_18h38.13.351,2026A_exp2,2022.2.4,60.14878401669135,
1,0,6.1,0.0,1,0,32,32,54,,,,,122.18080970016308,122.83159760013223,122.83159760013223,123.33259280002676,45,45,123.33259280002676,123.33259280002676,123.33259280002676,123.33259280002676,123.33259280002676,123.33259280002676,123.33259280002676,123.33259280002676,123.33259280002676,123.69907300011255,123.69907300011255,123.69907300011255,123.69907300011255,123.69907300011255,123.69907300011255,123.69907300011255,123.69907300011255,123.69907300011255,1,2,"[0.0012448998168110847, 0.3003444999922067]","[0.2836338998749852, 0.3670443999581039]",123.69907300011255,123.89934800006449,0.0,123.89934800006449,0,0.0,0,1,1000,num_1,0.607253700029105,,33,16,2026-03-12_18h38.13.351,2026A_exp2,2022.2.4,60.14878401669135,
1,0,3.7,6.1,1,0,33,33,6,,,,,124.5331706001889,125.18570170016028,125.18570170016028,125.66853750008158,315,45,125.66853750008158,125.66853750008158,125.66853750008158,125.66853750008158,125.66853750008158,125.66853750008158,125.66853750008158,125.66853750008158,125.66853750008158,126.03488560020924,126.03488560020924,126.03488560020924,126.03488560020924,126.03488560020924,126.03488560020924,126.03488560020924,126.03488560020924,126.03488560020924,5,4,"[0.0011958000250160694, 0.06690380000509322, 0.11687799985520542, 0.31721349991858006]","[0.0337141000200063, 0.08360000001266599, 0.30033509992063046, 0.3670639998745173]",126.03488560020924,126.23490270017646,6.1,126.23490270017646,1,6.1,1,1,1000,num_4,0.6552165998145938,,33,16,2026-03-12_18h38.13.351,2026A_exp2,2022.2.4,60.14878401669135,
1,0,3.7,3.7,1,0,34,34,64,,,,,126.91889650002122,127.56966660008766,127.56966660008766,128.05739120021462,315,315,128.05739120021462,128.05739120021462,128.05739120021462,128.05739120021462,128.05739120021462,128.05739120021462,128.05739120021462,128.05739120021462,128.05739120021462,128.42050010012463,128.42050010012463,128.42050010012463,128.42050010012463,128.42050010012463,128.42050010012463,128.42050010012463,128.42050010012463,128.42050010012463,23,0,,,128.42050010012463,128.620532900095,3.7,128.620532900095,1,3.7,1,1,1000,num_4,1.676996499998495,,33,16,2026-03-12_18h38.13.351,2026A_exp2,2022.2.4,60.14878401669135,
1,0,6.1,6.1,1,0,35,35,89,,,,,130.32227040012367,130.97308160015382,130.97308160015382,131.45752580021508,315,45,131.45752580021508,131.45752580021508,131.45752580021508,131.45752580021508,131.45752580021508,131.45752580021508,131.45752580021508,131.45752580021508,131.45752580021508,131.82385590020567,131.82385590020567,131.82385590020567,131.82385590020567,131.82385590020567,131.82385590020567,131.82385590020567,131.82385590020567,131.82385590020567,23,0,,,131.82385590020567,132.02390440017916,6.1,132.02390440017916,1,6.1,1,1,1000,num_4,0.913969699991867,,33,16,2026-03-12_18h38.13.351,2026A_exp2,2022.2.4,60.14878401669135,
1,0,0.0,0.0,0,0,36,36,29,,,,,132.95814320002683,133.60894870013,133.60894870013,134.11013810010627,45,315,134.11013810010627,134.11013810010627,134.11013810010627,134.11013810010627,134.11013810010627,134.11013810010627,134.11013810010627,134.11013810010627,134.11013810010627,134.47643620008603,134.47643620008603,134.47643620008603,134.47643620008603,134.47643620008603,134.47643620008603,134.47643620008603,134.47643620008603,134.47643620008603,19,4,"[0.03360569989308715, 0.06696680001914501, 0.11692900001071393, 0.3171333000063896]","[0.05035789986141026, 0.08339329995214939, 0.13374600000679493, 0.33352690003812313]",134.47643620008603,134.67663370002992,0.0,134.67663370002992,0,0.0,0,1,1000,num_1,0.8133978999685496,,33,16,2026-03-12_18h38.13.351,2026A_exp2,2022.2.4,60.14878401669135,
1000,1,0.0,3.7,1,0,37,37,75,,,,,135.51074140006676,136.16157430014573,136.16157430014573,136.6459162000101,315,315,136.6459162000101,136.6459162000101,136.6459162000101,136.6459162000101,136.6459162000101,136.6459162000101,136.6459162000101,136.6459162000101,136.6459162000101,137.01235500001349,137.01235500001349,137.01235500001349,137.01235500001349,137.01235500001349,137.01235500001349,137.01235500001349,137.01235500001349,137.01235500001349,22,1,[0.3672301999758929],[0.3672346000093967],137.01235500001349,137.21485900017433,1000,137.21485900017433,1000,1000,1000,1000,1,num_2,0.778984900098294,,33,16,2026-03-12_18h38.13.351,2026A_exp2,2022.2.4,60.14878401669135,
1,0,6.1,4.9,0,0,38,38,30,,,,,138.01325930003077,138.66405000002123,138.66405000002123,139.16522260010242,45,45,139.16522260010242,139.16522260010242,139.16522260010242,139.16522260010242,139.16522260010242,139.16522260010242,139.16522260010242,139.16522260010242,139.16522260010242,139.53161160019226,139.53161160019226,139.53161160019226,139.53161160019226,139.53161160019226,139.53161160019226,139.53161160019226,139.53161160019226,139.53161160019226,22,1,[0.30243730009533465],[0.3194422998931259],139.53161160019226,139.73177130008116,6.1,139.73177130008116,1,6.1,1,1,1000,num_4,1.190532100154087,,33,16,2026-03-12_18h38.13.351,2026A_exp2,2022.2.4,60.14878401669135,
1000,1,3.7,3.7,1,0,39,39,46,,,,,140.9495942001231,141.60035220021382,141.60035220021382,142.0850165002048,315,45,142.0850165002048,142.0850165002048,142.0850165002048,142.0850165002048,142.0850165002048,142.0850165002048,142.0850165002048,142.0850165002048,142.0850165002048,142.45128150004894,142.45128150004894,142.45128150004894,142.45128150004894,142.45128150004894,142.45128150004894,142.45128150004894,142.45128150004894,142.45128150004894,23,0,,,142.45128150004894,142.65302490000613,1000,142.65302490000613,1000,1000,1000,1000,1,num_2,0.3487750000786036,,33,16,2026-03-12_18h38.13.351,2026A_exp2,2022.2.4,60.14878401669135,
1,0,0.0,3.7,1,0,40,40,12,,,,,143.01834550010972,143.669111300027,143.669111300027,144.1700593000278,315,315,144.1700593000278,144.1700593000278,144.1700593000278,144.1700593000278,144.1700593000278,144.1700593000278,144.1700593000278,144.1700593000278,144.1700593000278,144.53659999999218,144.53659999999218,144.53659999999218,144.53659999999218,144.53659999999218,144.53659999999218,144.53659999999218,144.53659999999218,144.53659999999218,0,1,[0.0012171999551355839],[0.36736010015010834],144.53659999999218,144.73676070012152,3.7,144.73676070012152,1,3.7,1,1,1000,num_4,0.7374958998989314,,33,16,2026-03-12_18h38.13.351,2026A_exp2,2022.2.4,60.14878401669135,
1,0,0.0,4.9,0,0,41,41,35,,,,,145.5040018002037,146.15456870011985,146.15456870011985,146.6392807001248,45,315,146.6392807001248,146.6392807001248,146.6392807001248,146.6392807001248,146.6392807001248,146.6392807001248,146.6392807001248,146.6392807001248,146.6392807001248,147.00576790003106,147.00576790003106,147.00576790003106,147.00576790003106,147.00576790003106,147.00576790003106,147.00576790003106,147.00576790003106,147.00576790003106,9,6,"[0.03356409980915487, 0.08356359996832907, 0.11683780001476407, 0.18365839985199273, 0.24991229991428554, 0.3170633998233825]","[0.05022869980894029, 0.10031439992599189, 0.16710520000196993, 0.2171239999588579, 0.2998287999071181, 0.3669270998798311]",147.00576790003106,147.20613870001398,0.0,147.20613870001398,0,0.0,0,1,1000,num_1,0.699624199885875,,33,16,2026-03-12_18h38.13.351,2026A_exp2,2022.2.4,60.14878401669135,
1000,1,0.0,6.1,1,0,42,42,3,,,,,147.9234798999969,148.57383370003663,148.57383370003663,149.07501610019244,45,45,149.07501610019244,149.07501610019244,149.07501610019244,149.07501610019244,149.07501610019244,149.07501610019244,149.07501610019244,149.07501610019244,149.07501610019244,149.4415266001597,149.4415266001597,149.4415266001597,149.4415266001597,149.4415266001597,149.4415266001597,149.4415266001597,149.4415266001597,149.4415266001597,23,0,,,149.4415266001597,149.64352010004222,1000,149.64352010004222,1000,1000,1000,1000,1,num_2,0.5188952998723835,,33,16,2026-03-12_18h38.13.351,2026A_exp2,2022.2.4,60.14878401669135,
1000,1,0.0,0.0,1,0,43,43,62,,,,,150.19205790013075,150.84309240011498,150.84309240011498,151.35838109999895,315,45,151.35838109999895,151.35838109999895,151.35838109999895,151.35838109999895,151.35838109999895,151.35838109999895,151.35838109999895,151.35838109999895,151.35838109999895,151.71016790019348,151.71016790019348,151.71016790019348,151.71016790019348,151.71016790019348,151.71016790019348,151.71016790019348,151.71016790019348,151.71016790019348,13,3,"[0.004071899922564626, 0.14862259989604354, 0.3641478999052197]","[0.1152915998827666, 0.1819089998025447, 0.36415339983068407]",151.71016790019348,151.9126258001197,1000,151.9126258001197,1000,1000,1000,1000,0,num_3,0.4017649001907557,,33,16,2026-03-12_18h38.13.351,2026A_exp2,2022.2.4,60.14878401669135,
1,0,0.0,0.0,1,0,44,44,53,,,,,152.34433770016767,152.994911900023,152.994911900023,153.4961034001317,45,315,153.4961034001317,153.4961034001317,153.4961034001317,153.4961034001317,153.4961034001317,153.4961034001317,153.4961034001317,153.4961034001317,153.4961034001317,153.8624722000677,153.8624722000677,153.8624722000677,153.8624722000677,153.8624722000677,153.8624722000677,153.8624722000677,153.8624722000677,153.8624722000677,0,1,[0.001292400062084198],[0.36691049998626113],153.8624722000677,154.06281510018744,0.0,154.06281510018744,1,0.0,0,0,1000,num_4,0.6987966999877244,,33,16,2026-03-12_18h38.13.351,2026A_exp2,2022.2.4,60.14878401669135,
1,0,4.9,0.0,0,0,45,45,87,,,,,154.78019350022078,155.4147153000813,155.4147153000813,155.9161039001774,315,45,155.9161039001774,155.9161039001774,155.9161039001774,155.9161039001774,155.9161039001774,155.9161039001774,155.9161039001774,155.9161039001774,155.9161039001774,156.28156480006874,156.28156480006874,156.28156480006874,156.28156480006874,156.28156480006874,156.28156480006874,156.28156480006874,156.28156480006874,156.28156480006874,16,4,"[0.051172300009056926, 0.16679159994237125, 0.2189189000055194, 0.35037260013632476]","[0.08421140001155436, 0.20020850002765656, 0.2516139999497682, 0.3666469999589026]",156.28156480006874,156.48410520004109,4.9,156.48410520004109,1,4.9,1,1,1000,num_4,0.5187433001119643,,33,16,2026-03-12_18h38.13.351,2026A_exp2,2022.2.4,60.14878401669135,
0,0,0.0,0.0,0,0,46,46,69,,,,,157.032265300164,157.6828267001547,157.6828267001547,158.18389480002224,315,45,158.18389480002224,158.18389480002224,158.18389480002224,158.18389480002224,158.18389480002224,158.18389480002224,158.18389480002224,158.18389480002224,158.18389480002224,158.55054140021093,158.55054140021093,158.55054140021093,158.55054140021093,158.55054140021093,158.55054140021093,158.55054140021093,158.55054140021093,158.55054140021093,0,1,[0.0008902000263333321],[0.36722579994238913],158.55054140021093,158.75051160017028,0.0,158.75051160017028,1,0.0,0,0,1000,num_4,1.00322820013389,,33,16,2026-03-12_18h38.13.351,2026A_exp2,2022.2.4,60.14878401669135,
1000,1,6.1,0.0,1,0,47,47,52,,,,,159.7880103001371,160.41892570001073,160.41892570001073,160.92014629999176,45,45,160.92014629999176,160.92014629999176,160.92014629999176,160.92014629999176,160.92014629999176,160.92014629999176,160.92014629999176,160.92014629999176,160.92014629999176,161.28663920005783,161.28663920005783,161.28663920005783,161.28663920005783,161.28663920005783,161.28663920005783,161.28663920005783,161.28663920005783,161.28663920005783,7,3,"[0.0014722999185323715, 0.23370900005102158, 0.3340032999403775]","[0.2003633000422269, 0.2502067999448627, 0.36726379999890924]",161.28663920005783,161.49224769999273,1000,161.49224769999273,1000,1000,1000,1000,0,num_3,0.4931361998897046,,33,16,2026-03-12_18h38.13.351,2026A_exp2,2022.2.4,60.14878401669135,
0,0,3.7,6.1,1,0,48,48,17,,,,,162.0039829001762,162.6547197001055,162.6547197001055,163.15572210005485,315,45,163.15572210005485,163.15572210005485,163.15572210005485,163.15572210005485,163.15572210005485,163.15572210005485,163.15572210005485,163.15572210005485,163.15572210005485,163.52219910011627,163.52219910011627,163.52219910011627,163.52219910011627,163.52219910011627,163.52219910011627,163.52219910011627,163.52219910011627,163.52219910011627,0,1,[0.0012057998683303595],[0.36715629999525845],163.52219910011627,163.72246190020815,3.7,163.72246190020815,0,3.7,1,0,1000,num_1,0.5993968001566827,,33,16,2026-03-12_18h38.13.351,2026A_exp2,2022.2.4,60.14878401669135,
1,0,0.0,0.0,1,0,49,49,82,,,,,164.3395393001847,164.99032220011577,164.99032220011577,165.4747144000139,315,315,165.4747144000139,165.4747144000139,165.4747144000139,165.4747144000139,165.4747144000139,165.4747144000139,165.4747144000139,165.4747144000139,165.4747144000139,165.84107980015688,165.84107980015688,165.84107980015688,165.84107980015688,165.84107980015688,165.84107980015688,165.84107980015688,165.84107980015688,165.84107980015688,4,3,"[0.017443699995055795, 0.06695930007845163, 0.11700289999134839]","[0.033704200061038136, 0.10037620016373694, 0.3673718001227826]",165.84107980015688,166.04133310006,0.0,166.04133310006,0,0.0,0,1,1000,num_1,0.6010706999804825,,33,16,2026-03-12_18h38.13.351,2026A_exp2,2022.2.4,60.14878401669135,
1,0,0.0,3.7,1,0,50,50,10,,,,,166.6586329001002,167.30947000021115,167.30947000021115,167.79371620016173,315,45,167.79371620016173,167.79371620016173,167.79371620016173,167.79371620016173,167.79371620016173,167.79371620016173,167.79371620016173,167.79371620016173,167.79371620016173,168.16016030008905,168.16016030008905,168.16016030008905,168.16016030008905,168.16016030008905,168.16016030008905,168.16016030008905,168.16016030008905,168.16016030008905,0,1,[0.0010673000942915678],[0.3654815999325365],168.16016030008905,168.36036840011366,3.7,168.36036840011366,1,3.7,1,1,1000,num_4,0.5692018999252468,,33,16,2026-03-12_18h38.13.351,2026A_exp2,2022.2.4,60.14878401669135,
1,0,4.9,0.0,1,0,51,51,48,,,,,168.96076720021665,169.621106200153,169.621106200153,170.09612200013362,45,45,170.09612200013362,170.09612200013362,170.09612200013362,170.09612200013362,170.09612200013362,170.09612200013362,170.09612200013362,170.09612200013362,170.09612200013362,170.4627437000163,170.4627437000163,170.4627437000163,170.4627437000163,170.4627437000163,170.4627437000163,170.4627437000163,170.4627437000163,170.4627437000163,0,1,[0.0010567998979240656],[0.36866809986531734],170.4627437000163,170.66628920007497,0.0,170.66628920007497,0,0.0,0,1,1000,num_1,0.5525789000093937,,33,16,2026-03-12_18h38.13.351,2026A_exp2,2022.2.4,60.14878401669135,
1,0,0.0,3.7,0,0,52,52,1,,,,,171.24658260005526,171.89721730002202,171.89721730002202,172.38172290008515,315,45,172.38172290008515,172.38172290008515,172.38172290008515,172.38172290008515,172.38172290008515,172.38172290008515,172.38172290008515,172.38172290008515,172.38172290008515,172.7481605000794,172.7481605000794,172.7481605000794,172.7481605000794,172.7481605000794,172.7481605000794,172.7481605000794,172.7481605000794,172.7481605000794,0,1,[0.0012408001348376274],[0.367183200083673],172.7481605000794,172.9482548001688,0.0,172.9482548001688,0,0.0,0,1,1000,num_1,0.5817229000385851,,33,16,2026-03-12_18h38.13.351,2026A_exp2,2022.2.4,60.14878401669135,
1000,1,0.0,6.1,0,0,53,53,83,,,,,173.54879570007324,174.18307360005565,174.18307360005565,174.6986977001652,45,45,174.6986977001652,174.6986977001652,174.6986977001652,174.6986977001652,174.6986977001652,174.6986977001652,174.6986977001652,174.6986977001652,174.6986977001652,175.0505818000529,175.0505818000529,175.0505818000529,175.0505818000529,175.0505818000529,175.0505818000529,175.0505818000529,175.0505818000529,175.0505818000529,0,1,[0.004267700016498566],[0.3642341000959277],175.0505818000529,175.25069400016218,1000,175.25069400016218,1000,1000,1000,1000,1,num_2,0.43099260004237294,,33,16,2026-03-12_18h38.13.351,2026A_exp2,2022.2.4,60.14878401669135,
1,0,0.0,3.7,0,0,54,54,22,,,,,175.7009277001489,176.35173600004055,176.35173600004055,176.8527307000477,315,315,176.8527307000477,176.8527307000477,176.8527307000477,176.8527307000477,176.8527307000477,176.8527307000477,176.8527307000477,176.8527307000477,176.8527307000477,177.21898720017634,177.21898720017634,177.21898720017634,177.21898720017634,177.21898720017634,177.21898720017634,177.21898720017634,177.21898720017634,177.21898720017634,0,1,[0.0012040999718010426],[0.36730220005847514],177.21898720017634,177.41914950008504,0.0,177.41914950008504,0,0.0,0,1,1000,num_1,0.4470293999183923,,33,16,2026-03-12_18h38.13.351,2026A_exp2,2022.2.4,60.14878401669135,
1000,1,3.7,3.7,0,0,55,55,16,,,,,177.8864414000418,178.52065950003453,178.52065950003453,179.03806110005826,45,315,179.03806110005826,179.03806110005826,179.03806110005826,179.03806110005826,179.03806110005826,179.03806110005826,179.03806110005826,179.03806110005826,179.03806110005826,179.38808480021544,179.38808480021544,179.38808480021544,179.38808480021544,179.38808480021544,179.38808480021544,179.38808480021544,179.38808480021544,179.38808480021544,0,1,[0.000731100095435977],[0.35071519995108247],179.38808480021544,179.58860790007748,1000,179.58860790007748,1000,1000,1000,1000,0,num_3,0.36533619998954237,,33,16,2026-03-12_18h38.13.351,2026A_exp2,2022.2.4,60.14878401669135,
1000,1,0.0,0.0,1,0,56,56,71,,,,,179.97192370006815,180.6225411000196,180.6225411000196,181.12367730005644,315,315,181.12367730005644,181.12367730005644,181.12367730005644,181.12367730005644,181.12367730005644,181.12367730005644,181.12367730005644,181.12367730005644,181.12367730005644,181.49024180020206,181.49024180020206,181.49024180020206,181.49024180020206,181.49024180020206,181.49024180020206,181.49024180020206,181.49024180020206,181.49024180020206,1,1,[0.0012012999504804611],[0.3672547999303788],181.49024180020206,181.69211550010368,1000,181.69211550010368,1000,1000,1000,1000,0,num_3,0.4373503001406789,,33,16,2026-03-12_18h38.13.351,2026A_exp2,2022.2.4,60.14878401669135,
1000,1,0.0,0.0,0,0,57,57,47,,,,,182.15761850005947,182.80806260020472,182.80806260020472,183.29257200006396,315,45,183.29257200006396,183.29257200006396,183.29257200006396,183.29257200006396,183.29257200006396,183.29257200006396,183.29257200006396,183.29257200006396,183.29257200006396,183.65884930011816,183.65884930011816,183.65884930011816,183.65884930011816,183.65884930011816,183.65884930011816,183.65884930011816,183.65884930011816,183.65884930011816,0,1,[0.0012676999904215336],[0.3672770999837667],183.65884930011816,183.86111770011485,1000,183.86111770011485,1000,1000,1000,1000,1,num_2,0.35706150019541383,,33,16,2026-03-12_18h38.13.351,2026A_exp2,2022.2.4,60.14878401669135,
1000,1,0.0,0.0,1,0,58,58,39,,,,,184.24291520006955,184.89347220002674,184.89347220002674,185.39468360017054,45,315,185.39468360017054,185.39468360017054,185.39468360017054,185.39468360017054,185.39468360017054,185.39468360017054,185.39468360017054,185.39468360017054,185.39468360017054,185.76110000000335,185.76110000000335,185.76110000000335,185.76110000000335,185.76110000000335,185.76110000000335,185.76110000000335,185.76110000000335,185.76110000000335,1,2,"[0.0012948999647051096, 0.2171859999652952]","[0.20027839997783303, 0.3670801999978721]",185.76110000000335,185.96291400003247,1000,185.96291400003247,1000,1000,1000,1000,0,num_3,0.5511702999938279,,33,16,2026-03-12_18h38.13.351,2026A_exp2,2022.2.4,60.14878401669135,
1,0,6.1,6.1,0,0,59,59,51,,,,,186.54537560022436,187.19586500013247,187.19586500013247,187.6968041001819,315,45,187.6968041001819,187.6968041001819,187.6968041001819,187.6968041001819,187.6968041001819,187.6968041001819,187.6968041001819,187.6968041001819,187.6968041001819,188.04678440000862,188.04678440000862,188.04678440000862,188.04678440000862,188.04678440000862,188.04678440000862,188.04678440000862,188.04678440000862,188.04678440000862,7,3,"[0.0669399001635611, 0.116948600159958, 0.16691919998265803]","[0.08358550001867115, 0.15041580004617572, 0.3504697000607848]",188.04678440000862,188.24687720020302,6.1,188.24687720020302,0,6.1,1,0,1000,num_1,0.5793556999415159,,33,16,2026-03-12_18h38.13.351,2026A_exp2,2022.2.4,60.14878401669135,
1000,1,3.7,6.1,0,0,60,60,81,,,,,188.84727870021015,189.49818690004759,189.49818690004759,189.98267560009845,315,315,189.98267560009845,189.98267560009845,189.98267560009845,189.98267560009845,189.98267560009845,189.98267560009845,189.98267560009845,189.98267560009845,189.98267560009845,190.34908740012906,190.34908740012906,190.34908740012906,190.34908740012906,190.34908740012906,190.34908740012906,190.34908740012906,190.34908740012906,190.34908740012906,0,1,[0.0012921998277306557],[0.36694670002907515],190.34908740012906,190.55101630021818,1000,190.55101630021818,1000,1000,1000,1000,1,num_2,0.45053290016949177,,33,16,2026-03-12_18h38.13.351,2026A_exp2,2022.2.4,60.14878401669135,
1000,1,3.7,0.0,1,0,61,61,21,,,,,191.03350140014663,191.6838083001785,191.6838083001785,192.16815670020878,315,315,192.16815670020878,192.16815670020878,192.16815670020878,192.16815670020878,192.16815670020878,192.16815670020878,192.16815670020878,192.16815670020878,192.16815670020878,192.53466170001775,192.53466170001775,192.53466170001775,192.53466170001775,192.53466170001775,192.53466170001775,192.53466170001775,192.53466170001775,192.53466170001775,5,4,"[0.0012465999461710453, 0.20033519994467497, 0.2667527999728918, 0.34980099997483194]","[0.18357730004936457, 0.23362480010837317, 0.3166926000267267, 0.36702550016343594]",192.53466170001775,192.73684620019048,1000,192.73684620019048,1000,1000,1000,1000,0,num_3,0.39275409979745746,,33,16,2026-03-12_18h38.13.351,2026A_exp2,2022.2.4,60.14878401669135,
1000,1,4.9,0.0,0,0,62,62,78,,,,,193.1519663000945,193.80225920001976,193.80225920001976,194.3034912000876,45,45,194.3034912000876,194.3034912000876,194.3034912000876,194.3034912000876,194.3034912000876,194.3034912000876,194.3034912000876,194.3034912000876,194.3034912000876,194.66975070000626,194.66975070000626,194.66975070000626,194.66975070000626,194.66975070000626,194.66975070000626,194.66975070000626,194.66975070000626,194.66975070000626,0,1,[0.0012799000833183527],[0.3664388000033796],194.66975070000626,194.87040050001815,1000,194.87040050001815,1000,1000,1000,1000,0,num_3,0.4589543000329286,,33,16,2026-03-12_18h38.13.351,2026A_exp2,2022.2.4,60.14878401669135,
1000,1,0.0,4.9,0,0,63,63,9,,,,,195.35391629999503,196.0047213002108,196.0047213002108,196.50594669999555,315,315,196.50594669999555,196.50594669999555,196.50594669999555,196.50594669999555,196.50594669999555,196.50594669999555,196.50594669999555,196.50594669999555,196.50594669999555,196.87222380004823,196.87222380004823,196.87222380004823,196.87222380004823,196.87222380004823,196.87222380004823,196.87222380004823,196.87222380004823,196.87222380004823,0,1,[0.0015284998808056116],[0.3667526999488473],196.87222380004823,197.07406500005163,1000,197.07406500005163,1000,1000,1000,1000,1,num_2,0.3681768998503685,,33,16,2026-03-12_18h38.13.351,2026A_exp2,2022.2.4,60.14878401669135,
1,0,6.1,6.1,0,0,64,64,11,,,,,197.47269370011054,198.12357250018977,198.12357250018977,198.624659600202,45,315,198.624659600202,198.624659600202,198.624659600202,198.624659600202,198.624659600202,198.624659600202,198.624659600202,198.624659600202,198.624659600202,198.97438870021142,198.97438870021142,198.97438870021142,198.97438870021142,198.97438870021142,198.97438870021142,198.97438870021142,198.97438870021142,198.97438870021142,0,1,[0.0010627000592648983],[0.3508686001878232],198.97438870021142,199.1746121000033,6.1,199.1746121000033,1,6.1,1,1,1000,num_4,0.6918538000900298,,33,16,2026-03-12_18h38.13.351,2026A_exp2,2022.2.4,60.14878401669135,
1,0,0.0,4.9,1,0,65,65,65,,,,,199.89184710010886,200.5425057001412,200.5425057001412,201.0270698000677,315,315,201.0270698000677,201.0270698000677,201.0270698000677,201.0270698000677,201.0270698000677,201.0270698000677,201.0270698000677,201.0270698000677,201.0270698000677,201.3934457001742,201.3934457001742,201.3934457001742,201.3934457001742,201.3934457001742,201.3934457001742,201.3934457001742,201.3934457001742,201.3934457001742,5,4,"[0.001315099885687232, 0.15024459990672767, 0.21699379989877343, 0.36711979983374476]","[0.13359529990702868, 0.20045269979164004, 0.317223799880594, 0.3671242999844253]",201.3934457001742,201.59350730013102,4.9,201.59350730013102,1,4.9,1,1,1000,num_4,0.5680867999326438,,33,16,2026-03-12_18h38.13.351,2026A_exp2,2022.2.4,60.14878401669135,
1000,1,6.1,6.1,0,0,66,66,74,,,,,202.17765560001135,202.81152090011165,202.81152090011165,203.31250970019028,315,315,203.31250970019028,203.31250970019028,203.31250970019028,203.31250970019028,203.31250970019028,203.31250970019028,203.31250970019028,203.31250970019028,203.31250970019028,203.678980700206,203.678980700206,203.678980700206,203.678980700206,203.678980700206,203.678980700206,203.678980700206,203.678980700206,203.678980700206,8,3,"[0.0012691000010818243, 0.31689590006135404, 0.3501456999219954]","[0.21677000005729496, 0.33359950012527406, 0.3668899000622332]",203.678980700206,203.880863300059,1000,203.880863300059,1000,1000,1000,1000,0,num_3,0.49698609998449683,,33,16,2026-03-12_18h38.13.351,2026A_exp2,2022.2.4,60.14878401669135,
1000,1,6.1,6.1,0,0,67,67,50,,,,,204.39629110018723,205.04714970011264,205.04714970011264,205.54812380019575,315,315,205.54812380019575,205.54812380019575,205.54812380019575,205.54812380019575,205.54812380019575,205.54812380019575,205.54812380019575,205.54812380019575,205.54812380019575,205.91466840007342,205.91466840007342,205.91466840007342,205.91466840007342,205.91466840007342,205.91466840007342,205.91466840007342,205.91466840007342,205.91466840007342,0,1,[0.0012006000615656376],[0.36724029993638396],205.91466840007342,206.11673690006137,1000,206.11673690006137,1000,1000,1000,1000,1,num_2,0.501493499847129,,33,16,2026-03-12_18h38.13.351,2026A_exp2,2022.2.4,60.14878401669135,
1,0,0.0,4.9,1,0,68,68,36,,,,,206.6487266002223,207.30023030005395,207.30023030005395,207.80034160008654,45,45,207.80034160008654,207.80034160008654,207.80034160008654,207.80034160008654,207.80034160008654,207.80034160008654,207.80034160008654,207.80034160008654,207.80034160008654,208.16701550013386,208.16701550013386,208.16701550013386,208.16701550013386,208.16701550013386,208.16701550013386,208.16701550013386,208.16701550013386,208.16701550013386,1,2,"[0.000798800028860569, 0.11698659998364747]","[0.10061449999921024, 0.36771450005471706]",208.16701550013386,208.36721220007166,4.9,208.36721220007166,1,4.9,1,1,1000,num_4,0.5383586999960244,,33,16,2026-03-12_18h38.13.351,2026A_exp2,2022.2.4,60.14878401669135,
1000,1,6.1,0.0,0,0,69,69,68,,,,,208.93413619999774,209.58498640009202,209.58498640009202,210.06936550000682,315,315,210.06936550000682,210.06936550000682,210.06936550000682,210.06936550000682,210.06936550000682,210.06936550000682,210.06936550000682,210.06936550000682,210.06936550000682,210.4359792000614,210.4359792000614,210.4359792000614,210.4359792000614,210.4359792000614,210.4359792000614,210.4359792000614,210.4359792000614,210.4359792000614,0,1,[0.0011744999792426825],[0.36692290008068085],210.4359792000614,210.6379123001825,1000,210.6379123001825,1000,1000,1000,1000,0,num_3,0.44435560004785657,,33,16,2026-03-12_18h38.13.351,2026A_exp2,2022.2.4,60.14878401669135,
1,0,0.0,6.1,0,0,70,70,57,,,,,211.1029369002208,211.75372040015645,211.75372040015645,212.25485690007918,45,315,212.25485690007918,212.25485690007918,212.25485690007918,212.25485690007918,212.25485690007918,212.25485690007918,212.25485690007918,212.25485690007918,212.25485690007918,212.62115310016088,212.62115310016088,212.62115310016088,212.62115310016088,212.62115310016088,212.62115310016088,212.62115310016088,212.62115310016088,212.62115310016088,18,1,[0.23327259998768568],[0.3166826998349279],212.62115310016088,212.82155250012875,0.0,212.82155250012875,0,0.0,0,1,1000,num_1,0.5487436999101192,,33,16,2026-03-12_18h38.13.351,2026A_exp2,2022.2.4,60.14878401669135,
1000,1,3.7,0.0,1,0,71,71,33,,,,,213.388622000115,214.0392467000056,214.0392467000056,214.5403466001153,315,45,214.5403466001153,214.5403466001153,214.5403466001153,214.5403466001153,214.5403466001153,214.5403466001153,214.5403466001153,214.5403466001153,214.5403466001153,214.89027329999954,214.89027329999954,214.89027329999954,214.89027329999954,214.89027329999954,214.89027329999954,214.89027329999954,214.89027329999954,214.89027329999954,0,1,[0.0012203000951558352],[0.35045900009572506],214.89027329999954,215.09231010009535,1000,215.09231010009535,1000,1000,1000,1000,0,num_3,0.5584944000001997,,33,16,2026-03-12_18h38.13.351,2026A_exp2,2022.2.4,60.14878401669135,
1000,1,3.7,4.9,0,0,72,72,13,,,,,215.6744214000646,216.32497660000809,216.32497660000809,216.82604790013283,315,45,216.82604790013283,216.82604790013283,216.82604790013283,216.82604790013283,216.82604790013283,216.82604790013283,216.82604790013283,216.82604790013283,216.82604790013283,217.1926037000958,217.1926037000958,217.1926037000958,217.1926037000958,217.1926037000958,217.1926037000958,217.1926037000958,217.1926037000958,217.1926037000958,5,2,"[0.017135899979621172, 0.16679790010675788]","[0.10014720004983246, 0.367302100174129]",217.1926037000958,217.3927313000895,1000,217.3927313000895,1000,1000,1000,1000,1,num_2,0.4741233999375254,,33,16,2026-03-12_18h38.13.351,2026A_exp2,2022.2.4,60.14878401669135,
1000,1,6.1,0.0,0,0,73,73,80,,,,,217.89317420008592,218.5439504000824,218.5439504000824,219.04509200016037,315,315,219.04509200016037,219.04509200016037,219.04509200016037,219.04509200016037,219.04509200016037,219.04509200016037,219.04509200016037,219.04509200016037,219.04509200016037,219.4115899000317,219.4115899000317,219.4115899000317,219.4115899000317,219.4115899000317,219.4115899000317,219.4115899000317,219.4115899000317,219.4115899000317,23,0,,,219.4115899000317,219.61330190021545,1000,219.61330190021545,1000,1000,1000,1000,0,num_3,0.5007302002049983,,33,16,2026-03-12_18h38.13.351,2026A_exp2,2022.2.4,60.14878401669135,
1000,1,6.1,3.7,0,0,74,74,61,,,,,220.14550780015998,220.79629319999367,220.79629319999367,221.2971226000227,315,45,221.2971226000227,221.2971226000227,221.2971226000227,221.2971226000227,221.2971226000227,221.2971226000227,221.2971226000227,221.2971226000227,221.2971226000227,221.64704800001346,221.64704800001346,221.64704800001346,221.64704800001346,221.64704800001346,221.64704800001346,221.64704800001346,221.64704800001346,221.64704800001346,2,2,"[0.0012417000252753496, 0.06677919998764992]","[0.03325160010717809, 0.35023820004425943]",221.64704800001346,221.84881890006363,1000,221.84881890006363,1000,1000,1000,1000,0,num_3,0.5928092999383807,,33,16,2026-03-12_18h38.13.351,2026A_exp2,2022.2.4,60.14878401669135,
1000,1,6.1,3.7,1,0,75,75,45,,,,,222.46442760014907,223.11516460007988,223.11516460007988,223.61625120020472,315,45,223.61625120020472,223.61625120020472,223.61625120020472,223.61625120020472,223.61625120020472,223.61625120020472,223.61625120020472,223.61625120020472,223.61625120020472,223.98258760012686,223.98258760012686,223.98258760012686,223.98258760012686,223.98258760012686,223.98258760012686,223.98258760012686,223.98258760012686,223.98258760012686,23,0,,,223.98258760012686,224.18472770019434,1000,224.18472770019434,1000,1000,1000,1000,1,num_2,0.5458774999715388,,33,16,2026-03-12_18h38.13.351,2026A_exp2,2022.2.4,60.14878401669135,
1,0,0.0,3.7,0,0,76,76,2,,,,,224.74998160009272,225.4007888000924,225.4007888000924,225.9017872000113,315,315,225.9017872000113,225.9017872000113,225.9017872000113,225.9017872000113,225.9017872000113,225.9017872000113,225.9017872000113,225.9017872000113,225.9017872000113,226.26810350012966,226.26810350012966,226.26810350012966,226.26810350012966,226.26810350012966,226.26810350012966,226.26810350012966,226.26810350012966,226.26810350012966,4,2,"[0.0012072999961674213, 0.1336020000744611]","[0.11711700004525483, 0.31720630009658635]",226.26810350012966,226.4684315000195,0.0,226.4684315000195,1,0.0,0,0,1000,num_4,2.549487099982798,,33,16,2026-03-12_18h38.13.351,2026A_exp2,2022.2.4,60.14878401669135,
1000,1,4.9,6.1,1,0,77,77,18,,,,,229.03747110022232,229.68842020002194,229.68842020002194,230.1728913001716,315,315,230.1728913001716,230.1728913001716,230.1728913001716,230.1728913001716,230.1728913001716,230.1728913001716,230.1728913001716,230.1728913001716,230.1728913001716,230.53909420012496,230.53909420012496,230.53909420012496,230.53909420012496,230.53909420012496,230.53909420012496,230.53909420012496,230.53909420012496,230.53909420012496,23,0,,,230.53909420012496,230.74133210000582,1000,230.74133210000582,1000,1000,1000,1000,1,num_2,0.5806873000692576,,33,16,2026-03-12_18h38.13.351,2026A_exp2,2022.2.4,60.14878401669135,
1,0,6.1,0.0,0,0,78,78,24,,,,,231.33994350000285,231.99077870021574,231.99077870021574,232.49189970013686,315,45,232.49189970013686,232.49189970013686,232.49189970013686,232.49189970013686,232.49189970013686,232.49189970013686,232.49189970013686,232.49189970013686,232.49189970013686,232.85827150009573,232.85827150009573,232.85827150009573,232.85827150009573,232.85827150009573,232.85827150009573,232.85827150009573,232.85827150009573,232.85827150009573,13,6,"[0.017447900027036667, 0.08366310014389455, 0.13370050000958145, 0.233635000186041, 0.28361230017617345, 0.35052490001544356]","[0.066867999965325, 0.10030660009942949, 0.1503090001642704, 0.2672059000469744, 0.3002312001772225, 0.3671440000180155]",232.85827150009573,233.05827000015415,6.1,233.05827000015415,1,6.1,1,1,1000,num_4,0.5925406001042575,,33,16,2026-03-12_18h38.13.351,2026A_exp2,2022.2.4,60.14878401669135,
1,0,0.0,6.1,0,0,79,79,72,,,,,233.67590920021757,234.32624680013396,234.32624680013396,234.810853500152,315,45,234.810853500152,234.810853500152,234.810853500152,234.810853500152,234.810853500152,234.810853500152,234.810853500152,234.810853500152,234.810853500152,235.177270000102,235.177270000102,235.177270000102,235.177270000102,235.177270000102,235.177270000102,235.177270000102,235.177270000102,235.177270000102,1,2,"[0.0012020000722259283, 0.283781599951908]","[0.26717590005137026, 0.3671180000528693]",235.177270000102,235.3773195000831,0.0,235.3773195000831,0,0.0,0,1,1000,num_1,0.6324138001073152,,33,16,2026-03-12_18h38.13.351,2026A_exp2,2022.2.4,60.14878401669135,
1000,1,4.9,4.9,0,0,80,80,34,,,,,236.0280113001354,236.67882800009102,236.67882800009102,237.17955890018493,45,45,237.17955890018493,237.17955890018493,237.17955890018493,237.17955890018493,237.17955890018493,237.17955890018493,237.17955890018493,237.17955890018493,237.17955890018493,237.52958610001951,237.52958610001951,237.52958610001951,237.52958610001951,237.52958610001951,237.52958610001951,237.52958610001951,237.52958610001951,237.52958610001951,2,1,[0.0008152001537382603],[0.33385210018604994],237.52958610001951,237.72955020004883,1000,237.72955020004883,1000,1000,1000,1000,0,num_3,0.44828850007615983,,33,16,2026-03-12_18h38.13.351,2026A_exp2,2022.2.4,60.14878401669135,
1000,1,0.0,0.0,0,0,81,81,41,,,,,238.19692450016737,238.84754030010663,238.84754030010663,239.34858780005015,45,315,239.34858780005015,239.34858780005015,239.34858780005015,239.34858780005015,239.34858780005015,239.34858780005015,239.34858780005015,239.34858780005015,239.34858780005015,239.715106200194,239.715106200194,239.715106200194,239.715106200194,239.715106200194,239.715106200194,239.715106200194,239.715106200194,239.715106200194,15,3,"[0.10047199996188283, 0.18401619978249073, 0.23396579991094768]","[0.15058479993604124, 0.21730659995228052, 0.28393889986909926]",239.715106200194,239.9165406001266,1000,239.9165406001266,1000,1000,1000,1000,1,num_2,0.7171946000307798,,33,16,2026-03-12_18h38.13.351,2026A_exp2,2022.2.4,60.14878401669135,
1,0,3.7,4.9,0,0,82,82,31,,,,,240.6494272002019,241.30022249999456,241.30022249999456,241.80103680002503,315,315,241.80103680002503,241.80103680002503,241.80103680002503,241.80103680002503,241.80103680002503,241.80103680002503,241.80103680002503,241.80103680002503,241.80103680002503,242.16749990009703,242.16749990009703,242.16749990009703,242.16749990009703,242.16749990009703,242.16749990009703,242.16749990009703,242.16749990009703,242.16749990009703,7,3,"[0.0011003999970853329, 0.10051469993777573, 0.1503228999208659]","[0.017421199940145016, 0.11700810003094375, 0.3672604998573661]",242.16749990009703,242.3676861000713,3.7,242.3676861000713,0,3.7,1,0,1000,num_1,0.5466860001906753,,33,16,2026-03-12_18h38.13.351,2026A_exp2,2022.2.4,60.14878401669135,
1000,1,3.7,3.7,1,0,83,83,88,,,,,242.93498590006493,243.58570590009913,243.58570590009913,244.06992350006476,315,315,244.06992350006476,244.06992350006476,244.06992350006476,244.06992350006476,244.06992350006476,244.06992350006476,244.06992350006476,244.06992350006476,244.06992350006476,244.43636460020207,244.43636460020207,244.43636460020207,244.43636460020207,244.43636460020207,244.43636460020207,244.43636460020207,244.43636460020207,244.43636460020207,7,4,"[0.001223200000822544, 0.03344829985871911, 0.15020149992778897, 0.3170161999296397]","[0.01705599995329976, 0.13338959985412657, 0.2834669998846948, 0.3335619999561459]",244.43636460020207,244.63850640016608,1000,244.63850640016608,1000,1000,1000,1000,1,num_2,0.49102429999038577,,33,16,2026-03-12_18h38.13.351,2026A_exp2,2022.2.4,60.14878401669135,
0,0,0.0,0.0,0,0,84,84,4,,,,,245.15400940016843,245.8045342999976,245.8045342999976,246.31086810003035,315,315,246.31086810003035,246.31086810003035,246.31086810003035,246.31086810003035,246.31086810003035,246.31086810003035,246.31086810003035,246.31086810003035,246.31086810003035,246.6720018000342,246.6720018000342,246.6720018000342,246.6720018000342,246.6720018000342,246.6720018000342,246.6720018000342,246.6720018000342,246.6720018000342,7,4,"[0.0025402000173926353, 0.049092400120571256, 0.13252660003490746, 0.21585989999584854]","[0.022520400118082762, 0.11572470003739, 0.14919900009408593, 0.3659739000722766]",246.6720018000342,246.87227160017937,0.0,246.87227160017937,0,0.0,0,1,1000,num_1,0.6905948000494391,,33,16,2026-03-12_18h38.13.351,2026A_exp2,2022.2.4,60.14878401669135,
1000,1,0.0,0.0,1,0,85,85,70,,,,,247.5896293001715,248.24031360005029,248.24031360005029,248.72469470021315,45,315,248.72469470021315,248.72469470021315,248.72469470021315,248.72469470021315,248.72469470021315,248.72469470021315,248.72469470021315,248.72469470021315,248.72469470021315,249.09110510000028,249.09110510000028,249.09110510000028,249.09110510000028,249.09110510000028,249.09110510000028,249.09110510000028,249.09110510000028,249.09110510000028,23,0,,,249.09110510000028,249.29334030020982,1000,249.29334030020982,1000,1000,1000,1000,1,num_2,0.5001316999550909,,33,16,2026-03-12_18h38.13.351,2026A_exp2,2022.2.4,60.14878401669135,
1000,1,6.1,0.0,1,0,86,86,79,,,,,249.8254138000775,250.47586530004628,250.47586530004628,250.96025140001439,45,315,250.96025140001439,250.96025140001439,250.96025140001439,250.96025140001439,250.96025140001439,250.96025140001439,250.96025140001439,250.96025140001439,250.96025140001439,251.32666740007699,251.32666740007699,251.32666740007699,251.32666740007699,251.32666740007699,251.32666740007699,251.32666740007699,251.32666740007699,251.32666740007699,15,4,"[0.0013505998067557812, 0.06692119990475476, 0.16696619987487793, 0.3004359998740256]","[0.03344209981150925, 0.11689169984310865, 0.1838273999746889, 0.3338083999697119]",251.32666740007699,251.52902840008028,1000,251.52902840008028,1000,1000,1000,1000,0,num_3,0.5048410999588668,,33,16,2026-03-12_18h38.13.351,2026A_exp2,2022.2.4,60.14878401669135,
1000,1,6.1,4.9,1,0,87,87,76,,,,,252.06085850019008,252.71133510000072,252.71133510000072,253.2124741000589,315,45,253.2124741000589,253.2124741000589,253.2124741000589,253.2124741000589,253.2124741000589,253.2124741000589,253.2124741000589,253.2124741000589,253.2124741000589,253.57889600005,253.57889600005,253.57889600005,253.57889600005,253.57889600005,253.57889600005,253.57889600005,253.57889600005,253.57889600005,0,1,[0.0007865999359637499],[0.36706770001910627],253.57889600005,253.7804543999955,1000,253.7804543999955,1000,1000,1000,1000,0,num_3,0.39698210009373724,,33,16,2026-03-12_18h38.13.351,2026A_exp2,2022.2.4,60.14878401669135,
1000,1,3.7,0.0,1,0,88,88,44,,,,,254.19636200019158,254.84649730008096,254.84649730008096,255.3479603000451,315,45,255.3479603000451,255.3479603000451,255.3479603000451,255.3479603000451,255.3479603000451,255.3479603000451,255.3479603000451,255.3479603000451,255.3479603000451,255.7144886001479,255.7144886001479,255.7144886001479,255.7144886001479,255.7144886001479,255.7144886001479,255.7144886001479,255.7144886001479,255.7144886001479,2,2,"[0.0012165000662207603, 0.30054010008461773]","[0.2671546000055969, 0.36721640010364354]",255.7144886001479,255.91643990017474,1000,255.91643990017474,1000,1000,1000,1000,1,num_2,0.5505770000163466,,33,16,2026-03-12_18h38.13.351,2026A_exp2,2022.2.4,60.14878401669135,
0,0,3.7,3.7,0,0,89,89,63,,,,,256.4986017001793,257.1492320999969,257.1492320999969,257.6503416001797,315,315,257.6503416001797,257.6503416001797,257.6503416001797,257.6503416001797,257.6503416001797,257.6503416001797,257.6503416001797,257.6503416001797,257.6503416001797,258.00000140001066,258.00000140001066,258.00000140001066,258.00000140001066,258.00000140001066,258.00000140001066,258.00000140001066,258.00000140001066,258.00000140001066,12,4,"[0.11662910017184913, 0.2004051001276821, 0.28413949999958277, 0.3340041001792997]","[0.16648990008980036, 0.25059349997900426, 0.3005218000616878, 0.35076649999246]",258.00000140001066,258.20018810010515,3.7,258.216854600003,0,3.7,1,0,1000,num_1,0.6494692000560462,,33,16,2026-03-12_18h38.13.351,2026A_exp2,2022.2.4,60.14878401669135,
,,,,,,,,,,,,,,,,,,,,,,,,,,,,,,,,,,,,,,,,,,,,,,,,,,,,258.8928072000854,,,,,,,
