validity,detectorcomp,contrastCW,contrastCCW,precueCWorCCW,block_80trials.thisRepN,block_80trials.thisTrialN,block_80trials.thisN,block_80trials.thisIndex,etRecord.started,etRecord.stopped,text.started,text.stopped,text_4.started,text_4.stopped,text_6.started,text_6.stopped,oriCW,oriCCW,roi_2.started,grating_UR.started,grating_UL.started,grating_LR.started,grating_LL.started,noise_UR.started,noise_UL.started,noise_LR.started,noise_LL.started,roi_2.stopped,grating_UR.stopped,grating_UL.stopped,grating_LR.stopped,grating_LL.stopped,noise_UR.stopped,noise_UL.stopped,noise_LR.stopped,noise_LL.stopped,outframe,roi_2.numLooks,roi_2.timesOn,roi_2.timesOff,text_2.started,text_2.stopped,probedcontrast,key_resp.started,respdetect,relevantContrast,correctDetect,TorFdetect,respCWorCCW,key_resp.keys,key_resp.rt,feedback_display_.started,participantNo,blockNo,date,expName,psychopyVersion,frameRate,
1000,1,0.0,3.7,1,0,0,0,43,8.74000252224505e-05,8.74000252224505e-05,48.517367899999954,50.52102550002746,50.52102550002746,51.15452500001993,51.15452500001993,51.67430240003159,45,45,51.67430240003159,51.67430240003159,51.67430240003159,51.67430240003159,51.67430240003159,51.67430240003159,51.67430240003159,51.67430240003159,51.67430240003159,52.02209899999434,52.02209899999434,52.02209899999434,52.02209899999434,52.02209899999434,52.02209899999434,52.02209899999434,52.02209899999434,52.02209899999434,0,1,[0.0009538999875076115],[0.3677107999683358],52.02209899999434,52.225368899991736,1000,52.225368899991736,1000,1000,1000,1000,1,num_2,0.821919700014405,,24,16,2026-03-04_16h35.15.118,2026A_exp2,2022.2.4,59.91019463187081,
1000,1,0.0,4.9,0,0,1,1,27,,,,,53.07319379999535,53.7236419999972,53.7236419999972,54.224948100047186,315,45,54.224948100047186,54.224948100047186,54.224948100047186,54.224948100047186,54.224948100047186,54.224948100047186,54.224948100047186,54.224948100047186,54.224948100047186,54.591337500023656,54.591337500023656,54.591337500023656,54.591337500023656,54.591337500023656,54.591337500023656,54.591337500023656,54.591337500023656,54.591337500023656,4,1,[0.0667762000230141],[0.3670609000255354],54.591337500023656,54.793527900008485,1000,54.793527900008485,1000,1000,1000,1000,1,num_2,0.4292396000237204,,24,16,2026-03-04_16h35.15.118,2026A_exp2,2022.2.4,59.91019463187081,
1000,1,6.1,6.1,0,0,2,2,56,,,,,55.24205649999203,55.892508000019006,55.892508000019006,56.39361720002489,315,45,56.39361720002489,56.39361720002489,56.39361720002489,56.39361720002489,56.39361720002489,56.39361720002489,56.39361720002489,56.39361720002489,56.39361720002489,56.760209000029135,56.760209000029135,56.760209000029135,56.760209000029135,56.760209000029135,56.760209000029135,56.760209000029135,56.760209000029135,56.760209000029135,0,1,[0.0012570000253617764],[0.36745680001331493],56.760209000029135,56.96218750003027,1000,56.96218750003027,1000,1000,1000,1000,1,num_2,1.2683706000098027,,24,16,2026-03-04_16h35.15.118,2026A_exp2,2022.2.4,59.91019463187081,
1000,1,0.0,6.1,1,0,3,3,3,,,,,58.26173500000732,58.912308200029656,58.912308200029656,59.413518300047144,315,315,59.413518300047144,59.413518300047144,59.413518300047144,59.413518300047144,59.413518300047144,59.413518300047144,59.413518300047144,59.413518300047144,59.413518300047144,59.77979240001878,59.77979240001878,59.77979240001878,59.77979240001878,59.77979240001878,59.77979240001878,59.77979240001878,59.77979240001878,59.77979240001878,0,1,[0.0010982000385411084],[0.36726440000347793],59.77979240001878,59.98199639999075,1000,59.98199639999075,1000,1000,1000,1000,1,num_2,0.4240017000120133,,24,16,2026-03-04_16h35.15.118,2026A_exp2,2022.2.4,59.91019463187081,
1,0,0.0,4.9,1,0,4,4,36,,,,,60.43056190002244,61.06432220002171,61.06432220002171,61.56561530003091,315,45,61.56561530003091,61.56561530003091,61.56561530003091,61.56561530003091,61.56561530003091,61.56561530003091,61.56561530003091,61.56561530003091,61.56561530003091,61.93195400002878,61.93195400002878,61.93195400002878,61.93195400002878,61.93195400002878,61.93195400002878,61.93195400002878,61.93195400002878,61.93195400002878,0,1,[0.0012165000080130994],[0.36717120005050674],61.93195400002878,62.13225700001931,4.9,62.13225700001931,1,4.9,1,1,1000,num_4,1.2337317000492476,,24,16,2026-03-04_16h35.15.118,2026A_exp2,2022.2.4,59.91019463187081,
1000,1,0.0,0.0,1,0,5,5,71,,,,,63.38341750000836,64.0341718000127,64.0341718000127,64.53514600003837,45,45,64.53514600003837,64.53514600003837,64.53514600003837,64.53514600003837,64.53514600003837,64.53514600003837,64.53514600003837,64.53514600003837,64.53514600003837,64.88495929999044,64.88495929999044,64.88495929999044,64.88495929999044,64.88495929999044,64.88495929999044,64.88495929999044,64.88495929999044,64.88495929999044,0,1,[0.0012234000023454428],[0.350084199977573],64.88495929999044,65.0867142000352,1000,65.0867142000352,1000,1000,1000,1000,0,num_3,1.0398789999890141,,24,16,2026-03-04_16h35.15.118,2026A_exp2,2022.2.4,59.91019463187081,
1000,1,4.9,4.9,1,0,6,6,60,,,,,66.15266940003494,66.80359460000182,66.80359460000182,67.3044888000004,45,315,67.3044888000004,67.3044888000004,67.3044888000004,67.3044888000004,67.3044888000004,67.3044888000004,67.3044888000004,67.3044888000004,67.3044888000004,67.67101089999778,67.67101089999778,67.67101089999778,67.67101089999778,67.67101089999778,67.67101089999778,67.67101089999778,67.67101089999778,67.67101089999778,0,1,[0.0012686000554822385],[0.3672299000318162],67.67101089999778,67.87296140001854,1000,67.87296140001854,1000,1000,1000,1000,1,num_2,0.5098126999801025,,24,16,2026-03-04_16h35.15.118,2026A_exp2,2022.2.4,59.91019463187081,
0,0,3.7,3.7,0,0,7,7,63,,,,,68.40514200000325,69.05579230003059,69.05579230003059,69.5570030999952,45,315,69.5570030999952,69.5570030999952,69.5570030999952,69.5570030999952,69.5570030999952,69.5570030999952,69.5570030999952,69.5570030999952,69.5570030999952,69.92319930001395,69.92319930001395,69.92319930001395,69.92319930001395,69.92319930001395,69.92319930001395,69.92319930001395,69.92319930001395,69.92319930001395,0,1,[0.001249200024176389],[0.36711380002088845],69.92319930001395,70.12347290001344,3.7,70.12347290001344,1,3.7,1,1,1000,num_4,0.9864048999734223,,24,16,2026-03-04_16h35.15.118,2026A_exp2,2022.2.4,59.91019463187081,
1,0,3.7,0.0,1,0,8,8,59,,,,,71.14096300001256,71.79180280002765,71.79180280002765,72.27633010002319,315,315,72.27633010002319,72.27633010002319,72.27633010002319,72.27633010002319,72.27633010002319,72.27633010002319,72.27633010002319,72.27633010002319,72.27633010002319,72.64265590003924,72.64265590003924,72.64265590003924,72.64265590003924,72.64265590003924,72.64265590003924,72.64265590003924,72.64265590003924,72.64265590003924,0,1,[0.0011996999965049326],[0.3669808999984525],72.64265590003924,72.84291930001928,0.0,72.84291930001928,0,0.0,0,1,1000,num_1,0.8674258999526501,,24,16,2026-03-04_16h35.15.118,2026A_exp2,2022.2.4,59.91019463187081,
1,0,0.0,3.7,0,0,9,9,22,,,,,73.72689819999505,74.37774300004821,74.37774300004821,74.86225520004518,45,45,74.86225520004518,74.86225520004518,74.86225520004518,74.86225520004518,74.86225520004518,74.86225520004518,74.86225520004518,74.86225520004518,74.86225520004518,75.22865420003654,75.22865420003654,75.22865420003654,75.22865420003654,75.22865420003654,75.22865420003654,75.22865420003654,75.22865420003654,75.22865420003654,0,1,[0.0012083000037819147],[0.36731260002125055],75.22865420003654,75.42880350002088,0.0,75.42880350002088,0,0.0,0,1,1000,num_1,0.72190360003151,,24,16,2026-03-04_16h35.15.118,2026A_exp2,2022.2.4,59.91019463187081,
1000,1,0.0,0.0,1,0,10,10,39,,,,,76.17939210002078,76.83024520002073,76.83024520002073,77.3146570000099,45,45,77.3146570000099,77.3146570000099,77.3146570000099,77.3146570000099,77.3146570000099,77.3146570000099,77.3146570000099,77.3146570000099,77.3146570000099,77.68101679999381,77.68101679999381,77.68101679999381,77.68101679999381,77.68101679999381,77.68101679999381,77.68101679999381,77.68101679999381,77.68101679999381,0,1,[0.0012023999588564038],[0.36707350000506267],77.68101679999381,77.8834174000076,1000,77.8834174000076,1000,1000,1000,1000,0,num_3,0.9075257999938913,,24,16,2026-03-04_16h35.15.118,2026A_exp2,2022.2.4,59.91019463187081,
1,0,4.9,0.0,0,0,11,11,87,,,,,78.81539110001177,79.46624740003608,79.46624740003608,79.96722550003324,315,45,79.96722550003324,79.96722550003324,79.96722550003324,79.96722550003324,79.96722550003324,79.96722550003324,79.96722550003324,79.96722550003324,79.96722550003324,80.3171902000322,80.3171902000322,80.3171902000322,80.3171902000322,80.3171902000322,80.3171902000322,80.3171902000322,80.3171902000322,80.3171902000322,0,1,[0.001201900013256818],[0.35076920001301914],80.3171902000322,80.51691020000726,4.9,80.53354790003505,1,4.9,1,1,1000,num_4,0.6810514000244439,,24,16,2026-03-04_16h35.15.118,2026A_exp2,2022.2.4,59.91019463187081,
1000,1,3.7,6.1,0,0,12,12,81,,,,,81.23439990001498,81.88520560000325,81.88520560000325,82.3696942999959,315,45,82.3696942999959,82.3696942999959,82.3696942999959,82.3696942999959,82.3696942999959,82.3696942999959,82.3696942999959,82.3696942999959,82.3696942999959,82.73610239999834,82.73610239999834,82.73610239999834,82.73610239999834,82.73610239999834,82.73610239999834,82.73610239999834,82.73610239999834,82.73610239999834,0,1,[0.0012439999845810235],[0.36716229998273775],82.73610239999834,82.93641810002737,1000,82.93641810002737,1000,1000,1000,1000,0,num_3,1.126335899985861,,24,16,2026-03-04_16h35.15.118,2026A_exp2,2022.2.4,59.91019463187081,
1000,1,6.1,0.0,1,0,13,13,79,,,,,84.08732700004475,84.73819530004403,84.73819530004403,85.23929460003274,315,45,85.23929460003274,85.23929460003274,85.23929460003274,85.23929460003274,85.23929460003274,85.23929460003274,85.23929460003274,85.23929460003274,85.23929460003274,85.60553360002814,85.60553360002814,85.60553360002814,85.60553360002814,85.60553360002814,85.60553360002814,85.60553360002814,85.60553360002814,85.60553360002814,0,1,[0.0011786999530158937],[0.36713579995557666],85.60553360002814,85.80789150000783,1000,85.80789150000783,1000,1000,1000,1000,0,num_3,0.5029663000022992,,24,16,2026-03-04_16h35.15.118,2026A_exp2,2022.2.4,59.91019463187081,
1,0,0.0,0.0,0,0,14,14,66,,,,,86.33965999999782,86.99039560003439,86.99039560003439,87.49146750004729,45,45,87.49146750004729,87.49146750004729,87.49146750004729,87.49146750004729,87.49146750004729,87.49146750004729,87.49146750004729,87.49146750004729,87.49146750004729,87.85778630001005,87.85778630001005,87.85778630001005,87.85778630001005,87.85778630001005,87.85778630001005,87.85778630001005,87.85778630001005,87.85778630001005,0,1,[0.0012704000109806657],[0.3671436000149697],87.85778630001005,88.05802610004321,0.0,88.05802610004321,0,0.0,0,1,1000,num_1,0.8609055000124499,,24,16,2026-03-04_16h35.15.118,2026A_exp2,2022.2.4,59.91019463187081,
0,0,0.0,0.0,0,0,15,15,67,,,,,88.94206890003989,89.5930512000341,89.5930512000341,90.0773333000252,45,45,90.0773333000252,90.0773333000252,90.0773333000252,90.0773333000252,90.0773333000252,90.0773333000252,90.0773333000252,90.0773333000252,90.0773333000252,90.44379470002605,90.44379470002605,90.44379470002605,90.44379470002605,90.44379470002605,90.44379470002605,90.44379470002605,90.44379470002605,90.44379470002605,0,1,[0.0012328000157140195],[0.367167700023856],90.44379470002605,90.64399480004795,0.0,90.64399480004795,1,0.0,0,0,1000,num_4,1.2593659000121988,,24,16,2026-03-04_16h35.15.118,2026A_exp2,2022.2.4,59.91019463187081,
1000,1,4.9,0.0,0,0,16,16,78,,,,,91.92838980001397,92.57928310002899,92.57928310002899,93.06348940002499,45,315,93.06348940002499,93.06348940002499,93.06348940002499,93.06348940002499,93.06348940002499,93.06348940002499,93.06348940002499,93.06348940002499,93.06348940002499,93.4301064000465,93.4301064000465,93.4301064000465,93.4301064000465,93.4301064000465,93.4301064000465,93.4301064000465,93.4301064000465,93.4301064000465,0,1,[0.0012043000315316021],[0.36726839997572824],93.4301064000465,93.6319882000098,1000,93.6319882000098,1000,1000,1000,1000,0,num_3,0.5829203000175767,,24,16,2026-03-04_16h35.15.118,2026A_exp2,2022.2.4,59.91019463187081,
1000,1,3.7,0.0,1,0,17,17,33,,,,,94.23078410001472,94.88143559999298,94.88143559999298,95.38274460000684,315,315,95.38274460000684,95.38274460000684,95.38274460000684,95.38274460000684,95.38274460000684,95.38274460000684,95.38274460000684,95.38274460000684,95.38274460000684,95.74923320004018,95.74923320004018,95.74923320004018,95.74923320004018,95.74923320004018,95.74923320004018,95.74923320004018,95.74923320004018,95.74923320004018,0,1,[0.0013766000047326088],[0.3671729000052437],95.74923320004018,95.95153050002409,1000,95.95153050002409,1000,1000,1000,1000,0,num_3,0.6705501999822445,,24,16,2026-03-04_16h35.15.118,2026A_exp2,2022.2.4,59.91019463187081,
1000,1,4.9,6.1,1,0,18,18,18,,,,,96.6498807000462,97.30106670001987,97.30106670001987,97.80183470004704,45,45,97.80183470004704,97.80183470004704,97.80183470004704,97.80183470004704,97.80183470004704,97.80183470004704,97.80183470004704,97.80183470004704,97.80183470004704,98.16811750002671,98.16811750002671,98.16811750002671,98.16811750002671,98.16811750002671,98.16811750002671,98.16811750002671,98.16811750002671,98.16811750002671,0,1,[0.0012376999948173761],[0.3673496000119485],98.16811750002671,98.37010590004502,1000,98.37010590004502,1000,1000,1000,1000,1,num_2,0.7640693999710493,,24,16,2026-03-04_16h35.15.118,2026A_exp2,2022.2.4,59.91019463187081,
0,0,0.0,0.0,0,0,19,19,69,,,,,99.15234800003236,99.80321810004534,99.80321810004534,100.30430419999175,315,315,100.30430419999175,100.30430419999175,100.30430419999175,100.30430419999175,100.30430419999175,100.30430419999175,100.30430419999175,100.30430419999175,100.30430419999175,100.67044489999535,100.67044489999535,100.67044489999535,100.67044489999535,100.67044489999535,100.67044489999535,100.67044489999535,100.67044489999535,100.67044489999535,0,1,[0.0012428000336512923],[0.36659099999815226],100.67044489999535,100.87077770003816,0.0,100.87077770003816,0,0.0,0,1,1000,num_1,2.135135699994862,,24,16,2026-03-04_16h35.15.118,2026A_exp2,2022.2.4,59.91019463187081,
1,0,6.1,3.7,0,0,20,20,86,,,,,103.02294390002498,103.67371900001308,103.67371900001308,104.15813540003728,45,315,104.15813540003728,104.15813540003728,104.15813540003728,104.15813540003728,104.15813540003728,104.15813540003728,104.15813540003728,104.15813540003728,104.15813540003728,104.5245608999976,104.5245608999976,104.5245608999976,104.5245608999976,104.5245608999976,104.5245608999976,104.5245608999976,104.5245608999976,104.5245608999976,23,0,,,104.5245608999976,104.72475380002288,6.1,104.72475380002288,1,6.1,1,1,1000,num_4,0.5934535000124015,,24,16,2026-03-04_16h35.15.118,2026A_exp2,2022.2.4,59.91019463187081,
1,0,0.0,3.7,0,0,21,21,2,,,,,105.34183420002228,105.99272700003348,105.99272700003348,106.4771268000477,315,45,106.4771268000477,106.4771268000477,106.4771268000477,106.4771268000477,106.4771268000477,106.4771268000477,106.4771268000477,106.4771268000477,106.4771268000477,106.84358010004507,106.84358010004507,106.84358010004507,106.84358010004507,106.84358010004507,106.84358010004507,106.84358010004507,106.84358010004507,106.84358010004507,23,0,,,106.84358010004507,107.0438355000224,0.0,107.0438355000224,0,0.0,0,1,1000,num_1,1.01874820003286,,24,16,2026-03-04_16h35.15.118,2026A_exp2,2022.2.4,59.91019463187081,
1,0,3.7,4.9,0,0,22,22,84,,,,,108.07792460004566,108.72876960004214,108.72876960004214,109.22966750001069,45,315,109.22966750001069,109.22966750001069,109.22966750001069,109.22966750001069,109.22966750001069,109.22966750001069,109.22966750001069,109.22966750001069,109.22966750001069,109.57971660001203,109.57971660001203,109.57971660001203,109.57971660001203,109.57971660001203,109.57971660001203,109.57971660001203,109.57971660001203,109.57971660001203,0,1,[0.0013037999742664397],[0.3502125999657437],109.57971660001203,109.77976270002546,3.7,109.77976270002546,1,3.7,1,1,1000,num_4,1.0437201000167988,,24,16,2026-03-04_16h35.15.118,2026A_exp2,2022.2.4,59.91019463187081,
1,0,6.1,6.1,0,0,23,23,11,,,,,110.8476942999987,111.48161060002167,111.48161060002167,111.982688100019,45,45,111.982688100019,111.982688100019,111.982688100019,111.982688100019,111.982688100019,111.982688100019,111.982688100019,111.982688100019,111.982688100019,112.34910220000893,112.34910220000893,112.34910220000893,112.34910220000893,112.34910220000893,112.34910220000893,112.34910220000893,112.34910220000893,112.34910220000893,0,1,[0.0012395000085234642],[0.3673360000248067],112.34910220000893,112.54922869999427,6.1,112.54922869999427,1,6.1,1,1,1000,num_4,0.5368406000197865,,24,16,2026-03-04_16h35.15.118,2026A_exp2,2022.2.4,59.91019463187081,
0,0,0.0,0.0,0,0,24,24,4,,,,,113.11630799999693,113.76719800004503,113.76719800004503,114.25161750003463,315,45,114.25161750003463,114.25161750003463,114.25161750003463,114.25161750003463,114.25161750003463,114.25161750003463,114.25161750003463,114.25161750003463,114.25161750003463,114.6180382000166,114.6180382000166,114.6180382000166,114.6180382000166,114.6180382000166,114.6180382000166,114.6180382000166,114.6180382000166,114.6180382000166,5,3,"[0.06660259998170659, 0.10006849997444078, 0.35030699998605996]","[0.08333519997540861, 0.33362900000065565, 0.36692699999548495]",114.6180382000166,114.81818350002868,0.0,114.81818350002868,0,0.0,0,1,1000,num_1,1.6765499000321142,,24,16,2026-03-04_16h35.15.118,2026A_exp2,2022.2.4,59.91019463187081,
1000,1,0.0,0.0,0,0,25,25,47,,,,,116.51963910000632,117.17061520001153,117.17061520001153,117.65477170003578,45,315,117.65477170003578,117.65477170003578,117.65477170003578,117.65477170003578,117.65477170003578,117.65477170003578,117.65477170003578,117.65477170003578,117.65477170003578,118.02129280002555,118.02129280002555,118.02129280002555,118.02129280002555,118.02129280002555,118.02129280002555,118.02129280002555,118.02129280002555,118.02129280002555,16,2,"[0.0012233000015839934, 0.3338071000180207]","[0.06673030002275482, 0.3504634000128135]",118.02129280002555,118.22323950001737,1000,118.22323950001737,1000,1000,1000,1000,1,num_2,1.3906704999972135,,24,16,2026-03-04_16h35.15.118,2026A_exp2,2022.2.4,59.91019463187081,
1,0,6.1,0.0,0,0,26,26,24,,,,,119.63980430003721,120.29033730004448,120.29033730004448,120.77466470003128,45,45,120.77466470003128,120.77466470003128,120.77466470003128,120.77466470003128,120.77466470003128,120.77466470003128,120.77466470003128,120.77466470003128,120.77466470003128,121.1410175000201,121.1410175000201,121.1410175000201,121.1410175000201,121.1410175000201,121.1410175000201,121.1410175000201,121.1410175000201,121.1410175000201,9,2,"[0.05031560000497848, 0.16759049997199327]","[0.06667009997181594, 0.36803700000746176]",121.1410175000201,121.34146379999584,6.1,121.34146379999584,1,6.1,1,1,1000,num_4,0.6412356999935582,,24,16,2026-03-04_16h35.15.118,2026A_exp2,2022.2.4,59.91019463187081,
1000,1,6.1,0.0,1,0,27,27,52,,,,,122.00856710004155,122.65946019999683,122.65946019999683,123.14385680004489,315,315,123.14385680004489,123.14385680004489,123.14385680004489,123.14385680004489,123.14385680004489,123.14385680004489,123.14385680004489,123.14385680004489,123.14385680004489,123.5101462000166,123.5101462000166,123.5101462000166,123.5101462000166,123.5101462000166,123.5101462000166,123.5101462000166,123.5101462000166,123.5101462000166,0,1,[0.001232299953699112],[0.36731129995314404],123.5101462000166,123.71251899999334,1000,123.71251899999334,1000,1000,1000,1000,0,num_3,0.5745765000465326,,24,16,2026-03-04_16h35.15.118,2026A_exp2,2022.2.4,59.91019463187081,
1,0,4.9,0.0,1,0,28,28,48,,,,,124.31111760000931,124.96161430003121,124.96161430003121,125.462849500007,315,45,125.462849500007,125.462849500007,125.462849500007,125.462849500007,125.462849500007,125.462849500007,125.462849500007,125.462849500007,125.462849500007,125.8292708999943,125.8292708999943,125.8292708999943,125.8292708999943,125.8292708999943,125.8292708999943,125.8292708999943,125.8292708999943,125.8292708999943,0,1,[0.0012396000092849135],[0.36708830000134185],125.8292708999943,126.0292846999946,0.0,126.0292846999946,1,0.0,0,0,1000,num_4,1.2579135000123642,,24,16,2026-03-04_16h35.15.118,2026A_exp2,2022.2.4,59.91019463187081,
1,0,0.0,4.9,1,0,29,29,65,,,,,127.31387529999483,127.96473579999292,127.96473579999292,128.44918580004014,45,315,128.44918580004014,128.44918580004014,128.44918580004014,128.44918580004014,128.44918580004014,128.44918580004014,128.44918580004014,128.44918580004014,128.44918580004014,128.81546640000306,128.81546640000306,128.81546640000306,128.81546640000306,128.81546640000306,128.81546640000306,128.81546640000306,128.81546640000306,128.81546640000306,1,2,"[0.0013393000117503107, 0.35032399999909103]","[0.3337168000289239, 0.367031300032977]",128.81546640000306,129.0156214000308,4.9,129.0156214000308,1,4.9,1,1,1000,num_4,1.1912717000232078,,24,16,2026-03-04_16h35.15.118,2026A_exp2,2022.2.4,59.91019463187081,
1,0,0.0,0.0,1,0,30,30,53,,,,,130.2334128000075,130.88398099999176,130.88398099999176,131.36864729999797,315,45,131.36864729999797,131.36864729999797,131.36864729999797,131.36864729999797,131.36864729999797,131.36864729999797,131.36864729999797,131.36864729999797,131.36864729999797,131.73507520003477,131.73507520003477,131.73507520003477,131.73507520003477,131.73507520003477,131.73507520003477,131.73507520003477,131.73507520003477,131.73507520003477,2,1,[0.03360150003572926],[0.3674369000364095],131.73507520003477,131.93527529999847,0.0,131.93527529999847,1,0.0,0,0,1000,num_4,0.7911628999863751,,24,16,2026-03-04_16h35.15.118,2026A_exp2,2022.2.4,59.91019463187081,
1000,1,6.1,0.0,0,0,31,31,8,,,,,132.752655600023,133.40345660003368,133.40345660003368,133.88789270003326,315,315,133.88789270003326,133.88789270003326,133.88789270003326,133.88789270003326,133.88789270003326,133.88789270003326,133.88789270003326,133.88789270003326,133.88789270003326,134.25430460000644,134.25430460000644,134.25430460000644,134.25430460000644,134.25430460000644,134.25430460000644,134.25430460000644,134.25430460000644,134.25430460000644,0,1,[0.001201900013256818],[0.3670964000048116],134.25430460000644,134.45609480002895,1000,134.45609480002895,1000,1000,1000,1000,0,num_3,0.822040599945467,,24,16,2026-03-04_16h35.15.118,2026A_exp2,2022.2.4,59.91019463187081,
1000,1,6.1,3.7,1,0,32,32,45,,,,,135.30542680004146,135.95598140003858,135.95598140003858,136.44036390003748,45,45,136.44036390003748,136.44036390003748,136.44036390003748,136.44036390003748,136.44036390003748,136.44036390003748,136.44036390003748,136.44036390003748,136.44036390003748,136.8067047999939,136.8067047999939,136.8067047999939,136.8067047999939,136.8067047999939,136.8067047999939,136.8067047999939,136.8067047999939,136.8067047999939,0,1,[0.001258700038306415],[0.3671324000461027],136.8067047999939,137.0087724000332,1000,137.0087724000332,1000,1000,1000,1000,0,num_3,0.8218290000222623,,24,16,2026-03-04_16h35.15.118,2026A_exp2,2022.2.4,59.91019463187081,
1000,1,0.0,4.9,1,0,33,33,73,,,,,137.85768720001215,138.5085698000039,138.5085698000039,138.99308510002447,45,45,138.99308510002447,138.99308510002447,138.99308510002447,138.99308510002447,138.99308510002447,138.99308510002447,138.99308510002447,138.99308510002447,138.99308510002447,139.35945670004003,139.35945670004003,139.35945670004003,139.35945670004003,139.35945670004003,139.35945670004003,139.35945670004003,139.35945670004003,139.35945670004003,0,1,[0.0011964999721385539],[0.36710889998357743],139.35945670004003,139.56161530001555,1000,139.56161530001555,1000,1000,1000,1000,1,num_2,0.5491061999928206,,24,16,2026-03-04_16h35.15.118,2026A_exp2,2022.2.4,59.91019463187081,
1000,1,4.9,4.9,0,0,34,34,34,,,,,140.12669510004343,140.77737770002568,140.77737770002568,141.27858420001576,45,45,141.27858420001576,141.27858420001576,141.27858420001576,141.27858420001576,141.27858420001576,141.27858420001576,141.27858420001576,141.27858420001576,141.27858420001576,141.6283645000076,141.6283645000076,141.6283645000076,141.6283645000076,141.6283645000076,141.6283645000076,141.6283645000076,141.6283645000076,141.6283645000076,0,1,[0.0012509999796748161],[0.3506416999734938],141.6283645000076,141.83059150003828,1000,141.83059150003828,1000,1000,1000,1000,0,num_3,0.4874534999835305,,24,16,2026-03-04_16h35.15.118,2026A_exp2,2022.2.4,59.91019463187081,
1000,1,6.1,0.0,0,0,35,35,80,,,,,142.34561270003906,142.99641730001895,142.99641730001895,143.49756089999573,315,315,143.49756089999573,143.49756089999573,143.49756089999573,143.49756089999573,143.49756089999573,143.49756089999573,143.49756089999573,143.49756089999573,143.49756089999573,143.86395750002703,143.86395750002703,143.86395750002703,143.86395750002703,143.86395750002703,143.86395750002703,143.86395750002703,143.86395750002703,143.86395750002703,0,1,[0.0012472000089474022],[0.3672182000009343],143.86395750002703,144.06609070004197,1000,144.06609070004197,1000,1000,1000,1000,0,num_3,0.43697129999054596,,24,16,2026-03-04_16h35.15.118,2026A_exp2,2022.2.4,59.91019463187081,
1,0,0.0,0.0,1,0,36,36,82,,,,,144.53127650002716,145.1819567999919,145.1819567999919,145.682928299997,45,45,145.682928299997,145.682928299997,145.682928299997,145.682928299997,145.682928299997,145.682928299997,145.682928299997,145.682928299997,145.682928299997,146.03288330003852,146.03288330003852,146.03288330003852,146.03288330003852,146.03288330003852,146.03288330003852,146.03288330003852,146.03288330003852,146.03288330003852,4,2,"[0.0007964000105857849, 0.2508446999709122]","[0.18410279997624457, 0.35079810000024736]",146.03288330003852,146.23281040001893,0.0,146.24949740001466,1,0.0,0,0,1000,num_4,1.428480500006117,,24,16,2026-03-04_16h35.15.118,2026A_exp2,2022.2.4,59.91019463187081,
1000,1,3.7,3.7,0,0,37,37,16,,,,,147.70090789999813,148.35182810004335,148.35182810004335,148.8361137000029,315,45,148.8361137000029,148.8361137000029,148.8361137000029,148.8361137000029,148.8361137000029,148.8361137000029,148.8361137000029,148.8361137000029,148.8361137000029,149.2026241000276,149.2026241000276,149.2026241000276,149.2026241000276,149.2026241000276,149.2026241000276,149.2026241000276,149.2026241000276,149.2026241000276,0,1,[0.0013979999930597842],[0.3670311999740079],149.2026241000276,149.4046780000208,1000,149.4046780000208,1000,1000,1000,1000,1,num_2,1.1214359999867156,,24,16,2026-03-04_16h35.15.118,2026A_exp2,2022.2.4,59.91019463187081,
1,0,0.0,6.1,0,0,38,38,72,,,,,150.55385060003027,151.2046362000401,151.2046362000401,151.70561210002052,315,315,151.70561210002052,151.70561210002052,151.70561210002052,151.70561210002052,151.70561210002052,151.70561210002052,151.70561210002052,151.70561210002052,151.70561210002052,152.0719743000227,152.0719743000227,152.0719743000227,152.0719743000227,152.0719743000227,152.0719743000227,152.0719743000227,152.0719743000227,152.0719743000227,0,1,[0.0012076999992132187],[0.36688970000250265],152.0719743000227,152.2723057999974,0.0,152.2723057999974,0,0.0,0,1,1000,num_1,1.030385699996259,,24,16,2026-03-04_16h35.15.118,2026A_exp2,2022.2.4,59.91019463187081,
1000,1,4.9,3.7,1,0,39,39,14,,,,,153.32320050004637,153.97401540004648,153.97401540004648,154.45850609999616,45,45,154.45850609999616,154.45850609999616,154.45850609999616,154.45850609999616,154.45850609999616,154.45850609999616,154.45850609999616,154.45850609999616,154.45850609999616,154.8248878000304,154.8248878000304,154.8248878000304,154.8248878000304,154.8248878000304,154.8248878000304,154.8248878000304,154.8248878000304,154.8248878000304,6,1,[0.0012442999868653715],[0.28384300001198426],154.8248878000304,155.02711720002117,1000,155.02711720002117,1000,1000,1000,1000,1,num_2,0.9871780999819748,,24,16,2026-03-04_16h35.15.118,2026A_exp2,2022.2.4,59.91019463187081,
1,0,0.0,3.7,0,0,40,40,1,,,,,156.04277480003657,156.67676709999796,156.67676709999796,157.17775970004732,45,45,157.17775970004732,157.17775970004732,157.17775970004732,157.17775970004732,157.17775970004732,157.17775970004732,157.17775970004732,157.17775970004732,157.17775970004732,157.54434330004733,157.54434330004733,157.54434330004733,157.54434330004733,157.54434330004733,157.54434330004733,157.54434330004733,157.54434330004733,157.54434330004733,0,1,[0.001236499985679984],[0.3670867999899201],157.54434330004733,157.74446360004367,0.0,157.74446360004367,0,0.0,0,1,1000,num_1,0.7821851000189781,,24,16,2026-03-04_16h35.15.118,2026A_exp2,2022.2.4,59.91019463187081,
1,0,0.0,3.7,1,0,41,41,10,,,,,158.5450877000112,159.19594220002182,159.19594220002182,159.6804430000484,45,315,159.6804430000484,159.6804430000484,159.6804430000484,159.6804430000484,159.6804430000484,159.6804430000484,159.6804430000484,159.6804430000484,159.6804430000484,160.04674970003543,160.04674970003543,160.04674970003543,160.04674970003543,160.04674970003543,160.04674970003543,160.04674970003543,160.04674970003543,160.04674970003543,0,1,[0.0012304999982006848],[0.36715329997241497],160.04674970003543,160.24689020001097,3.7,160.24689020001097,0,3.7,1,0,1000,num_1,0.8636219999752939,,24,16,2026-03-04_16h35.15.118,2026A_exp2,2022.2.4,59.91019463187081,
1000,1,4.9,0.0,0,0,42,42,20,,,,,161.1311644000234,161.7651504999958,161.7651504999958,162.26626360003138,315,315,162.26626360003138,162.26626360003138,162.26626360003138,162.26626360003138,162.26626360003138,162.26626360003138,162.26626360003138,162.26626360003138,162.26626360003138,162.63269100000616,162.63269100000616,162.63269100000616,162.63269100000616,162.63269100000616,162.63269100000616,162.63269100000616,162.63269100000616,162.63269100000616,0,1,[0.0011486000148579478],[0.3675377999898046],162.63269100000616,162.8347432000446,1000,162.8347432000446,1000,1000,1000,1000,0,num_3,0.7314520999789238,,24,16,2026-03-04_16h35.15.118,2026A_exp2,2022.2.4,59.91019463187081,
1,0,4.9,0.0,0,0,43,43,23,,,,,163.58327510004165,164.23412229999667,164.23412229999667,164.7186566000455,45,45,164.7186566000455,164.7186566000455,164.7186566000455,164.7186566000455,164.7186566000455,164.7186566000455,164.7186566000455,164.7186566000455,164.7186566000455,165.08518260001438,165.08518260001438,165.08518260001438,165.08518260001438,165.08518260001438,165.08518260001438,165.08518260001438,165.08518260001438,165.08518260001438,0,1,[0.0012912999955005944],[0.3671353000099771],165.08518260001438,165.28540660004364,4.9,165.28540660004364,1,4.9,1,1,1000,num_4,0.7689931999775581,,24,16,2026-03-04_16h35.15.118,2026A_exp2,2022.2.4,59.91019463187081,
1000,1,0.0,3.7,0,0,44,44,32,,,,,166.085831400007,166.73674070002744,166.73674070002744,167.22107660002075,45,315,167.22107660002075,167.22107660002075,167.22107660002075,167.22107660002075,167.22107660002075,167.22107660002075,167.22107660002075,167.22107660002075,167.22107660002075,167.5876552000409,167.5876552000409,167.5876552000409,167.5876552000409,167.5876552000409,167.5876552000409,167.5876552000409,167.5876552000409,167.5876552000409,0,1,[0.0012003000010736287],[0.3669988999608904],167.5876552000409,167.78959820000455,1000,167.78959820000455,1000,1000,1000,1000,1,num_2,0.6326421999838203,,24,16,2026-03-04_16h35.15.118,2026A_exp2,2022.2.4,59.91019463187081,
1000,1,0.0,0.0,1,0,45,45,62,,,,,168.43834970000898,169.0890464000404,169.0890464000404,169.5734736000304,45,45,169.5734736000304,169.5734736000304,169.5734736000304,169.5734736000304,169.5734736000304,169.5734736000304,169.5734736000304,169.5734736000304,169.5734736000304,169.93983460002346,169.93983460002346,169.93983460002346,169.93983460002346,169.93983460002346,169.93983460002346,169.93983460002346,169.93983460002346,169.93983460002346,0,1,[0.0012067999923601747],[0.3672305000363849],169.93983460002346,170.14184290001867,1000,170.14184290001867,1000,1000,1000,1000,0,num_3,1.1042563999653794,,24,16,2026-03-04_16h35.15.118,2026A_exp2,2022.2.4,59.91019463187081,
1000,1,0.0,4.9,0,0,46,46,9,,,,,171.27463220001664,171.92532159999246,171.92532159999246,172.4097925000242,315,315,172.4097925000242,172.4097925000242,172.4097925000242,172.4097925000242,172.4097925000242,172.4097925000242,172.4097925000242,172.4097925000242,172.4097925000242,172.77611730003264,172.77611730003264,172.77611730003264,172.77611730003264,172.77611730003264,172.77611730003264,172.77611730003264,172.77611730003264,172.77611730003264,22,2,"[0.017476300010457635, 0.08335289999376982]","[0.03363980003632605, 0.10023710003588349]",172.77611730003264,172.97799159999704,1000,172.97799159999704,1000,1000,1000,1000,1,num_2,0.5641089000273496,,24,16,2026-03-04_16h35.15.118,2026A_exp2,2022.2.4,59.91019463187081,
1000,1,3.7,0.0,1,0,47,47,44,,,,,173.56017060001614,174.21096550003858,174.21096550003858,174.71195160003845,315,45,174.71195160003845,174.71195160003845,174.71195160003845,174.71195160003845,174.71195160003845,174.71195160003845,174.71195160003845,174.71195160003845,174.71195160003845,175.07850940001663,175.07850940001663,175.07850940001663,175.07850940001663,175.07850940001663,175.07850940001663,175.07850940001663,175.07850940001663,175.07850940001663,0,1,[0.0008693000418134034],[0.36754030000884086],175.07850940001663,175.2808322000201,1000,175.2808322000201,1000,1000,1000,1000,0,num_3,0.9099583000061102,,24,16,2026-03-04_16h35.15.118,2026A_exp2,2022.2.4,59.91019463187081,
1,0,3.7,3.7,1,0,48,48,64,,,,,176.21275820001028,176.86356910003815,176.86356910003815,177.3646626000409,45,45,177.3646626000409,177.3646626000409,177.3646626000409,177.3646626000409,177.3646626000409,177.3646626000409,177.3646626000409,177.3646626000409,177.3646626000409,177.7311068000272,177.7311068000272,177.7311068000272,177.7311068000272,177.7311068000272,177.7311068000272,177.7311068000272,177.7311068000272,177.7311068000272,0,1,[0.0012014000094495714],[0.3673850999912247],177.7311068000272,177.93119440000737,3.7,177.93119440000737,0,3.7,1,0,1000,num_1,0.890894899959676,,24,16,2026-03-04_16h35.15.118,2026A_exp2,2022.2.4,59.91019463187081,
1000,1,0.0,0.0,0,0,49,49,5,,,,,178.84907910000766,179.48284499999136,179.48284499999136,179.98393550002947,45,315,179.98393550002947,179.98393550002947,179.98393550002947,179.98393550002947,179.98393550002947,179.98393550002947,179.98393550002947,179.98393550002947,179.98393550002947,180.35039249999681,180.35039249999681,180.35039249999681,180.35039249999681,180.35039249999681,180.35039249999681,180.35039249999681,180.35039249999681,180.35039249999681,20,2,"[0.001254500006325543, 0.08322249999037012]","[0.03371689998311922, 0.10014369996497408]",180.35039249999681,180.55224660004023,1000,180.55224660004023,1000,1000,1000,1000,1,num_2,0.861889699997846,,24,16,2026-03-04_16h35.15.118,2026A_exp2,2022.2.4,59.91019463187081,
1000,1,0.0,6.1,0,0,50,50,83,,,,,181.43459389999043,182.08524770004442,182.08524770004442,182.58644820004702,315,315,182.58644820004702,182.58644820004702,182.58644820004702,182.58644820004702,182.58644820004702,182.58644820004702,182.58644820004702,182.58644820004702,182.58644820004702,182.95289880002383,182.95289880002383,182.95289880002383,182.95289880002383,182.95289880002383,182.95289880002383,182.95289880002383,182.95289880002383,182.95289880002383,0,1,[0.0011998999980278313],[0.3673611999838613],182.95289880002383,183.1551385000348,1000,183.1551385000348,1000,1000,1000,1000,1,num_2,0.5070819999673404,,24,16,2026-03-04_16h35.15.118,2026A_exp2,2022.2.4,59.91019463187081,
1000,1,0.0,0.0,1,0,51,51,42,,,,,183.6869533000281,184.33759280003142,184.33759280003142,184.83887700003106,315,315,184.83887700003106,184.83887700003106,184.83887700003106,184.83887700003106,184.83887700003106,184.83887700003106,184.83887700003106,184.83887700003106,184.83887700003106,185.2051322000334,185.2051322000334,185.2051322000334,185.2051322000334,185.2051322000334,185.2051322000334,185.2051322000334,185.2051322000334,185.2051322000334,5,2,"[0.0012325000134296715, 0.3170818999642506]","[0.2666645999997854, 0.35048749996349216]",185.2051322000334,185.40724840003531,1000,185.40724840003531,1000,1000,1000,1000,0,num_3,0.6720666000037454,,24,16,2026-03-04_16h35.15.118,2026A_exp2,2022.2.4,59.91019463187081,
0,0,3.7,6.1,1,0,52,52,17,,,,,186.10609620000469,186.75663370004622,186.75663370004622,187.2576440999983,315,45,187.2576440999983,187.2576440999983,187.2576440999983,187.2576440999983,187.2576440999983,187.2576440999983,187.2576440999983,187.2576440999983,187.2576440999983,187.60750060004648,187.60750060004648,187.60750060004648,187.60750060004648,187.60750060004648,187.60750060004648,187.60750060004648,187.60750060004648,187.60750060004648,6,1,[0.0006873999955132604],[0.2512890999787487],187.60750060004648,187.8077154000057,3.7,187.82444120000582,0,3.7,1,0,1000,num_1,1.4309063999680802,,24,16,2026-03-04_16h35.15.118,2026A_exp2,2022.2.4,59.91019463187081,
1,0,3.7,4.9,0,0,53,53,31,,,,,189.2757583000348,189.9266454000026,189.9266454000026,190.42471410002327,315,45,190.42471410002327,190.42471410002327,190.42471410002327,190.42471410002327,190.42471410002327,190.42471410002327,190.42471410002327,190.42471410002327,190.42471410002327,190.77747710002586,190.77747710002586,190.77747710002586,190.77747710002586,190.77747710002586,190.77747710002586,190.77747710002586,190.77747710002586,190.77747710002586,0,1,[0.004440999997314066],[0.36469910002779216],190.77747710002586,190.97758960002102,3.7,190.97758960002102,0,3.7,1,0,1000,num_1,3.1725131000275724,,24,16,2026-03-04_16h35.15.118,2026A_exp2,2022.2.4,59.91019463187081,
1000,1,3.7,3.7,1,0,54,54,46,,,,,194.18094900000142,194.8148648000206,194.8148648000206,195.31596820004052,315,45,195.31596820004052,195.31596820004052,195.31596820004052,195.31596820004052,195.31596820004052,195.31596820004052,195.31596820004052,195.31596820004052,195.31596820004052,195.68226550001418,195.68226550001418,195.68226550001418,195.68226550001418,195.68226550001418,195.68226550001418,195.68226550001418,195.68226550001418,195.68226550001418,0,1,[0.0012527999933809042],[0.36732379999011755],195.68226550001418,195.8842531000264,1000,195.8842531000264,1000,1000,1000,1000,0,num_3,1.1137123999651521,,24,16,2026-03-04_16h35.15.118,2026A_exp2,2022.2.4,59.91019463187081,
1000,1,0.0,0.0,0,0,55,55,41,,,,,197.0169745000312,197.66769670002395,197.66769670002395,198.16875370003982,45,45,198.16875370003982,198.16875370003982,198.16875370003982,198.16875370003982,198.16875370003982,198.16875370003982,198.16875370003982,198.16875370003982,198.16875370003982,198.51860880001914,198.51860880001914,198.51860880001914,198.51860880001914,198.51860880001914,198.51860880001914,198.51860880001914,198.51860880001914,198.51860880001914,10,1,[0.0012301999959163368],[0.20035389997065067],198.51860880001914,198.7209044000483,1000,198.7209044000483,1000,1000,1000,1000,0,num_3,1.485513899999205,,24,16,2026-03-04_16h35.15.118,2026A_exp2,2022.2.4,59.91019463187081,
1,0,0.0,0.0,0,0,56,56,0,,,,,200.23694010003237,200.88749330001883,200.88749330001883,201.388398900046,315,315,201.388398900046,201.388398900046,201.388398900046,201.388398900046,201.388398900046,201.388398900046,201.388398900046,201.388398900046,201.388398900046,201.738409600046,201.738409600046,201.738409600046,201.738409600046,201.738409600046,201.738409600046,201.738409600046,201.738409600046,201.738409600046,0,1,[0.0007089999853633344],[0.35095249995356426],201.738409600046,201.93863849999616,0.0,201.93863849999616,0,0.0,0,1,1000,num_1,0.8127527000033297,,24,16,2026-03-04_16h35.15.118,2026A_exp2,2022.2.4,59.91019463187081,
1000,1,4.9,0.0,1,0,57,57,7,,,,,202.77259780000895,203.4234900000156,203.4234900000156,203.90775430004578,45,315,203.90775430004578,203.90775430004578,203.90775430004578,203.90775430004578,203.90775430004578,203.90775430004578,203.90775430004578,203.90775430004578,203.90775430004578,204.27434920001542,204.27434920001542,204.27434920001542,204.27434920001542,204.27434920001542,204.27434920001542,204.27434920001542,204.27434920001542,204.27434920001542,0,1,[0.0012002000003121793],[0.3670943999895826],204.27434920001542,204.47625599999446,1000,204.47625599999446,1000,1000,1000,1000,0,num_3,0.4577603999641724,,24,16,2026-03-04_16h35.15.118,2026A_exp2,2022.2.4,59.91019463187081,
1,0,0.0,0.0,0,0,58,58,49,,,,,204.95838730002288,205.6089349000249,205.6089349000249,206.1090635000146,45,315,206.1090635000146,206.1090635000146,206.1090635000146,206.1090635000146,206.1090635000146,206.1090635000146,206.1090635000146,206.1090635000146,206.1090635000146,206.4598387000151,206.4598387000151,206.4598387000151,206.4598387000151,206.4598387000151,206.4598387000151,206.4598387000151,206.4598387000151,206.4598387000151,0,1,[0.004450499953236431],[0.36568639997858554],206.4598387000151,206.67321890004678,0.0,206.67321890004678,0,0.0,0,1,1000,num_1,0.989684899977874,,24,16,2026-03-04_16h35.15.118,2026A_exp2,2022.2.4,59.91019463187081,
1,0,0.0,4.9,0,0,59,59,35,,,,,207.69415570003912,208.3450804000022,208.3450804000022,208.82953460002318,315,45,208.82953460002318,208.82953460002318,208.82953460002318,208.82953460002318,208.82953460002318,208.82953460002318,208.82953460002318,208.82953460002318,208.82953460002318,209.19597090000752,209.19597090000752,209.19597090000752,209.19597090000752,209.19597090000752,209.19597090000752,209.19597090000752,209.19597090000752,209.19597090000752,1,2,"[0.001297699986025691, 0.06688370002666488]","[0.050347000011242926, 0.3668910000124015]",209.19597090000752,209.40963760000886,0.0,209.40963760000886,0,0.0,0,1,1000,num_1,2.1884176999446936,,24,16,2026-03-04_16h35.15.118,2026A_exp2,2022.2.4,59.91019463187081,
1,0,6.1,6.1,0,0,60,60,51,,,,,211.614759100019,212.26555690000532,212.26555690000532,212.74994470004458,315,315,212.74994470004458,212.74994470004458,212.74994470004458,212.74994470004458,212.74994470004458,212.74994470004458,212.74994470004458,212.74994470004458,212.74994470004458,213.1164917999995,213.1164917999995,213.1164917999995,213.1164917999995,213.1164917999995,213.1164917999995,213.1164917999995,213.1164917999995,213.1164917999995,0,1,[0.0012416999670676887],[0.3667367000016384],213.1164917999995,213.3166769000236,6.1,213.3166769000236,1,6.1,1,1,1000,num_4,0.7541534999618307,,24,16,2026-03-04_16h35.15.118,2026A_exp2,2022.2.4,59.91019463187081,
1000,1,3.7,4.9,0,0,61,61,13,,,,,214.10050760000013,214.75132989999838,214.75132989999838,215.2356723000412,45,315,215.2356723000412,215.2356723000412,215.2356723000412,215.2356723000412,215.2356723000412,215.2356723000412,215.2356723000412,215.2356723000412,215.2356723000412,215.60229660000186,215.60229660000186,215.60229660000186,215.60229660000186,215.60229660000186,215.60229660000186,215.60229660000186,215.60229660000186,215.60229660000186,0,1,[0.0012647000257857144],[0.3671613000333309],215.60229660000186,215.80434349999996,1000,215.80434349999996,1000,1000,1000,1000,1,num_2,0.9867631000233814,,24,16,2026-03-04_16h35.15.118,2026A_exp2,2022.2.4,59.91019463187081,
1,0,0.0,3.7,1,0,62,62,12,,,,,216.82000290002907,217.47093090001727,217.47093090001727,217.9719999000081,315,45,217.9719999000081,217.9719999000081,217.9719999000081,217.9719999000081,217.9719999000081,217.9719999000081,217.9719999000081,217.9719999000081,217.9719999000081,218.32163960003527,218.32163960003527,218.32163960003527,218.32163960003527,218.32163960003527,218.32163960003527,218.32163960003527,218.32163960003527,218.32163960003527,0,1,[0.0012051999801769853],[0.35035349999088794],218.32163960003527,218.52187940001022,3.7,218.5387430000119,1,3.7,1,1,1000,num_4,1.0754992999718525,,24,16,2026-03-04_16h35.15.118,2026A_exp2,2022.2.4,59.91019463187081,
1000,1,6.1,3.7,0,0,63,63,61,,,,,219.63952650001738,220.29027370002586,220.29027370002586,220.77471220004372,315,45,220.77471220004372,220.77471220004372,220.77471220004372,220.77471220004372,220.77471220004372,220.77471220004372,220.77471220004372,220.77471220004372,220.77471220004372,221.14124890003586,221.14124890003586,221.14124890003586,221.14124890003586,221.14124890003586,221.14124890003586,221.14124890003586,221.14124890003586,221.14124890003586,0,1,[0.0012344999704509974],[0.3671131999581121],221.14124890003586,221.3435121999937,1000,221.3435121999937,1000,1000,1000,1000,1,num_2,1.0717416999978013,,24,16,2026-03-04_16h35.15.118,2026A_exp2,2022.2.4,59.91019463187081,
1000,1,0.0,0.0,1,0,64,64,70,,,,,222.44234990002587,223.0931573000271,223.0931573000271,223.5940552999964,315,45,223.5940552999964,223.5940552999964,223.5940552999964,223.5940552999964,223.5940552999964,223.5940552999964,223.5940552999964,223.5940552999964,223.5940552999964,223.9440184000414,223.9440184000414,223.9440184000414,223.9440184000414,223.9440184000414,223.9440184000414,223.9440184000414,223.9440184000414,223.9440184000414,0,1,[0.0012546000070869923],[0.3510137000121176],223.9440184000414,224.14613440004177,1000,224.14613440004177,1000,1000,1000,1000,0,num_3,1.0929310000501573,,24,16,2026-03-04_16h35.15.118,2026A_exp2,2022.2.4,59.91019463187081,
1000,1,4.9,4.9,1,0,65,65,26,,,,,225.2618140000268,225.912521500024,225.912521500024,226.4137779000448,45,315,226.4137779000448,226.4137779000448,226.4137779000448,226.4137779000448,226.4137779000448,226.4137779000448,226.4137779000448,226.4137779000448,226.4137779000448,226.7634833000484,226.7634833000484,226.7634833000484,226.7634833000484,226.7634833000484,226.7634833000484,226.7634833000484,226.7634833000484,226.7634833000484,0,1,[0.0011983999866060913],[0.3505709999590181],226.7634833000484,226.96588010003325,1000,226.98034810001263,1000,1000,1000,1000,0,num_3,0.6506095000077039,,24,16,2026-03-04_16h35.15.118,2026A_exp2,2022.2.4,59.91019463187081,
1000,1,4.9,0.0,1,0,66,66,28,,,,,227.6475250000367,228.29844280000543,228.29844280000543,228.7993875000393,315,45,228.7993875000393,228.7993875000393,228.7993875000393,228.7993875000393,228.7993875000393,228.7993875000393,228.7993875000393,228.7993875000393,228.7993875000393,229.1658115000464,229.1658115000464,229.1658115000464,229.1658115000464,229.1658115000464,229.1658115000464,229.1658115000464,229.1658115000464,229.1658115000464,5,3,"[0.0012005000025965273, 0.28374250000342727, 0.31710190000012517]","[0.26700729998992756, 0.30029270000522956, 0.3338256999850273]",229.1658115000464,229.36789220001083,1000,229.36789220001083,1000,1000,1000,1000,0,num_3,0.47065550001570955,,24,16,2026-03-04_16h35.15.118,2026A_exp2,2022.2.4,59.91019463187081,
1000,1,6.1,4.9,0,0,67,67,77,,,,,229.8663743000361,230.51722130004782,230.51722130004782,231.0184482000186,315,315,231.0184482000186,231.0184482000186,231.0184482000186,231.0184482000186,231.0184482000186,231.0184482000186,231.0184482000186,231.0184482000186,231.0184482000186,231.38473890000023,231.38473890000023,231.38473890000023,231.38473890000023,231.38473890000023,231.38473890000023,231.38473890000023,231.38473890000023,231.38473890000023,0,1,[0.0012184000224806368],[0.3670134000130929],231.38473890000023,231.58467320003547,1000,231.58467320003547,1000,1000,1000,1000,0,num_3,0.5014250000240281,,24,16,2026-03-04_16h35.15.118,2026A_exp2,2022.2.4,59.91019463187081,
1000,1,6.1,6.1,0,0,68,68,50,,,,,232.10200870002154,232.75272869999753,232.75272869999753,233.25378610001644,45,315,233.25378610001644,233.25378610001644,233.25378610001644,233.25378610001644,233.25378610001644,233.25378610001644,233.25378610001644,233.25378610001644,233.25378610001644,233.62053010001546,233.62053010001546,233.62053010001546,233.62053010001546,233.62053010001546,233.62053010001546,233.62053010001546,233.62053010001546,233.62053010001546,0,1,[0.001197699981275946],[0.3669398999772966],233.62053010001546,233.82222430000547,1000,233.82222430000547,1000,1000,1000,1000,1,num_2,0.4005263000144623,,24,16,2026-03-04_16h35.15.118,2026A_exp2,2022.2.4,59.91019463187081,
1,0,0.0,3.7,1,0,69,69,25,,,,,234.2543130000122,234.90501760004554,234.90501760004554,235.40592950000428,45,315,235.40592950000428,235.40592950000428,235.40592950000428,235.40592950000428,235.40592950000428,235.40592950000428,235.40592950000428,235.40592950000428,235.40592950000428,235.75574749999214,235.75574749999214,235.75574749999214,235.75574749999214,235.75574749999214,235.75574749999214,235.75574749999214,235.75574749999214,235.75574749999214,0,1,[0.0012330000172369182],[0.3504969000350684],235.75574749999214,235.9559969000402,3.7,235.9559969000402,1,3.7,1,1,1000,num_4,0.8980875000124797,,24,16,2026-03-04_16h35.15.118,2026A_exp2,2022.2.4,59.91019463187081,
1000,1,6.1,4.9,1,0,70,70,76,,,,,236.87357620004332,237.5076006000163,237.5076006000163,238.0085755000473,315,45,238.0085755000473,238.0085755000473,238.0085755000473,238.0085755000473,238.0085755000473,238.0085755000473,238.0085755000473,238.0085755000473,238.0085755000473,238.37511200003792,238.37511200003792,238.37511200003792,238.37511200003792,238.37511200003792,238.37511200003792,238.37511200003792,238.37511200003792,238.37511200003792,0,1,[0.0012134999851696193],[0.36721549998037517],238.37511200003792,238.5773610000033,1000,238.5773610000033,1000,1000,1000,1000,0,num_3,0.5568315000273287,,24,16,2026-03-04_16h35.15.118,2026A_exp2,2022.2.4,59.91019463187081,
1000,1,6.1,0.0,0,0,71,71,58,,,,,239.159063900006,239.80972860002657,239.80972860002657,240.31097320001572,315,315,240.31097320001572,240.31097320001572,240.31097320001572,240.31097320001572,240.31097320001572,240.31097320001572,240.31097320001572,240.31097320001572,240.31097320001572,240.66075660003116,240.66075660003116,240.66075660003116,240.66075660003116,240.66075660003116,240.66075660003116,240.66075660003116,240.66075660003116,240.66075660003116,0,1,[0.0012203000369481742],[0.3505039000301622],240.66075660003116,240.86263560003135,1000,240.87743120000232,1000,1000,1000,1000,0,num_3,0.46539329999359325,,24,16,2026-03-04_16h35.15.118,2026A_exp2,2022.2.4,59.91019463187081,
1000,1,4.9,4.9,1,0,72,72,85,,,,,241.36121649999404,242.01208780001616,242.01208780001616,242.51320859999396,315,315,242.51320859999396,242.51320859999396,242.51320859999396,242.51320859999396,242.51320859999396,242.51320859999396,242.51320859999396,242.51320859999396,242.51320859999396,242.8795223000343,242.8795223000343,242.8795223000343,242.8795223000343,242.8795223000343,242.8795223000343,242.8795223000343,242.8795223000343,242.8795223000343,0,1,[0.00121640000725165],[0.36715330003062263],242.8795223000343,243.08149240002967,1000,243.08149240002967,1000,1000,1000,1000,0,num_3,0.8939980999566615,,24,16,2026-03-04_16h35.15.118,2026A_exp2,2022.2.4,59.91019463187081,
1000,1,0.0,0.0,1,0,73,73,40,,,,,243.99729480000678,244.64795220002998,244.64795220002998,245.1491384000401,315,315,245.1491384000401,245.1491384000401,245.1491384000401,245.1491384000401,245.1491384000401,245.1491384000401,245.1491384000401,245.1491384000401,245.1491384000401,245.51555650000228,245.51555650000228,245.51555650000228,245.51555650000228,245.51555650000228,245.51555650000228,245.51555650000228,245.51555650000228,245.51555650000228,0,1,[0.0014476999640464783],[0.3673453999799676],245.51555650000228,245.71766920003574,1000,245.71766920003574,1000,1000,1000,1000,0,num_3,0.8811648999690078,,24,16,2026-03-04_16h35.15.118,2026A_exp2,2022.2.4,59.91019463187081,
1,0,3.7,6.1,1,0,74,74,6,,,,,246.61672769999132,247.26747550000437,247.26747550000437,247.76845870004036,45,45,247.76845870004036,247.76845870004036,247.76845870004036,247.76845870004036,247.76845870004036,247.76845870004036,247.76845870004036,247.76845870004036,247.76845870004036,248.1348117000307,248.1348117000307,248.1348117000307,248.1348117000307,248.1348117000307,248.1348117000307,248.1348117000307,248.1348117000307,248.1348117000307,0,1,[0.0012559000169858336],[0.36686330003431067],248.1348117000307,248.33501070004422,6.1,248.33501070004422,1,6.1,1,1,1000,num_4,1.8631700000260025,,24,16,2026-03-04_16h35.15.118,2026A_exp2,2022.2.4,59.91019463187081,
1,0,0.0,0.0,0,0,75,75,29,,,,,250.22035970003344,250.8708176999935,250.8708176999935,251.35501140000997,45,315,251.35501140000997,251.35501140000997,251.35501140000997,251.35501140000997,251.35501140000997,251.35501140000997,251.35501140000997,251.35501140000997,251.35501140000997,251.72161820001202,251.72161820001202,251.72161820001202,251.72161820001202,251.72161820001202,251.72161820001202,251.72161820001202,251.72161820001202,251.72161820001202,0,1,[0.0012524999910965562],[0.3670550000388175],251.72161820001202,251.92177110002376,0.0,251.92177110002376,0,0.0,0,1,1000,num_1,0.8685400999966078,,24,16,2026-03-04_16h35.15.118,2026A_exp2,2022.2.4,59.91019463187081,
1,0,0.0,0.0,0,0,76,76,19,,,,,252.8060492000077,253.45658410002943,253.45658410002943,253.95819720003055,315,315,253.95819720003055,253.95819720003055,253.95819720003055,253.95819720003055,253.95819720003055,253.95819720003055,253.95819720003055,253.95819720003055,253.95819720003055,254.30759010004112,254.30759010004112,254.30759010004112,254.30759010004112,254.30759010004112,254.30759010004112,254.30759010004112,254.30759010004112,254.30759010004112,0,1,[0.000699699972756207],[0.3507489999756217],254.30759010004112,254.50793960003648,0.0,254.50793960003648,0,0.0,0,1,1000,num_1,0.7867918999982066,,24,16,2026-03-04_16h35.15.118,2026A_exp2,2022.2.4,59.91019463187081,
1,0,6.1,0.0,1,0,77,77,38,,,,,255.32510370004456,255.9760673000128,255.9760673000128,256.4605140000349,315,45,256.4605140000349,256.4605140000349,256.4605140000349,256.4605140000349,256.4605140000349,256.4605140000349,256.4605140000349,256.4605140000349,256.4605140000349,256.8268948000041,256.8268948000041,256.8268948000041,256.8268948000041,256.8268948000041,256.8268948000041,256.8268948000041,256.8268948000041,256.8268948000041,0,1,[0.0012159000034444034],[0.3673039000132121],256.8268948000041,257.02715370000806,0.0,257.02715370000806,0,0.0,0,1,1000,num_1,1.0922737999935634,,24,16,2026-03-04_16h35.15.118,2026A_exp2,2022.2.4,59.91019463187081,
1,0,0.0,6.1,0,0,78,78,57,,,,,258.1461222000071,258.8038683999912,258.8038683999912,259.30145720002474,315,315,259.30145720002474,259.30145720002474,259.30145720002474,259.30145720002474,259.30145720002474,259.30145720002474,259.30145720002474,259.30145720002474,259.30145720002474,259.66278450004756,259.66278450004756,259.66278450004756,259.66278450004756,259.66278450004756,259.66278450004756,259.66278450004756,259.66278450004756,259.66278450004756,0,1,[0.0027262999792583287],[0.3661739000235684],259.66278450004756,259.8632120999973,0.0,259.8632120999973,0,0.0,0,1,1000,num_1,0.9433860999997705,,24,16,2026-03-04_16h35.15.118,2026A_exp2,2022.2.4,59.91019463187081,
1,0,6.1,6.1,1,0,79,79,89,,,,,260.8306775999954,261.48136740003247,261.48136740003247,261.9658546000137,315,45,261.9658546000137,261.9658546000137,261.9658546000137,261.9658546000137,261.9658546000137,261.9658546000137,261.9658546000137,261.9658546000137,261.9658546000137,262.33233200001996,262.33233200001996,262.33233200001996,262.33233200001996,262.33233200001996,262.33233200001996,262.33233200001996,262.33233200001996,262.33233200001996,0,1,[0.0012567000230774283],[0.36740470002405345],262.33233200001996,262.5326100999955,6.1,262.5326100999955,1,6.1,1,1,1000,num_4,0.6339253999758512,,24,16,2026-03-04_16h35.15.118,2026A_exp2,2022.2.4,59.91019463187081,
1000,1,3.7,0.0,1,0,80,80,21,,,,,263.18301870004507,263.8335505000432,263.8335505000432,264.3183302000398,315,315,264.3183302000398,264.3183302000398,264.3183302000398,264.3183302000398,264.3183302000398,264.3183302000398,264.3183302000398,264.3183302000398,264.3183302000398,264.6846710999962,264.6846710999962,264.6846710999962,264.6846710999962,264.6846710999962,264.6846710999962,264.6846710999962,264.6846710999962,264.6846710999962,0,1,[0.0007465999806299806],[0.36702569999033585],264.6846710999962,264.8868297000299,1000,264.8868297000299,1000,1000,1000,1000,0,num_3,0.7912486999994144,,24,16,2026-03-04_16h35.15.118,2026A_exp2,2022.2.4,59.91019463187081,
1,0,4.9,0.0,1,0,81,81,15,,,,,265.70251950004604,266.35309460002463,266.35309460002463,266.8540093000047,315,45,266.8540093000047,266.8540093000047,266.8540093000047,266.8540093000047,266.8540093000047,266.8540093000047,266.8540093000047,266.8540093000047,266.8540093000047,267.2038642000407,267.2038642000407,267.2038642000407,267.2038642000407,267.2038642000407,267.2038642000407,267.2038642000407,267.2038642000407,267.2038642000407,0,1,[0.0012156000011600554],[0.3503991999896243],267.2038642000407,267.40400620002765,0.0,267.42083479999565,1,0.0,0,0,1000,num_4,1.6812413000152446,,24,16,2026-03-04_16h35.15.118,2026A_exp2,2022.2.4,59.91019463187081,
1,0,6.1,0.0,1,0,82,82,54,,,,,269.12232650001533,269.7730194000178,269.7730194000178,270.25763690000167,45,315,270.25763690000167,270.25763690000167,270.25763690000167,270.25763690000167,270.25763690000167,270.25763690000167,270.25763690000167,270.25763690000167,270.25763690000167,270.6239312000107,270.6239312000107,270.6239312000107,270.6239312000107,270.6239312000107,270.6239312000107,270.6239312000107,270.6239312000107,270.6239312000107,0,1,[0.001047199999447912],[0.36729389999527484],270.6239312000107,270.824180399999,0.0,270.824180399999,0,0.0,0,1,1000,num_1,0.9024317999719642,,24,16,2026-03-04_16h35.15.118,2026A_exp2,2022.2.4,59.91019463187081,
1000,1,3.7,3.7,1,0,83,83,88,,,,,271.75850860000355,272.40906840004027,272.40906840004027,272.8936169000226,315,315,272.8936169000226,272.8936169000226,272.8936169000226,272.8936169000226,272.8936169000226,272.8936169000226,272.8936169000226,272.8936169000226,272.8936169000226,273.26003480004147,273.26003480004147,273.26003480004147,273.26003480004147,273.26003480004147,273.26003480004147,273.26003480004147,273.26003480004147,273.26003480004147,1,1,[0.017512099992018193],[0.3671483999933116],273.26003480004147,273.4616467000451,1000,273.4616467000451,1000,1000,1000,1000,0,num_3,0.7843070999952033,,24,16,2026-03-04_16h35.15.118,2026A_exp2,2022.2.4,59.91019463187081,
1,0,3.7,6.1,0,0,84,84,55,,,,,274.27738089999184,274.92829800001346,274.92829800001346,275.4127853999962,315,45,275.4127853999962,275.4127853999962,275.4127853999962,275.4127853999962,275.4127853999962,275.4127853999962,275.4127853999962,275.4127853999962,275.4127853999962,275.77916760003427,275.77916760003427,275.77916760003427,275.77916760003427,275.77916760003427,275.77916760003427,275.77916760003427,275.77916760003427,275.77916760003427,0,1,[0.0012128999806009233],[0.36714370001573116],275.77916760003427,275.97935070004314,3.7,275.97935070004314,0,3.7,1,0,1000,num_1,1.2187514000106603,,24,16,2026-03-04_16h35.15.118,2026A_exp2,2022.2.4,59.91019463187081,
1000,1,6.1,0.0,0,0,85,85,68,,,,,277.2136678000097,277.8646227000281,277.8646227000281,278.35120350000216,315,315,278.35120350000216,278.35120350000216,278.35120350000216,278.35120350000216,278.35120350000216,278.35120350000216,278.35120350000216,278.35120350000216,278.35120350000216,278.71540740004275,278.71540740004275,278.71540740004275,278.71540740004275,278.71540740004275,278.71540740004275,278.71540740004275,278.71540740004275,278.71540740004275,0,1,[0.0008960000122897327],[0.36750660004327074],278.71540740004275,278.9172293000156,1000,278.9172293000156,1000,1000,1000,1000,0,num_3,1.1940034999861382,,24,16,2026-03-04_16h35.15.118,2026A_exp2,2022.2.4,59.91019463187081,
1000,1,3.7,0.0,0,0,86,86,37,,,,,280.13343099999474,280.78421260003233,280.78421260003233,281.28531240002485,315,315,281.28531240002485,281.28531240002485,281.28531240002485,281.28531240002485,281.28531240002485,281.28531240002485,281.28531240002485,281.28531240002485,281.28531240002485,281.63502859999426,281.63502859999426,281.63502859999426,281.63502859999426,281.63502859999426,281.63502859999426,281.63502859999426,281.63502859999426,281.63502859999426,0,1,[0.0011900999816134572],[0.3503795000142418],281.63502859999426,281.8367991000414,1000,281.8367991000414,1000,1000,1000,1000,1,num_2,0.8103745999978855,,24,16,2026-03-04_16h35.15.118,2026A_exp2,2022.2.4,59.91019463187081,
1000,1,0.0,3.7,1,0,87,87,75,,,,,282.66939420002745,283.31989919999614,283.31989919999614,283.82104920002166,45,315,283.82104920002166,283.82104920002166,283.82104920002166,283.82104920002166,283.82104920002166,283.82104920002166,283.82104920002166,283.82104920002166,283.82104920002166,284.1876762000029,284.1876762000029,284.1876762000029,284.1876762000029,284.1876762000029,284.1876762000029,284.1876762000029,284.1876762000029,284.1876762000029,0,1,[0.0007477999897673726],[0.3677633999614045],284.1876762000029,284.38757160003297,1000,284.38757160003297,1000,1000,1000,1000,1,num_2,0.7710148000041954,,24,16,2026-03-04_16h35.15.118,2026A_exp2,2022.2.4,59.91019463187081,
1,0,6.1,4.9,0,0,88,88,30,,,,,285.1890362999984,285.82267710001906,285.82267710001906,286.3233246000018,315,45,286.3233246000018,286.3233246000018,286.3233246000018,286.3233246000018,286.3233246000018,286.3233246000018,286.3233246000018,286.3233246000018,286.3233246000018,286.6896053000237,286.6896053000237,286.6896053000237,286.6896053000237,286.6896053000237,286.6896053000237,286.6896053000237,286.6896053000237,286.6896053000237,0,1,[0.0009074999834410846],[0.3669613999663852],286.6896053000237,286.8898548000143,6.1,286.8898548000143,1,6.1,1,1,1000,num_4,0.8686712999478914,,24,16,2026-03-04_16h35.15.118,2026A_exp2,2022.2.4,59.91019463187081,
1000,1,6.1,6.1,0,0,89,89,74,,,,,287.79072420002194,288.4249142000335,288.4249142000335,288.9262713000062,315,315,288.9262713000062,288.9262713000062,288.9262713000062,288.9262713000062,288.9262713000062,288.9262713000062,288.9262713000062,288.9262713000062,288.9262713000062,289.2925960000139,289.2925960000139,289.2925960000139,289.2925960000139,289.2925960000139,289.2925960000139,289.2925960000139,289.2925960000139,289.2925960000139,0,1,[0.0007586000137962401],[0.3676003000000492],289.2925960000139,289.49523230001796,1000,289.49523230001796,1000,1000,1000,1000,0,num_3,0.8306562000070699,,24,16,2026-03-04_16h35.15.118,2026A_exp2,2022.2.4,59.91019463187081,
,,,,,,,,,,,,,,,,,,,,,,,,,,,,,,,,,,,,,,,,,,,,,,,,,,,,290.3537568000029,,,,,,,
