validity,detectorcomp,contrastCW,contrastCCW,precueCWorCCW,block_80trials.thisRepN,block_80trials.thisTrialN,block_80trials.thisN,block_80trials.thisIndex,etRecord.started,etRecord.stopped,text.started,text.stopped,text_4.started,text_4.stopped,text_6.started,text_6.stopped,oriCW,oriCCW,roi_2.started,grating_UR.started,grating_UL.started,grating_LR.started,grating_LL.started,noise_UR.started,noise_UL.started,noise_LR.started,noise_LL.started,roi_2.stopped,grating_UR.stopped,grating_UL.stopped,grating_LR.stopped,grating_LL.stopped,noise_UR.stopped,noise_UL.stopped,noise_LR.stopped,noise_LL.stopped,outframe,roi_2.numLooks,roi_2.timesOn,roi_2.timesOff,text_2.started,text_2.stopped,probedcontrast,key_resp.started,respdetect,relevantContrast,correctDetect,TorFdetect,respCWorCCW,key_resp.keys,key_resp.rt,feedback_display_.started,participantNo,blockNo,date,expName,psychopyVersion,frameRate,
1,0,0.0,0.0,1,0,0,0,24,3.500000457279384e-05,3.500000457279384e-05,59.09652759999153,61.10164509998867,61.10164509998867,61.73385259998031,61.73385259998031,62.252499099995475,45,45,62.252499099995475,62.252499099995475,62.252499099995475,62.252499099995475,62.252499099995475,62.252499099995475,62.252499099995475,62.252499099995475,62.252499099995475,62.601376999984495,62.601376999984495,62.601376999984495,62.601376999984495,62.601376999984495,62.601376999984495,62.601376999984495,62.601376999984495,62.601376999984495,0,1,[0.0009707999997772276],[0.36823410002398305],62.601376999984495,62.80401229998097,0.0,62.80401229998097,0,0.0,0,1,1000,num_1,1.539179499988677,,21,6,2026-03-02_17h45.18.459,2026A_exp2,2022.2.4,59.924698622373846,
1,0,0.0,6.1,1,0,1,1,39,,,,,64.36992679999094,65.02044779999414,65.02044779999414,65.51008809998166,45,45,65.51008809998166,65.51008809998166,65.51008809998166,65.51008809998166,65.51008809998166,65.51008809998166,65.51008809998166,65.51008809998166,65.51008809998166,65.87153380000382,65.87153380000382,65.87153380000382,65.87153380000382,65.87153380000382,65.87153380000382,65.87153380000382,65.87153380000382,65.87153380000382,0,1,[0.0027587999938987195],[0.36700879997806624],65.87153380000382,66.07509080000455,6.1,66.07509080000455,0,6.1,1,0,1000,num_1,6.851653599995188,,21,6,2026-03-02_17h45.18.459,2026A_exp2,2022.2.4,59.924698622373846,
1,0,0.0,3.7,1,0,2,2,83,,,,,72.94514229998458,73.59584080000059,73.59584080000059,74.08026049999171,45,45,74.08026049999171,74.08026049999171,74.08026049999171,74.08026049999171,74.08026049999171,74.08026049999171,74.08026049999171,74.08026049999171,74.08026049999171,74.4466601999884,74.4466601999884,74.4466601999884,74.4466601999884,74.4466601999884,74.4466601999884,74.4466601999884,74.4466601999884,74.4466601999884,0,1,[0.0012224999954923987],[0.3672620999859646],74.4466601999884,74.64678379998077,3.7,74.64678379998077,0,3.7,1,0,1000,num_1,0.4479480999871157,,21,6,2026-03-02_17h45.18.459,2026A_exp2,2022.2.4,59.924698622373846,
0,0,4.9,6.1,0,0,3,3,1,,,,,75.11396379998769,75.76450499999919,75.76450499999919,76.26569810000365,315,45,76.26569810000365,76.26569810000365,76.26569810000365,76.26569810000365,76.26569810000365,76.26569810000365,76.26569810000365,76.26569810000365,76.26569810000365,76.61544969998067,76.61544969998067,76.61544969998067,76.61544969998067,76.61544969998067,76.61544969998067,76.61544969998067,76.61544969998067,76.61544969998067,0,1,[0.0013261999993119389],[0.35066899997764267],76.61544969998067,76.8155834999925,6.1,76.83233249999466,1,6.1,1,1,1000,num_4,1.7505157999985386,,21,6,2026-03-02_17h45.18.459,2026A_exp2,2022.2.4,59.924698622373846,
1000,1,0.0,6.1,0,0,4,4,85,,,,,78.60078789998079,79.25144939997699,79.25144939997699,79.73588189997827,45,315,79.73588189997827,79.73588189997827,79.73588189997827,79.73588189997827,79.73588189997827,79.73588189997827,79.73588189997827,79.73588189997827,79.73588189997827,80.10193639999488,80.10193639999488,80.10193639999488,80.10193639999488,80.10193639999488,80.10193639999488,80.10193639999488,80.10193639999488,80.10193639999488,0,1,[0.001299499999731779],[0.3670603999926243],80.10193639999488,80.30223349999869,1000,80.30223349999869,1000,1000,1000,1000,1,num_2,0.6252791000006255,,21,6,2026-03-02_17h45.18.459,2026A_exp2,2022.2.4,59.924698622373846,
1000,1,3.7,0.0,1,0,5,5,54,,,,,80.95319249999011,81.60352939998847,81.60352939998847,82.10489519999828,315,315,82.10489519999828,82.10489519999828,82.10489519999828,82.10489519999828,82.10489519999828,82.10489519999828,82.10489519999828,82.10489519999828,82.10489519999828,82.4711514999799,82.4711514999799,82.4711514999799,82.4711514999799,82.4711514999799,82.4711514999799,82.4711514999799,82.4711514999799,82.4711514999799,0,1,[0.001236900017829612],[0.3672073000052478],82.4711514999799,82.67348050000146,1000,82.67348050000146,1000,1000,1000,1000,0,num_3,0.630043300014222,,21,6,2026-03-02_17h45.18.459,2026A_exp2,2022.2.4,59.924698622373846,
1000,1,4.9,6.1,1,0,6,6,4,,,,,83.3220456999843,83.97287579998374,83.97287579998374,84.47398640000029,315,45,84.47398640000029,84.47398640000029,84.47398640000029,84.47398640000029,84.47398640000029,84.47398640000029,84.47398640000029,84.47398640000029,84.47398640000029,84.84022240000195,84.84022240000195,84.84022240000195,84.84022240000195,84.84022240000195,84.84022240000195,84.84022240000195,84.84022240000195,84.84022240000195,0,1,[0.0012255999899934977],[0.3672398999915458],84.84022240000195,85.04242079998949,1000,85.04242079998949,1000,1000,1000,1000,0,num_3,0.8616582999820821,,21,6,2026-03-02_17h45.18.459,2026A_exp2,2022.2.4,59.924698622373846,
1,0,0.0,0.0,1,0,7,7,60,,,,,85.9245804999955,86.57547670000349,86.57547670000349,87.076550400001,45,315,87.076550400001,87.076550400001,87.076550400001,87.076550400001,87.076550400001,87.076550400001,87.076550400001,87.076550400001,87.076550400001,87.44275200000266,87.44275200000266,87.44275200000266,87.44275200000266,87.44275200000266,87.44275200000266,87.44275200000266,87.44275200000266,87.44275200000266,0,1,[0.001247400010470301],[0.3671671000192873],87.44275200000266,87.6430419999815,0.0,87.6430419999815,0,0.0,0,1,1000,num_1,1.1088622999959625,,21,6,2026-03-02_17h45.18.459,2026A_exp2,2022.2.4,59.924698622373846,
1,0,4.9,0.0,0,0,8,8,14,,,,,88.77765289999661,89.41154109998024,89.41154109998024,89.91255009997985,315,45,89.91255009997985,89.91255009997985,89.91255009997985,89.91255009997985,89.91255009997985,89.91255009997985,89.91255009997985,89.91255009997985,89.91255009997985,90.27905389998341,90.27905389998341,90.27905389998341,90.27905389998341,90.27905389998341,90.27905389998341,90.27905389998341,90.27905389998341,90.27905389998341,0,1,[0.0012864999880548567],[0.3673533000110183],90.27905389998341,90.47936080000363,4.9,90.47936080000363,1,4.9,1,1,1000,num_4,0.696805299987318,,21,6,2026-03-02_17h45.18.459,2026A_exp2,2022.2.4,59.924698622373846,
1,0,0.0,4.9,0,0,9,9,48,,,,,91.19667019997723,91.84739179999451,91.84739179999451,92.33173099998385,315,45,92.33173099998385,92.33173099998385,92.33173099998385,92.33173099998385,92.33173099998385,92.33173099998385,92.33173099998385,92.33173099998385,92.33173099998385,92.69803289999254,92.69803289999254,92.69803289999254,92.69803289999254,92.69803289999254,92.69803289999254,92.69803289999254,92.69803289999254,92.69803289999254,0,1,[0.0012032999948132783],[0.3669763999932911],92.69803289999254,92.89831379998941,0.0,92.89831379998941,0,0.0,0,1,1000,num_1,0.6847026000032201,,21,6,2026-03-02_17h45.18.459,2026A_exp2,2022.2.4,59.924698622373846,
1,0,0.0,0.0,1,0,10,10,42,,,,,93.59899879997829,94.24964379999437,94.24964379999437,94.73418139998103,45,315,94.73418139998103,94.73418139998103,94.73418139998103,94.73418139998103,94.73418139998103,94.73418139998103,94.73418139998103,94.73418139998103,94.73418139998103,95.10052599999472,95.10052599999472,95.10052599999472,95.10052599999472,95.10052599999472,95.10052599999472,95.10052599999472,95.10052599999472,95.10052599999472,0,1,[0.0012614000006578863],[0.36728010000661016],95.10052599999472,95.30088799999794,0.0,95.30088799999794,0,0.0,0,1,1000,num_1,0.7393186999834143,,21,6,2026-03-02_17h45.18.459,2026A_exp2,2022.2.4,59.924698622373846,
1000,1,4.9,6.1,0,0,11,11,59,,,,,96.068114099995,96.71884899999714,96.71884899999714,97.20332289999351,45,45,97.20332289999351,97.20332289999351,97.20332289999351,97.20332289999351,97.20332289999351,97.20332289999351,97.20332289999351,97.20332289999351,97.20332289999351,97.56969189998927,97.56969189998927,97.56969189998927,97.56969189998927,97.56969189998927,97.56969189998927,97.56969189998927,97.56969189998927,97.56969189998927,2,3,"[0.0012040000001434237, 0.05026150000048801, 0.08366340000065975]","[0.03366469999309629, 0.06699449999723583, 0.36715420000837184]",97.56969189998927,97.77001730000484,1000,97.77001730000484,1000,1000,1000,1000,0,num_3,2.925862500007497,,21,6,2026-03-02_17h45.18.459,2026A_exp2,2022.2.4,59.924698622373846,
1000,1,0.0,0.0,1,0,12,12,37,,,,,100.7228753999807,101.37356049998198,101.37356049998198,101.87465499999234,315,45,101.87465499999234,101.87465499999234,101.87465499999234,101.87465499999234,101.87465499999234,101.87465499999234,101.87465499999234,101.87465499999234,101.87465499999234,102.24106499998015,102.24106499998015,102.24106499998015,102.24106499998015,102.24106499998015,102.24106499998015,102.24106499998015,102.24106499998015,102.24106499998015,20,3,"[0.10020299997995608, 0.18351370000164025, 0.30037939999601804]","[0.11693739998736419, 0.20035459997598082, 0.31700959999579936]",102.24106499998015,102.4432167999912,1000,102.4432167999912,1000,1000,1000,1000,0,num_3,1.3406669999822043,,21,6,2026-03-02_17h45.18.459,2026A_exp2,2022.2.4,59.924698622373846,
1000,1,0.0,0.0,1,0,13,13,63,,,,,103.80928399998811,104.46002269999008,104.46002269999008,104.96100909999222,315,315,104.96100909999222,104.96100909999222,104.96100909999222,104.96100909999222,104.96100909999222,104.96100909999222,104.96100909999222,104.96100909999222,104.96100909999222,105.32748959999299,105.32748959999299,105.32748959999299,105.32748959999299,105.32748959999299,105.32748959999299,105.32748959999299,105.32748959999299,105.32748959999299,8,5,"[0.0012212999863550067, 0.050278899987461045, 0.1336373999947682, 0.2838595999928657, 0.3337767999910284]","[0.017330999980913475, 0.08354900000267662, 0.26701369998045266, 0.30051969998748973, 0.3672563000000082]",105.32748959999299,105.52963659999659,1000,105.52963659999659,1000,1000,1000,1000,0,num_3,1.061338200001046,,21,6,2026-03-02_17h45.18.459,2026A_exp2,2022.2.4,59.924698622373846,
0,0,0.0,6.1,0,0,14,14,12,,,,,106.61211509999703,107.26278079999611,107.26278079999611,107.7637626999931,45,315,107.7637626999931,107.7637626999931,107.7637626999931,107.7637626999931,107.7637626999931,107.7637626999931,107.7637626999931,107.7637626999931,107.7637626999931,108.13000949998968,108.13000949998968,108.13000949998968,108.13000949998968,108.13000949998968,108.13000949998968,108.13000949998968,108.13000949998968,108.13000949998968,5,2,"[0.05009330000029877, 0.2837327000161167]","[0.26705610001226887, 0.3668711000063922]",108.13000949998968,108.33046110000578,6.1,108.33046110000578,1,6.1,1,1,1000,num_4,1.4453693999967072,,21,6,2026-03-02_17h45.18.459,2026A_exp2,2022.2.4,59.924698622373846,
0,0,6.1,0.0,0,0,15,15,65,,,,,109.79845849997946,110.44914979999885,110.44914979999885,110.93375309999101,315,315,110.93375309999101,110.93375309999101,110.93375309999101,110.93375309999101,110.93375309999101,110.93375309999101,110.93375309999101,110.93375309999101,110.93375309999101,111.30016499999329,111.30016499999329,111.30016499999329,111.30016499999329,111.30016499999329,111.30016499999329,111.30016499999329,111.30016499999329,111.30016499999329,2,2,"[0.0012257000198587775, 0.05015540000749752]","[0.017412900022463873, 0.36722939999890514]",111.30016499999329,111.50014170000213,0.0,111.50014170000213,0,0.0,0,1,1000,num_1,0.9153835999895819,,21,6,2026-03-02_17h45.18.459,2026A_exp2,2022.2.4,59.924698622373846,
1000,1,0.0,4.9,0,0,16,16,50,,,,,112.43443299998762,113.08531870000297,113.08531870000297,113.56961259999662,315,45,113.56961259999662,113.56961259999662,113.56961259999662,113.56961259999662,113.56961259999662,113.56961259999662,113.56961259999662,113.56961259999662,113.56961259999662,113.93620289998944,113.93620289998944,113.93620289998944,113.93620289998944,113.93620289998944,113.93620289998944,113.93620289998944,113.93620289998944,113.93620289998944,3,4,"[0.0012125999783165753, 0.11696839999058284, 0.25047389999963343, 0.31715789998997934]","[0.10017079999670386, 0.23380519999773242, 0.30053789998055436, 0.3676059999852441]",113.93620289998944,114.13825600000564,1000,114.13825600000564,1000,1000,1000,1000,1,num_2,1.3649370999773964,,21,6,2026-03-02_17h45.18.459,2026A_exp2,2022.2.4,59.924698622373846,
1,0,0.0,6.1,1,0,17,17,17,,,,,115.52092640000046,116.17171719999169,116.17171719999169,116.67267579998588,315,315,116.67267579998588,116.67267579998588,116.67267579998588,116.67267579998588,116.67267579998588,116.67267579998588,116.67267579998588,116.67267579998588,116.67267579998588,117.03923840000061,117.03923840000061,117.03923840000061,117.03923840000061,117.03923840000061,117.03923840000061,117.03923840000061,117.03923840000061,117.03923840000061,22,1,[0.01742489999742247],[0.0337283999833744],117.03923840000061,117.23937949998071,6.1,117.23937949998071,1,6.1,1,1,1000,num_4,2.871718900016276,,21,6,2026-03-02_17h45.18.459,2026A_exp2,2022.2.4,59.924698622373846,
1000,1,0.0,0.0,1,0,18,18,72,,,,,120.14217019997886,120.79293179998058,120.79293179998058,121.2773973000003,315,45,121.2773973000003,121.2773973000003,121.2773973000003,121.2773973000003,121.2773973000003,121.2773973000003,121.2773973000003,121.2773973000003,121.2773973000003,121.64385880000191,121.64385880000191,121.64385880000191,121.64385880000191,121.64385880000191,121.64385880000191,121.64385880000191,121.64385880000191,121.64385880000191,1,2,"[0.0012058000138495117, 0.21689820001483895]","[0.18379040001309477, 0.3672285000211559]",121.64385880000191,121.85330359998625,1000,121.85330359998625,1000,1000,1000,1000,1,num_2,1.0414703999995254,,21,6,2026-03-02_17h45.18.459,2026A_exp2,2022.2.4,59.924698622373846,
1,0,3.7,0.0,1,0,19,19,73,,,,,122.91161250000005,123.56248219998088,123.56248219998088,124.06362109998008,45,45,124.06362109998008,124.06362109998008,124.06362109998008,124.06362109998008,124.06362109998008,124.06362109998008,124.06362109998008,124.06362109998008,124.06362109998008,124.41324490000261,124.41324490000261,124.41324490000261,124.41324490000261,124.41324490000261,124.41324490000261,124.41324490000261,124.41324490000261,124.41324490000261,0,1,[0.0012106000212952495],[0.35034600002109073],124.41324490000261,124.61347079998814,0.0,124.62999769998714,0,0.0,0,1,1000,num_1,1.1693169999925885,,21,6,2026-03-02_17h45.18.459,2026A_exp2,2022.2.4,59.924698622373846,
1,0,6.1,0.0,1,0,20,20,41,,,,,125.83131290000165,126.48195449999184,126.48195449999184,126.9663753999921,315,45,126.9663753999921,126.9663753999921,126.9663753999921,126.9663753999921,126.9663753999921,126.9663753999921,126.9663753999921,126.9663753999921,126.9663753999921,127.33271580000292,127.33271580000292,127.33271580000292,127.33271580000292,127.33271580000292,127.33271580000292,127.33271580000292,127.33271580000292,127.33271580000292,3,2,"[0.017421700002159923, 0.10023750000982545]","[0.06698840000899509, 0.3673782999976538]",127.33271580000292,127.533048399986,0.0,127.533048399986,0,0.0,0,1,1000,num_1,0.7696664000104647,,21,6,2026-03-02_17h45.18.459,2026A_exp2,2022.2.4,59.924698622373846,
1,0,0.0,4.9,1,0,21,21,2,,,,,128.3338109999895,128.98444499998004,128.98444499998004,129.46900049998658,45,45,129.46900049998658,129.46900049998658,129.46900049998658,129.46900049998658,129.46900049998658,129.46900049998658,129.46900049998658,129.46900049998658,129.46900049998658,129.83535959999426,129.83535959999426,129.83535959999426,129.83535959999426,129.83535959999426,129.83535959999426,129.83535959999426,129.83535959999426,129.83535959999426,12,3,"[0.13372809998691082, 0.20036550000077114, 0.23395779999555089]","[0.1504745999991428, 0.2172013999952469, 0.3674033999850508]",129.83535959999426,130.03556749998825,4.9,130.03556749998825,1,4.9,1,1,1000,num_4,0.7633507999998983,,21,6,2026-03-02_17h45.18.459,2026A_exp2,2022.2.4,59.924698622373846,
1,0,3.7,4.9,0,0,22,22,70,,,,,130.81949500000337,131.4703235999914,131.4703235999914,131.9712756999943,45,45,131.9712756999943,131.9712756999943,131.9712756999943,131.9712756999943,131.9712756999943,131.9712756999943,131.9712756999943,131.9712756999943,131.9712756999943,132.32120109998505,132.32120109998505,132.32120109998505,132.32120109998505,132.32120109998505,132.32120109998505,132.32120109998505,132.32120109998505,132.32120109998505,18,4,"[0.017398000025423244, 0.08340990002034232, 0.1505116000189446, 0.18381640000734478]","[0.033505600003991276, 0.1003039000206627, 0.16724720000638627, 0.20056910000857897]",132.32120109998505,132.52136650000466,3.7,132.52136650000466,0,3.7,1,0,1000,num_1,1.0618512000073679,,21,6,2026-03-02_17h45.18.459,2026A_exp2,2022.2.4,59.924698622373846,
1,0,0.0,6.1,0,0,23,23,3,,,,,133.60560929999338,134.25636070000473,134.25636070000473,134.7407269999967,315,45,134.7407269999967,134.7407269999967,134.7407269999967,134.7407269999967,134.7407269999967,134.7407269999967,134.7407269999967,134.7407269999967,134.7407269999967,135.10726930000237,135.10726930000237,135.10726930000237,135.10726930000237,135.10726930000237,135.10726930000237,135.10726930000237,135.10726930000237,135.10726930000237,22,1,[0.001271799992537126],[0.01724720001220703],135.10726930000237,135.3074723999889,0.0,135.3074723999889,0,0.0,0,1,1000,num_1,0.6440723999985494,,21,6,2026-03-02_17h45.18.459,2026A_exp2,2022.2.4,59.924698622373846,
1,0,4.9,0.0,0,0,24,24,47,,,,,135.97469439997803,136.62547339999583,136.62547339999583,137.1097768000036,315,315,137.1097768000036,137.1097768000036,137.1097768000036,137.1097768000036,137.1097768000036,137.1097768000036,137.1097768000036,137.1097768000036,137.1097768000036,137.47636209998745,137.47636209998745,137.47636209998745,137.47636209998745,137.47636209998745,137.47636209998745,137.47636209998745,137.47636209998745,137.47636209998745,23,0,,,137.47636209998745,137.6765669999877,4.9,137.6765669999877,1,4.9,1,1,1000,num_4,0.5228677999984939,,21,6,2026-03-02_17h45.18.459,2026A_exp2,2022.2.4,59.924698622373846,
1,0,6.1,0.0,0,0,25,25,22,,,,,138.22688269999344,138.8777373000048,138.8777373000048,139.3620289999817,45,45,139.3620289999817,139.3620289999817,139.3620289999817,139.3620289999817,139.3620289999817,139.3620289999817,139.3620289999817,139.3620289999817,139.3620289999817,139.72845100000268,139.72845100000268,139.72845100000268,139.72845100000268,139.72845100000268,139.72845100000268,139.72845100000268,139.72845100000268,139.72845100000268,13,3,"[0.001268699998036027, 0.11691630000132136, 0.23336439998820424]","[0.10022140000364743, 0.15024119999725372, 0.2666001000034157]",139.72845100000268,139.92882959998678,6.1,139.92882959998678,1,6.1,1,1,1000,num_4,0.6786661999940407,,21,6,2026-03-02_17h45.18.459,2026A_exp2,2022.2.4,59.924698622373846,
1,0,0.0,3.7,0,0,26,26,34,,,,,140.62942019998445,141.28013289999217,141.28013289999217,141.76449599998887,315,45,141.76449599998887,141.76449599998887,141.76449599998887,141.76449599998887,141.76449599998887,141.76449599998887,141.76449599998887,141.76449599998887,141.76449599998887,142.13082130000112,142.13082130000112,142.13082130000112,142.13082130000112,142.13082130000112,142.13082130000112,142.13082130000112,142.13082130000112,142.13082130000112,16,2,"[0.0008567000040784478, 0.08362379999016412]","[0.033590300008654594, 0.1672917999967467]",142.13082130000112,142.3311216000002,0.0,142.3311216000002,0,0.0,0,1,1000,num_1,0.652194900001632,,21,6,2026-03-02_17h45.18.459,2026A_exp2,2022.2.4,59.924698622373846,
0,0,0.0,0.0,0,0,27,27,10,,,,,143.0152165000036,143.66574689999106,143.66574689999106,144.15029550000327,45,45,144.15029550000327,144.15029550000327,144.15029550000327,144.15029550000327,144.15029550000327,144.15029550000327,144.15029550000327,144.15029550000327,144.15029550000327,144.51675789998262,144.51675789998262,144.51675789998262,144.51675789998262,144.51675789998262,144.51675789998262,144.51675789998262,144.51675789998262,144.51675789998262,0,1,[0.0012277000059839338],[0.3671211999899242],144.51675789998262,144.7212934999843,0.0,144.7212934999843,0,0.0,0,1,1000,num_1,0.526622800010955,,21,6,2026-03-02_17h45.18.459,2026A_exp2,2022.2.4,59.924698622373846,
1,0,0.0,0.0,0,0,28,28,87,,,,,145.26728559998446,145.91807719998178,145.91807719998178,146.4024797999882,45,45,146.4024797999882,146.4024797999882,146.4024797999882,146.4024797999882,146.4024797999882,146.4024797999882,146.4024797999882,146.4024797999882,146.4024797999882,146.76892669999506,146.76892669999506,146.76892669999506,146.76892669999506,146.76892669999506,146.76892669999506,146.76892669999506,146.76892669999506,146.76892669999506,0,1,[0.0012960000021848828],[0.36714680001023225],146.76892669999506,146.96906209998997,0.0,146.96906209998997,0,0.0,0,1,1000,num_1,0.6058010999986436,,21,6,2026-03-02_17h45.18.459,2026A_exp2,2022.2.4,59.924698622373846,
0,0,3.7,0.0,0,0,29,29,16,,,,,147.60302280000178,148.25366779998876,148.25366779998876,148.73807409999426,315,45,148.73807409999426,148.73807409999426,148.73807409999426,148.73807409999426,148.73807409999426,148.73807409999426,148.73807409999426,148.73807409999426,148.73807409999426,149.10458220000146,149.10458220000146,149.10458220000146,149.10458220000146,149.10458220000146,149.10458220000146,149.10458220000146,149.10458220000146,149.10458220000146,9,5,"[0.0010560000082477927, 0.13356860002386384, 0.21723090001614764, 0.2504781000025105, 0.33400100001017563]","[0.10028539999620989, 0.20060310000553727, 0.23375430001760833, 0.28390650000073947, 0.3503818000026513]",149.10458220000146,149.30472159999772,0.0,149.30472159999772,0,0.0,0,1,1000,num_1,0.758345799986273,,21,6,2026-03-02_17h45.18.459,2026A_exp2,2022.2.4,59.924698622373846,
1000,1,6.1,0.0,1,0,30,30,61,,,,,150.08879320000415,150.7394432000001,150.7394432000001,151.223923499987,45,45,151.223923499987,151.223923499987,151.223923499987,151.223923499987,151.223923499987,151.223923499987,151.223923499987,151.223923499987,151.223923499987,151.5903722999792,151.5903722999792,151.5903722999792,151.5903722999792,151.5903722999792,151.5903722999792,151.5903722999792,151.5903722999792,151.5903722999792,18,5,"[0.0012560999894049019, 0.033601999981328845, 0.06684009998571128, 0.10023119999095798, 0.13369210000382736]","[0.017314500000793487, 0.05018799999379553, 0.08367870000074618, 0.11687499997788109, 0.1503532000060659]",151.5903722999792,151.7927813999995,1000,151.7927813999995,1000,1000,1000,1000,0,num_3,0.6473004000145011,,21,6,2026-03-02_17h45.18.459,2026A_exp2,2022.2.4,59.924698622373846,
1,0,6.1,0.0,0,0,31,31,58,,,,,152.46155209999415,153.1085635999916,153.1085635999916,153.60955929997726,45,315,153.60955929997726,153.60955929997726,153.60955929997726,153.60955929997726,153.60955929997726,153.60955929997726,153.60955929997726,153.60955929997726,153.60955929997726,153.97614789998624,153.97614789998624,153.97614789998624,153.97614789998624,153.97614789998624,153.97614789998624,153.97614789998624,153.97614789998624,153.97614789998624,11,6,"[0.1002448000072036, 0.13389520000782795, 0.1670049999956973, 0.20047380001051351, 0.26739250001264736, 0.3006201999960467]","[0.11744400000316091, 0.1503188000060618, 0.18381950000184588, 0.25063029999728315, 0.2838585000135936, 0.3672401999938302]",153.97614789998624,154.17638369998895,6.1,154.17638369998895,1,6.1,1,1,1000,num_4,1.150508799997624,,21,6,2026-03-02_17h45.18.459,2026A_exp2,2022.2.4,59.924698622373846,
1,0,0.0,4.9,0,0,32,32,9,,,,,155.34402609997778,155.9948088999954,155.9948088999954,156.47922700000345,315,315,156.47922700000345,156.47922700000345,156.47922700000345,156.47922700000345,156.47922700000345,156.47922700000345,156.47922700000345,156.47922700000345,156.47922700000345,156.84569829999236,156.84569829999236,156.84569829999236,156.84569829999236,156.84569829999236,156.84569829999236,156.84569829999236,156.84569829999236,156.84569829999236,23,0,,,156.84569829999236,157.04590460000327,0.0,157.04590460000327,0,0.0,0,1,1000,num_1,5.977511500008404,,21,6,2026-03-02_17h45.18.459,2026A_exp2,2022.2.4,59.924698622373846,
1,0,6.1,0.0,1,0,33,33,23,,,,,163.05174130000523,163.7025922999892,163.7025922999892,164.18695909998496,45,315,164.18695909998496,164.18695909998496,164.18695909998496,164.18695909998496,164.18695909998496,164.18695909998496,164.18695909998496,164.18695909998496,164.18695909998496,164.5532372999878,164.5532372999878,164.5532372999878,164.5532372999878,164.5532372999878,164.5532372999878,164.5532372999878,164.5532372999878,164.5532372999878,3,3,"[0.0012393000070005655, 0.31667189998552203, 0.36675849999301136]","[0.30011609999928623, 0.33332249999511987, 0.36676139998598956]",164.5532372999878,164.7534637999779,0.0,164.7534637999779,0,0.0,0,1,1000,num_1,0.7014969000010751,,21,6,2026-03-02_17h45.18.459,2026A_exp2,2022.2.4,59.924698622373846,
1000,1,4.9,4.9,0,0,34,34,36,,,,,165.4709445000044,166.12161099998048,166.12161099998048,166.62276169998222,45,315,166.62276169998222,166.62276169998222,166.62276169998222,166.62276169998222,166.62276169998222,166.62276169998222,166.62276169998222,166.62276169998222,166.62276169998222,166.97252859998844,166.97252859998844,166.97252859998844,166.97252859998844,166.97252859998844,166.97252859998844,166.97252859998844,166.97252859998844,166.97252859998844,22,0,,,166.97252859998844,167.17468599998392,1000,167.17468599998392,1000,1000,1000,1000,0,num_3,0.7930305000045337,,21,6,2026-03-02_17h45.18.459,2026A_exp2,2022.2.4,59.924698622373846,
1,0,0.0,0.0,0,0,35,35,64,,,,,167.99005079999915,168.64091299998108,168.64091299998108,169.14191999999457,45,315,169.14191999999457,169.14191999999457,169.14191999999457,169.14191999999457,169.14191999999457,169.14191999999457,169.14191999999457,169.14191999999457,169.14191999999457,169.50833519999287,169.50833519999287,169.50833519999287,169.50833519999287,169.50833519999287,169.50833519999287,169.50833519999287,169.50833519999287,169.50833519999287,5,5,"[0.001291499997023493, 0.11687219998566434, 0.15031399999861605, 0.20039650000398979, 0.2502550999925006]","[0.08357319998322055, 0.13361900000018068, 0.18341339999460615, 0.2336113000055775, 0.36701439999160357]",169.50833519999287,169.70859649998602,0.0,169.70859649998602,0,0.0,0,1,1000,num_1,1.0830792000051588,,21,6,2026-03-02_17h45.18.459,2026A_exp2,2022.2.4,59.924698622373846,
1,0,0.0,0.0,1,0,36,36,66,,,,,170.80950390000362,171.4603087999858,171.4603087999858,171.94467040000018,315,315,171.94467040000018,171.94467040000018,171.94467040000018,171.94467040000018,171.94467040000018,171.94467040000018,171.94467040000018,171.94467040000018,171.94467040000018,172.31107019999763,172.31107019999763,172.31107019999763,172.31107019999763,172.31107019999763,172.31107019999763,172.31107019999763,172.31107019999763,172.31107019999763,6,3,"[0.017301099986070767, 0.06699459999799728, 0.10025330001371913]","[0.050203199993120506, 0.08360949999769218, 0.33407340000849217]",172.31107019999763,172.51138749998063,0.0,172.51138749998063,0,0.0,0,1,1000,num_1,1.9757080000126734,,21,6,2026-03-02_17h45.18.459,2026A_exp2,2022.2.4,59.924698622373846,
1,0,6.1,0.0,1,0,37,37,29,,,,,174.51315289997729,175.16383730000234,175.16383730000234,175.64839009998832,45,45,175.64839009998832,175.64839009998832,175.64839009998832,175.64839009998832,175.64839009998832,175.64839009998832,175.64839009998832,175.64839009998832,175.64839009998832,176.01466749998508,176.01466749998508,176.01466749998508,176.01466749998508,176.01466749998508,176.01466749998508,176.01466749998508,176.01466749998508,176.01466749998508,14,2,"[0.0008046999864745885, 0.18745850000414066]","[0.13393539999378845, 0.2047813999815844]",176.01466749998508,176.21499919999042,0.0,176.21499919999042,0,0.0,0,1,1000,num_1,0.7360210999904666,,21,6,2026-03-02_17h45.18.459,2026A_exp2,2022.2.4,59.924698622373846,
1,0,3.7,0.0,1,0,38,38,55,,,,,176.98254259998794,177.63306120000198,177.63306120000198,178.11743220000062,45,45,178.11743220000062,178.11743220000062,178.11743220000062,178.11743220000062,178.11743220000062,178.11743220000062,178.11743220000062,178.11743220000062,178.11743220000062,178.48397949998616,178.48397949998616,178.48397949998616,178.48397949998616,178.48397949998616,178.48397949998616,178.48397949998616,178.48397949998616,178.48397949998616,0,1,[0.0012389000039547682],[0.36708669998915866],178.48397949998616,178.68427619998693,0.0,178.68427619998693,0,0.0,0,1,1000,num_1,0.9795821000006981,,21,6,2026-03-02_17h45.18.459,2026A_exp2,2022.2.4,59.924698622373846,
1000,1,3.7,0.0,0,0,39,39,28,,,,,179.6850345999992,180.33581550000235,180.33581550000235,180.82029679999687,45,45,180.82029679999687,180.82029679999687,180.82029679999687,180.82029679999687,180.82029679999687,180.82029679999687,180.82029679999687,180.82029679999687,180.82029679999687,181.20339469998726,181.20339469998726,181.20339469998726,181.20339469998726,181.20339469998726,181.20339469998726,181.20339469998726,181.20339469998726,181.20339469998726,0,1,[0.00124460001825355],[0.3839266000140924],181.20339469998726,181.40544760000193,1000,181.40544760000193,1000,1000,1000,1000,0,num_3,0.5933918999799062,,21,6,2026-03-02_17h45.18.459,2026A_exp2,2022.2.4,59.924698622373846,
1,0,0.0,0.0,1,0,40,40,56,,,,,182.02065419999417,182.67135889999918,182.67135889999918,183.17285059997812,315,45,183.17285059997812,183.17285059997812,183.17285059997812,183.17285059997812,183.17285059997812,183.17285059997812,183.17285059997812,183.17285059997812,183.17285059997812,183.5390365999774,183.5390365999774,183.5390365999774,183.5390365999774,183.5390365999774,183.5390365999774,183.5390365999774,183.5390365999774,183.5390365999774,0,1,[0.0007793999975547194],[0.3676004000008106],183.5390365999774,183.73915179999312,0.0,183.73915179999312,0,0.0,0,1,1000,num_1,0.499911399994744,,21,6,2026-03-02_17h45.18.459,2026A_exp2,2022.2.4,59.924698622373846,
0,0,0.0,0.0,0,0,41,41,20,,,,,184.25641609999002,184.90706480000517,184.90706480000517,185.40163439998287,45,315,185.40163439998287,185.40163439998287,185.40163439998287,185.40163439998287,185.40163439998287,185.40163439998287,185.40163439998287,185.40163439998287,185.40163439998287,185.7579671999847,185.7579671999847,185.7579671999847,185.7579671999847,185.7579671999847,185.7579671999847,185.7579671999847,185.7579671999847,185.7579671999847,13,7,"[0.0272316999908071, 0.0535764999804087, 0.13183139998000115, 0.16527499997755513, 0.19869069999549538, 0.2653177999891341, 0.3649002999882214]","[0.042887099989457056, 0.08178149999002926, 0.14863439998589456, 0.18201499999850057, 0.2486598999821581, 0.2820194999803789, 0.3649050999956671]",185.7579671999847,185.9580490999797,0.0,185.9580490999797,0,0.0,0,1,1000,num_1,0.7693746999721043,,21,6,2026-03-02_17h45.18.459,2026A_exp2,2022.2.4,59.924698622373846,
1,0,4.9,0.0,0,0,42,42,57,,,,,186.75868040000205,187.409510700003,187.409510700003,187.91070169999148,315,45,187.91070169999148,187.91070169999148,187.91070169999148,187.91070169999148,187.91070169999148,187.91070169999148,187.91070169999148,187.91070169999148,187.91070169999148,188.26061619998654,188.26061619998654,188.26061619998654,188.26061619998654,188.26061619998654,188.26061619998654,188.26061619998654,188.26061619998654,188.26061619998654,1,1,[0.0012037000269629061],[0.350388999999268],188.26061619998654,188.4606780000031,4.9,188.4606780000031,1,4.9,1,1,1000,num_4,0.7467667000018992,,21,6,2026-03-02_17h45.18.459,2026A_exp2,2022.2.4,59.924698622373846,
1000,1,4.9,4.9,1,0,43,43,67,,,,,189.22798090000288,189.87868359999266,189.87868359999266,190.36296649998985,315,45,190.36296649998985,190.36296649998985,190.36296649998985,190.36296649998985,190.36296649998985,190.36296649998985,190.36296649998985,190.36296649998985,190.36296649998985,190.72953559999587,190.72953559999587,190.72953559999587,190.72953559999587,190.72953559999587,190.72953559999587,190.72953559999587,190.72953559999587,190.72953559999587,22,1,[0.0013949999993201345],[0.01705180000863038],190.72953559999587,190.93181039998308,1000,190.93181039998308,1000,1000,1000,1000,1,num_2,0.9469220000028145,,21,6,2026-03-02_17h45.18.459,2026A_exp2,2022.2.4,59.924698622373846,
0,0,0.0,6.1,1,0,44,44,84,,,,,191.89726949998294,192.54798949998803,192.54798949998803,193.05280380000477,45,45,193.05280380000477,193.05280380000477,193.05280380000477,193.05280380000477,193.05280380000477,193.05280380000477,193.05280380000477,193.05280380000477,193.05280380000477,193.41571669999394,193.41571669999394,193.41571669999394,193.41571669999394,193.41571669999394,193.41571669999394,193.41571669999394,193.41571669999394,193.41571669999394,23,0,,,193.41571669999394,193.61572299999534,0.0,193.61572299999534,0,0.0,0,1,1000,num_1,0.7121822999906726,,21,6,2026-03-02_17h45.18.459,2026A_exp2,2022.2.4,59.924698622373846,
1000,1,0.0,4.9,1,0,45,45,51,,,,,194.34967339999275,195.00052089997916,195.00052089997916,195.4848918999778,45,315,195.4848918999778,195.4848918999778,195.4848918999778,195.4848918999778,195.4848918999778,195.4848918999778,195.4848918999778,195.4848918999778,195.4848918999778,195.85138740000548,195.85138740000548,195.85138740000548,195.85138740000548,195.85138740000548,195.85138740000548,195.85138740000548,195.85138740000548,195.85138740000548,0,1,[0.0010008000244852155],[0.36723560001701117],195.85138740000548,196.05360329998075,1000,196.05360329998075,1000,1000,1000,1000,1,num_2,0.6818804000213277,,21,6,2026-03-02_17h45.18.459,2026A_exp2,2022.2.4,59.924698622373846,
0,0,0.0,6.1,0,0,46,46,30,,,,,196.7521562000038,197.40288529999088,197.40288529999088,197.90390809997916,315,315,197.90390809997916,197.90390809997916,197.90390809997916,197.90390809997916,197.90390809997916,197.90390809997916,197.90390809997916,197.90390809997916,197.90390809997916,198.27042210000218,198.27042210000218,198.27042210000218,198.27042210000218,198.27042210000218,198.27042210000218,198.27042210000218,198.27042210000218,198.27042210000218,0,1,[0.001262800011318177],[0.367091000021901],198.27042210000218,198.47054859998752,6.1,198.47054859998752,1,6.1,1,1,1000,num_4,0.7850602999969851,,21,6,2026-03-02_17h45.18.459,2026A_exp2,2022.2.4,59.924698622373846,
1,0,0.0,0.0,0,0,47,47,31,,,,,199.2713270999957,199.92208489999757,199.92208489999757,200.42284199999995,315,315,200.42284199999995,200.42284199999995,200.42284199999995,200.42284199999995,200.42284199999995,200.42284199999995,200.42284199999995,200.42284199999995,200.42284199999995,200.77289999998175,200.77289999998175,200.77289999998175,200.77289999998175,200.77289999998175,200.77289999998175,200.77289999998175,200.77289999998175,200.77289999998175,7,5,"[0.017443399992771447, 0.05095340000116266, 0.08409619997837581, 0.15119229999254458, 0.28477279999060556]","[0.033726399997249246, 0.06752949999645352, 0.10075669997604564, 0.2679859999916516, 0.3514128999959212]",200.77289999998175,200.97320360000595,0.0,200.97320360000595,0,0.0,0,1,1000,num_1,3.7463186999957543,,21,6,2026-03-02_17h45.18.459,2026A_exp2,2022.2.4,59.924698622373846,
1000,1,0.0,3.7,1,0,48,48,81,,,,,204.744569100003,205.39508009998826,205.39508009998826,205.8953179999953,45,45,205.8953179999953,205.8953179999953,205.8953179999953,205.8953179999953,205.8953179999953,205.8953179999953,205.8953179999953,205.8953179999953,205.8953179999953,206.26175489998423,206.26175489998423,206.26175489998423,206.26175489998423,206.26175489998423,206.26175489998423,206.26175489998423,206.26175489998423,206.26175489998423,23,0,,,206.26175489998423,206.4640152999782,1000,206.4640152999782,1000,1000,1000,1000,1,num_2,0.5828923000080977,,21,6,2026-03-02_17h45.18.459,2026A_exp2,2022.2.4,59.924698622373846,
1,0,0.0,4.9,1,0,49,49,44,,,,,207.06265839998377,207.71334739998565,207.71334739998565,208.21415539999725,315,315,208.21415539999725,208.21415539999725,208.21415539999725,208.21415539999725,208.21415539999725,208.21415539999725,208.21415539999725,208.21415539999725,208.21415539999725,208.58076869999059,208.58076869999059,208.58076869999059,208.58076869999059,208.58076869999059,208.58076869999059,208.58076869999059,208.58076869999059,208.58076869999059,23,0,,,208.58076869999059,208.7805883999972,4.9,208.7805883999972,1,4.9,1,1,1000,num_4,1.027597300009802,,21,6,2026-03-02_17h45.18.459,2026A_exp2,2022.2.4,59.924698622373846,
1,0,3.7,3.7,0,0,50,50,69,,,,,209.8317667999945,210.48249979998218,210.48249979998218,210.96707929999684,45,45,210.96707929999684,210.96707929999684,210.96707929999684,210.96707929999684,210.96707929999684,210.96707929999684,210.96707929999684,210.96707929999684,210.96707929999684,211.33348929998465,211.33348929998465,211.33348929998465,211.33348929998465,211.33348929998465,211.33348929998465,211.33348929998465,211.33348929998465,211.33348929998465,23,0,,,211.33348929998465,211.53374250000343,3.7,211.53374250000343,1,3.7,1,1,1000,num_4,5.401793299999554,,21,6,2026-03-02_17h45.18.459,2026A_exp2,2022.2.4,59.924698622373846,
1,0,4.9,0.0,1,0,51,51,52,,,,,216.95562749999226,217.60632520000217,217.60632520000217,218.11641069999314,315,45,218.11641069999314,218.11641069999314,218.11641069999314,218.11641069999314,218.11641069999314,218.11641069999314,218.11641069999314,218.11641069999314,218.11641069999314,218.45729999998002,218.45729999998002,218.45729999998002,218.45729999998002,218.45729999998002,218.45729999998002,218.45729999998002,218.45729999998002,218.45729999998002,22,0,,,218.45729999998002,218.65750569998636,0.0,218.65750569998636,0,0.0,0,1,1000,num_1,1.2056242999969982,,21,6,2026-03-02_17h45.18.459,2026A_exp2,2022.2.4,59.924698622373846,
1000,1,0.0,3.7,0,0,52,52,21,,,,,219.89169419999234,220.54267599998275,220.54267599998275,221.02700439997716,315,315,221.02700439997716,221.02700439997716,221.02700439997716,221.02700439997716,221.02700439997716,221.02700439997716,221.02700439997716,221.02700439997716,221.02700439997716,221.39352539999527,221.39352539999527,221.39352539999527,221.39352539999527,221.39352539999527,221.39352539999527,221.39352539999527,221.39352539999527,221.39352539999527,23,0,,,221.39352539999527,221.5956382000004,1000,221.5956382000004,1000,1000,1000,1000,1,num_2,0.6675789000000805,,21,6,2026-03-02_17h45.18.459,2026A_exp2,2022.2.4,59.924698622373846,
1,0,6.1,3.7,1,0,53,53,45,,,,,222.29457759999787,222.94513330000336,222.94513330000336,223.4460459999973,45,315,223.4460459999973,223.4460459999973,223.4460459999973,223.4460459999973,223.4460459999973,223.4460459999973,223.4460459999973,223.4460459999973,223.4460459999973,223.8126388999808,223.8126388999808,223.8126388999808,223.8126388999808,223.8126388999808,223.8126388999808,223.8126388999808,223.8126388999808,223.8126388999808,23,0,,,223.8126388999808,224.01278920000186,3.7,224.01278920000186,0,3.7,1,0,1000,num_1,0.9221315000031609,,21,6,2026-03-02_17h45.18.459,2026A_exp2,2022.2.4,59.924698622373846,
1,0,4.9,3.7,0,0,54,54,89,,,,,224.96370979998028,225.61446609999985,225.61446609999985,226.0987216999929,315,45,226.0987216999929,226.0987216999929,226.0987216999929,226.0987216999929,226.0987216999929,226.0987216999929,226.0987216999929,226.0987216999929,226.0987216999929,226.46532439999282,226.46532439999282,226.46532439999282,226.46532439999282,226.46532439999282,226.46532439999282,226.46532439999282,226.46532439999282,226.46532439999282,21,1,[0.300482299993746],[0.3171964999928605],226.46532439999282,226.66551900000195,4.9,226.66551900000195,1,4.9,1,1,1000,num_4,0.8540273999969941,,21,6,2026-03-02_17h45.18.459,2026A_exp2,2022.2.4,59.924698622373846,
1000,1,0.0,0.0,1,0,55,55,8,,,,,227.5495646999916,228.20026299997699,228.20026299997699,228.70129119997728,45,315,228.70129119997728,228.70129119997728,228.70129119997728,228.70129119997728,228.70129119997728,228.70129119997728,228.70129119997728,228.70129119997728,228.70129119997728,229.05107990000397,229.05107990000397,229.05107990000397,229.05107990000397,229.05107990000397,229.05107990000397,229.05107990000397,229.05107990000397,229.05107990000397,22,0,,,229.05107990000397,229.25400600000285,1000,229.25400600000285,1000,1000,1000,1000,1,num_2,1.8420923999801744,,21,6,2026-03-02_17h45.18.459,2026A_exp2,2022.2.4,59.924698622373846,
1000,1,0.0,3.7,0,0,56,56,18,,,,,231.12009049998596,231.77058329997817,231.77058329997817,232.27159970000503,45,315,232.27159970000503,232.27159970000503,232.27159970000503,232.27159970000503,232.27159970000503,232.27159970000503,232.27159970000503,232.27159970000503,232.27159970000503,232.63816309999675,232.63816309999675,232.63816309999675,232.63816309999675,232.63816309999675,232.63816309999675,232.63816309999675,232.63816309999675,232.63816309999675,23,0,,,232.63816309999675,232.8401324999868,1000,232.8401324999868,1000,1000,1000,1000,1,num_2,0.9829483999928925,,21,6,2026-03-02_17h45.18.459,2026A_exp2,2022.2.4,59.924698622373846,
1,0,6.1,0.0,1,0,57,57,53,,,,,233.83927329999278,234.4899424999894,234.4899424999894,234.9910839999793,45,315,234.9910839999793,234.9910839999793,234.9910839999793,234.9910839999793,234.9910839999793,234.9910839999793,234.9910839999793,234.9910839999793,234.9910839999793,235.35750670000562,235.35750670000562,235.35750670000562,235.35750670000562,235.35750670000562,235.35750670000562,235.35750670000562,235.35750670000562,235.35750670000562,22,1,[0.2339810999983456],[0.2507830999966245],235.35750670000562,235.55763819999993,0.0,235.55763819999993,0,0.0,0,1,1000,num_1,0.6815722000028472,,21,6,2026-03-02_17h45.18.459,2026A_exp2,2022.2.4,59.924698622373846,
0,0,3.7,0.0,1,0,58,58,0,,,,,236.2581147000019,236.90909139998257,236.90909139998257,237.39338939997833,45,45,237.39338939997833,237.39338939997833,237.39338939997833,237.39338939997833,237.39338939997833,237.39338939997833,237.39338939997833,237.39338939997833,237.39338939997833,237.75994099999662,237.75994099999662,237.75994099999662,237.75994099999662,237.75994099999662,237.75994099999662,237.75994099999662,237.75994099999662,237.75994099999662,23,0,,,237.75994099999662,237.9600683999888,3.7,237.9600683999888,1,3.7,1,1,1000,num_4,0.7914155000180472,,21,6,2026-03-02_17h45.18.459,2026A_exp2,2022.2.4,59.924698622373846,
1,0,4.9,4.9,1,0,59,59,32,,,,,238.77748349998728,239.43872360000387,239.43872360000387,239.912729499978,45,45,239.912729499978,239.912729499978,239.912729499978,239.912729499978,239.912729499978,239.912729499978,239.912729499978,239.912729499978,239.912729499978,240.27908509998815,240.27908509998815,240.27908509998815,240.27908509998815,240.27908509998815,240.27908509998815,240.27908509998815,240.27908509998815,240.27908509998815,23,0,,,240.27908509998815,240.47930559999077,4.9,240.47930559999077,1,4.9,1,1,1000,num_4,1.679662999988068,,21,6,2026-03-02_17h45.18.459,2026A_exp2,2022.2.4,59.924698622373846,
1000,1,4.9,3.7,0,0,60,60,26,,,,,242.1809299000015,242.8315471999813,242.8315471999813,243.31592619998264,45,315,243.31592619998264,243.31592619998264,243.31592619998264,243.31592619998264,243.31592619998264,243.31592619998264,243.31592619998264,243.31592619998264,243.31592619998264,243.682502199983,243.682502199983,243.682502199983,243.682502199983,243.682502199983,243.682502199983,243.682502199983,243.682502199983,243.682502199983,23,0,,,243.682502199983,243.88693929999135,1000,243.88693929999135,1000,1000,1000,1000,0,num_3,0.6815778000163846,,21,6,2026-03-02_17h45.18.459,2026A_exp2,2022.2.4,59.924698622373846,
1000,1,4.9,0.0,0,0,61,61,82,,,,,244.60001639998518,245.2507274999807,245.2507274999807,245.7518041000003,45,45,245.7518041000003,245.7518041000003,245.7518041000003,245.7518041000003,245.7518041000003,245.7518041000003,245.7518041000003,245.7518041000003,245.7518041000003,246.10150419999263,246.10150419999263,246.10150419999263,246.10150419999263,246.10150419999263,246.10150419999263,246.10150419999263,246.10150419999263,246.10150419999263,22,0,,,246.10150419999263,246.3034861999913,1000,246.31817149999551,1000,1000,1000,1000,0,num_3,0.5447389999753796,,21,6,2026-03-02_17h45.18.459,2026A_exp2,2022.2.4,59.924698622373846,
1,0,3.7,0.0,0,0,62,62,15,,,,,246.8856289999967,247.53636599998572,247.53636599998572,248.03750129998662,315,315,248.03750129998662,248.03750129998662,248.03750129998662,248.03750129998662,248.03750129998662,248.03750129998662,248.03750129998662,248.03750129998662,248.03750129998662,248.40380369999912,248.40380369999912,248.40380369999912,248.40380369999912,248.40380369999912,248.40380369999912,248.40380369999912,248.40380369999912,248.40380369999912,23,0,,,248.40380369999912,248.6041116999986,3.7,248.6041116999986,0,3.7,1,0,1000,num_1,2.307444200007012,,21,6,2026-03-02_17h45.18.459,2026A_exp2,2022.2.4,59.924698622373846,
1000,1,0.0,0.0,0,0,63,63,33,,,,,250.94015249999939,251.59146599998348,251.59146599998348,252.09184700000333,315,315,252.09184700000333,252.09184700000333,252.09184700000333,252.09184700000333,252.09184700000333,252.09184700000333,252.09184700000333,252.09184700000333,252.09184700000333,252.4577548999805,252.4577548999805,252.4577548999805,252.4577548999805,252.4577548999805,252.4577548999805,252.4577548999805,252.4577548999805,252.4577548999805,23,0,,,252.4577548999805,252.66022799999337,1000,252.66022799999337,1000,1000,1000,1000,0,num_3,1.2747900999966078,,21,6,2026-03-02_17h45.18.459,2026A_exp2,2022.2.4,59.924698622373846,
1000,1,0.0,6.1,0,0,64,64,5,,,,,253.9596043000056,254.6101195999945,254.6101195999945,255.0945209999918,315,45,255.0945209999918,255.0945209999918,255.0945209999918,255.0945209999918,255.0945209999918,255.0945209999918,255.0945209999918,255.0945209999918,255.0945209999918,255.46090559998993,255.46090559998993,255.46090559998993,255.46090559998993,255.46090559998993,255.46090559998993,255.46090559998993,255.46090559998993,255.46090559998993,23,0,,,255.46090559998993,255.66320599999744,1000,255.66320599999744,1000,1000,1000,1000,1,num_2,0.6484979999950156,,21,6,2026-03-02_17h45.18.459,2026A_exp2,2022.2.4,59.924698622373846,
1,0,3.7,6.1,0,0,65,65,74,,,,,256.3284406999883,256.97910899997805,256.97910899997805,257.48014469997725,45,315,257.48014469997725,257.48014469997725,257.48014469997725,257.48014469997725,257.48014469997725,257.48014469997725,257.48014469997725,257.48014469997725,257.48014469997725,257.8463977999927,257.8463977999927,257.8463977999927,257.8463977999927,257.8463977999927,257.8463977999927,257.8463977999927,257.8463977999927,257.8463977999927,23,0,,,257.8463977999927,258.04681299999356,3.7,258.04681299999356,0,3.7,1,0,1000,num_1,2.1686076000041794,,21,6,2026-03-02_17h45.18.459,2026A_exp2,2022.2.4,59.924698622373846,
1000,1,0.0,0.0,1,0,66,66,27,,,,,260.23210510000354,260.8830010999809,260.8830010999809,261.3673155999859,45,45,261.3673155999859,261.3673155999859,261.3673155999859,261.3673155999859,261.3673155999859,261.3673155999859,261.3673155999859,261.3673155999859,261.3673155999859,261.73379869997734,261.73379869997734,261.73379869997734,261.73379869997734,261.73379869997734,261.73379869997734,261.73379869997734,261.73379869997734,261.73379869997734,23,0,,,261.73379869997734,261.93616919999477,1000,261.93616919999477,1000,1000,1000,1000,0,num_3,1.2946827000123449,,21,6,2026-03-02_17h45.18.459,2026A_exp2,2022.2.4,59.924698622373846,
1,0,4.9,0.0,0,0,67,67,19,,,,,263.2519313999801,263.9027442999941,263.9027442999941,264.4037416999927,45,315,264.4037416999927,264.4037416999927,264.4037416999927,264.4037416999927,264.4037416999927,264.4037416999927,264.4037416999927,264.4037416999927,264.4037416999927,264.7702965999779,264.7702965999779,264.7702965999779,264.7702965999779,264.7702965999779,264.7702965999779,264.7702965999779,264.7702965999779,264.7702965999779,23,0,,,264.7702965999779,264.97030789998826,4.9,264.97030789998826,1,4.9,1,1,1000,num_4,1.1725415000109933,,21,6,2026-03-02_17h45.18.459,2026A_exp2,2022.2.4,59.924698622373846,
1,0,0.0,0.0,0,0,68,68,75,,,,,266.17181639999035,266.80562499997905,266.80562499997905,267.3066511999932,45,315,267.3066511999932,267.3066511999932,267.3066511999932,267.3066511999932,267.3066511999932,267.3066511999932,267.3066511999932,267.3066511999932,267.3066511999932,267.673138299986,267.673138299986,267.673138299986,267.673138299986,267.673138299986,267.673138299986,267.673138299986,267.673138299986,267.673138299986,23,0,,,267.673138299986,267.8733596999955,0.0,267.8733596999955,0,0.0,0,1,1000,num_1,0.7098002000129782,,21,6,2026-03-02_17h45.18.459,2026A_exp2,2022.2.4,59.924698622373846,
1,0,6.1,4.9,1,0,69,69,38,,,,,268.60853379999753,269.2578230999934,269.2578230999934,269.75907810000353,315,45,269.75907810000353,269.75907810000353,269.75907810000353,269.75907810000353,269.75907810000353,269.75907810000353,269.75907810000353,269.75907810000353,269.75907810000353,270.1255545000022,270.1255545000022,270.1255545000022,270.1255545000022,270.1255545000022,270.1255545000022,270.1255545000022,270.1255545000022,270.1255545000022,23,0,,,270.1255545000022,270.32573290000437,4.9,270.32573290000437,1,4.9,1,1,1000,num_4,1.505372299987357,,21,6,2026-03-02_17h45.18.459,2026A_exp2,2022.2.4,59.924698622373846,
1,0,0.0,0.0,1,0,70,70,68,,,,,271.86092750000535,272.51136209999095,272.51136209999095,272.9956685999932,45,315,272.9956685999932,272.9956685999932,272.9956685999932,272.9956685999932,272.9956685999932,272.9956685999932,272.9956685999932,272.9956685999932,272.9956685999932,273.3621428000042,273.3621428000042,273.3621428000042,273.3621428000042,273.3621428000042,273.3621428000042,273.3621428000042,273.3621428000042,273.3621428000042,23,0,,,273.3621428000042,273.5687229000032,0.0,273.5687229000032,0,0.0,0,1,1000,num_1,0.4623678999778349,,21,6,2026-03-02_17h45.18.459,2026A_exp2,2022.2.4,59.924698622373846,
0,0,4.9,4.9,0,0,71,71,88,,,,,274.0627573999809,274.71351659999345,274.71351659999345,275.1979014999815,315,315,275.1979014999815,275.1979014999815,275.1979014999815,275.1979014999815,275.1979014999815,275.1979014999815,275.1979014999815,275.1979014999815,275.1979014999815,275.56441239998094,275.56441239998094,275.56441239998094,275.56441239998094,275.56441239998094,275.56441239998094,275.56441239998094,275.56441239998094,275.56441239998094,23,0,,,275.56441239998094,275.7645418999891,4.9,275.7645418999891,0,4.9,1,0,1000,num_1,0.7544555999920703,,21,6,2026-03-02_17h45.18.459,2026A_exp2,2022.2.4,59.924698622373846,
1000,1,6.1,3.7,0,0,72,72,43,,,,,276.5485264000017,277.1826620999782,277.1826620999782,277.68378019999363,45,45,277.68378019999363,277.68378019999363,277.68378019999363,277.68378019999363,277.68378019999363,277.68378019999363,277.68378019999363,277.68378019999363,277.68378019999363,278.050233499991,278.050233499991,278.050233499991,278.050233499991,278.050233499991,278.050233499991,278.050233499991,278.050233499991,278.050233499991,23,0,,,278.050233499991,278.2525892999838,1000,278.2525892999838,1000,1000,1000,1000,0,num_3,0.6021840000175871,,21,6,2026-03-02_17h45.18.459,2026A_exp2,2022.2.4,59.924698622373846,
1000,1,0.0,0.0,1,0,73,73,78,,,,,278.88424049998866,279.5349983999913,279.5349983999913,280.03615070000524,45,45,280.03615070000524,280.03615070000524,280.03615070000524,280.03615070000524,280.03615070000524,280.03615070000524,280.03615070000524,280.03615070000524,280.03615070000524,280.40263359999517,280.40263359999517,280.40263359999517,280.40263359999517,280.40263359999517,280.40263359999517,280.40263359999517,280.40263359999517,280.40263359999517,23,0,,,280.40263359999517,280.6040503999975,1000,280.6040503999975,1000,1000,1000,1000,0,num_3,1.0441253999888431,,21,6,2026-03-02_17h45.18.459,2026A_exp2,2022.2.4,59.924698622373846,
1000,1,0.0,0.0,1,0,74,74,80,,,,,281.6703598999884,282.32107839998207,282.32107839998207,282.8221520999796,45,315,282.8221520999796,282.8221520999796,282.8221520999796,282.8221520999796,282.8221520999796,282.8221520999796,282.8221520999796,282.8221520999796,282.8221520999796,283.18871610000497,283.18871610000497,283.18871610000497,283.18871610000497,283.18871610000497,283.18871610000497,283.18871610000497,283.18871610000497,283.18871610000497,23,0,,,283.18871610000497,283.3888936000003,1000,283.3888936000003,1000,1000,1000,1000,0,num_3,0.555132000008598,,21,6,2026-03-02_17h45.18.459,2026A_exp2,2022.2.4,59.924698622373846,
1000,1,3.7,3.7,0,0,75,75,76,,,,,283.972675099998,284.6233655999822,284.6233655999822,285.12442700000247,45,45,285.12442700000247,285.12442700000247,285.12442700000247,285.12442700000247,285.12442700000247,285.12442700000247,285.12442700000247,285.12442700000247,285.12442700000247,285.4910930999904,285.4910930999904,285.4910930999904,285.4910930999904,285.4910930999904,285.4910930999904,285.4910930999904,285.4910930999904,285.4910930999904,23,0,,,285.4910930999904,285.69336419997853,1000,285.69336419997853,1000,1000,1000,1000,0,num_3,0.6815967000147793,,21,6,2026-03-02_17h45.18.459,2026A_exp2,2022.2.4,59.924698622373846,
1000,1,4.9,3.7,1,0,76,76,46,,,,,286.3917606000032,287.04260250000516,287.04260250000516,287.5436764000042,315,45,287.5436764000042,287.5436764000042,287.5436764000042,287.5436764000042,287.5436764000042,287.5436764000042,287.5436764000042,287.5436764000042,287.5436764000042,287.910103000002,287.910103000002,287.910103000002,287.910103000002,287.910103000002,287.910103000002,287.910103000002,287.910103000002,287.910103000002,23,0,,,287.910103000002,288.1126170999778,1000,288.1126170999778,1000,1000,1000,1000,0,num_3,0.6067977999919094,,21,6,2026-03-02_17h45.18.459,2026A_exp2,2022.2.4,59.924698622373846,
1,0,3.7,3.7,1,0,77,77,11,,,,,288.74419199998374,289.3948562000005,289.3948562000005,289.8959640999965,315,315,289.8959640999965,289.8959640999965,289.8959640999965,289.8959640999965,289.8959640999965,289.8959640999965,289.8959640999965,289.8959640999965,289.8959640999965,290.2625070999784,290.2625070999784,290.2625070999784,290.2625070999784,290.2625070999784,290.2625070999784,290.2625070999784,290.2625070999784,290.2625070999784,23,0,,,290.2625070999784,290.4626323999837,3.7,290.4626323999837,1,3.7,1,1,1000,num_4,1.481029500020668,,21,6,2026-03-02_17h45.18.459,2026A_exp2,2022.2.4,59.924698622373846,
1000,1,4.9,6.1,0,0,78,78,35,,,,,291.9639296999958,292.6147029999993,292.6147029999993,293.0991682999884,45,315,293.0991682999884,293.0991682999884,293.0991682999884,293.0991682999884,293.0991682999884,293.0991682999884,293.0991682999884,293.0991682999884,293.0991682999884,293.46546789997956,293.46546789997956,293.46546789997956,293.46546789997956,293.46546789997956,293.46546789997956,293.46546789997956,293.46546789997956,293.46546789997956,23,0,,,293.46546789997956,293.6677065999829,1000,293.6677065999829,1000,1000,1000,1000,1,num_2,1.1475585000007413,,21,6,2026-03-02_17h45.18.459,2026A_exp2,2022.2.4,59.924698622373846,
1,0,4.9,6.1,1,0,79,79,62,,,,,294.8336241999932,295.48426909997943,295.48426909997943,295.98535209998954,45,45,295.98535209998954,295.98535209998954,295.98535209998954,295.98535209998954,295.98535209998954,295.98535209998954,295.98535209998954,295.98535209998954,295.98535209998954,296.3517658999772,296.3517658999772,296.3517658999772,296.3517658999772,296.3517658999772,296.3517658999772,296.3517658999772,296.3517658999772,296.3517658999772,23,0,,,296.3517658999772,296.5518771999923,6.1,296.5518771999923,1,6.1,1,1,1000,num_4,1.5036781000089832,,21,6,2026-03-02_17h45.18.459,2026A_exp2,2022.2.4,59.924698622373846,
1000,1,4.9,4.9,0,0,80,80,6,,,,,298.0867775999941,298.73755510000046,298.73755510000046,299.23849590000464,45,45,299.23849590000464,299.23849590000464,299.23849590000464,299.23849590000464,299.23849590000464,299.23849590000464,299.23849590000464,299.23849590000464,299.23849590000464,299.58843249999336,299.58843249999336,299.58843249999336,299.58843249999336,299.58843249999336,299.58843249999336,299.58843249999336,299.58843249999336,299.58843249999336,22,0,,,299.58843249999336,299.79042639999534,1000,299.79042639999534,1000,1000,1000,1000,0,num_3,0.8162965000083204,,21,6,2026-03-02_17h45.18.459,2026A_exp2,2022.2.4,59.924698622373846,
1000,1,6.1,0.0,1,0,81,81,71,,,,,300.6226753999945,301.27328319998924,301.27328319998924,301.7744500999979,45,315,301.7744500999979,301.7744500999979,301.7744500999979,301.7744500999979,301.7744500999979,301.7744500999979,301.7744500999979,301.7744500999979,301.7744500999979,302.14100859998143,302.14100859998143,302.14100859998143,302.14100859998143,302.14100859998143,302.14100859998143,302.14100859998143,302.14100859998143,302.14100859998143,23,0,,,302.14100859998143,302.3430462999968,1000,302.3430462999968,1000,1000,1000,1000,0,num_3,0.5605222999874968,,21,6,2026-03-02_17h45.18.459,2026A_exp2,2022.2.4,59.924698622373846,
1,0,0.0,0.0,1,0,82,82,77,,,,,302.92496899998514,303.5757293999777,303.5757293999777,304.0766491999966,45,315,304.0766491999966,304.0766491999966,304.0766491999966,304.0766491999966,304.0766491999966,304.0766491999966,304.0766491999966,304.0766491999966,304.0766491999966,304.4432509999897,304.4432509999897,304.4432509999897,304.4432509999897,304.4432509999897,304.4432509999897,304.4432509999897,304.4432509999897,304.4432509999897,23,0,,,304.4432509999897,304.64349159999983,0.0,304.64349159999983,0,0.0,0,1,1000,num_1,0.587958999996772,,21,6,2026-03-02_17h45.18.459,2026A_exp2,2022.2.4,59.924698622373846,
1000,1,0.0,3.7,1,0,83,83,86,,,,,305.2606235999847,305.9113576999807,305.9113576999807,306.3958053999813,45,45,306.3958053999813,306.3958053999813,306.3958053999813,306.3958053999813,306.3958053999813,306.3958053999813,306.3958053999813,306.3958053999813,306.3958053999813,306.76224379998166,306.76224379998166,306.76224379998166,306.76224379998166,306.76224379998166,306.76224379998166,306.76224379998166,306.76224379998166,306.76224379998166,23,0,,,306.76224379998166,306.9643722999899,1000,306.9643722999899,1000,1000,1000,1000,1,num_2,1.1308111999824177,,21,6,2026-03-02_17h45.18.459,2026A_exp2,2022.2.4,59.924698622373846,
1000,1,4.9,6.1,0,0,84,84,49,,,,,308.1134272000054,308.7641701999819,308.7641701999819,309.2653999000031,315,45,309.2653999000031,309.2653999000031,309.2653999000031,309.2653999000031,309.2653999000031,309.2653999000031,309.2653999000031,309.2653999000031,309.2653999000031,309.63182660000166,309.63182660000166,309.63182660000166,309.63182660000166,309.63182660000166,309.63182660000166,309.63182660000166,309.63182660000166,309.63182660000166,23,0,,,309.63182660000166,309.83380910000415,1000,309.83380910000415,1000,1000,1000,1000,0,num_3,0.5904456999851391,,21,6,2026-03-02_17h45.18.459,2026A_exp2,2022.2.4,59.924698622373846,
1000,1,3.7,3.7,1,0,85,85,25,,,,,310.44911899999715,311.0998476999812,311.0998476999812,311.60096569999587,45,315,311.60096569999587,311.60096569999587,311.60096569999587,311.60096569999587,311.60096569999587,311.60096569999587,311.60096569999587,311.60096569999587,311.60096569999587,311.9674744999793,311.9674744999793,311.9674744999793,311.9674744999793,311.9674744999793,311.9674744999793,311.9674744999793,311.9674744999793,311.9674744999793,23,0,,,311.9674744999793,312.1693009999872,1000,312.1693009999872,1000,1000,1000,1000,0,num_3,0.4863372999825515,,21,6,2026-03-02_17h45.18.459,2026A_exp2,2022.2.4,59.924698622373846,
0,0,4.9,3.7,1,0,86,86,13,,,,,312.68474810000043,313.3353698999854,313.3353698999854,313.8366010999889,45,45,313.8366010999889,313.8366010999889,313.8366010999889,313.8366010999889,313.8366010999889,313.8366010999889,313.8366010999889,313.8366010999889,313.8366010999889,314.2029681999993,314.2029681999993,314.2029681999993,314.2029681999993,314.2029681999993,314.2029681999993,314.2029681999993,314.2029681999993,314.2029681999993,23,0,,,314.2029681999993,314.40322789998027,4.9,314.40322789998027,1,4.9,1,1,1000,num_4,0.9162387000105809,,21,6,2026-03-02_17h45.18.459,2026A_exp2,2022.2.4,59.924698622373846,
1000,1,0.0,3.7,1,0,87,87,7,,,,,315.33731020000414,315.9880359999952,315.9880359999952,316.47250549998716,45,315,316.47250549998716,316.47250549998716,316.47250549998716,316.47250549998716,316.47250549998716,316.47250549998716,316.47250549998716,316.47250549998716,316.47250549998716,316.8390187000041,316.8390187000041,316.8390187000041,316.8390187000041,316.8390187000041,316.8390187000041,316.8390187000041,316.8390187000041,316.8390187000041,21,2,"[0.08350750000681728, 0.2837996000016574]","[0.10016949998680502, 0.30052429999341257]",316.8390187000041,317.0414082999923,1000,317.0414082999923,1000,1000,1000,1000,1,num_2,0.774618700001156,,21,6,2026-03-02_17h45.18.459,2026A_exp2,2022.2.4,59.924698622373846,
1,0,6.1,3.7,0,0,88,88,79,,,,,317.83989899998414,318.4906268999912,318.4906268999912,318.99178039998515,315,45,318.99178039998515,318.99178039998515,318.99178039998515,318.99178039998515,318.99178039998515,318.99178039998515,318.99178039998515,318.99178039998515,318.99178039998515,319.3580652999808,319.3580652999808,319.3580652999808,319.3580652999808,319.3580652999808,319.3580652999808,319.3580652999808,319.3580652999808,319.3580652999808,23,0,,,319.3580652999808,319.5580506999977,6.1,319.5580506999977,1,6.1,1,1,1000,num_4,0.7215182000072673,,21,6,2026-03-02_17h45.18.459,2026A_exp2,2022.2.4,59.924698622373846,
1000,1,0.0,6.1,1,0,89,89,40,,,,,320.3090893999906,320.9431068999984,320.9431068999984,321.44413259997964,45,45,321.44413259997964,321.44413259997964,321.44413259997964,321.44413259997964,321.44413259997964,321.44413259997964,321.44413259997964,321.44413259997964,321.44413259997964,321.81059149999055,321.81059149999055,321.81059149999055,321.81059149999055,321.81059149999055,321.81059149999055,321.81059149999055,321.81059149999055,321.81059149999055,23,0,,,321.81059149999055,322.0125543999893,1000,322.0125543999893,1000,1000,1000,1000,1,num_2,0.6667319000116549,,21,6,2026-03-02_17h45.18.459,2026A_exp2,2022.2.4,59.924698622373846,
,,,,,,,,,,,,,,,,,,,,,,,,,,,,,,,,,,,,,,,,,,,,,,,,,,,,322.70436289999634,,,,,,,
