validity,detectorcomp,contrastCW,contrastCCW,precueCWorCCW,block_80trials.thisRepN,block_80trials.thisTrialN,block_80trials.thisN,block_80trials.thisIndex,etRecord.started,etRecord.stopped,text.started,text.stopped,text_4.started,text_4.stopped,text_6.started,text_6.stopped,oriCW,oriCCW,roi_2.started,grating_UR.started,grating_UL.started,grating_LR.started,grating_LL.started,noise_UR.started,noise_UL.started,noise_LR.started,noise_LL.started,roi_2.stopped,grating_UR.stopped,grating_UL.stopped,grating_LR.stopped,grating_LL.stopped,noise_UR.stopped,noise_UL.stopped,noise_LR.stopped,noise_LL.stopped,outframe,roi_2.numLooks,roi_2.timesOn,roi_2.timesOff,text_2.started,text_2.stopped,probedcontrast,key_resp.started,respdetect,relevantContrast,correctDetect,TorFdetect,respCWorCCW,key_resp.keys,key_resp.rt,feedback_display_.started,participantNo,blockNo,date,expName,psychopyVersion,frameRate,
1,0,6.1,0.0,0,0,0,0,85,5.04001509398222e-05,5.04001509398222e-05,50.69174549984746,52.69596969988197,52.69596969988197,53.32854639994912,53.32854639994912,53.858361299848184,315,45,53.858361299848184,53.858361299848184,53.858361299848184,53.858361299848184,53.858361299848184,53.858361299848184,53.858361299848184,53.858361299848184,53.858361299848184,54.195643400074914,54.195643400074914,54.195643400074914,54.195643400074914,54.195643400074914,54.195643400074914,54.195643400074914,54.195643400074914,54.195643400074914,23,0,,,54.195643400074914,54.39547390001826,6.1,54.39547390001826,1,6.1,1,1,1000,num_4,4.356428800150752,,31,5,2026-03-12_13h40.48.792,2026A_exp2,2022.2.4,59.9654119662431,
0,0,4.9,0.0,0,0,1,1,40,,,,,58.78361689997837,59.434204099932685,59.434204099932685,59.93269839999266,45,315,59.93269839999266,59.93269839999266,59.93269839999266,59.93269839999266,59.93269839999266,59.93269839999266,59.93269839999266,59.93269839999266,59.93269839999266,60.28514549997635,60.28514549997635,60.28514549997635,60.28514549997635,60.28514549997635,60.28514549997635,60.28514549997635,60.28514549997635,60.28514549997635,23,0,,,60.28514549997635,60.48829640005715,0.0,60.48829640005715,1,0.0,0,0,1000,num_4,1.9516350000631064,,31,5,2026-03-12_13h40.48.792,2026A_exp2,2022.2.4,59.9654119662431,
1000,1,0.0,6.1,1,0,2,2,42,,,,,62.45576129993424,63.11258259997703,63.11258259997703,63.605696399929,45,315,63.605696399929,63.605696399929,63.605696399929,63.605696399929,63.605696399929,63.605696399929,63.605696399929,63.605696399929,63.605696399929,63.971913699992,63.971913699992,63.971913699992,63.971913699992,63.971913699992,63.971913699992,63.971913699992,63.971913699992,63.971913699992,23,0,,,63.971913699992,64.20054069999605,1000,64.20054069999605,1000,1000,1000,1000,1,num_2,0.695787499891594,,31,5,2026-03-12_13h40.48.792,2026A_exp2,2022.2.4,59.9654119662431,
1000,1,6.1,0.0,0,0,3,3,58,,,,,64.92318569985218,65.57363580004312,65.57363580004312,66.05789789999835,315,45,66.05789789999835,66.05789789999835,66.05789789999835,66.05789789999835,66.05789789999835,66.05789789999835,66.05789789999835,66.05789789999835,66.05789789999835,66.42436339985579,66.42436339985579,66.42436339985579,66.42436339985579,66.42436339985579,66.42436339985579,66.42436339985579,66.42436339985579,66.42436339985579,23,0,,,66.42436339985579,66.64019110007212,1000,66.64019110007212,1000,1000,1000,1000,0,num_3,0.415957200108096,,31,5,2026-03-12_13h40.48.792,2026A_exp2,2022.2.4,59.9654119662431,
1000,1,4.9,3.7,0,0,4,4,28,,,,,67.07506969990209,67.72583559993654,67.72583559993654,68.24048519995995,315,45,68.24048519995995,68.24048519995995,68.24048519995995,68.24048519995995,68.24048519995995,68.24048519995995,68.24048519995995,68.24048519995995,68.24048519995995,68.59339930000715,68.59339930000715,68.59339930000715,68.59339930000715,68.59339930000715,68.59339930000715,68.59339930000715,68.59339930000715,68.59339930000715,23,0,,,68.59339930000715,68.79578819987364,1000,68.79578819987364,1000,1000,1000,1000,0,num_3,0.516924099996686,,31,5,2026-03-12_13h40.48.792,2026A_exp2,2022.2.4,59.9654119662431,
1000,1,0.0,3.7,0,0,5,5,21,,,,,69.34419379988685,69.99468560004607,69.99468560004607,70.49514400004409,315,45,70.49514400004409,70.49514400004409,70.49514400004409,70.49514400004409,70.49514400004409,70.49514400004409,70.49514400004409,70.49514400004409,70.49514400004409,70.84571700007655,70.84571700007655,70.84571700007655,70.84571700007655,70.84571700007655,70.84571700007655,70.84571700007655,70.84571700007655,70.84571700007655,23,0,,,70.84571700007655,71.04758540005423,1000,71.04758540005423,1000,1000,1000,1000,1,num_2,0.9773724002297968,,31,5,2026-03-12_13h40.48.792,2026A_exp2,2022.2.4,59.9654119662431,
1000,1,0.0,3.7,0,0,6,6,76,,,,,72.04671050002798,72.70804679999128,72.70804679999128,73.20394579996355,315,45,73.20394579996355,73.20394579996355,73.20394579996355,73.20394579996355,73.20394579996355,73.20394579996355,73.20394579996355,73.20394579996355,73.20394579996355,73.5483248999808,73.5483248999808,73.5483248999808,73.5483248999808,73.5483248999808,73.5483248999808,73.5483248999808,73.5483248999808,73.5483248999808,22,0,,,73.5483248999808,73.7484511998482,1000,73.7484511998482,1000,1000,1000,1000,1,num_2,0.41185700008645654,,31,5,2026-03-12_13h40.48.792,2026A_exp2,2022.2.4,59.9654119662431,
1000,1,4.9,6.1,0,0,7,7,36,,,,,74.18221360002644,74.83297599991783,74.83297599991783,75.33389459992759,45,315,75.33389459992759,75.33389459992759,75.33389459992759,75.33389459992759,75.33389459992759,75.33389459992759,75.33389459992759,75.33389459992759,75.33389459992759,75.68382450006902,75.68382450006902,75.68382450006902,75.68382450006902,75.68382450006902,75.68382450006902,75.68382450006902,75.68382450006902,75.68382450006902,22,0,,,75.68382450006902,75.88608790002763,1000,75.90077319997363,1000,1000,1000,1000,1,num_2,0.41942740022204816,,31,5,2026-03-12_13h40.48.792,2026A_exp2,2022.2.4,59.9654119662431,
1000,1,3.7,0.0,0,0,8,8,39,,,,,76.35134609998204,77.01253749988973,77.01253749988973,77.50816989992745,315,45,77.50816989992745,77.50816989992745,77.50816989992745,77.50816989992745,77.50816989992745,77.50816989992745,77.50816989992745,77.50816989992745,77.50816989992745,77.85278639988974,77.85278639988974,77.85278639988974,77.85278639988974,77.85278639988974,77.85278639988974,77.85278639988974,77.85278639988974,77.85278639988974,22,0,,,77.85278639988974,78.06864479999058,1000,78.06864479999058,1000,1000,1000,1000,0,num_3,0.6034588001202792,,31,5,2026-03-12_13h40.48.792,2026A_exp2,2022.2.4,59.9654119662431,
1000,1,4.9,0.0,1,0,9,9,12,,,,,78.70355640002526,79.35400539985858,79.35400539985858,79.83842010004446,315,45,79.83842010004446,79.83842010004446,79.83842010004446,79.83842010004446,79.83842010004446,79.83842010004446,79.83842010004446,79.83842010004446,79.83842010004446,80.20502809993923,80.20502809993923,80.20502809993923,80.20502809993923,80.20502809993923,80.20502809993923,80.20502809993923,80.20502809993923,80.20502809993923,23,0,,,80.20502809993923,80.40711869997904,1000,80.40711869997904,1000,1000,1000,1000,0,num_3,0.6808272001799196,,31,5,2026-03-12_13h40.48.792,2026A_exp2,2022.2.4,59.9654119662431,
1000,1,3.7,3.7,0,0,10,10,59,,,,,81.10575970006175,81.75648660003208,81.75648660003208,82.25751869985834,315,315,82.25751869985834,82.25751869985834,82.25751869985834,82.25751869985834,82.25751869985834,82.25751869985834,82.25751869985834,82.25751869985834,82.25751869985834,82.62403770000674,82.62403770000674,82.62403770000674,82.62403770000674,82.62403770000674,82.62403770000674,82.62403770000674,82.62403770000674,82.62403770000674,23,0,,,82.62403770000674,82.85025679995306,1000,82.85025679995306,1000,1000,1000,1000,0,num_3,0.5413683999795467,,31,5,2026-03-12_13h40.48.792,2026A_exp2,2022.2.4,59.9654119662431,
1,0,3.7,6.1,1,0,11,11,68,,,,,83.4084664999973,84.05865849996917,84.05865849996917,84.54325730004348,315,45,84.54325730004348,84.54325730004348,84.54325730004348,84.54325730004348,84.54325730004348,84.54325730004348,84.54325730004348,84.54325730004348,84.54325730004348,84.90965899988078,84.90965899988078,84.90965899988078,84.90965899988078,84.90965899988078,84.90965899988078,84.90965899988078,84.90965899988078,84.90965899988078,23,0,,,84.90965899988078,85.1157102000434,6.1,85.1157102000434,1,6.1,1,1,1000,num_4,0.6606743999291211,,31,5,2026-03-12_13h40.48.792,2026A_exp2,2022.2.4,59.9654119662431,
1000,1,3.7,6.1,0,0,12,12,60,,,,,85.79392459988594,86.44458639994264,86.44458639994264,86.95981470006518,315,45,86.95981470006518,86.95981470006518,86.95981470006518,86.95981470006518,86.95981470006518,86.95981470006518,86.95981470006518,86.95981470006518,86.95981470006518,87.31197310006246,87.31197310006246,87.31197310006246,87.31197310006246,87.31197310006246,87.31197310006246,87.31197310006246,87.31197310006246,87.31197310006246,23,0,,,87.31197310006246,87.51417890004814,1000,87.51417890004814,1000,1000,1000,1000,1,num_2,0.6700134000275284,,31,5,2026-03-12_13h40.48.792,2026A_exp2,2022.2.4,59.9654119662431,
1,0,0.0,4.9,0,0,13,13,14,,,,,88.21284419996664,88.8636894999072,88.8636894999072,89.36471859994344,315,45,89.36471859994344,89.36471859994344,89.36471859994344,89.36471859994344,89.36471859994344,89.36471859994344,89.36471859994344,89.36471859994344,89.36471859994344,89.7311012998689,89.7311012998689,89.7311012998689,89.7311012998689,89.7311012998689,89.7311012998689,89.7311012998689,89.7311012998689,89.7311012998689,23,0,,,89.7311012998689,89.93129709991626,0.0,89.93129709991626,0,0.0,0,1,1000,num_1,0.9563763001933694,,31,5,2026-03-12_13h40.48.792,2026A_exp2,2022.2.4,59.9654119662431,
1,0,0.0,0.0,1,0,14,14,33,,,,,90.9153960000258,91.56627209996805,91.56627209996805,92.05299420002848,45,315,92.05299420002848,92.05299420002848,92.05299420002848,92.05299420002848,92.05299420002848,92.05299420002848,92.05299420002848,92.05299420002848,92.05299420002848,92.41726209991612,92.41726209991612,92.41726209991612,92.41726209991612,92.41726209991612,92.41726209991612,92.41726209991612,92.41726209991612,92.41726209991612,23,0,,,92.41726209991612,92.61744920001365,0.0,92.61744920001365,1,0.0,0,0,1000,num_4,0.6309880001936108,,31,5,2026-03-12_13h40.48.792,2026A_exp2,2022.2.4,59.9654119662431,
1,0,4.9,0.0,0,0,15,15,66,,,,,93.2706964998506,93.91859059990384,93.91859059990384,94.43138139997609,45,315,94.43138139997609,94.43138139997609,94.43138139997609,94.43138139997609,94.43138139997609,94.43138139997609,94.43138139997609,94.43138139997609,94.43138139997609,94.78612409997731,94.78612409997731,94.78612409997731,94.78612409997731,94.78612409997731,94.78612409997731,94.78612409997731,94.78612409997731,94.78612409997731,23,0,,,94.78612409997731,94.9864413999021,4.9,94.9864413999021,1,4.9,1,1,1000,num_4,0.8373388999607414,,31,5,2026-03-12_13h40.48.792,2026A_exp2,2022.2.4,59.9654119662431,
1000,1,3.7,4.9,1,0,16,16,71,,,,,95.85376430000179,96.50453440006822,96.50453440006822,97.00564059987664,315,315,97.00564059987664,97.00564059987664,97.00564059987664,97.00564059987664,97.00564059987664,97.00564059987664,97.00564059987664,97.00564059987664,97.00564059987664,97.37213240005076,97.37213240005076,97.37213240005076,97.37213240005076,97.37213240005076,97.37213240005076,97.37213240005076,97.37213240005076,97.37213240005076,23,0,,,97.37213240005076,97.57266189996153,1000,97.57266189996153,1000,1000,1000,1000,1,num_2,0.6187903000973165,,31,5,2026-03-12_13h40.48.792,2026A_exp2,2022.2.4,59.9654119662431,
1,0,4.9,6.1,0,0,17,17,82,,,,,98.22328889998607,98.87361439992674,98.87361439992674,99.37379510002211,45,315,99.37379510002211,99.37379510002211,99.37379510002211,99.37379510002211,99.37379510002211,99.37379510002211,99.37379510002211,99.37379510002211,99.37379510002211,99.72447569994256,99.72447569994256,99.72447569994256,99.72447569994256,99.72447569994256,99.72447569994256,99.72447569994256,99.72447569994256,99.72447569994256,23,0,,,99.72447569994256,99.92463769996539,4.9,99.94140139990486,0,4.9,1,0,1000,num_1,1.2187264000531286,,31,5,2026-03-12_13h40.48.792,2026A_exp2,2022.2.4,59.9654119662431,
1,0,0.0,6.1,0,0,18,18,24,,,,,101.17583339987323,101.82662389986217,101.82662389986217,102.311067200033,315,315,102.311067200033,102.311067200033,102.311067200033,102.311067200033,102.311067200033,102.311067200033,102.311067200033,102.311067200033,102.311067200033,102.6772719998844,102.6772719998844,102.6772719998844,102.6772719998844,102.6772719998844,102.6772719998844,102.6772719998844,102.6772719998844,102.6772719998844,23,0,,,102.6772719998844,102.87764630001038,0.0,102.87764630001038,0,0.0,0,1,1000,num_1,1.0104211999569088,,31,5,2026-03-12_13h40.48.792,2026A_exp2,2022.2.4,59.9654119662431,
1000,1,0.0,0.0,0,0,19,19,89,,,,,103.9118196000345,104.5626823999919,104.5626823999919,105.04706240002997,315,315,105.04706240002997,105.04706240002997,105.04706240002997,105.04706240002997,105.04706240002997,105.04706240002997,105.04706240002997,105.04706240002997,105.04706240002997,105.41354710003361,105.41354710003361,105.41354710003361,105.41354710003361,105.41354710003361,105.41354710003361,105.41354710003361,105.41354710003361,105.41354710003361,23,0,,,105.41354710003361,105.61621850007214,1000,105.61621850007214,1000,1000,1000,1000,0,num_3,0.6475589000619948,,31,5,2026-03-12_13h40.48.792,2026A_exp2,2022.2.4,59.9654119662431,
0,0,6.1,0.0,0,0,20,20,41,,,,,106.28091889992356,106.93172380002216,106.93172380002216,107.43269130005501,315,45,107.43269130005501,107.43269130005501,107.43269130005501,107.43269130005501,107.43269130005501,107.43269130005501,107.43269130005501,107.43269130005501,107.43269130005501,107.79889109986834,107.79889109986834,107.79889109986834,107.79889109986834,107.79889109986834,107.79889109986834,107.79889109986834,107.79889109986834,107.79889109986834,23,0,,,107.79889109986834,107.99945040000603,0.0,107.99945040000603,1,0.0,0,0,1000,num_4,0.8330489001236856,,31,5,2026-03-12_13h40.48.792,2026A_exp2,2022.2.4,59.9654119662431,
1000,1,0.0,3.7,1,0,21,21,88,,,,,108.8500915998593,109.50102570001036,109.50102570001036,109.98527539987117,45,315,109.98527539987117,109.98527539987117,109.98527539987117,109.98527539987117,109.98527539987117,109.98527539987117,109.98527539987117,109.98527539987117,109.98527539987117,110.35163659998216,110.35163659998216,110.35163659998216,110.35163659998216,110.35163659998216,110.35163659998216,110.35163659998216,110.35163659998216,110.35163659998216,23,0,,,110.35163659998216,110.55376539984718,1000,110.55376539984718,1000,1000,1000,1000,1,num_2,0.6297627000603825,,31,5,2026-03-12_13h40.48.792,2026A_exp2,2022.2.4,59.9654119662431,
1000,1,0.0,3.7,0,0,22,22,23,,,,,111.20248840004206,111.85322099993937,111.85322099993937,112.35428639990278,315,45,112.35428639990278,112.35428639990278,112.35428639990278,112.35428639990278,112.35428639990278,112.35428639990278,112.35428639990278,112.35428639990278,112.35428639990278,112.72077909996733,112.72077909996733,112.72077909996733,112.72077909996733,112.72077909996733,112.72077909996733,112.72077909996733,112.72077909996733,112.72077909996733,23,0,,,112.72077909996733,112.92290659993887,1000,112.92290659993887,1000,1000,1000,1000,0,num_3,1.1807344001717865,,31,5,2026-03-12_13h40.48.792,2026A_exp2,2022.2.4,59.9654119662431,
1,0,0.0,6.1,1,0,23,23,19,,,,,114.12242119992152,114.77799099986441,114.77799099986441,115.26764900004491,315,45,115.26764900004491,115.26764900004491,115.26764900004491,115.26764900004491,115.26764900004491,115.26764900004491,115.26764900004491,115.26764900004491,115.26764900004491,115.62365119997412,115.62365119997412,115.62365119997412,115.62365119997412,115.62365119997412,115.62365119997412,115.62365119997412,115.62365119997412,115.62365119997412,23,0,,,115.62365119997412,115.82380039989948,6.1,115.82380039989948,1,6.1,1,1,1000,num_4,0.512084900168702,,31,5,2026-03-12_13h40.48.792,2026A_exp2,2022.2.4,59.9654119662431,
1000,1,0.0,0.0,0,0,24,24,72,,,,,116.35756219993345,117.00853200000711,117.00853200000711,117.50958439987153,45,315,117.50958439987153,117.50958439987153,117.50958439987153,117.50958439987153,117.50958439987153,117.50958439987153,117.50958439987153,117.50958439987153,117.50958439987153,117.87590169999748,117.87590169999748,117.87590169999748,117.87590169999748,117.87590169999748,117.87590169999748,117.87590169999748,117.87590169999748,117.87590169999748,23,0,,,117.87590169999748,118.08480080007575,1000,118.08480080007575,1000,1000,1000,1000,0,num_3,0.86774060013704,,31,5,2026-03-12_13h40.48.792,2026A_exp2,2022.2.4,59.9654119662431,
1000,1,0.0,0.0,1,0,25,25,2,,,,,118.97715479996987,119.62765529984608,119.62765529984608,120.11213939986192,45,45,120.11213939986192,120.11213939986192,120.11213939986192,120.11213939986192,120.11213939986192,120.11213939986192,120.11213939986192,120.11213939986192,120.11213939986192,120.47861559991725,120.47861559991725,120.47861559991725,120.47861559991725,120.47861559991725,120.47861559991725,120.47861559991725,120.47861559991725,120.47861559991725,23,0,,,120.47861559991725,120.6804756000638,1000,120.6804756000638,1000,1000,1000,1000,1,num_2,0.5918390001170337,,31,5,2026-03-12_13h40.48.792,2026A_exp2,2022.2.4,59.9654119662431,
1000,1,4.9,0.0,1,0,26,26,67,,,,,121.29597579990514,121.94756749994121,121.94756749994121,122.44790999987163,45,315,122.44790999987163,122.44790999987163,122.44790999987163,122.44790999987163,122.44790999987163,122.44790999987163,122.44790999987163,122.44790999987163,122.44790999987163,122.81423330004327,122.81423330004327,122.81423330004327,122.81423330004327,122.81423330004327,122.81423330004327,122.81423330004327,122.81423330004327,122.81423330004327,23,0,,,122.81423330004327,123.01642349991016,1000,123.01642349991016,1000,1000,1000,1000,0,num_3,0.6082480002660304,,31,5,2026-03-12_13h40.48.792,2026A_exp2,2022.2.4,59.9654119662431,
1,0,3.7,0.0,0,0,27,27,26,,,,,123.6486332998611,124.29892920004204,124.29892920004204,124.79998110001907,45,45,124.79998110001907,124.79998110001907,124.79998110001907,124.79998110001907,124.79998110001907,124.79998110001907,124.79998110001907,124.79998110001907,124.79998110001907,125.16642110003158,125.16642110003158,125.16642110003158,125.16642110003158,125.16642110003158,125.16642110003158,125.16642110003158,125.16642110003158,125.16642110003158,23,0,,,125.16642110003158,125.36677840002812,3.7,125.36677840002812,1,3.7,1,1,1000,num_4,0.6328746001236141,,31,5,2026-03-12_13h40.48.792,2026A_exp2,2022.2.4,59.9654119662431,
0,0,3.7,0.0,1,0,28,28,1,,,,,126.01735270000063,126.65138860000297,126.65138860000297,127.15248419996351,45,315,127.15248419996351,127.15248419996351,127.15248419996351,127.15248419996351,127.15248419996351,127.15248419996351,127.15248419996351,127.15248419996351,127.15248419996351,127.51901019993238,127.51901019993238,127.51901019993238,127.51901019993238,127.51901019993238,127.51901019993238,127.51901019993238,127.51901019993238,127.51901019993238,23,0,,,127.51901019993238,127.71907430002466,3.7,127.71907430002466,1,3.7,1,1,1000,num_4,0.9851133001502603,,31,5,2026-03-12_13h40.48.792,2026A_exp2,2022.2.4,59.9654119662431,
1000,1,0.0,0.0,0,0,29,29,64,,,,,128.72019269992597,129.37487599998713,129.37487599998713,129.8724082999397,315,45,129.8724082999397,129.8724082999397,129.8724082999397,129.8724082999397,129.8724082999397,129.8724082999397,129.8724082999397,129.8724082999397,129.8724082999397,130.23812619992532,130.23812619992532,130.23812619992532,130.23812619992532,130.23812619992532,130.23812619992532,130.23812619992532,130.23812619992532,130.23812619992532,23,0,,,130.23812619992532,130.44054399989545,1000,130.44054399989545,1000,1000,1000,1000,1,num_2,1.3193159999791533,,31,5,2026-03-12_13h40.48.792,2026A_exp2,2022.2.4,59.9654119662431,
1000,1,0.0,4.9,1,0,30,30,37,,,,,131.78991719987243,132.44058960000984,132.44058960000984,132.94165960000828,315,45,132.94165960000828,132.94165960000828,132.94165960000828,132.94165960000828,132.94165960000828,132.94165960000828,132.94165960000828,132.94165960000828,132.94165960000828,133.29133010003716,133.29133010003716,133.29133010003716,133.29133010003716,133.29133010003716,133.29133010003716,133.29133010003716,133.29133010003716,133.29133010003716,22,0,,,133.29133010003716,133.4932426000014,1000,133.5082926999312,1000,1000,1000,1000,1,num_2,0.5478477999567986,,31,5,2026-03-12_13h40.48.792,2026A_exp2,2022.2.4,59.9654119662431,
1000,1,0.0,0.0,0,0,31,31,7,,,,,134.07540189987049,134.72606999985874,134.72606999985874,135.22711419989355,315,45,135.22711419989355,135.22711419989355,135.22711419989355,135.22711419989355,135.22711419989355,135.22711419989355,135.22711419989355,135.22711419989355,135.22711419989355,135.5770161000546,135.5770161000546,135.5770161000546,135.5770161000546,135.5770161000546,135.5770161000546,135.5770161000546,135.5770161000546,135.5770161000546,22,0,,,135.5770161000546,135.7791821998544,1000,135.7791821998544,1000,1000,1000,1000,0,num_3,0.9251060001552105,,31,5,2026-03-12_13h40.48.792,2026A_exp2,2022.2.4,59.9654119662431,
0,0,6.1,0.0,1,0,32,32,25,,,,,136.72838200000115,137.37879980006255,137.37879980006255,137.86319889989682,45,45,137.86319889989682,137.86319889989682,137.86319889989682,137.86319889989682,137.86319889989682,137.86319889989682,137.86319889989682,137.86319889989682,137.86319889989682,138.22970679984428,138.22970679984428,138.22970679984428,138.22970679984428,138.22970679984428,138.22970679984428,138.22970679984428,138.22970679984428,138.22970679984428,23,0,,,138.22970679984428,138.42972679995,6.1,138.42972679995,1,6.1,1,1,1000,num_4,1.0339070002082735,,31,5,2026-03-12_13h40.48.792,2026A_exp2,2022.2.4,59.9654119662431,
1000,1,0.0,6.1,1,0,33,33,74,,,,,139.48223129985854,140.1434909000527,140.1434909000527,140.6327034998685,315,45,140.6327034998685,140.6327034998685,140.6327034998685,140.6327034998685,140.6327034998685,140.6327034998685,140.6327034998685,140.6327034998685,140.6327034998685,140.9989827000536,140.9989827000536,140.9989827000536,140.9989827000536,140.9989827000536,140.9989827000536,140.9989827000536,140.9989827000536,140.9989827000536,23,0,,,140.9989827000536,141.20127959991805,1000,141.20127959991805,1000,1000,1000,1000,1,num_2,0.6307983000297099,,31,5,2026-03-12_13h40.48.792,2026A_exp2,2022.2.4,59.9654119662431,
1000,1,0.0,3.7,1,0,34,34,4,,,,,141.84980249986984,142.50047799991444,142.50047799991444,143.00158709986135,45,315,143.00158709986135,143.00158709986135,143.00158709986135,143.00158709986135,143.00158709986135,143.00158709986135,143.00158709986135,143.00158709986135,143.00158709986135,143.3682603999041,143.3682603999041,143.3682603999041,143.3682603999041,143.3682603999041,143.3682603999041,143.3682603999041,143.3682603999041,143.3682603999041,23,0,,,143.3682603999041,143.56832839990966,1000,143.56832839990966,1000,1000,1000,1000,0,num_3,0.9604993001557887,,31,5,2026-03-12_13h40.48.792,2026A_exp2,2022.2.4,59.9654119662431,
1000,1,6.1,4.9,0,0,35,35,81,,,,,144.552558099851,145.20330539997667,145.20330539997667,145.70435149990954,315,315,145.70435149990954,145.70435149990954,145.70435149990954,145.70435149990954,145.70435149990954,145.70435149990954,145.70435149990954,145.70435149990954,145.70435149990954,146.07084539998323,146.07084539998323,146.07084539998323,146.07084539998323,146.07084539998323,146.07084539998323,146.07084539998323,146.07084539998323,146.07084539998323,23,0,,,146.07084539998323,146.2727621998638,1000,146.2727621998638,1000,1000,1000,1000,0,num_3,0.5107611999846995,,31,5,2026-03-12_13h40.48.792,2026A_exp2,2022.2.4,59.9654119662431,
1000,1,0.0,0.0,0,0,36,36,57,,,,,146.80501340003684,147.45109699992463,147.45109699992463,147.93977089994587,315,45,147.93977089994587,147.93977089994587,147.93977089994587,147.93977089994587,147.93977089994587,147.93977089994587,147.93977089994587,147.93977089994587,147.93977089994587,148.30632139998488,148.30632139998488,148.30632139998488,148.30632139998488,148.30632139998488,148.30632139998488,148.30632139998488,148.30632139998488,148.30632139998488,23,0,,,148.30632139998488,148.51082480000332,1000,148.51082480000332,1000,1000,1000,1000,0,num_3,0.9055578000843525,,31,5,2026-03-12_13h40.48.792,2026A_exp2,2022.2.4,59.9654119662431,
1,0,0.0,0.0,1,0,37,37,38,,,,,149.44081879989244,150.09156519989483,150.09156519989483,150.59243640000932,45,45,150.59243640000932,150.59243640000932,150.59243640000932,150.59243640000932,150.59243640000932,150.59243640000932,150.59243640000932,150.59243640000932,150.59243640000932,150.95904430001974,150.95904430001974,150.95904430001974,150.95904430001974,150.95904430001974,150.95904430001974,150.95904430001974,150.95904430001974,150.95904430001974,23,0,,,150.95904430001974,151.159297300037,0.0,151.159297300037,0,0.0,0,1,1000,num_1,0.6011553001590073,,31,5,2026-03-12_13h40.48.792,2026A_exp2,2022.2.4,59.9654119662431,
1,0,0.0,0.0,1,0,38,38,31,,,,,151.77638299996033,152.427146299975,152.427146299975,152.9116831999272,45,315,152.9116831999272,152.9116831999272,152.9116831999272,152.9116831999272,152.9116831999272,152.9116831999272,152.9116831999272,152.9116831999272,152.9116831999272,153.27808489999734,153.27808489999734,153.27808489999734,153.27808489999734,153.27808489999734,153.27808489999734,153.27808489999734,153.27808489999734,153.27808489999734,23,0,,,153.27808489999734,153.47873690002598,0.0,153.47873690002598,0,0.0,0,1,1000,num_1,0.5293558002449572,,31,5,2026-03-12_13h40.48.792,2026A_exp2,2022.2.4,59.9654119662431,
1000,1,0.0,3.7,0,0,39,39,63,,,,,154.0286178998649,154.67924500000663,154.67924500000663,155.19689779984765,315,45,155.19689779984765,155.19689779984765,155.19689779984765,155.19689779984765,155.19689779984765,155.19689779984765,155.19689779984765,155.19689779984765,155.19689779984765,155.5469636998605,155.5469636998605,155.5469636998605,155.5469636998605,155.5469636998605,155.5469636998605,155.5469636998605,155.5469636998605,155.5469636998605,23,0,,,155.5469636998605,155.74984639999457,1000,155.74984639999457,1000,1000,1000,1000,1,num_2,1.1939096001442522,,31,5,2026-03-12_13h40.48.792,2026A_exp2,2022.2.4,59.9654119662431,
1000,1,3.7,0.0,0,0,40,40,69,,,,,156.964922899846,157.61572550004348,157.61572550004348,158.116909599863,45,315,158.116909599863,158.116909599863,158.116909599863,158.116909599863,158.116909599863,158.116909599863,158.116909599863,158.116909599863,158.116909599863,158.4832766999025,158.4832766999025,158.4832766999025,158.4832766999025,158.4832766999025,158.4832766999025,158.4832766999025,158.4832766999025,158.4832766999025,23,0,,,158.4832766999025,158.68560289987363,1000,158.68560289987363,1000,1000,1000,1000,0,num_3,0.7621385999955237,,31,5,2026-03-12_13h40.48.792,2026A_exp2,2022.2.4,59.9654119662431,
0,0,4.9,0.0,0,0,41,41,84,,,,,159.46759129990824,160.11818640003912,160.11818640003912,160.61919400002807,45,45,160.61919400002807,160.61919400002807,160.61919400002807,160.61919400002807,160.61919400002807,160.61919400002807,160.61919400002807,160.61919400002807,160.61919400002807,160.98579579987563,160.98579579987563,160.98579579987563,160.98579579987563,160.98579579987563,160.98579579987563,160.98579579987563,160.98579579987563,160.98579579987563,23,0,,,160.98579579987563,161.1859184000641,0.0,161.1859184000641,0,0.0,0,1,1000,num_1,1.15058090002276,,31,5,2026-03-12_13h40.48.792,2026A_exp2,2022.2.4,59.9654119662431,
1000,1,6.1,3.7,1,0,42,42,11,,,,,162.35368960001506,163.00448079989292,163.00448079989292,163.48866959987208,45,45,163.48866959987208,163.48866959987208,163.48866959987208,163.48866959987208,163.48866959987208,163.48866959987208,163.48866959987208,163.48866959987208,163.48866959987208,163.85538990003988,163.85538990003988,163.85538990003988,163.85538990003988,163.85538990003988,163.85538990003988,163.85538990003988,163.85538990003988,163.85538990003988,23,0,,,163.85538990003988,164.05755769996904,1000,164.05755769996904,1000,1000,1000,1000,0,num_3,0.7751140000764281,,31,5,2026-03-12_13h40.48.792,2026A_exp2,2022.2.4,59.9654119662431,
1000,1,0.0,0.0,1,0,43,43,55,,,,,164.85611829999834,165.49035770003684,165.49035770003684,165.99139730003662,45,315,165.99139730003662,165.99139730003662,165.99139730003662,165.99139730003662,165.99139730003662,165.99139730003662,165.99139730003662,165.99139730003662,165.99139730003662,166.35778289986774,166.35778289986774,166.35778289986774,166.35778289986774,166.35778289986774,166.35778289986774,166.35778289986774,166.35778289986774,166.35778289986774,23,0,,,166.35778289986774,166.56003669998609,1000,166.56003669998609,1000,1000,1000,1000,0,num_3,0.7835757001303136,,31,5,2026-03-12_13h40.48.792,2026A_exp2,2022.2.4,59.9654119662431,
1,0,0.0,0.0,1,0,44,44,6,,,,,167.35871850000694,168.01938900002278,168.01938900002278,168.51059890002944,45,315,168.51059890002944,168.51059890002944,168.51059890002944,168.51059890002944,168.51059890002944,168.51059890002944,168.51059890002944,168.51059890002944,168.51059890002944,168.8769111998845,168.8769111998845,168.8769111998845,168.8769111998845,168.8769111998845,168.8769111998845,168.8769111998845,168.8769111998845,168.8769111998845,23,0,,,168.8769111998845,169.07701909984462,0.0,169.07701909984462,0,0.0,0,1,1000,num_1,0.8835010000038892,,31,5,2026-03-12_13h40.48.792,2026A_exp2,2022.2.4,59.9654119662431,
1000,1,4.9,3.7,1,0,45,45,78,,,,,169.97790249995887,170.6287713998463,170.6287713998463,171.1131163998507,315,45,171.1131163998507,171.1131163998507,171.1131163998507,171.1131163998507,171.1131163998507,171.1131163998507,171.1131163998507,171.1131163998507,171.1131163998507,171.47945600003004,171.47945600003004,171.47945600003004,171.47945600003004,171.47945600003004,171.47945600003004,171.47945600003004,171.47945600003004,171.47945600003004,23,0,,,171.47945600003004,171.6806554000359,1000,171.6806554000359,1000,1000,1000,1000,1,num_2,0.7836007000878453,,31,5,2026-03-12_13h40.48.792,2026A_exp2,2022.2.4,59.9654119662431,
1,0,0.0,4.9,1,0,46,46,54,,,,,172.48041690001264,173.13117019995116,173.13117019995116,173.63212649989873,315,45,173.63212649989873,173.63212649989873,173.63212649989873,173.63212649989873,173.63212649989873,173.63212649989873,173.63212649989873,173.63212649989873,173.63212649989873,173.99883090006188,173.99883090006188,173.99883090006188,173.99883090006188,173.99883090006188,173.99883090006188,173.99883090006188,173.99883090006188,173.99883090006188,23,0,,,173.99883090006188,174.19896279997192,4.9,174.19896279997192,1,4.9,1,1,1000,num_4,0.5453223001677543,,31,5,2026-03-12_13h40.48.792,2026A_exp2,2022.2.4,59.9654119662431,
0,0,6.1,3.7,0,0,47,47,49,,,,,174.7662696999032,175.42073969985358,175.42073969985358,175.90112359984778,315,45,175.90112359984778,175.90112359984778,175.90112359984778,175.90112359984778,175.90112359984778,175.90112359984778,175.90112359984778,175.90112359984778,175.90112359984778,176.26773829990998,176.26773829990998,176.26773829990998,176.26773829990998,176.26773829990998,176.26773829990998,176.26773829990998,176.26773829990998,176.26773829990998,23,0,,,176.26773829990998,176.4678877000697,3.7,176.4678877000697,1,3.7,1,1,1000,num_4,0.8835577003192157,,31,5,2026-03-12_13h40.48.792,2026A_exp2,2022.2.4,59.9654119662431,
1,0,0.0,6.1,1,0,48,48,46,,,,,177.36858309991658,178.02917389990762,178.02917389990762,178.5086028999649,315,45,178.5086028999649,178.5086028999649,178.5086028999649,178.5086028999649,178.5086028999649,178.5086028999649,178.5086028999649,178.5086028999649,178.5086028999649,178.87034709984437,178.87034709984437,178.87034709984437,178.87034709984437,178.87034709984437,178.87034709984437,178.87034709984437,178.87034709984437,178.87034709984437,23,0,,,178.87034709984437,179.07431069994345,6.1,179.07431069994345,1,6.1,1,1,1000,num_4,0.6456369000952691,,31,5,2026-03-12_13h40.48.792,2026A_exp2,2022.2.4,59.9654119662431,
1000,1,0.0,4.9,0,0,49,49,8,,,,,179.73765709996223,180.37333459989168,180.37333459989168,180.87742999987677,315,315,180.87742999987677,180.87742999987677,180.87742999987677,180.87742999987677,180.87742999987677,180.87742999987677,180.87742999987677,180.87742999987677,180.87742999987677,181.23928939993493,181.23928939993493,181.23928939993493,181.23928939993493,181.23928939993493,181.23928939993493,181.23928939993493,181.23928939993493,181.23928939993493,23,0,,,181.23928939993493,181.4449062999338,1000,181.4449062999338,1000,1000,1000,1000,1,num_2,0.771047200076282,,31,5,2026-03-12_13h40.48.792,2026A_exp2,2022.2.4,59.9654119662431,
1000,1,3.7,0.0,0,0,50,50,86,,,,,182.23997809994034,182.89095190004446,182.89095190004446,183.3921272000298,315,45,183.3921272000298,183.3921272000298,183.3921272000298,183.3921272000298,183.3921272000298,183.3921272000298,183.3921272000298,183.3921272000298,183.3921272000298,183.75836939993314,183.75836939993314,183.75836939993314,183.75836939993314,183.75836939993314,183.75836939993314,183.75836939993314,183.75836939993314,183.75836939993314,23,0,,,183.75836939993314,183.96099399984814,1000,183.96099399984814,1000,1000,1000,1000,0,num_3,0.5990604001563042,,31,5,2026-03-12_13h40.48.792,2026A_exp2,2022.2.4,59.9654119662431,
1000,1,0.0,0.0,1,0,51,51,73,,,,,184.57775719999336,185.2265168998856,185.2265168998856,185.72762809996493,315,315,185.72762809996493,185.72762809996493,185.72762809996493,185.72762809996493,185.72762809996493,185.72762809996493,185.72762809996493,185.72762809996493,185.72762809996493,186.09412939986214,186.09412939986214,186.09412939986214,186.09412939986214,186.09412939986214,186.09412939986214,186.09412939986214,186.09412939986214,186.09412939986214,23,0,,,186.09412939986214,186.32133709988557,1000,186.32133709988557,1000,1000,1000,1000,0,num_3,0.8228788000997156,,31,5,2026-03-12_13h40.48.792,2026A_exp2,2022.2.4,59.9654119662431,
1000,1,0.0,6.1,1,0,52,52,13,,,,,187.16189710004255,187.81232939986512,187.81232939986512,188.32889849995263,45,45,188.32889849995263,188.32889849995263,188.32889849995263,188.32889849995263,188.32889849995263,188.32889849995263,188.32889849995263,188.32889849995263,188.32889849995263,188.68005499988794,188.68005499988794,188.68005499988794,188.68005499988794,188.68005499988794,188.68005499988794,188.68005499988794,188.68005499988794,188.68005499988794,23,0,,,188.68005499988794,188.89114049985074,1000,188.89114049985074,1000,1000,1000,1000,1,num_2,0.5335622001439333,,31,5,2026-03-12_13h40.48.792,2026A_exp2,2022.2.4,59.9654119662431,
1000,1,3.7,6.1,1,0,53,53,75,,,,,189.44747100002132,190.0983984998893,190.0983984998893,190.5992610999383,315,315,190.5992610999383,190.5992610999383,190.5992610999383,190.5992610999383,190.5992610999383,190.5992610999383,190.5992610999383,190.5992610999383,190.5992610999383,190.96555590000935,190.96555590000935,190.96555590000935,190.96555590000935,190.96555590000935,190.96555590000935,190.96555590000935,190.96555590000935,190.96555590000935,23,0,,,190.96555590000935,191.16768600000069,1000,191.16768600000069,1000,1000,1000,1000,1,num_2,0.5687170000746846,,31,5,2026-03-12_13h40.48.792,2026A_exp2,2022.2.4,59.9654119662431,
0,0,6.1,0.0,1,0,54,54,52,,,,,191.76643469999544,192.41733049997129,192.41733049997129,192.9182531000115,315,315,192.9182531000115,192.9182531000115,192.9182531000115,192.9182531000115,192.9182531000115,192.9182531000115,192.9182531000115,192.9182531000115,192.9182531000115,193.26806559995748,193.26806559995748,193.26806559995748,193.26806559995748,193.26806559995748,193.26806559995748,193.26806559995748,193.26806559995748,193.26806559995748,22,0,,,193.26806559995748,193.46814360003918,6.1,193.46814360003918,1,6.1,1,1,1000,num_4,0.7321459001395851,,31,5,2026-03-12_13h40.48.792,2026A_exp2,2022.2.4,59.9654119662431,
1000,1,0.0,4.9,0,0,55,55,0,,,,,194.21879539988004,194.86956660007127,194.86956660007127,195.37039870000444,45,45,195.37039870000444,195.37039870000444,195.37039870000444,195.37039870000444,195.37039870000444,195.37039870000444,195.37039870000444,195.37039870000444,195.37039870000444,195.72049760003574,195.72049760003574,195.72049760003574,195.72049760003574,195.72049760003574,195.72049760003574,195.72049760003574,195.72049760003574,195.72049760003574,23,0,,,195.72049760003574,195.92362529993989,1000,195.92362529993989,1000,1000,1000,1000,1,num_2,0.773286199895665,,31,5,2026-03-12_13h40.48.792,2026A_exp2,2022.2.4,59.9654119662431,
1,0,0.0,4.9,0,0,56,56,32,,,,,196.72136049997061,197.38285980001092,197.38285980001092,197.88852909998968,315,45,197.88852909998968,197.88852909998968,197.88852909998968,197.88852909998968,197.88852909998968,197.88852909998968,197.88852909998968,197.88852909998968,197.88852909998968,198.23966560000554,198.23966560000554,198.23966560000554,198.23966560000554,198.23966560000554,198.23966560000554,198.23966560000554,198.23966560000554,198.23966560000554,23,0,,,198.23966560000554,198.43972769984975,0.0,198.43972769984975,0,0.0,0,1,1000,num_1,1.6731481002643704,,31,5,2026-03-12_13h40.48.792,2026A_exp2,2022.2.4,59.9654119662431,
1000,1,0.0,6.1,0,0,57,57,61,,,,,200.1415721999947,200.80235409992747,200.80235409992747,201.2766489998903,315,45,201.2766489998903,201.2766489998903,201.2766489998903,201.2766489998903,201.2766489998903,201.2766489998903,201.2766489998903,201.2766489998903,201.2766489998903,201.64309279993176,201.64309279993176,201.64309279993176,201.64309279993176,201.64309279993176,201.64309279993176,201.64309279993176,201.64309279993176,201.64309279993176,23,0,,,201.64309279993176,201.8450281000696,1000,201.8450281000696,1000,1000,1000,1000,1,num_2,0.7154738001991063,,31,5,2026-03-12_13h40.48.792,2026A_exp2,2022.2.4,59.9654119662431,
1000,1,0.0,0.0,1,0,58,58,29,,,,,202.577253599884,203.22806639992632,203.22806639992632,203.72899700002745,315,315,203.72899700002745,203.72899700002745,203.72899700002745,203.72899700002745,203.72899700002745,203.72899700002745,203.72899700002745,203.72899700002745,203.72899700002745,204.0956414998509,204.0956414998509,204.0956414998509,204.0956414998509,204.0956414998509,204.0956414998509,204.0956414998509,204.0956414998509,204.0956414998509,23,0,,,204.0956414998509,204.32160090003163,1000,204.32160090003163,1000,1000,1000,1000,1,num_2,1.7501569001469761,,31,5,2026-03-12_13h40.48.792,2026A_exp2,2022.2.4,59.9654119662431,
1000,1,6.1,4.9,0,0,59,59,51,,,,,206.09759170003235,206.7503595999442,206.7503595999442,207.26519189984538,45,45,207.26519189984538,207.26519189984538,207.26519189984538,207.26519189984538,207.26519189984538,207.26519189984538,207.26519189984538,207.26519189984538,207.26519189984538,207.615808499977,207.615808499977,207.615808499977,207.615808499977,207.615808499977,207.615808499977,207.615808499977,207.615808499977,207.615808499977,23,0,,,207.615808499977,207.8314795999322,1000,207.8314795999322,1000,1000,1000,1000,0,num_3,0.7207772000692785,,31,5,2026-03-12_13h40.48.792,2026A_exp2,2022.2.4,59.9654119662431,
1000,1,6.1,0.0,0,0,60,60,27,,,,,208.58355450001545,209.24545300006866,209.24545300006866,209.73514460003935,45,315,209.73514460003935,209.73514460003935,209.73514460003935,209.73514460003935,209.73514460003935,209.73514460003935,209.73514460003935,209.73514460003935,209.73514460003935,210.08495320007205,210.08495320007205,210.08495320007205,210.08495320007205,210.08495320007205,210.08495320007205,210.08495320007205,210.08495320007205,210.08495320007205,22,0,,,210.08495320007205,210.2852872000076,1000,210.30194839998148,1000,1000,1000,1000,0,num_3,0.46630830015055835,,31,5,2026-03-12_13h40.48.792,2026A_exp2,2022.2.4,59.9654119662431,
1,0,4.9,4.9,1,0,61,61,9,,,,,210.78551469999366,211.44721550005488,211.44721550005488,211.93734849989414,315,45,211.93734849989414,211.93734849989414,211.93734849989414,211.93734849989414,211.93734849989414,211.93734849989414,211.93734849989414,211.93734849989414,211.93734849989414,212.28699739999138,212.28699739999138,212.28699739999138,212.28699739999138,212.28699739999138,212.28699739999138,212.28699739999138,212.28699739999138,212.28699739999138,22,0,,,212.28699739999138,212.4872850999236,4.9,212.5036156999413,1,4.9,1,1,1000,num_4,0.6884723000694066,,31,5,2026-03-12_13h40.48.792,2026A_exp2,2022.2.4,59.9654119662431,
1,0,0.0,0.0,0,0,62,62,87,,,,,213.22112690005451,213.87184699997306,213.87184699997306,214.3563224999234,315,315,214.3563224999234,214.3563224999234,214.3563224999234,214.3563224999234,214.3563224999234,214.3563224999234,214.3563224999234,214.3563224999234,214.3563224999234,214.72275809990242,214.72275809990242,214.72275809990242,214.72275809990242,214.72275809990242,214.72275809990242,214.72275809990242,214.72275809990242,214.72275809990242,23,0,,,214.72275809990242,214.9229927000124,0.0,214.9229927000124,0,0.0,0,1,1000,num_1,0.7965702002402395,,31,5,2026-03-12_13h40.48.792,2026A_exp2,2022.2.4,59.9654119662431,
1000,1,4.9,6.1,1,0,63,63,5,,,,,215.7402675000485,216.39118300005794,216.39118300005794,216.87542090006173,315,45,216.87542090006173,216.87542090006173,216.87542090006173,216.87542090006173,216.87542090006173,216.87542090006173,216.87542090006173,216.87542090006173,216.87542090006173,217.24199529993348,217.24199529993348,217.24199529993348,217.24199529993348,217.24199529993348,217.24199529993348,217.24199529993348,217.24199529993348,217.24199529993348,23,0,,,217.24199529993348,217.44382539996877,1000,217.44382539996877,1000,1000,1000,1000,0,num_3,0.5486141003202647,,31,5,2026-03-12_13h40.48.792,2026A_exp2,2022.2.4,59.9654119662431,
1000,1,6.1,0.0,1,0,64,64,79,,,,,218.00928919995204,218.64340279996395,218.64340279996395,219.14441079995595,315,315,219.14441079995595,219.14441079995595,219.14441079995595,219.14441079995595,219.14441079995595,219.14441079995595,219.14441079995595,219.14441079995595,219.14441079995595,219.511015499942,219.511015499942,219.511015499942,219.511015499942,219.511015499942,219.511015499942,219.511015499942,219.511015499942,219.511015499942,23,0,,,219.511015499942,219.71319859987125,1000,219.71319859987125,1000,1000,1000,1000,0,num_3,0.5272538003046066,,31,5,2026-03-12_13h40.48.792,2026A_exp2,2022.2.4,59.9654119662431,
1,0,0.0,4.9,0,0,65,65,70,,,,,220.2615429998841,220.91233789990656,220.91233789990656,221.41338889999315,45,45,221.41338889999315,221.41338889999315,221.41338889999315,221.41338889999315,221.41338889999315,221.41338889999315,221.41338889999315,221.41338889999315,221.41338889999315,221.77970950002782,221.77970950002782,221.77970950002782,221.77970950002782,221.77970950002782,221.77970950002782,221.77970950002782,221.77970950002782,221.77970950002782,23,0,,,221.77970950002782,221.9800849999301,0.0,221.9800849999301,1,0.0,0,0,1000,num_4,1.5241041001863778,,31,5,2026-03-12_13h40.48.792,2026A_exp2,2022.2.4,59.9654119662431,
1000,1,0.0,0.0,0,0,66,66,45,,,,,223.53157310001552,224.16577610000968,224.16577610000968,224.6666913998779,45,45,224.6666913998779,224.6666913998779,224.6666913998779,224.6666913998779,224.6666913998779,224.6666913998779,224.6666913998779,224.6666913998779,224.6666913998779,225.03306249994785,225.03306249994785,225.03306249994785,225.03306249994785,225.03306249994785,225.03306249994785,225.03306249994785,225.03306249994785,225.03306249994785,23,0,,,225.03306249994785,225.2334274998866,1000,225.2334274998866,1000,1000,1000,1000,1,num_2,0.7593340002931654,,31,5,2026-03-12_13h40.48.792,2026A_exp2,2022.2.4,59.9654119662431,
1,0,3.7,0.0,1,0,67,67,30,,,,,226.0172476998996,226.66789889987558,226.66789889987558,227.16910629998893,45,45,227.16910629998893,227.16910629998893,227.16910629998893,227.16910629998893,227.16910629998893,227.16910629998893,227.16910629998893,227.16910629998893,227.16910629998893,227.5356493999716,227.5356493999716,227.5356493999716,227.5356493999716,227.5356493999716,227.5356493999716,227.5356493999716,227.5356493999716,227.5356493999716,23,0,,,227.5356493999716,227.73594479984604,0.0,227.73594479984604,0,0.0,0,1,1000,num_1,1.0484251999296248,,31,5,2026-03-12_13h40.48.792,2026A_exp2,2022.2.4,59.9654119662431,
1,0,3.7,0.0,0,0,68,68,10,,,,,228.80355819989927,229.45429249992594,229.45429249992594,229.95519779995084,315,315,229.95519779995084,229.95519779995084,229.95519779995084,229.95519779995084,229.95519779995084,229.95519779995084,229.95519779995084,229.95519779995084,229.95519779995084,230.32170669990592,230.32170669990592,230.32170669990592,230.32170669990592,230.32170669990592,230.32170669990592,230.32170669990592,230.32170669990592,230.32170669990592,23,0,,,230.32170669990592,230.5219598999247,3.7,230.5219598999247,0,3.7,1,0,1000,num_1,0.742797400103882,,31,5,2026-03-12_13h40.48.792,2026A_exp2,2022.2.4,59.9654119662431,
1,0,6.1,0.0,1,0,69,69,17,,,,,231.28918209997937,231.94025480002165,231.94025480002165,232.42432560003363,315,45,232.42432560003363,232.42432560003363,232.42432560003363,232.42432560003363,232.42432560003363,232.42432560003363,232.42432560003363,232.42432560003363,232.42432560003363,232.79090259992518,232.79090259992518,232.79090259992518,232.79090259992518,232.79090259992518,232.79090259992518,232.79090259992518,232.79090259992518,232.79090259992518,23,0,,,232.79090259992518,232.99080449994653,0.0,232.99080449994653,0,0.0,0,1,1000,num_1,0.6970842001028359,,31,5,2026-03-12_13h40.48.792,2026A_exp2,2022.2.4,59.9654119662431,
1000,1,6.1,6.1,1,0,70,70,22,,,,,233.7084722998552,234.34248099988326,234.34248099988326,234.84346350003034,45,45,234.84346350003034,234.84346350003034,234.84346350003034,234.84346350003034,234.84346350003034,234.84346350003034,234.84346350003034,234.84346350003034,234.84346350003034,235.20993499993347,235.20993499993347,235.20993499993347,235.20993499993347,235.20993499993347,235.20993499993347,235.20993499993347,235.20993499993347,235.20993499993347,23,0,,,235.20993499993347,235.41842649993487,1000,235.41842649993487,1000,1000,1000,1000,1,num_2,1.2617040001787245,,31,5,2026-03-12_13h40.48.792,2026A_exp2,2022.2.4,59.9654119662431,
0,0,0.0,0.0,1,0,71,71,44,,,,,236.71148850000463,237.36210289993323,237.36210289993323,237.86315230000764,45,45,237.86315230000764,237.86315230000764,237.86315230000764,237.86315230000764,237.86315230000764,237.86315230000764,237.86315230000764,237.86315230000764,237.86315230000764,238.2129041000735,238.2129041000735,238.2129041000735,238.2129041000735,238.2129041000735,238.2129041000735,238.2129041000735,238.2129041000735,238.2129041000735,22,0,,,238.2129041000735,238.4130863000173,0.0,238.4130863000173,0,0.0,0,1,1000,num_1,0.8506662002764642,,31,5,2026-03-12_13h40.48.792,2026A_exp2,2022.2.4,59.9654119662431,
1000,1,0.0,0.0,0,0,72,72,65,,,,,239.2805830000434,239.93140350002795,239.93140350002795,240.4158197999932,315,45,240.4158197999932,240.4158197999932,240.4158197999932,240.4158197999932,240.4158197999932,240.4158197999932,240.4158197999932,240.4158197999932,240.4158197999932,240.78217540006153,240.78217540006153,240.78217540006153,240.78217540006153,240.78217540006153,240.78217540006153,240.78217540006153,240.78217540006153,240.78217540006153,23,0,,,240.78217540006153,240.98409130005166,1000,240.98409130005166,1000,1000,1000,1000,1,num_2,0.8728269001003355,,31,5,2026-03-12_13h40.48.792,2026A_exp2,2022.2.4,59.9654119662431,
0,0,0.0,3.7,1,0,73,73,53,,,,,241.883205199847,242.53394209989347,242.53394209989347,243.0185384999495,45,45,243.0185384999495,243.0185384999495,243.0185384999495,243.0185384999495,243.0185384999495,243.0185384999495,243.0185384999495,243.0185384999495,243.0185384999495,243.3847684999928,243.3847684999928,243.3847684999928,243.3847684999928,243.3847684999928,243.3847684999928,243.3847684999928,243.3847684999928,243.3847684999928,23,0,,,243.3847684999928,243.58493299991824,0.0,243.58493299991824,1,0.0,0,0,1000,num_4,1.9674391001462936,,31,5,2026-03-12_13h40.48.792,2026A_exp2,2022.2.4,59.9654119662431,
1,0,6.1,6.1,1,0,74,74,47,,,,,245.57027149992064,246.22123680007644,246.22123680007644,246.72229900001548,45,315,246.72229900001548,246.72229900001548,246.72229900001548,246.72229900001548,246.72229900001548,246.72229900001548,246.72229900001548,246.72229900001548,246.72229900001548,247.0885013998486,247.0885013998486,247.0885013998486,247.0885013998486,247.0885013998486,247.0885013998486,247.0885013998486,247.0885013998486,247.0885013998486,23,0,,,247.0885013998486,247.2887713999953,6.1,247.2887713999953,1,6.1,1,1,1000,num_4,0.6148439000826329,,31,5,2026-03-12_13h40.48.792,2026A_exp2,2022.2.4,59.9654119662431,
0,0,0.0,0.0,0,0,75,75,15,,,,,247.92255460005254,248.57336779986508,248.57336779986508,249.05778659996577,45,315,249.05778659996577,249.05778659996577,249.05778659996577,249.05778659996577,249.05778659996577,249.05778659996577,249.05778659996577,249.05778659996577,249.05778659996577,249.4240655999165,249.4240655999165,249.4240655999165,249.4240655999165,249.4240655999165,249.4240655999165,249.4240655999165,249.4240655999165,249.4240655999165,23,0,,,249.4240655999165,249.62441920000128,0.0,249.62441920000128,1,0.0,0,0,1000,num_4,0.7598592999856919,,31,5,2026-03-12_13h40.48.792,2026A_exp2,2022.2.4,59.9654119662431,
1,0,4.9,0.0,1,0,76,76,34,,,,,250.40833440003917,251.05924590001814,251.05924590001814,251.54358289996162,45,45,251.54358289996162,251.54358289996162,251.54358289996162,251.54358289996162,251.54358289996162,251.54358289996162,251.54358289996162,251.54358289996162,251.54358289996162,251.9099642999936,251.9099642999936,251.9099642999936,251.9099642999936,251.9099642999936,251.9099642999936,251.9099642999936,251.9099642999936,251.9099642999936,23,0,,,251.9099642999936,252.11014869995415,0.0,252.11014869995415,0,0.0,0,1,1000,num_1,0.6339865003246814,,31,5,2026-03-12_13h40.48.792,2026A_exp2,2022.2.4,59.9654119662431,
1,0,0.0,0.0,1,0,77,77,83,,,,,252.76123790000565,253.41151889995672,253.41151889995672,253.8959949000273,45,315,253.8959949000273,253.8959949000273,253.8959949000273,253.8959949000273,253.8959949000273,253.8959949000273,253.8959949000273,253.8959949000273,253.8959949000273,254.26236639986746,254.26236639986746,254.26236639986746,254.26236639986746,254.26236639986746,254.26236639986746,254.26236639986746,254.26236639986746,254.26236639986746,23,0,,,254.26236639986746,254.46259439992718,0.0,254.46259439992718,0,0.0,0,1,1000,num_1,0.6975394000764936,,31,5,2026-03-12_13h40.48.792,2026A_exp2,2022.2.4,59.9654119662431,
1000,1,4.9,0.0,1,0,78,78,48,,,,,255.17969030002132,255.8385900000576,255.8385900000576,256.32792559987865,315,45,256.32792559987865,256.32792559987865,256.32792559987865,256.32792559987865,256.32792559987865,256.32792559987865,256.32792559987865,256.32792559987865,256.32792559987865,256.6811293999199,256.6811293999199,256.6811293999199,256.6811293999199,256.6811293999199,256.6811293999199,256.6811293999199,256.6811293999199,256.6811293999199,23,0,,,256.6811293999199,256.8881657999009,1000,256.8881657999009,1000,1000,1000,1000,0,num_3,0.5679991999641061,,31,5,2026-03-12_13h40.48.792,2026A_exp2,2022.2.4,59.9654119662431,
1000,1,0.0,0.0,1,0,79,79,3,,,,,257.4821184000466,258.13291579997167,258.13291579997167,258.63425170001574,45,315,258.63425170001574,258.63425170001574,258.63425170001574,258.63425170001574,258.63425170001574,258.63425170001574,258.63425170001574,258.63425170001574,258.63425170001574,259.0004139000084,259.0004139000084,259.0004139000084,259.0004139000084,259.0004139000084,259.0004139000084,259.0004139000084,259.0004139000084,259.0004139000084,23,0,,,259.0004139000084,259.20256879995577,1000,259.20256879995577,1000,1000,1000,1000,1,num_2,0.7571841001044959,,31,5,2026-03-12_13h40.48.792,2026A_exp2,2022.2.4,59.9654119662431,
1000,1,0.0,3.7,0,0,80,80,43,,,,,259.98456380004063,260.63542519998737,260.63542519998737,261.13659760006703,315,315,261.13659760006703,261.13659760006703,261.13659760006703,261.13659760006703,261.13659760006703,261.13659760006703,261.13659760006703,261.13659760006703,261.13659760006703,261.50287889991887,261.50287889991887,261.50287889991887,261.50287889991887,261.50287889991887,261.50287889991887,261.50287889991887,261.50287889991887,261.50287889991887,23,0,,,261.50287889991887,261.7050055998843,1000,261.7050055998843,1000,1000,1000,1000,1,num_2,0.751353100175038,,31,5,2026-03-12_13h40.48.792,2026A_exp2,2022.2.4,59.9654119662431,
1000,1,0.0,0.0,1,0,81,81,56,,,,,262.48724749987014,263.1377248999197,263.1377248999197,263.63874179986306,315,315,263.63874179986306,263.63874179986306,263.63874179986306,263.63874179986306,263.63874179986306,263.63874179986306,263.63874179986306,263.63874179986306,263.63874179986306,263.988668799866,263.988668799866,263.988668799866,263.988668799866,263.988668799866,263.988668799866,263.988668799866,263.988668799866,263.988668799866,22,0,,,263.988668799866,264.1889758000616,1000,264.1889758000616,1000,1000,1000,1000,0,num_3,0.8831241999287158,,31,5,2026-03-12_13h40.48.792,2026A_exp2,2022.2.4,59.9654119662431,
1000,1,0.0,6.1,0,0,82,82,16,,,,,265.0901215998456,265.7237617999781,265.7237617999781,266.2249523999635,45,45,266.2249523999635,266.2249523999635,266.2249523999635,266.2249523999635,266.2249523999635,266.2249523999635,266.2249523999635,266.2249523999635,266.2249523999635,266.5913134999573,266.5913134999573,266.5913134999573,266.5913134999573,266.5913134999573,266.5913134999573,266.5913134999573,266.5913134999573,266.5913134999573,23,0,,,266.5913134999573,266.79318080004305,1000,266.79318080004305,1000,1000,1000,1000,1,num_2,0.4784027000423521,,31,5,2026-03-12_13h40.48.792,2026A_exp2,2022.2.4,59.9654119662431,
1000,1,4.9,0.0,0,0,83,83,50,,,,,267.29192309989594,267.9425524000544,267.9425524000544,268.4438283999916,45,315,268.4438283999916,268.4438283999916,268.4438283999916,268.4438283999916,268.4438283999916,268.4438283999916,268.4438283999916,268.4438283999916,268.4438283999916,268.7936134999618,268.7936134999618,268.7936134999618,268.7936134999618,268.7936134999618,268.7936134999618,268.7936134999618,268.7936134999618,268.7936134999618,22,0,,,268.7936134999618,268.99588020006195,1000,269.0103068999015,1000,1000,1000,1000,0,num_3,0.41369830002076924,,31,5,2026-03-12_13h40.48.792,2026A_exp2,2022.2.4,59.9654119662431,
0,0,3.7,4.9,0,0,84,84,77,,,,,269.44406039989553,270.09486599988304,270.09486599988304,270.595891200006,45,315,270.595891200006,270.595891200006,270.595891200006,270.595891200006,270.595891200006,270.595891200006,270.595891200006,270.595891200006,270.595891200006,270.96238599997014,270.96238599997014,270.96238599997014,270.96238599997014,270.96238599997014,270.96238599997014,270.96238599997014,270.96238599997014,270.96238599997014,23,0,,,270.96238599997014,271.16228260006756,4.9,271.16228260006756,1,4.9,1,1,1000,num_4,0.7820332001429051,,31,5,2026-03-12_13h40.48.792,2026A_exp2,2022.2.4,59.9654119662431,
1000,1,0.0,0.0,0,0,85,85,62,,,,,271.9632089000661,272.61401459993795,272.61401459993795,273.0985045998823,45,315,273.0985045998823,273.0985045998823,273.0985045998823,273.0985045998823,273.0985045998823,273.0985045998823,273.0985045998823,273.0985045998823,273.0985045998823,273.46487749996595,273.46487749996595,273.46487749996595,273.46487749996595,273.46487749996595,273.46487749996595,273.46487749996595,273.46487749996595,273.46487749996595,23,0,,,273.46487749996595,273.6669574000407,1000,273.6669574000407,1000,1000,1000,1000,0,num_3,1.1087673001457006,,31,5,2026-03-12_13h40.48.792,2026A_exp2,2022.2.4,59.9654119662431,
0,0,3.7,0.0,0,0,86,86,18,,,,,274.7994500999339,275.45028689992614,275.45028689992614,275.9513472998515,315,315,275.9513472998515,275.9513472998515,275.9513472998515,275.9513472998515,275.9513472998515,275.9513472998515,275.9513472998515,275.9513472998515,275.9513472998515,276.3177799000405,276.3177799000405,276.3177799000405,276.3177799000405,276.3177799000405,276.3177799000405,276.3177799000405,276.3177799000405,276.3177799000405,23,0,,,276.3177799000405,276.51784499990754,0.0,276.51784499990754,1,0.0,0,0,1000,num_4,0.7147564000915736,,31,5,2026-03-12_13h40.48.792,2026A_exp2,2022.2.4,59.9654119662431,
1000,1,0.0,6.1,0,0,87,87,20,,,,,277.2517854999751,277.9024396999739,277.9024396999739,278.38696160004474,45,315,278.38696160004474,278.38696160004474,278.38696160004474,278.38696160004474,278.38696160004474,278.38696160004474,278.38696160004474,278.38696160004474,278.38696160004474,278.7535431999713,278.7535431999713,278.7535431999713,278.7535431999713,278.7535431999713,278.7535431999713,278.7535431999713,278.7535431999713,278.7535431999713,23,0,,,278.7535431999713,278.9553815999534,1000,278.9553815999534,1000,1000,1000,1000,1,num_2,0.668790299911052,,31,5,2026-03-12_13h40.48.792,2026A_exp2,2022.2.4,59.9654119662431,
1,0,0.0,0.0,0,0,88,88,80,,,,,279.6542853999417,280.30505269998685,280.30505269998685,280.80605129990727,45,45,280.80605129990727,280.80605129990727,280.80605129990727,280.80605129990727,280.80605129990727,280.80605129990727,280.80605129990727,280.80605129990727,280.80605129990727,281.15592459985055,281.15592459985055,281.15592459985055,281.15592459985055,281.15592459985055,281.15592459985055,281.15592459985055,281.15592459985055,281.15592459985055,22,0,,,281.15592459985055,281.35610189987347,0.0,281.35610189987347,1,0.0,0,0,1000,num_4,0.74838100024499,,31,5,2026-03-12_13h40.48.792,2026A_exp2,2022.2.4,59.9654119662431,
1000,1,3.7,0.0,0,0,89,89,35,,,,,282.1233782998752,282.77604999998584,282.77604999998584,283.2586300999392,315,315,283.2586300999392,283.2586300999392,283.2586300999392,283.2586300999392,283.2586300999392,283.2586300999392,283.2586300999392,283.2586300999392,283.2586300999392,283.62514989986084,283.62514989986084,283.62514989986084,283.62514989986084,283.62514989986084,283.62514989986084,283.62514989986084,283.62514989986084,283.62514989986084,23,0,,,283.62514989986084,283.82707179989666,1000,283.82707179989666,1000,1000,1000,1000,0,num_3,0.8930580001324415,,31,5,2026-03-12_13h40.48.792,2026A_exp2,2022.2.4,59.9654119662431,
,,,,,,,,,,,,,,,,,,,,,,,,,,,,,,,,,,,,,,,,,,,,,,,,,,,,284.75058049988,,,,,,,
