validity,detectorcomp,contrastCW,contrastCCW,precueCWorCCW,block_80trials.thisRepN,block_80trials.thisTrialN,block_80trials.thisN,block_80trials.thisIndex,etRecord.started,etRecord.stopped,text.started,text.stopped,text_4.started,text_4.stopped,text_6.started,text_6.stopped,oriCW,oriCCW,roi_2.started,grating_UR.started,grating_UL.started,grating_LR.started,grating_LL.started,noise_UR.started,noise_UL.started,noise_LR.started,noise_LL.started,roi_2.stopped,grating_UR.stopped,grating_UL.stopped,grating_LR.stopped,grating_LL.stopped,noise_UR.stopped,noise_UL.stopped,noise_LR.stopped,noise_LL.stopped,outframe,roi_2.numLooks,roi_2.timesOn,roi_2.timesOff,text_2.started,text_2.stopped,probedcontrast,key_resp.started,respdetect,relevantContrast,correctDetect,TorFdetect,respCWorCCW,key_resp.keys,key_resp.rt,feedback_display_.started,participantNo,blockNo,date,expName,psychopyVersion,frameRate,
0,0,0.0,3.7,1,0,0,0,53,4.6600005589425564e-05,4.6600005589425564e-05,45.422750700003235,47.43053770001279,47.43053770001279,48.0612519000133,48.0612519000133,48.5851013000065,315,45,48.5851013000065,48.5851013000065,48.5851013000065,48.5851013000065,48.5851013000065,48.5851013000065,48.5851013000065,48.5851013000065,48.5851013000065,48.926841400010744,48.926841400010744,48.926841400010744,48.926841400010744,48.926841400010744,48.926841400010744,48.926841400010744,48.926841400010744,48.926841400010744,23,0,,,48.926841400010744,49.127200999995694,0.0,49.127200999995694,0,0.0,0,1,1000,num_1,0.7465767999819946,,18,13,2026-03-02_11h18.59.820,2026A_exp2,2022.2.4,59.86593622259961,
1000,1,3.7,0.0,0,0,1,1,39,,,,,49.89513230000739,50.5290101999999,50.5290101999999,51.04580009999336,45,315,51.04580009999336,51.04580009999336,51.04580009999336,51.04580009999336,51.04580009999336,51.04580009999336,51.04580009999336,51.04580009999336,51.04580009999336,51.41256799999974,51.41256799999974,51.41256799999974,51.41256799999974,51.41256799999974,51.41256799999974,51.41256799999974,51.41256799999974,51.41256799999974,23,0,,,51.41256799999974,51.61311790000764,1000,51.61311790000764,1000,1000,1000,1000,0,num_3,0.7319408000039402,,18,13,2026-03-02_11h18.59.820,2026A_exp2,2022.2.4,59.86593622259961,
1,0,3.7,0.0,0,0,2,2,26,,,,,52.36374090000754,53.0145381000184,53.0145381000184,53.499039899994386,315,45,53.499039899994386,53.499039899994386,53.499039899994386,53.499039899994386,53.499039899994386,53.499039899994386,53.499039899994386,53.499039899994386,53.499039899994386,53.8826226000092,53.8826226000092,53.8826226000092,53.8826226000092,53.8826226000092,53.8826226000092,53.8826226000092,53.8826226000092,53.8826226000092,24,0,,,53.8826226000092,54.081850799993845,3.7,54.081850799993845,1,3.7,1,1,1000,num_4,0.7517795999883674,,18,13,2026-03-02_11h18.59.820,2026A_exp2,2022.2.4,59.86593622259961,
1,0,0.0,0.0,1,0,3,3,31,,,,,54.85017109999899,55.500358499994036,55.500358499994036,56.00166270000045,315,315,56.00166270000045,56.00166270000045,56.00166270000045,56.00166270000045,56.00166270000045,56.00166270000045,56.00166270000045,56.00166270000045,56.00166270000045,56.35172189999139,56.35172189999139,56.35172189999139,56.35172189999139,56.35172189999139,56.35172189999139,56.35172189999139,56.35172189999139,56.35172189999139,22,0,,,56.35172189999139,56.55197530001169,0.0,56.55197530001169,1,0.0,0,0,1000,num_4,0.35340359999099746,,18,13,2026-03-02_11h18.59.820,2026A_exp2,2022.2.4,59.86593622259961,
0,0,6.1,0.0,1,0,4,4,52,,,,,56.93586620001588,57.586009199992986,57.586009199992986,58.07262869999977,315,45,58.07262869999977,58.07262869999977,58.07262869999977,58.07262869999977,58.07262869999977,58.07262869999977,58.07262869999977,58.07262869999977,58.07262869999977,58.43649720001849,58.43649720001849,58.43649720001849,58.43649720001849,58.43649720001849,58.43649720001849,58.43649720001849,58.43649720001849,58.43649720001849,23,0,,,58.43649720001849,58.636868700006744,6.1,58.65304599999217,0,6.1,1,0,1000,num_1,0.555675000010524,,18,13,2026-03-02_11h18.59.820,2026A_exp2,2022.2.4,59.86593622259961,
1000,1,0.0,3.7,1,0,5,5,88,,,,,59.237205900019035,59.88824040000327,59.88824040000327,60.372307400015416,45,45,60.372307400015416,60.372307400015416,60.372307400015416,60.372307400015416,60.372307400015416,60.372307400015416,60.372307400015416,60.372307400015416,60.372307400015416,60.738913700013654,60.738913700013654,60.738913700013654,60.738913700013654,60.738913700013654,60.738913700013654,60.738913700013654,60.738913700013654,60.738913700013654,23,0,,,60.738913700013654,60.93906209999113,1000,60.93906209999113,1000,1000,1000,1000,1,num_2,1.0540221000264864,,18,13,2026-03-02_11h18.59.820,2026A_exp2,2022.2.4,59.86593622259961,
1000,1,3.7,3.7,0,0,6,6,59,,,,,62.02390430000378,62.67421110000578,62.67421110000578,63.15836140001193,315,315,63.15836140001193,63.15836140001193,63.15836140001193,63.15836140001193,63.15836140001193,63.15836140001193,63.15836140001193,63.15836140001193,63.15836140001193,63.52493820001837,63.52493820001837,63.52493820001837,63.52493820001837,63.52493820001837,63.52493820001837,63.52493820001837,63.52493820001837,63.52493820001837,23,0,,,63.52493820001837,63.72509469999932,1000,63.72509469999932,1000,1000,1000,1000,0,num_3,0.5401336000068113,,18,13,2026-03-02_11h18.59.820,2026A_exp2,2022.2.4,59.86593622259961,
1,0,0.0,0.0,0,0,7,7,80,,,,,64.29273539999849,64.94298779999372,64.94298779999372,65.44396950001828,45,315,65.44396950001828,65.44396950001828,65.44396950001828,65.44396950001828,65.44396950001828,65.44396950001828,65.44396950001828,65.44396950001828,65.44396950001828,65.81049790000543,65.81049790000543,65.81049790000543,65.81049790000543,65.81049790000543,65.81049790000543,65.81049790000543,65.81049790000543,65.81049790000543,23,0,,,65.81049790000543,66.01096790001611,0.0,66.01096790001611,0,0.0,0,1,1000,num_1,0.7897498999955133,,18,13,2026-03-02_11h18.59.820,2026A_exp2,2022.2.4,59.86593622259961,
1000,1,0.0,6.1,1,0,8,8,13,,,,,66.8282686000166,67.47900700001628,67.47900700001628,67.96311179999611,45,315,67.96311179999611,67.96311179999611,67.96311179999611,67.96311179999611,67.96311179999611,67.96311179999611,67.96311179999611,67.96311179999611,67.96311179999611,68.33035500001279,68.33035500001279,68.33035500001279,68.33035500001279,68.33035500001279,68.33035500001279,68.33035500001279,68.33035500001279,68.33035500001279,23,0,,,68.33035500001279,68.53077050001593,1000,68.53077050001593,1000,1000,1000,1000,1,num_2,0.5102762000169605,,18,13,2026-03-02_11h18.59.820,2026A_exp2,2022.2.4,59.86593622259961,
1,0,0.0,0.0,1,0,9,9,38,,,,,69.06454650001251,69.71498829999473,69.71498829999473,70.19884080000338,45,315,70.19884080000338,70.19884080000338,70.19884080000338,70.19884080000338,70.19884080000338,70.19884080000338,70.19884080000338,70.19884080000338,70.19884080000338,,,,,,,,,,23,0,,,70.5818830000062,70.78205730000627,0.0,70.78205730000627,1,0.0,0,0,1000,num_4,0.4192388000083156,,18,13,2026-03-02_11h18.59.820,2026A_exp2,2022.2.4,59.86593622259961,
1,0,3.7,6.1,1,0,10,10,68,,,,,71.23240579999401,71.88333240000065,71.88333240000065,72.36780080001336,315,45,72.36780080001336,72.36780080001336,72.36780080001336,72.36780080001336,72.36780080001336,72.36780080001336,72.36780080001336,72.36780080001336,72.36780080001336,72.73436500001117,72.73436500001117,72.73436500001117,72.73436500001117,72.73436500001117,72.73436500001117,72.73436500001117,72.73436500001117,72.73436500001117,23,0,,,72.73436500001117,72.93407469999511,6.1,72.93407469999511,1,6.1,1,1,1000,num_4,0.299420099996496,,18,13,2026-03-02_11h18.59.820,2026A_exp2,2022.2.4,59.86593622259961,
1000,1,3.7,0.0,0,0,11,11,35,,,,,73.25159210001584,73.9019021000131,73.9019021000131,74.40295889999834,315,315,74.40295889999834,74.40295889999834,74.40295889999834,74.40295889999834,74.40295889999834,74.40295889999834,74.40295889999834,74.40295889999834,74.40295889999834,74.75283400001354,74.75283400001354,74.75283400001354,74.75283400001354,74.75283400001354,74.75283400001354,74.75283400001354,74.75283400001354,74.75283400001354,22,0,,,74.75283400001354,74.95358259999193,1000,74.95358259999193,1000,1000,1000,1000,0,num_3,0.504041199979838,,18,13,2026-03-02_11h18.59.820,2026A_exp2,2022.2.4,59.86593622259961,
1000,1,0.0,0.0,0,0,12,12,65,,,,,75.48692070000106,76.13800999999512,76.13800999999512,76.62184710000292,315,315,76.62184710000292,76.62184710000292,76.62184710000292,76.62184710000292,76.62184710000292,76.62184710000292,76.62184710000292,76.62184710000292,76.62184710000292,76.98826680000639,76.98826680000639,76.98826680000639,76.98826680000639,76.98826680000639,76.98826680000639,76.98826680000639,76.98826680000639,76.98826680000639,23,0,,,76.98826680000639,77.18863429999328,1000,77.18863429999328,1000,1000,1000,1000,1,num_2,0.4763338000047952,,18,13,2026-03-02_11h18.59.820,2026A_exp2,2022.2.4,59.86593622259961,
1000,1,4.9,3.7,1,0,13,13,78,,,,,77.68899409999722,78.33974900000612,78.33974900000612,78.84085490001598,45,45,78.84085490001598,78.84085490001598,78.84085490001598,78.84085490001598,78.84085490001598,78.84085490001598,78.84085490001598,78.84085490001598,78.84085490001598,79.19104360000347,79.19104360000347,79.19104360000347,79.19104360000347,79.19104360000347,79.19104360000347,79.19104360000347,79.19104360000347,79.19104360000347,22,0,,,79.19104360000347,79.39113130001351,1000,79.40737630001968,1000,1000,1000,1000,1,num_2,0.9056161000044085,,18,13,2026-03-02_11h18.59.820,2026A_exp2,2022.2.4,59.86593622259961,
1000,1,0.0,6.1,1,0,14,14,74,,,,,80.34193300001789,80.99256610000157,80.99256610000157,81.4942999999912,315,45,81.4942999999912,81.4942999999912,81.4942999999912,81.4942999999912,81.4942999999912,81.4942999999912,81.4942999999912,81.4942999999912,81.4942999999912,81.85976009999285,81.85976009999285,81.85976009999285,81.85976009999285,81.85976009999285,81.85976009999285,81.85976009999285,81.85976009999285,81.85976009999285,23,0,,,81.85976009999285,82.06020229999558,1000,82.06020229999558,1000,1000,1000,1000,1,num_2,0.48485639999853447,,18,13,2026-03-02_11h18.59.820,2026A_exp2,2022.2.4,59.86593622259961,
1000,1,4.9,0.0,1,0,15,15,12,,,,,82.56056770001305,83.21184060000814,83.21184060000814,83.71222849999322,45,315,83.71222849999322,83.71222849999322,83.71222849999322,83.71222849999322,83.71222849999322,83.71222849999322,83.71222849999322,83.71222849999322,83.71222849999322,84.07852390001062,84.07852390001062,84.07852390001062,84.07852390001062,84.07852390001062,84.07852390001062,84.07852390001062,84.07852390001062,84.07852390001062,23,0,,,84.07852390001062,84.2791639000061,1000,84.2791639000061,1000,1000,1000,1000,0,num_3,1.3620114999939688,,18,13,2026-03-02_11h18.59.820,2026A_exp2,2022.2.4,59.86593622259961,
0,0,0.0,0.0,1,0,16,16,44,,,,,85.6638712999993,86.31450680000125,86.31450680000125,86.81682800000999,315,45,86.81682800000999,86.81682800000999,86.81682800000999,86.81682800000999,86.81682800000999,86.81682800000999,86.81682800000999,86.81682800000999,86.81682800000999,87.16557869999087,87.16557869999087,87.16557869999087,87.16557869999087,87.16557869999087,87.16557869999087,87.16557869999087,87.16557869999087,87.16557869999087,22,0,,,87.16557869999087,87.36688020001748,0.0,87.36688020001748,1,0.0,0,0,1000,num_4,1.1944100999971852,,18,13,2026-03-02_11h18.59.820,2026A_exp2,2022.2.4,59.86593622259961,
1000,1,0.0,3.7,0,0,17,17,23,,,,,88.58328859999892,89.23389060000773,89.23389060000773,89.73519170001964,45,45,89.73519170001964,89.73519170001964,89.73519170001964,89.73519170001964,89.73519170001964,89.73519170001964,89.73519170001964,89.73519170001964,89.73519170001964,90.08489339999505,90.08489339999505,90.08489339999505,90.08489339999505,90.08489339999505,90.08489339999505,90.08489339999505,90.08489339999505,90.08489339999505,22,0,,,90.08489339999505,90.28532930000802,1000,90.28532930000802,1000,1000,1000,1000,1,num_2,0.5402270999911707,,18,13,2026-03-02_11h18.59.820,2026A_exp2,2022.2.4,59.86593622259961,
1000,1,0.0,3.7,0,0,18,18,63,,,,,90.85219920001691,91.50303620001068,91.50303620001068,92.00421430001734,315,315,92.00421430001734,92.00421430001734,92.00421430001734,92.00421430001734,92.00421430001734,92.00421430001734,92.00421430001734,92.00421430001734,92.00421430001734,92.37071230000583,92.37071230000583,92.37071230000583,92.37071230000583,92.37071230000583,92.37071230000583,92.37071230000583,92.37071230000583,92.37071230000583,23,0,,,92.37071230000583,92.5716201000032,1000,92.5716201000032,1000,1000,1000,1000,1,num_2,0.47707660001469776,,18,13,2026-03-02_11h18.59.820,2026A_exp2,2022.2.4,59.86593622259961,
1,0,0.0,0.0,1,0,19,19,83,,,,,93.07098000001861,93.7222585999989,93.7222585999989,94.2229961999983,45,45,94.2229961999983,94.2229961999983,94.2229961999983,94.2229961999983,94.2229961999983,94.2229961999983,94.2229961999983,94.2229961999983,94.2229961999983,94.58935690001817,94.58935690001817,94.58935690001817,94.58935690001817,94.58935690001817,94.58935690001817,94.58935690001817,94.58935690001817,94.58935690001817,23,0,,,94.58935690001817,94.78933759999927,0.0,94.78933759999927,1,0.0,0,0,1000,num_4,1.1557066999957897,,18,13,2026-03-02_11h18.59.820,2026A_exp2,2022.2.4,59.86593622259961,
1,0,3.7,0.0,0,0,20,20,10,,,,,95.97387800001889,96.60824629999115,96.60824629999115,97.10916510000243,45,45,97.10916510000243,97.10916510000243,97.10916510000243,97.10916510000243,97.10916510000243,97.10916510000243,97.10916510000243,97.10916510000243,97.10916510000243,97.47560900001554,97.47560900001554,97.47560900001554,97.47560900001554,97.47560900001554,97.47560900001554,97.47560900001554,97.47560900001554,97.47560900001554,23,0,,,97.47560900001554,97.67581970000174,3.7,97.67581970000174,1,3.7,1,1,1000,num_4,0.5173775999865029,,18,13,2026-03-02_11h18.59.820,2026A_exp2,2022.2.4,59.86593622259961,
1,0,4.9,4.9,1,0,21,21,9,,,,,98.20952370000305,98.84413640000275,98.84413640000275,99.34466000000248,45,315,99.34466000000248,99.34466000000248,99.34466000000248,99.34466000000248,99.34466000000248,99.34466000000248,99.34466000000248,99.34466000000248,99.34466000000248,99.71120499999961,99.71120499999961,99.71120499999961,99.71120499999961,99.71120499999961,99.71120499999961,99.71120499999961,99.71120499999961,99.71120499999961,23,0,,,99.71120499999961,99.91237140001613,4.9,99.91237140001613,1,4.9,1,1,1000,num_4,0.30538399997749366,,18,13,2026-03-02_11h18.59.820,2026A_exp2,2022.2.4,59.86593622259961,
1,0,0.0,6.1,1,0,22,22,46,,,,,100.24608949999674,100.89527199999429,100.89527199999429,101.37983290001284,315,45,101.37983290001284,101.37983290001284,101.37983290001284,101.37983290001284,101.37983290001284,101.37983290001284,101.37983290001284,101.37983290001284,101.37983290001284,101.74645790000795,101.74645790000795,101.74645790000795,101.74645790000795,101.74645790000795,101.74645790000795,101.74645790000795,101.74645790000795,101.74645790000795,23,0,,,101.74645790000795,101.94649070000742,6.1,101.94649070000742,1,6.1,1,1,1000,num_4,0.30237389999092557,,18,13,2026-03-02_11h18.59.820,2026A_exp2,2022.2.4,59.86593622259961,
1,0,4.9,6.1,0,0,23,23,82,,,,,102.28050029999577,102.91453330000513,102.91453330000513,,45,45,103.43199450001703,103.43199450001703,103.43199450001703,103.43199450001703,103.43199450001703,103.43199450001703,103.43199450001703,103.43199450001703,103.43199450001703,103.78226090001408,103.78226090001408,103.78226090001408,103.78226090001408,103.78226090001408,103.78226090001408,103.78226090001408,103.78226090001408,103.78226090001408,22,0,,,103.78226090001408,103.9818368999986,4.9,103.9818368999986,1,4.9,1,1,1000,num_4,0.251297099981457,,18,13,2026-03-02_11h18.59.820,2026A_exp2,2022.2.4,59.86593622259961,
1000,1,6.1,3.7,1,0,24,24,11,,,,,104.2491399999999,104.89929800000391,104.89929800000391,105.38409730000421,45,45,105.38409730000421,105.38409730000421,105.38409730000421,105.38409730000421,105.38409730000421,105.38409730000421,105.38409730000421,105.38409730000421,105.38409730000421,105.76681780000217,105.76681780000217,105.76681780000217,105.76681780000217,105.76681780000217,105.76681780000217,105.76681780000217,105.76681780000217,105.76681780000217,24,0,,,105.76681780000217,105.96714079999947,1000,105.96714079999947,1000,1000,1000,1000,1,num_2,0.49018550000619143,,18,13,2026-03-02_11h18.59.820,2026A_exp2,2022.2.4,59.86593622259961,
1,0,0.0,4.9,0,0,25,25,32,,,,,106.48438520001946,107.13489829999162,107.13489829999162,107.6193959999946,45,315,107.6193959999946,107.6193959999946,107.6193959999946,107.6193959999946,107.6193959999946,107.6193959999946,107.6193959999946,107.6193959999946,107.6193959999946,107.98575240001082,107.98575240001082,107.98575240001082,107.98575240001082,107.98575240001082,107.98575240001082,107.98575240001082,107.98575240001082,107.98575240001082,23,0,,,107.98575240001082,108.18594160000794,0.0,108.18594160000794,0,0.0,0,1,1000,num_1,0.4234582000062801,,18,13,2026-03-02_11h18.59.820,2026A_exp2,2022.2.4,59.86593622259961,
1000,1,0.0,0.0,0,0,26,26,62,,,,,108.63659939999343,109.28718149999622,109.28718149999622,109.7878985000134,45,45,109.7878985000134,109.7878985000134,109.7878985000134,109.7878985000134,109.7878985000134,109.7878985000134,109.7878985000134,109.7878985000134,109.7878985000134,110.13770610000938,110.13770610000938,110.13770610000938,110.13770610000938,110.13770610000938,110.13770610000938,110.13770610000938,110.13770610000938,110.13770610000938,22,0,,,110.13770610000938,110.33820840000408,1000,110.33820840000408,1000,1000,1000,1000,1,num_2,0.670502499997383,,18,13,2026-03-02_11h18.59.820,2026A_exp2,2022.2.4,59.86593622259961,
1,0,4.9,0.0,1,0,27,27,34,,,,,111.03891810000641,111.68968800001312,111.68968800001312,112.17396129999543,45,45,112.17396129999543,112.17396129999543,112.17396129999543,112.17396129999543,112.17396129999543,112.17396129999543,112.17396129999543,112.17396129999543,112.17396129999543,112.54022019999684,112.54022019999684,112.54022019999684,112.54022019999684,112.54022019999684,112.54022019999684,112.54022019999684,112.54022019999684,112.54022019999684,23,0,,,112.54022019999684,112.7405653000169,0.0,112.7405653000169,0,0.0,0,1,1000,num_1,0.8204782000102568,,18,13,2026-03-02_11h18.59.820,2026A_exp2,2022.2.4,59.86593622259961,
1000,1,3.7,4.9,1,0,28,28,71,,,,,113.59133260001545,114.24197920001461,114.24197920001461,114.72675600001821,45,315,114.72675600001821,114.72675600001821,114.72675600001821,114.72675600001821,114.72675600001821,114.72675600001821,114.72675600001821,114.72675600001821,114.72675600001821,115.09291939999093,115.09291939999093,115.09291939999093,115.09291939999093,115.09291939999093,115.09291939999093,115.09291939999093,115.09291939999093,115.09291939999093,23,0,,,115.09291939999093,115.2932637000049,1000,115.2932637000049,1000,1000,1000,1000,1,num_2,0.4917067000060342,,18,13,2026-03-02_11h18.59.820,2026A_exp2,2022.2.4,59.86593622259961,
1000,1,3.7,6.1,1,0,29,29,75,,,,,115.8103500000143,116.46093780000228,116.46093780000228,116.94564750001882,45,45,116.94564750001882,116.94564750001882,116.94564750001882,116.94564750001882,116.94564750001882,116.94564750001882,116.94564750001882,116.94564750001882,116.94564750001882,117.31195910001406,117.31195910001406,117.31195910001406,117.31195910001406,117.31195910001406,117.31195910001406,117.31195910001406,117.31195910001406,117.31195910001406,23,0,,,117.31195910001406,117.5135327000171,1000,117.5135327000171,1000,1000,1000,1000,1,num_2,0.4480399999883957,,18,13,2026-03-02_11h18.59.820,2026A_exp2,2022.2.4,59.86593622259961,
1000,1,0.0,0.0,0,0,30,30,64,,,,,117.98004580000998,118.62971790001029,118.62971790001029,119.13129779999144,45,45,119.13129779999144,119.13129779999144,119.13129779999144,119.13129779999144,119.13129779999144,119.13129779999144,119.13129779999144,119.13129779999144,119.13129779999144,119.49724610001431,119.49724610001431,119.49724610001431,119.49724610001431,119.49724610001431,119.49724610001431,119.49724610001431,119.49724610001431,119.49724610001431,23,0,,,119.49724610001431,119.69884450000245,1000,119.69884450000245,1000,1000,1000,1000,1,num_2,0.5581113000225741,,18,13,2026-03-02_11h18.59.820,2026A_exp2,2022.2.4,59.86593622259961,
1000,1,0.0,0.0,0,0,31,31,57,,,,,120.28188359999331,120.9327723000024,120.9327723000024,121.43334419999155,315,315,121.43334419999155,121.43334419999155,121.43334419999155,121.43334419999155,121.43334419999155,121.43334419999155,121.43334419999155,121.43334419999155,121.43334419999155,121.79964489999111,121.79964489999111,121.79964489999111,121.79964489999111,121.79964489999111,121.79964489999111,121.79964489999111,121.79964489999111,121.79964489999111,23,0,,,121.79964489999111,121.9997555000009,1000,121.9997555000009,1000,1000,1000,1000,1,num_2,1.0893270000233315,,18,13,2026-03-02_11h18.59.820,2026A_exp2,2022.2.4,59.86593622259961,
1000,1,0.0,0.0,1,0,32,32,73,,,,,123.11782040001708,123.76818889999413,123.76818889999413,124.2527820999967,315,45,124.2527820999967,124.2527820999967,124.2527820999967,124.2527820999967,124.2527820999967,124.2527820999967,124.2527820999967,124.2527820999967,124.2527820999967,124.61926639999729,124.61926639999729,124.61926639999729,124.61926639999729,124.61926639999729,124.61926639999729,124.61926639999729,124.61926639999729,124.61926639999729,23,0,,,124.61926639999729,124.81959329999518,1000,124.81959329999518,1000,1000,1000,1000,1,num_2,0.6059627000067849,,18,13,2026-03-02_11h18.59.820,2026A_exp2,2022.2.4,59.86593622259961,
1,0,0.0,4.9,0,0,33,33,14,,,,,125.45333150000079,126.10391760000493,126.10391760000493,126.60502720001386,315,45,126.60502720001386,126.60502720001386,126.60502720001386,126.60502720001386,126.60502720001386,126.60502720001386,126.60502720001386,126.60502720001386,126.60502720001386,126.97135140001774,126.97135140001774,126.97135140001774,126.97135140001774,126.97135140001774,126.97135140001774,126.97135140001774,126.97135140001774,126.97135140001774,23,0,,,126.97135140001774,127.17156740001519,0.0,127.17156740001519,0,0.0,0,1,1000,num_1,0.6617763999965973,,18,13,2026-03-02_11h18.59.820,2026A_exp2,2022.2.4,59.86593622259961,
1000,1,0.0,3.7,0,0,34,34,21,,,,,127.8556007000152,128.49000700001488,128.49000700001488,128.99137790000532,45,45,128.99137790000532,128.99137790000532,128.99137790000532,128.99137790000532,128.99137790000532,128.99137790000532,128.99137790000532,128.99137790000532,128.99137790000532,129.35728029999882,129.35728029999882,129.35728029999882,129.35728029999882,129.35728029999882,129.35728029999882,129.35728029999882,129.35728029999882,129.35728029999882,23,0,,,129.35728029999882,129.55734699999448,1000,129.55734699999448,1000,1000,1000,1000,1,num_2,0.47563289999379776,,18,13,2026-03-02_11h18.59.820,2026A_exp2,2022.2.4,59.86593622259961,
1,0,0.0,0.0,1,0,35,35,6,,,,,130.0579362999997,130.70878640000592,130.70878640000592,131.1930541000038,315,45,131.1930541000038,131.1930541000038,131.1930541000038,131.1930541000038,131.1930541000038,131.1930541000038,131.1930541000038,131.1930541000038,131.1930541000038,131.55971850000788,131.55971850000788,131.55971850000788,131.55971850000788,131.55971850000788,131.55971850000788,131.55971850000788,131.55971850000788,131.55971850000788,23,0,,,131.55971850000788,131.76778090000153,0.0,131.76778090000153,1,0.0,0,0,1000,num_4,0.9462975999922492,,18,13,2026-03-02_11h18.59.820,2026A_exp2,2022.2.4,59.86593622259961,
1000,1,4.9,6.1,0,0,36,36,36,,,,,132.74417099999846,133.39475279999897,133.39475279999897,133.8791171000048,45,315,133.8791171000048,133.8791171000048,133.8791171000048,133.8791171000048,133.8791171000048,133.8791171000048,133.8791171000048,133.8791171000048,133.8791171000048,134.24567629999365,134.24567629999365,134.24567629999365,134.24567629999365,134.24567629999365,134.24567629999365,134.24567629999365,134.24567629999365,134.24567629999365,23,0,,,134.24567629999365,134.4478453999909,1000,134.4478453999909,1000,1000,1000,1000,0,num_3,0.6255282000056468,,18,13,2026-03-02_11h18.59.820,2026A_exp2,2022.2.4,59.86593622259961,
1000,1,6.1,4.9,0,0,37,37,51,,,,,135.09644710001885,135.74719110000296,135.74719110000296,136.24827229999937,315,315,136.24827229999937,136.24827229999937,136.24827229999937,136.24827229999937,136.24827229999937,136.24827229999937,136.24827229999937,136.24827229999937,136.24827229999937,136.61476070000208,136.61476070000208,136.61476070000208,136.61476070000208,136.61476070000208,136.61476070000208,136.61476070000208,136.61476070000208,136.61476070000208,23,0,,,136.61476070000208,136.81555620001745,1000,136.81555620001745,1000,1000,1000,1000,0,num_3,0.5055455999972764,,18,13,2026-03-02_11h18.59.820,2026A_exp2,2022.2.4,59.86593622259961,
1000,1,0.0,0.0,1,0,38,38,56,,,,,137.34869099999196,137.99933630001033,137.99933630001033,138.50050369999371,45,45,138.50050369999371,138.50050369999371,138.50050369999371,138.50050369999371,138.50050369999371,138.50050369999371,138.50050369999371,138.50050369999371,138.50050369999371,138.85029100000975,138.85029100000975,138.85029100000975,138.85029100000975,138.85029100000975,138.85029100000975,138.85029100000975,138.85029100000975,138.85029100000975,22,0,,,138.85029100000975,139.05114110000432,1000,139.06720550000318,1000,1000,1000,1000,1,num_2,0.47021379999932833,,18,13,2026-03-02_11h18.59.820,2026A_exp2,2022.2.4,59.86593622259961,
1000,1,4.9,0.0,1,0,39,39,67,,,,,139.56764520000434,140.2185526000103,140.2185526000103,140.7193988999934,45,315,140.7193988999934,140.7193988999934,140.7193988999934,140.7193988999934,140.7193988999934,140.7193988999934,140.7193988999934,140.7193988999934,140.7193988999934,141.08569360000547,141.08569360000547,141.08569360000547,141.08569360000547,141.08569360000547,141.08569360000547,141.08569360000547,141.08569360000547,141.08569360000547,23,0,,,141.08569360000547,141.28786780001246,1000,141.28786780001246,1000,1000,1000,1000,0,num_3,0.5058713000034913,,18,13,2026-03-02_11h18.59.820,2026A_exp2,2022.2.4,59.86593622259961,
1000,1,0.0,6.1,0,0,40,40,16,,,,,141.81984529999318,142.4706154000014,142.4706154000014,142.9715087999939,45,315,142.9715087999939,142.9715087999939,142.9715087999939,142.9715087999939,142.9715087999939,142.9715087999939,142.9715087999939,142.9715087999939,142.9715087999939,143.3381033000187,143.3381033000187,143.3381033000187,143.3381033000187,143.3381033000187,143.3381033000187,143.3381033000187,143.3381033000187,143.3381033000187,23,0,,,143.3381033000187,143.54099860001588,1000,143.54099860001588,1000,1000,1000,1000,1,num_2,0.4369680999952834,,18,13,2026-03-02_11h18.59.820,2026A_exp2,2022.2.4,59.86593622259961,
1,0,0.0,6.1,1,0,41,41,19,,,,,144.00542450000648,144.65601979999337,144.65601979999337,145.15715310000814,45,315,145.15715310000814,145.15715310000814,145.15715310000814,145.15715310000814,145.15715310000814,145.15715310000814,145.15715310000814,145.15715310000814,145.15715310000814,145.5236547999957,145.5236547999957,145.5236547999957,145.5236547999957,145.5236547999957,145.5236547999957,145.5236547999957,145.5236547999957,145.5236547999957,22,1,[0.0012421999999787658],[0.017458699992857873],145.5236547999957,145.72393350000493,6.1,145.72393350000493,1,6.1,1,1,1000,num_4,0.6133682999934535,,18,13,2026-03-02_11h18.59.820,2026A_exp2,2022.2.4,59.86593622259961,
1000,1,0.0,0.0,1,0,42,42,55,,,,,146.35780410000007,147.0083188000135,147.0083188000135,147.49303969999892,315,45,147.49303969999892,147.49303969999892,147.49303969999892,147.49303969999892,147.49303969999892,147.49303969999892,147.49303969999892,147.49303969999892,147.49303969999892,147.8597879000008,147.8597879000008,147.8597879000008,147.8597879000008,147.8597879000008,147.8597879000008,147.8597879000008,147.8597879000008,147.8597879000008,23,0,,,147.8597879000008,148.05974660001812,1000,148.05974660001812,1000,1000,1000,1000,1,num_2,0.4698600000119768,,18,13,2026-03-02_11h18.59.820,2026A_exp2,2022.2.4,59.86593622259961,
0,0,3.7,0.0,0,0,43,43,18,,,,,148.56021110000438,149.21073910000268,149.21073910000268,149.694975099992,315,315,149.694975099992,149.694975099992,149.694975099992,149.694975099992,149.694975099992,149.694975099992,149.694975099992,149.694975099992,149.694975099992,150.06155129999388,150.06155129999388,150.06155129999388,150.06155129999388,150.06155129999388,150.06155129999388,150.06155129999388,150.06155129999388,150.06155129999388,23,0,,,150.06155129999388,150.261599999998,0.0,150.261599999998,1,0.0,0,0,1000,num_4,0.548310100013623,,18,13,2026-03-02_11h18.59.820,2026A_exp2,2022.2.4,59.86593622259961,
1000,1,3.7,0.0,0,0,44,44,69,,,,,150.8286774000153,151.47973039999488,151.47973039999488,151.9808033000154,315,315,151.9808033000154,151.9808033000154,151.9808033000154,151.9808033000154,151.9808033000154,151.9808033000154,151.9808033000154,151.9808033000154,151.9808033000154,152.33049500000197,152.33049500000197,152.33049500000197,152.33049500000197,152.33049500000197,152.33049500000197,152.33049500000197,152.33049500000197,152.33049500000197,22,0,,,152.33049500000197,152.5334727000154,1000,152.5334727000154,1000,1000,1000,1000,0,num_3,0.587496199994348,,18,13,2026-03-02_11h18.59.820,2026A_exp2,2022.2.4,59.86593622259961,
1000,1,0.0,3.7,0,0,45,45,43,,,,,153.14820349999354,153.79894770000828,153.79894770000828,154.2996540000022,315,45,154.2996540000022,154.2996540000022,154.2996540000022,154.2996540000022,154.2996540000022,154.2996540000022,154.2996540000022,154.2996540000022,154.2996540000022,154.66605930001242,154.66605930001242,154.66605930001242,154.66605930001242,154.66605930001242,154.66605930001242,154.66605930001242,154.66605930001242,154.66605930001242,23,0,,,154.66605930001242,154.869554600009,1000,154.869554600009,1000,1000,1000,1000,1,num_2,0.4514099000080023,,18,13,2026-03-02_11h18.59.820,2026A_exp2,2022.2.4,59.86593622259961,
0,0,3.7,0.0,1,0,46,46,1,,,,,155.3502171,156.00675410000258,156.00675410000258,156.5019363000174,315,45,156.5019363000174,156.5019363000174,156.5019363000174,156.5019363000174,156.5019363000174,156.5019363000174,156.5019363000174,156.5019363000174,156.5019363000174,156.86830740000005,156.86830740000005,156.86830740000005,156.86830740000005,156.86830740000005,156.86830740000005,156.86830740000005,156.86830740000005,156.86830740000005,23,0,,,156.86830740000005,157.0685508000024,3.7,157.0685508000024,1,3.7,1,1,1000,num_4,1.053119299991522,,18,13,2026-03-02_11h18.59.820,2026A_exp2,2022.2.4,59.86593622259961,
1000,1,6.1,0.0,1,0,47,47,79,,,,,158.15280700000585,158.80363770000986,158.80363770000986,159.28805910001392,45,315,159.28805910001392,159.28805910001392,159.28805910001392,159.28805910001392,159.28805910001392,159.28805910001392,159.28805910001392,159.28805910001392,159.28805910001392,159.65445739999996,159.65445739999996,159.65445739999996,159.65445739999996,159.65445739999996,159.65445739999996,159.65445739999996,159.65445739999996,159.65445739999996,23,0,,,159.65445739999996,159.85672999999952,1000,159.85672999999952,1000,1000,1000,1000,0,num_3,0.7052800999954343,,18,13,2026-03-02_11h18.59.820,2026A_exp2,2022.2.4,59.86593622259961,
1,0,6.1,0.0,1,0,48,48,17,,,,,160.58877719999873,161.23938390001422,161.23938390001422,161.74036250001518,315,315,161.74036250001518,161.74036250001518,161.74036250001518,161.74036250001518,161.74036250001518,161.74036250001518,161.74036250001518,161.74036250001518,161.74036250001518,162.10685599999852,162.10685599999852,162.10685599999852,162.10685599999852,162.10685599999852,162.10685599999852,162.10685599999852,162.10685599999852,162.10685599999852,23,0,,,162.10685599999852,162.30700550001347,0.0,162.30700550001347,0,0.0,0,1,1000,num_1,0.662781899998663,,18,13,2026-03-02_11h18.59.820,2026A_exp2,2022.2.4,59.86593622259961,
1000,1,6.1,0.0,0,0,49,49,27,,,,,162.990990899998,163.64168100000825,163.64168100000825,164.14284580000094,315,315,164.14284580000094,164.14284580000094,164.14284580000094,164.14284580000094,164.14284580000094,164.14284580000094,164.14284580000094,164.14284580000094,164.14284580000094,164.4924628000008,164.4924628000008,164.4924628000008,164.4924628000008,164.4924628000008,164.4924628000008,164.4924628000008,164.4924628000008,164.4924628000008,22,0,,,164.4924628000008,164.69582819999778,1000,164.69582819999778,1000,1000,1000,1000,0,num_3,0.5298401000036392,,18,13,2026-03-02_11h18.59.820,2026A_exp2,2022.2.4,59.86593622259961,
1000,1,0.0,4.9,1,0,50,50,37,,,,,165.2433461000037,165.8938766999927,165.8938766999927,166.39515600001323,45,45,166.39515600001323,166.39515600001323,166.39515600001323,166.39515600001323,166.39515600001323,166.39515600001323,166.39515600001323,166.39515600001323,166.39515600001323,166.7615899000084,166.7615899000084,166.7615899000084,166.7615899000084,166.7615899000084,166.7615899000084,166.7615899000084,166.7615899000084,166.7615899000084,23,0,,,166.7615899000084,166.96329390001483,1000,166.96329390001483,1000,1000,1000,1000,1,num_2,0.4228178999910597,,18,13,2026-03-02_11h18.59.820,2026A_exp2,2022.2.4,59.86593622259961,
1000,1,4.9,0.0,0,0,51,51,50,,,,,167.4120142000029,168.06292550000944,168.06292550000944,168.56388329999754,45,315,168.56388329999754,168.56388329999754,168.56388329999754,168.56388329999754,168.56388329999754,168.56388329999754,168.56388329999754,168.56388329999754,168.56388329999754,168.93026280001504,168.93026280001504,168.93026280001504,168.93026280001504,168.93026280001504,168.93026280001504,168.93026280001504,168.93026280001504,168.93026280001504,23,0,,,168.93026280001504,169.1332786999992,1000,169.1332786999992,1000,1000,1000,1000,0,num_3,0.5235322999942582,,18,13,2026-03-02_11h18.59.820,2026A_exp2,2022.2.4,59.86593622259961,
0,0,6.1,0.0,0,0,52,52,41,,,,,169.681030000007,170.3318123999925,170.3318123999925,170.81610759999603,45,45,170.81610759999603,170.81610759999603,170.81610759999603,170.81610759999603,170.81610759999603,170.81610759999603,170.81610759999603,170.81610759999603,170.81610759999603,171.18254740000702,171.18254740000702,171.18254740000702,171.18254740000702,171.18254740000702,171.18254740000702,171.18254740000702,171.18254740000702,171.18254740000702,23,0,,,171.18254740000702,171.3828119999962,0.0,171.3828119999962,0,0.0,0,1,1000,num_1,0.5061796999943908,,18,13,2026-03-02_11h18.59.820,2026A_exp2,2022.2.4,59.86593622259961,
1000,1,4.9,6.1,1,0,53,53,5,,,,,171.9166230999981,172.56738590000896,172.56738590000896,173.06857030000538,45,315,173.06857030000538,173.06857030000538,173.06857030000538,173.06857030000538,173.06857030000538,173.06857030000538,173.06857030000538,173.06857030000538,173.06857030000538,173.41815509999287,173.41815509999287,173.41815509999287,173.41815509999287,173.41815509999287,173.41815509999287,173.41815509999287,173.41815509999287,173.41815509999287,22,0,,,173.41815509999287,173.62062790000346,1000,173.63518020001356,1000,1000,1000,1000,1,num_2,0.5183792999887373,,18,13,2026-03-02_11h18.59.820,2026A_exp2,2022.2.4,59.86593622259961,
1000,1,3.7,6.1,0,0,54,54,60,,,,,174.1689772999962,174.81977679999545,174.81977679999545,175.32075169999734,315,45,175.32075169999734,175.32075169999734,175.32075169999734,175.32075169999734,175.32075169999734,175.32075169999734,175.32075169999734,175.32075169999734,175.32075169999734,175.68714540000656,175.68714540000656,175.68714540000656,175.68714540000656,175.68714540000656,175.68714540000656,175.68714540000656,175.68714540000656,175.68714540000656,23,0,,,175.68714540000656,175.88982640000177,1000,175.88982640000177,1000,1000,1000,1000,1,num_2,0.3517480999871623,,18,13,2026-03-02_11h18.59.820,2026A_exp2,2022.2.4,59.86593622259961,
0,0,4.9,0.0,0,0,55,55,84,,,,,176.27113320000353,176.92187819999526,176.92187819999526,177.42278540000552,315,315,177.42278540000552,177.42278540000552,177.42278540000552,177.42278540000552,177.42278540000552,177.42278540000552,177.42278540000552,177.42278540000552,177.42278540000552,177.77245419999235,177.77245419999235,177.77245419999235,177.77245419999235,177.77245419999235,177.77245419999235,177.77245419999235,177.77245419999235,177.77245419999235,22,0,,,177.77245419999235,177.97262069999124,0.0,177.97262069999124,0,0.0,0,1,1000,num_1,0.7243544999801088,,18,13,2026-03-02_11h18.59.820,2026A_exp2,2022.2.4,59.86593622259961,
1000,1,0.0,0.0,0,0,56,56,45,,,,,178.72339790000115,179.3741677000071,179.3741677000071,179.87519019999309,45,45,179.87519019999309,179.87519019999309,179.87519019999309,179.87519019999309,179.87519019999309,179.87519019999309,179.87519019999309,179.87519019999309,179.87519019999309,180.2248355000047,180.2248355000047,180.2248355000047,180.2248355000047,180.2248355000047,180.2248355000047,180.2248355000047,180.2248355000047,180.2248355000047,22,0,,,180.2248355000047,180.42768809999689,1000,180.42768809999689,1000,1000,1000,1000,1,num_2,0.7494119000039063,,18,13,2026-03-02_11h18.59.820,2026A_exp2,2022.2.4,59.86593622259961,
1000,1,0.0,6.1,0,0,57,57,20,,,,,181.19252589999815,181.84344090000377,181.84344090000377,182.34442520001903,315,45,182.34442520001903,182.34442520001903,182.34442520001903,182.34442520001903,182.34442520001903,182.34442520001903,182.34442520001903,182.34442520001903,182.34442520001903,182.71077390000573,182.71077390000573,182.71077390000573,182.71077390000573,182.71077390000573,182.71077390000573,182.71077390000573,182.71077390000573,182.71077390000573,23,0,,,182.71077390000573,182.91359559999546,1000,182.91359559999546,1000,1000,1000,1000,1,num_2,0.5685268999950495,,18,13,2026-03-02_11h18.59.820,2026A_exp2,2022.2.4,59.86593622259961,
1,0,0.0,4.9,1,0,58,58,54,,,,,183.5114814999979,184.16224689999945,184.16224689999945,184.66343489999417,45,45,184.66343489999417,184.66343489999417,184.66343489999417,184.66343489999417,184.66343489999417,184.66343489999417,184.66343489999417,184.66343489999417,184.66343489999417,185.02993600000627,185.02993600000627,185.02993600000627,185.02993600000627,185.02993600000627,185.02993600000627,185.02993600000627,185.02993600000627,185.02993600000627,23,0,,,185.02993600000627,185.23001050000312,4.9,185.23001050000312,1,4.9,1,1,1000,num_4,0.41107620002003387,,18,13,2026-03-02_11h18.59.820,2026A_exp2,2022.2.4,59.86593622259961,
1000,1,0.0,0.0,1,0,59,59,2,,,,,185.66369129999657,186.3144864999922,186.3144864999922,186.81548809999367,315,315,186.81548809999367,186.81548809999367,186.81548809999367,186.81548809999367,186.81548809999367,186.81548809999367,186.81548809999367,186.81548809999367,186.81548809999367,187.16531169999507,187.16531169999507,187.16531169999507,187.16531169999507,187.16531169999507,187.16531169999507,187.16531169999507,187.16531169999507,187.16531169999507,22,0,,,187.16531169999507,187.36740990000544,1000,187.36740990000544,1000,1000,1000,1000,1,num_2,0.7380354000197258,,18,13,2026-03-02_11h18.59.820,2026A_exp2,2022.2.4,59.86593622259961,
1000,1,4.9,3.7,0,0,60,60,28,,,,,188.13304030001746,188.7835630000045,188.7835630000045,189.2846292000031,315,45,189.2846292000031,189.2846292000031,189.2846292000031,189.2846292000031,189.2846292000031,189.2846292000031,189.2846292000031,189.2846292000031,189.2846292000031,189.6511182000104,189.6511182000104,189.6511182000104,189.6511182000104,189.6511182000104,189.6511182000104,189.6511182000104,189.6511182000104,189.6511182000104,23,0,,,189.6511182000104,189.87039039999945,1000,189.87039039999945,1000,1000,1000,1000,0,num_3,0.4267606000066735,,18,13,2026-03-02_11h18.59.820,2026A_exp2,2022.2.4,59.86593622259961,
1,0,3.7,0.0,1,0,61,61,30,,,,,190.31834860000527,190.96911100001307,190.96911100001307,191.47017580000102,45,45,191.47017580000102,191.47017580000102,191.47017580000102,191.47017580000102,191.47017580000102,191.47017580000102,191.47017580000102,191.47017580000102,191.47017580000102,191.83673999999883,191.83673999999883,191.83673999999883,191.83673999999883,191.83673999999883,191.83673999999883,191.83673999999883,191.83673999999883,191.83673999999883,23,0,,,191.83673999999883,192.0368337999971,0.0,192.0368337999971,1,0.0,0,0,1000,num_4,1.2198836000170559,,18,13,2026-03-02_11h18.59.820,2026A_exp2,2022.2.4,59.86593622259961,
1000,1,0.0,0.0,0,0,62,62,72,,,,,193.28794780001044,193.94788620001054,193.94788620001054,194.42808869999135,315,45,194.42808869999135,194.42808869999135,194.42808869999135,194.42808869999135,194.42808869999135,194.42808869999135,194.42808869999135,194.42808869999135,194.42808869999135,194.78937820001738,194.78937820001738,194.78937820001738,194.78937820001738,194.78937820001738,194.78937820001738,194.78937820001738,194.78937820001738,194.78937820001738,23,0,,,194.78937820001738,194.99348279999685,1000,194.99348279999685,1000,1000,1000,1000,1,num_2,0.6881709999870509,,18,13,2026-03-02_11h18.59.820,2026A_exp2,2022.2.4,59.86593622259961,
1000,1,0.0,6.1,1,0,63,63,42,,,,,195.7072121000092,196.35766390000936,196.35766390000936,196.8588158999919,45,315,196.8588158999919,196.8588158999919,196.8588158999919,196.8588158999919,196.8588158999919,196.8588158999919,196.8588158999919,196.8588158999919,196.8588158999919,197.22542740000063,197.22542740000063,197.22542740000063,197.22542740000063,197.22542740000063,197.22542740000063,197.22542740000063,197.22542740000063,197.22542740000063,23,0,,,197.22542740000063,197.42921990001923,1000,197.42921990001923,1000,1000,1000,1000,1,num_2,0.46883850000449456,,18,13,2026-03-02_11h18.59.820,2026A_exp2,2022.2.4,59.86593622259961,
1000,1,4.9,0.0,1,0,64,64,48,,,,,197.92594829999143,198.5767371999973,198.5767371999973,199.07768300001044,45,45,199.07768300001044,199.07768300001044,199.07768300001044,199.07768300001044,199.07768300001044,199.07768300001044,199.07768300001044,199.07768300001044,199.07768300001044,199.44435100001283,199.44435100001283,199.44435100001283,199.44435100001283,199.44435100001283,199.44435100001283,199.44435100001283,199.44435100001283,199.44435100001283,23,0,,,199.44435100001283,199.64700230001472,1000,199.64700230001472,1000,1000,1000,1000,0,num_3,0.5944792999944184,,18,13,2026-03-02_11h18.59.820,2026A_exp2,2022.2.4,59.86593622259961,
1,0,0.0,0.0,0,0,65,65,87,,,,,200.26156700000865,200.9123024000146,200.9123024000146,201.41335160000017,315,45,201.41335160000017,201.41335160000017,201.41335160000017,201.41335160000017,201.41335160000017,201.41335160000017,201.41335160000017,201.41335160000017,201.41335160000017,201.77971380000236,201.77971380000236,201.77971380000236,201.77971380000236,201.77971380000236,201.77971380000236,201.77971380000236,201.77971380000236,201.77971380000236,23,0,,,201.77971380000236,201.9800144000037,0.0,201.9800144000037,1,0.0,0,0,1000,num_4,1.1498615999880712,,18,13,2026-03-02_11h18.59.820,2026A_exp2,2022.2.4,59.86593622259961,
0,0,0.0,0.0,0,0,66,66,15,,,,,203.1479545000184,203.79852909999317,203.79852909999317,204.28297810000367,45,45,204.28297810000367,204.28297810000367,204.28297810000367,204.28297810000367,204.28297810000367,204.28297810000367,204.28297810000367,204.28297810000367,204.28297810000367,204.64929230001871,204.64929230001871,204.64929230001871,204.64929230001871,204.64929230001871,204.64929230001871,204.64929230001871,204.64929230001871,204.64929230001871,23,0,,,204.64929230001871,204.8495319999929,0.0,204.8495319999929,0,0.0,0,1,1000,num_1,0.7760746999992989,,18,13,2026-03-02_11h18.59.820,2026A_exp2,2022.2.4,59.86593622259961,
1000,1,0.0,3.7,0,0,67,67,76,,,,,205.6502856000152,206.30077239999082,206.30077239999082,206.80237099999795,45,45,206.80237099999795,206.80237099999795,206.80237099999795,206.80237099999795,206.80237099999795,206.80237099999795,206.80237099999795,206.80237099999795,206.80237099999795,207.15185029999702,207.15185029999702,207.15185029999702,207.15185029999702,207.15185029999702,207.15185029999702,207.15185029999702,207.15185029999702,207.15185029999702,22,0,,,207.15185029999702,207.3521749000065,1000,207.3521749000065,1000,1000,1000,1000,1,num_2,0.9849234000139404,,18,13,2026-03-02_11h18.59.820,2026A_exp2,2022.2.4,59.86593622259961,
1000,1,0.0,0.0,0,0,68,68,7,,,,,208.35295639999094,209.00379670000984,209.00379670000984,209.50475439999718,315,45,209.50475439999718,209.50475439999718,209.50475439999718,209.50475439999718,209.50475439999718,209.50475439999718,209.50475439999718,209.50475439999718,209.50475439999718,209.85450970000238,209.85450970000238,209.85450970000238,209.85450970000238,209.85450970000238,209.85450970000238,209.85450970000238,209.85450970000238,209.85450970000238,22,0,,,209.85450970000238,210.05766839999706,1000,210.05766839999706,1000,1000,1000,1000,0,num_3,1.1992734000086784,,18,13,2026-03-02_11h18.59.820,2026A_exp2,2022.2.4,59.86593622259961,
1000,1,0.0,0.0,1,0,69,69,29,,,,,211.27253240000573,211.923749700014,211.923749700014,212.42447319999337,315,315,212.42447319999337,212.42447319999337,212.42447319999337,212.42447319999337,212.42447319999337,212.42447319999337,212.42447319999337,212.42447319999337,212.42447319999337,212.790931800002,212.790931800002,212.790931800002,212.790931800002,212.790931800002,212.790931800002,212.790931800002,212.790931800002,212.790931800002,23,0,,,212.790931800002,212.99305910000112,1000,212.99305910000112,1000,1000,1000,1000,0,num_3,0.5932086999819148,,18,13,2026-03-02_11h18.59.820,2026A_exp2,2022.2.4,59.86593622259961,
1000,1,6.1,6.1,1,0,70,70,22,,,,,213.60828300000867,214.25918419999653,214.25918419999653,214.7602034000156,315,315,214.7602034000156,214.7602034000156,214.7602034000156,214.7602034000156,214.7602034000156,214.7602034000156,214.7602034000156,214.7602034000156,214.7602034000156,215.12672950001433,215.12672950001433,215.12672950001433,215.12672950001433,215.12672950001433,215.12672950001433,215.12672950001433,215.12672950001433,215.12672950001433,23,0,,,215.12672950001433,215.32960409999941,1000,215.32960409999941,1000,1000,1000,1000,1,num_2,0.5193648999847937,,18,13,2026-03-02_11h18.59.820,2026A_exp2,2022.2.4,59.86593622259961,
0,0,3.7,4.9,0,0,71,71,77,,,,,215.87769970000954,216.527980999992,216.527980999992,217.0289871999994,45,45,217.0289871999994,217.0289871999994,217.0289871999994,217.0289871999994,217.0289871999994,217.0289871999994,217.0289871999994,217.0289871999994,217.0289871999994,217.39545290000387,217.39545290000387,217.39545290000387,217.39545290000387,217.39545290000387,217.39545290000387,217.39545290000387,217.39545290000387,217.39545290000387,23,0,,,217.39545290000387,217.5956053000118,4.9,217.5956053000118,1,4.9,1,1,1000,num_4,0.621283400018001,,18,13,2026-03-02_11h18.59.820,2026A_exp2,2022.2.4,59.86593622259961,
1,0,6.1,6.1,1,0,72,72,47,,,,,218.24634589999914,218.89706930000102,218.89706930000102,219.39799409999978,45,45,219.39799409999978,219.39799409999978,219.39799409999978,219.39799409999978,219.39799409999978,219.39799409999978,219.39799409999978,219.39799409999978,219.39799409999978,219.7645179000101,219.7645179000101,219.7645179000101,219.7645179000101,219.7645179000101,219.7645179000101,219.7645179000101,219.7645179000101,219.7645179000101,23,0,,,219.7645179000101,219.96477300001425,6.1,219.96477300001425,1,6.1,1,1,1000,num_4,0.5166205999848899,,18,13,2026-03-02_11h18.59.820,2026A_exp2,2022.2.4,59.86593622259961,
1000,1,6.1,0.0,0,0,73,73,58,,,,,220.4985043000197,221.14923860001727,221.14923860001727,221.6503078000096,315,45,221.6503078000096,221.6503078000096,221.6503078000096,221.6503078000096,221.6503078000096,221.6503078000096,221.6503078000096,221.6503078000096,221.6503078000096,222.00022320001153,222.00022320001153,222.00022320001153,222.00022320001153,222.00022320001153,222.00022320001153,222.00022320001153,222.00022320001153,222.00022320001153,22,0,,,222.00022320001153,222.20305320000625,1000,222.20305320000625,1000,1000,1000,1000,0,num_3,0.5028797000122722,,18,13,2026-03-02_11h18.59.820,2026A_exp2,2022.2.4,59.86593622259961,
0,0,6.1,3.7,0,0,74,74,49,,,,,222.73407120001502,223.38482760000625,223.38482760000625,223.88585660001263,45,315,223.88585660001263,223.88585660001263,223.88585660001263,223.88585660001263,223.88585660001263,223.88585660001263,223.88585660001263,223.88585660001263,223.88585660001263,224.25228780001635,224.25228780001635,224.25228780001635,224.25228780001635,224.25228780001635,224.25228780001635,224.25228780001635,224.25228780001635,224.25228780001635,23,0,,,224.25228780001635,224.4524127000186,3.7,224.4524127000186,0,3.7,1,0,1000,num_1,0.6688733999908436,,18,13,2026-03-02_11h18.59.820,2026A_exp2,2022.2.4,59.86593622259961,
1000,1,0.0,4.9,0,0,75,75,8,,,,,225.15331799999694,225.80423999999766,225.80423999999766,226.28835710001295,45,45,226.28835710001295,226.28835710001295,226.28835710001295,226.28835710001295,226.28835710001295,226.28835710001295,226.28835710001295,226.28835710001295,226.28835710001295,226.65472180000506,226.65472180000506,226.65472180000506,226.65472180000506,226.65472180000506,226.65472180000506,226.65472180000506,226.65472180000506,226.65472180000506,23,0,,,226.65472180000506,226.85761649999768,1000,226.85761649999768,1000,1000,1000,1000,1,num_2,0.5603192999842577,,18,13,2026-03-02_11h18.59.820,2026A_exp2,2022.2.4,59.86593622259961,
1,0,6.1,0.0,0,0,76,76,85,,,,,227.4387978000159,228.0895720999979,228.0895720999979,228.5905916999909,315,45,228.5905916999909,228.5905916999909,228.5905916999909,228.5905916999909,228.5905916999909,228.5905916999909,228.5905916999909,228.5905916999909,228.5905916999909,228.95708799999557,228.95708799999557,228.95708799999557,228.95708799999557,228.95708799999557,228.95708799999557,228.95708799999557,228.95708799999557,228.95708799999557,23,0,,,228.95708799999557,229.15730670001358,6.1,229.15730670001358,1,6.1,1,1,1000,num_4,0.412301500007743,,18,13,2026-03-02_11h18.59.820,2026A_exp2,2022.2.4,59.86593622259961,
1000,1,0.0,0.0,0,0,77,77,89,,,,,229.59089799999492,230.24171370000113,230.24171370000113,230.7260070000193,315,45,230.7260070000193,230.7260070000193,230.7260070000193,230.7260070000193,230.7260070000193,230.7260070000193,230.7260070000193,230.7260070000193,230.7260070000193,231.09255140001187,231.09255140001187,231.09255140001187,231.09255140001187,231.09255140001187,231.09255140001187,231.09255140001187,231.09255140001187,231.09255140001187,23,0,,,231.09255140001187,231.29568959999597,1000,231.29568959999597,1000,1000,1000,1000,1,num_2,0.8738696000073105,,18,13,2026-03-02_11h18.59.820,2026A_exp2,2022.2.4,59.86593622259961,
1000,1,0.0,4.9,0,0,78,78,0,,,,,232.19390310000745,232.8442724000197,232.8442724000197,233.32865450001555,315,45,233.32865450001555,233.32865450001555,233.32865450001555,233.32865450001555,233.32865450001555,233.32865450001555,233.32865450001555,233.32865450001555,233.32865450001555,233.69517260001157,233.69517260001157,233.69517260001157,233.69517260001157,233.69517260001157,233.69517260001157,233.69517260001157,233.69517260001157,233.69517260001157,23,0,,,233.69517260001157,233.89773880000575,1000,233.89773880000575,1000,1000,1000,1000,1,num_2,0.5511820999963675,,18,13,2026-03-02_11h18.59.820,2026A_exp2,2022.2.4,59.86593622259961,
1,0,0.0,6.1,0,0,79,79,24,,,,,234.47937469999306,235.12985789999948,235.12985789999948,235.63089910001145,45,45,235.63089910001145,235.63089910001145,235.63089910001145,235.63089910001145,235.63089910001145,235.63089910001145,235.63089910001145,235.63089910001145,235.63089910001145,235.98082990001421,235.98082990001421,235.98082990001421,235.98082990001421,235.98082990001421,235.98082990001421,235.98082990001421,235.98082990001421,235.98082990001421,22,0,,,235.98082990001421,236.18105840001954,0.0,236.18105840001954,0,0.0,0,1,1000,num_1,0.6201963000057731,,18,13,2026-03-02_11h18.59.820,2026A_exp2,2022.2.4,59.86593622259961,
1,0,0.0,0.0,1,0,80,80,33,,,,,236.83165080001345,237.48226620000787,237.48226620000787,237.9836484999978,45,315,237.9836484999978,237.9836484999978,237.9836484999978,237.9836484999978,237.9836484999978,237.9836484999978,237.9836484999978,237.9836484999978,237.9836484999978,238.3329003000108,238.3329003000108,238.3329003000108,238.3329003000108,238.3329003000108,238.3329003000108,238.3329003000108,238.3329003000108,238.3329003000108,22,0,,,238.3329003000108,238.5350150000013,0.0,238.54993900001864,1,0.0,0,0,1000,num_4,0.6281652000034228,,18,13,2026-03-02_11h18.59.820,2026A_exp2,2022.2.4,59.86593622259961,
1,0,0.0,4.9,0,0,81,81,70,,,,,239.20053780000308,239.85131289999117,239.85131289999117,240.33579370001098,315,45,240.33579370001098,240.33579370001098,240.33579370001098,240.33579370001098,240.33579370001098,240.33579370001098,240.33579370001098,240.33579370001098,240.33579370001098,240.7021578999993,240.7021578999993,240.7021578999993,240.7021578999993,240.7021578999993,240.7021578999993,240.7021578999993,240.7021578999993,240.7021578999993,23,0,,,240.7021578999993,240.90233450001688,0.0,240.90233450001688,0,0.0,0,1,1000,num_1,0.5632819999882486,,18,13,2026-03-02_11h18.59.820,2026A_exp2,2022.2.4,59.86593622259961,
0,0,6.1,0.0,1,0,82,82,25,,,,,241.4861395000189,242.13680989999557,242.13680989999557,242.62125590001233,45,315,242.62125590001233,242.62125590001233,242.62125590001233,242.62125590001233,242.62125590001233,242.62125590001233,242.62125590001233,242.62125590001233,242.62125590001233,242.9877902000153,242.9877902000153,242.9877902000153,242.9877902000153,242.9877902000153,242.9877902000153,242.9877902000153,242.9877902000153,242.9877902000153,23,0,,,242.9877902000153,243.1878876000119,6.1,243.1878876000119,1,6.1,1,1,1000,num_4,0.5412116999796126,,18,13,2026-03-02_11h18.59.820,2026A_exp2,2022.2.4,59.86593622259961,
0,0,4.9,0.0,0,0,83,83,40,,,,,243.755084000004,244.40597479999997,244.40597479999997,244.89015839999774,315,315,244.89015839999774,244.89015839999774,244.89015839999774,244.89015839999774,244.89015839999774,244.89015839999774,244.89015839999774,244.89015839999774,244.89015839999774,245.2566616999975,245.2566616999975,245.2566616999975,245.2566616999975,245.2566616999975,245.2566616999975,245.2566616999975,245.2566616999975,245.2566616999975,23,0,,,245.2566616999975,245.4567939999979,0.0,245.4567939999979,0,0.0,0,1,1000,num_1,0.7203956999874208,,18,13,2026-03-02_11h18.59.820,2026A_exp2,2022.2.4,59.86593622259961,
1000,1,3.7,0.0,0,0,84,84,86,,,,,246.2079808000126,246.8582932999998,246.8582932999998,247.359354300017,315,45,247.359354300017,247.359354300017,247.359354300017,247.359354300017,247.359354300017,247.359354300017,247.359354300017,247.359354300017,247.359354300017,247.70907979999902,247.70907979999902,247.70907979999902,247.70907979999902,247.70907979999902,247.70907979999902,247.70907979999902,247.70907979999902,247.70907979999902,22,0,,,247.70907979999902,247.9114333000034,1000,247.9114333000034,1000,1000,1000,1000,0,num_3,0.7139998000056949,,18,13,2026-03-02_11h18.59.820,2026A_exp2,2022.2.4,59.86593622259961,
1000,1,0.0,0.0,1,0,85,85,3,,,,,248.64326030001394,249.29386969999177,249.29386969999177,249.79505489999428,315,315,249.79505489999428,249.79505489999428,249.79505489999428,249.79505489999428,249.79505489999428,249.79505489999428,249.79505489999428,249.79505489999428,249.79505489999428,250.16164750000462,250.16164750000462,250.16164750000462,250.16164750000462,250.16164750000462,250.16164750000462,250.16164750000462,250.16164750000462,250.16164750000462,9,1,[0.0011953999928664416],[0.23369029999594204],250.16164750000462,250.3634463000053,1000,250.3634463000053,1000,1000,1000,1000,0,num_3,1.333559000020614,,18,13,2026-03-02_11h18.59.820,2026A_exp2,2022.2.4,59.86593622259961,
1,0,4.9,0.0,0,0,86,86,66,,,,,251.71325950001483,252.36377039999934,252.36377039999934,252.8649720000103,45,315,252.8649720000103,252.8649720000103,252.8649720000103,252.8649720000103,252.8649720000103,252.8649720000103,252.8649720000103,252.8649720000103,252.8649720000103,253.23125640000217,253.23125640000217,253.23125640000217,253.23125640000217,253.23125640000217,253.23125640000217,253.23125640000217,253.23125640000217,253.23125640000217,23,0,,,253.23125640000217,253.43142830001307,4.9,253.43142830001307,1,4.9,1,1,1000,num_4,0.3703011999896262,,18,13,2026-03-02_11h18.59.820,2026A_exp2,2022.2.4,59.86593622259961,
1000,1,0.0,3.7,1,0,87,87,4,,,,,253.83170800001244,254.48248150001746,254.48248150001746,254.96704170000157,315,315,254.96704170000157,254.96704170000157,254.96704170000157,254.96704170000157,254.96704170000157,254.96704170000157,254.96704170000157,254.96704170000157,254.96704170000157,255.33344020001823,255.33344020001823,255.33344020001823,255.33344020001823,255.33344020001823,255.33344020001823,255.33344020001823,255.33344020001823,255.33344020001823,23,0,,,255.33344020001823,255.53356189999613,1000,255.53356189999613,1000,1000,1000,1000,1,num_2,0.5244839999941178,,18,13,2026-03-02_11h18.59.820,2026A_exp2,2022.2.4,59.86593622259961,
1000,1,0.0,6.1,0,0,88,88,61,,,,,256.0842464000161,256.73478810000233,256.73478810000233,257.2358948000183,45,45,257.2358948000183,257.2358948000183,257.2358948000183,257.2358948000183,257.2358948000183,257.2358948000183,257.2358948000183,257.2358948000183,257.2358948000183,257.6023705000116,257.6023705000116,257.6023705000116,257.6023705000116,257.6023705000116,257.6023705000116,257.6023705000116,257.6023705000116,257.6023705000116,23,0,,,257.6023705000116,257.8050046999997,1000,257.8050046999997,1000,1000,1000,1000,1,num_2,0.4847946999943815,,18,13,2026-03-02_11h18.59.820,2026A_exp2,2022.2.4,59.86593622259961,
1000,1,6.1,4.9,0,0,89,89,81,,,,,258.31982180001796,258.97030899999663,258.97030899999663,259.4715354999935,315,315,259.4715354999935,259.4715354999935,259.4715354999935,259.4715354999935,259.4715354999935,259.4715354999935,259.4715354999935,259.4715354999935,259.4715354999935,259.83787139999913,259.83787139999913,259.83787139999913,259.83787139999913,259.83787139999913,259.83787139999913,259.83787139999913,259.83787139999913,259.83787139999913,23,0,,,259.83787139999913,260.03998860000866,1000,260.03998860000866,1000,1000,1000,1000,0,num_3,0.5771386999986134,,18,13,2026-03-02_11h18.59.820,2026A_exp2,2022.2.4,59.86593622259961,
,,,,,,,,,,,,,,,,,,,,,,,,,,,,,,,,,,,,,,,,,,,,,,,,,,,,260.64740839999286,,,,,,,
