validity,detectorcomp,contrastCW,contrastCCW,precueCWorCCW,block_80trials.thisRepN,block_80trials.thisTrialN,block_80trials.thisN,block_80trials.thisIndex,etRecord.started,etRecord.stopped,text.started,text.stopped,text_4.started,text_4.stopped,text_6.started,text_6.stopped,oriCW,oriCCW,roi_2.started,grating_UR.started,grating_UL.started,grating_LR.started,grating_LL.started,noise_UR.started,noise_UL.started,noise_LR.started,noise_LL.started,roi_2.stopped,grating_UR.stopped,grating_UL.stopped,grating_LR.stopped,grating_LL.stopped,noise_UR.stopped,noise_UL.stopped,noise_LR.stopped,noise_LL.stopped,outframe,roi_2.numLooks,roi_2.timesOn,roi_2.timesOff,text_2.started,text_2.stopped,probedcontrast,key_resp.started,respdetect,relevantContrast,correctDetect,TorFdetect,respCWorCCW,key_resp.keys,key_resp.rt,feedback_display_.started,participantNo,blockNo,date,expName,psychopyVersion,frameRate,
1,0,0.0,3.7,1,0,0,0,0,3.350002225488424e-05,3.350002225488424e-05,51.510881899972446,53.514781999983825,53.514781999983825,54.146687000000384,54.146687000000384,54.67060020001372,315,315,54.67060020001372,54.67060020001372,54.67060020001372,54.67060020001372,54.67060020001372,54.67060020001372,54.67060020001372,54.67060020001372,54.67060020001372,55.01396700000623,55.01396700000623,55.01396700000623,55.01396700000623,55.01396700000623,55.01396700000623,55.01396700000623,55.01396700000623,55.01396700000623,0,1,[0.0019890000112354755],[0.3662734000245109],55.01396700000623,55.214229199977126,3.7,55.214229199977126,1,3.7,1,1,1000,num_4,1.6630079000024125,,24,9,2026-03-04_15h58.19.694,2026A_exp2,2022.2.4,59.86507609556201,
1000,1,0.0,6.1,1,0,1,1,52,,,,,56.899162799993064,57.549656599992886,57.549656599992886,58.03464490000624,45,315,58.03464490000624,58.03464490000624,58.03464490000624,58.03464490000624,58.03464490000624,58.03464490000624,58.03464490000624,58.03464490000624,58.03464490000624,58.40057479997631,58.40057479997631,58.40057479997631,58.40057479997631,58.40057479997631,58.40057479997631,58.40057479997631,58.40057479997631,58.40057479997631,0,1,[0.0010093000018969178],[0.36720949999289587],58.40057479997631,58.60614689998329,1000,58.60614689998329,1000,1000,1000,1000,1,num_2,0.6871869000024162,,24,9,2026-03-04_15h58.19.694,2026A_exp2,2022.2.4,59.86507609556201,
1000,1,0.0,6.1,0,0,2,2,58,,,,,59.31842849997338,59.968971199996304,59.968971199996304,60.46999539999524,45,45,60.46999539999524,60.46999539999524,60.46999539999524,60.46999539999524,60.46999539999524,60.46999539999524,60.46999539999524,60.46999539999524,60.46999539999524,60.819955400016624,60.819955400016624,60.819955400016624,60.819955400016624,60.819955400016624,60.819955400016624,60.819955400016624,60.819955400016624,60.819955400016624,0,1,[0.001324000011663884],[0.35080640000524],60.819955400016624,61.022336399997585,1000,61.03675420000218,1000,1000,1000,1000,1,num_2,0.6481396000017412,,24,9,2026-03-04_15h58.19.694,2026A_exp2,2022.2.4,59.86507609556201,
1000,1,0.0,6.1,1,0,3,3,69,,,,,61.70409329998074,62.35460449999664,62.35460449999664,62.855642799986526,315,45,62.855642799986526,62.855642799986526,62.855642799986526,62.855642799986526,62.855642799986526,62.855642799986526,62.855642799986526,62.855642799986526,62.855642799986526,63.20555670000613,63.20555670000613,63.20555670000613,63.20555670000613,63.20555670000613,63.20555670000613,63.20555670000613,63.20555670000613,63.20555670000613,0,1,[0.0009855999960564077],[0.35110279999207705],63.20555670000613,63.407936099974904,1000,63.407936099974904,1000,1000,1000,1000,1,num_2,0.5326228000340052,,24,9,2026-03-04_15h58.19.694,2026A_exp2,2022.2.4,59.86507609556201,
1000,1,4.9,0.0,0,0,4,4,50,,,,,63.95639549999032,64.60692739998922,64.60692739998922,65.10801039997023,315,315,65.10801039997023,65.10801039997023,65.10801039997023,65.10801039997023,65.10801039997023,65.10801039997023,65.10801039997023,65.10801039997023,65.10801039997023,65.45741979999002,65.45741979999002,65.45741979999002,65.45741979999002,65.45741979999002,65.45741979999002,65.45741979999002,65.45741979999002,65.45741979999002,0,1,[0.0007325999904423952],[0.35212970001157373],65.45741979999002,65.66021880001063,1000,65.67470319999848,1000,1000,1000,1000,0,num_3,0.4743370999931358,,24,9,2026-03-04_15h58.19.694,2026A_exp2,2022.2.4,59.86507609556201,
0,0,4.9,4.9,1,0,5,5,48,,,,,66.17528640001547,66.82579699996859,66.82579699996859,67.32697950000875,45,45,67.32697950000875,67.32697950000875,67.32697950000875,67.32697950000875,67.32697950000875,67.32697950000875,67.32697950000875,67.32697950000875,67.32697950000875,67.69339570001466,67.69339570001466,67.69339570001466,67.69339570001466,67.69339570001466,67.69339570001466,67.69339570001466,67.69339570001466,67.69339570001466,0,1,[0.0012091000098735094],[0.36732850002590567],67.69339570001466,67.89357159996871,4.9,67.89357159996871,1,4.9,1,1,1000,num_4,0.7670266999630257,,24,9,2026-03-04_15h58.19.694,2026A_exp2,2022.2.4,59.86507609556201,
1000,1,0.0,0.0,0,0,6,6,36,,,,,68.67759279999882,69.32825239998056,69.32825239998056,69.81270730000688,45,45,69.81270730000688,69.81270730000688,69.81270730000688,69.81270730000688,69.81270730000688,69.81270730000688,69.81270730000688,69.81270730000688,69.81270730000688,70.17906300001778,70.17906300001778,70.17906300001778,70.17906300001778,70.17906300001778,70.17906300001778,70.17906300001778,70.17906300001778,70.17906300001778,0,1,[0.0007230999763123691],[0.36754529998870566],70.17906300001778,70.38141979998909,1000,70.38141979998909,1000,1000,1000,1000,0,num_3,1.015543700021226,,24,9,2026-03-04_15h58.19.694,2026A_exp2,2022.2.4,59.86507609556201,
1,0,3.7,4.9,1,0,7,7,71,,,,,71.41364649997558,72.06427959998837,72.06427959998837,72.56551939999918,45,315,72.56551939999918,72.56551939999918,72.56551939999918,72.56551939999918,72.56551939999918,72.56551939999918,72.56551939999918,72.56551939999918,72.56551939999918,72.93194320000475,72.93194320000475,72.93194320000475,72.93194320000475,72.93194320000475,72.93194320000475,72.93194320000475,72.93194320000475,72.93194320000475,0,1,[0.001289699983317405],[0.367290000023786],72.93194320000475,73.13218239997514,4.9,73.13218239997514,1,4.9,1,1,1000,num_4,0.7043183000059798,,24,9,2026-03-04_15h58.19.694,2026A_exp2,2022.2.4,59.86507609556201,
1000,1,0.0,6.1,0,0,8,8,85,,,,,73.86609379999572,74.51688269997248,74.51688269997248,75.0178533999715,45,315,75.0178533999715,75.0178533999715,75.0178533999715,75.0178533999715,75.0178533999715,75.0178533999715,75.0178533999715,75.0178533999715,75.0178533999715,75.36766290001106,75.36766290001106,75.36766290001106,75.36766290001106,75.36766290001106,75.36766290001106,75.36766290001106,75.36766290001106,75.36766290001106,22,0,,,75.36766290001106,75.56995289999759,1000,75.56995289999759,1000,1000,1000,1000,1,num_2,0.43432870000833645,,24,9,2026-03-04_15h58.19.694,2026A_exp2,2022.2.4,59.86507609556201,
1,0,4.9,6.1,0,0,9,9,33,,,,,76.03497430001153,76.6856099999859,76.6856099999859,77.17021100001875,315,45,77.17021100001875,77.17021100001875,77.17021100001875,77.17021100001875,77.17021100001875,77.17021100001875,77.17021100001875,77.17021100001875,77.17021100001875,77.53656799998134,77.53656799998134,77.53656799998134,77.53656799998134,77.53656799998134,77.53656799998134,77.53656799998134,77.53656799998134,77.53656799998134,22,1,[0.10005420004017651],[0.1165603999979794],77.53656799998134,77.7368046999909,4.9,77.7368046999909,1,4.9,1,1,1000,num_4,0.6925498999771662,,24,9,2026-03-04_15h58.19.694,2026A_exp2,2022.2.4,59.86507609556201,
1000,1,3.7,0.0,0,0,10,10,66,,,,,78.45389770000475,79.10492790001445,79.10492790001445,79.58919580001384,45,315,79.58919580001384,79.58919580001384,79.58919580001384,79.58919580001384,79.58919580001384,79.58919580001384,79.58919580001384,79.58919580001384,79.58919580001384,79.9556392999948,79.9556392999948,79.9556392999948,79.9556392999948,79.9556392999948,79.9556392999948,79.9556392999948,79.9556392999948,79.9556392999948,23,0,,,79.9556392999948,80.15780809998978,1000,80.15780809998978,1000,1000,1000,1000,0,num_3,0.5272974999970756,,24,9,2026-03-04_15h58.19.694,2026A_exp2,2022.2.4,59.86507609556201,
1000,1,3.7,6.1,1,0,11,11,29,,,,,80.70633120002458,81.35703110002214,81.35703110002214,81.8580405000248,45,45,81.8580405000248,81.8580405000248,81.8580405000248,81.8580405000248,81.8580405000248,81.8580405000248,81.8580405000248,81.8580405000248,81.8580405000248,82.22448299999814,82.22448299999814,82.22448299999814,82.22448299999814,82.22448299999814,82.22448299999814,82.22448299999814,82.22448299999814,82.22448299999814,2,1,[0.001278800016734749],[0.3505902999895625],82.22448299999814,82.42682360002073,1000,82.42682360002073,1000,1000,1000,1000,1,num_2,0.4412133999867365,,24,9,2026-03-04_15h58.19.694,2026A_exp2,2022.2.4,59.86507609556201,
1000,1,6.1,4.9,0,0,12,12,49,,,,,82.89185569999972,83.54251100000693,83.54251100000693,84.04365020000841,45,315,84.04365020000841,84.04365020000841,84.04365020000841,84.04365020000841,84.04365020000841,84.04365020000841,84.04365020000841,84.04365020000841,84.04365020000841,84.41009149997262,84.41009149997262,84.41009149997262,84.41009149997262,84.41009149997262,84.41009149997262,84.41009149997262,84.41009149997262,84.41009149997262,0,1,[0.0012311000027693808],[0.3672305000363849],84.41009149997262,84.61198879999574,1000,84.61198879999574,1000,1000,1000,1000,0,num_3,0.5677972999983467,,24,9,2026-03-04_15h58.19.694,2026A_exp2,2022.2.4,59.86507609556201,
1000,1,3.7,0.0,1,0,13,13,54,,,,,85.21080619998975,85.86158379999688,85.86158379999688,86.36266179999802,315,45,86.36266179999802,86.36266179999802,86.36266179999802,86.36266179999802,86.36266179999802,86.36266179999802,86.36266179999802,86.36266179999802,86.36266179999802,86.72905010002432,86.72905010002432,86.72905010002432,86.72905010002432,86.72905010002432,86.72905010002432,86.72905010002432,86.72905010002432,86.72905010002432,1,2,"[0.001248300017323345, 0.26711250003427267]","[0.25033440004335716, 0.3670836000237614]",86.72905010002432,86.93154299998423,1000,86.93154299998423,1000,1000,1000,1000,0,num_3,0.4577794999931939,,24,9,2026-03-04_15h58.19.694,2026A_exp2,2022.2.4,59.86507609556201,
1000,1,0.0,0.0,1,0,14,14,40,,,,,87.4131434999872,88.06375049997587,88.06375049997587,88.56486420001602,45,45,88.56486420001602,88.56486420001602,88.56486420001602,88.56486420001602,88.56486420001602,88.56486420001602,88.56486420001602,88.56486420001602,88.56486420001602,88.91452659998322,88.91452659998322,88.91452659998322,88.91452659998322,88.91452659998322,88.91452659998322,88.91452659998322,88.91452659998322,88.91452659998322,22,0,,,88.91452659998322,89.11719309998443,1000,89.11719309998443,1000,1000,1000,1000,1,num_2,1.1987525000004098,,24,9,2026-03-04_15h58.19.694,2026A_exp2,2022.2.4,59.86507609556201,
0,0,0.0,0.0,0,0,15,15,70,,,,,90.33260650001466,90.98320810002042,90.98320810002042,91.48500510002486,45,315,91.48500510002486,91.48500510002486,91.48500510002486,91.48500510002486,91.48500510002486,91.48500510002486,91.48500510002486,91.48500510002486,91.48500510002486,91.8505641000229,91.8505641000229,91.8505641000229,91.8505641000229,91.8505641000229,91.8505641000229,91.8505641000229,91.8505641000229,91.8505641000229,3,2,"[0.0018585000070743263, 0.11572770000202581]","[0.06668499996885657, 0.3662620999966748]",91.8505641000229,92.05104960000608,0.0,92.05104960000608,0,0.0,0,1,1000,num_1,1.3942855999921449,,24,9,2026-03-04_15h58.19.694,2026A_exp2,2022.2.4,59.86507609556201,
0,0,6.1,6.1,0,0,16,16,42,,,,,93.46914280002238,94.11984210001538,94.11984210001538,94.60407870000927,315,45,94.60407870000927,94.60407870000927,94.60407870000927,94.60407870000927,94.60407870000927,94.60407870000927,94.60407870000927,94.60407870000927,94.60407870000927,94.97041970002465,94.97041970002465,94.97041970002465,94.97041970002465,94.97041970002465,94.97041970002465,94.97041970002465,94.97041970002465,94.97041970002465,0,1,[0.001202200015541166],[0.3671778999851085],94.97041970002465,95.17072789999656,6.1,95.17072789999656,1,6.1,1,1,1000,num_4,0.7701885999995284,,24,9,2026-03-04_15h58.19.694,2026A_exp2,2022.2.4,59.86507609556201,
1,0,0.0,4.9,1,0,17,17,1,,,,,95.97169320000103,96.6222072999808,96.6222072999808,97.12324729998363,45,315,97.12324729998363,97.12324729998363,97.12324729998363,97.12324729998363,97.12324729998363,97.12324729998363,97.12324729998363,97.12324729998363,97.12324729998363,97.48983550001867,97.48983550001867,97.48983550001867,97.48983550001867,97.48983550001867,97.48983550001867,97.48983550001867,97.48983550001867,97.48983550001867,12,2,"[0.001214299991261214, 0.2669956999598071]","[0.1504152999841608, 0.30031749996123835]",97.48983550001867,97.68994620000012,4.9,97.68994620000012,1,4.9,1,1,1000,num_4,0.5463362999726087,,24,9,2026-03-04_15h58.19.694,2026A_exp2,2022.2.4,59.86507609556201,
1,0,3.7,0.0,1,0,18,18,12,,,,,98.25698309997097,98.90789959998801,98.90789959998801,99.3921106000198,315,45,99.3921106000198,99.3921106000198,99.3921106000198,99.3921106000198,99.3921106000198,99.3921106000198,99.3921106000198,99.3921106000198,99.3921106000198,99.758891400008,99.758891400008,99.758891400008,99.758891400008,99.758891400008,99.758891400008,99.758891400008,99.758891400008,99.758891400008,3,2,"[0.000861200038343668, 0.3193137000198476]","[0.30198960000416264, 0.35087900003418326]",99.758891400008,99.95960010000272,0.0,99.95960010000272,0,0.0,0,1,1000,num_1,1.1805368000059389,,24,9,2026-03-04_15h58.19.694,2026A_exp2,2022.2.4,59.86507609556201,
1,0,4.9,0.0,0,0,19,19,4,,,,,101.16209910000907,101.8103523000027,101.8103523000027,102.31157959997654,315,315,102.31157959997654,102.31157959997654,102.31157959997654,102.31157959997654,102.31157959997654,102.31157959997654,102.31157959997654,102.31157959997654,102.31157959997654,102.67826100002276,102.67826100002276,102.67826100002276,102.67826100002276,102.67826100002276,102.67826100002276,102.67826100002276,102.67826100002276,102.67826100002276,22,1,[0.33388700004434213],[0.35072410001885146],102.67826100002276,102.87828439997975,4.9,102.87828439997975,1,4.9,1,1,1000,num_4,0.7178548999945633,,24,9,2026-03-04_15h58.19.694,2026A_exp2,2022.2.4,59.86507609556201,
1,0,3.7,4.9,0,0,20,20,76,,,,,103.6122963000089,104.24726390000433,104.24726390000433,104.74860459996853,45,45,104.74860459996853,104.74860459996853,104.74860459996853,104.74860459996853,104.74860459996853,104.74860459996853,104.74860459996853,104.74860459996853,104.74860459996853,105.11394959996687,105.11394959996687,105.11394959996687,105.11394959996687,105.11394959996687,105.11394959996687,105.11394959996687,105.11394959996687,105.11394959996687,0,1,[0.0009014999959617853],[0.3667931000236422],105.11394959996687,105.31452820001869,3.7,105.31452820001869,1,3.7,1,1,1000,num_4,0.5780976999667473,,24,9,2026-03-04_15h58.19.694,2026A_exp2,2022.2.4,59.86507609556201,
1,0,3.7,0.0,0,0,21,21,8,,,,,105.91477679996751,106.56552740000188,106.56552740000188,107.06670319999103,315,315,107.06670319999103,107.06670319999103,107.06670319999103,107.06670319999103,107.06670319999103,107.06670319999103,107.06670319999103,107.06670319999103,107.06670319999103,107.41631040000357,107.41631040000357,107.41631040000357,107.41631040000357,107.41631040000357,107.41631040000357,107.41631040000357,107.41631040000357,107.41631040000357,22,0,,,107.41631040000357,107.61658219998935,3.7,107.61658219998935,1,3.7,1,1,1000,num_4,0.5396610999596305,,24,9,2026-03-04_15h58.19.694,2026A_exp2,2022.2.4,59.86507609556201,
1,0,4.9,0.0,1,0,22,22,25,,,,,108.1837450999883,108.8344298999873,108.8344298999873,109.31886850000592,45,45,109.31886850000592,109.31886850000592,109.31886850000592,109.31886850000592,109.31886850000592,109.31886850000592,109.31886850000592,109.31886850000592,109.31886850000592,109.68540239997674,109.68540239997674,109.68540239997674,109.68540239997674,109.68540239997674,109.68540239997674,109.68540239997674,109.68540239997674,109.68540239997674,0,1,[0.001214299991261214],[0.3665737999835983],109.68540239997674,109.88538920000428,0.0,109.88538920000428,0,0.0,0,1,1000,num_1,1.5024470000062138,,24,9,2026-03-04_15h58.19.694,2026A_exp2,2022.2.4,59.86507609556201,
1,0,0.0,0.0,1,0,23,23,21,,,,,111.40358400001423,112.05446189997019,112.05446189997019,112.53881019999972,45,45,112.53881019999972,112.53881019999972,112.53881019999972,112.53881019999972,112.53881019999972,112.53881019999972,112.53881019999972,112.53881019999972,112.53881019999972,112.905150400009,112.905150400009,112.905150400009,112.905150400009,112.905150400009,112.905150400009,112.905150400009,112.905150400009,112.905150400009,6,2,"[0.08330970001406968, 0.3001998999970965]","[0.28357740002684295, 0.36714809999102727]",112.905150400009,113.10537469998235,0.0,113.10537469998235,0,0.0,0,1,1000,num_1,0.8750702000106685,,24,9,2026-03-04_15h58.19.694,2026A_exp2,2022.2.4,59.86507609556201,
1000,1,0.0,4.9,0,0,24,24,74,,,,,114.0070340000093,114.65690459997859,114.65690459997859,115.15809619997162,315,45,115.15809619997162,115.15809619997162,115.15809619997162,115.15809619997162,115.15809619997162,115.15809619997162,115.15809619997162,115.15809619997162,115.15809619997162,115.52462330000708,115.52462330000708,115.52462330000708,115.52462330000708,115.52462330000708,115.52462330000708,115.52462330000708,115.52462330000708,115.52462330000708,6,2,"[0.001240300014615059, 0.30052679998334497]","[0.2338086999952793, 0.35114749998319894]",115.52462330000708,115.72683320002398,1000,115.72683320002398,1000,1000,1000,1000,1,num_2,0.6537233000271954,,24,9,2026-03-04_15h58.19.694,2026A_exp2,2022.2.4,59.86507609556201,
1,0,6.1,3.7,0,0,25,25,31,,,,,116.40898690000176,117.05936319998,117.05936319998,117.5437919999822,315,45,117.5437919999822,117.5437919999822,117.5437919999822,117.5437919999822,117.5437919999822,117.5437919999822,117.5437919999822,117.5437919999822,117.5437919999822,117.91026590002002,117.91026590002002,117.91026590002002,117.91026590002002,117.91026590002002,117.91026590002002,117.91026590002002,117.91026590002002,117.91026590002002,15,5,"[0.06691479997243732, 0.10021070000948384, 0.20042409998131916, 0.30040539999026805, 0.3506148000014946]","[0.08357729995623231, 0.11702909995801747, 0.2503451000084169, 0.33385110000381246, 0.3671731000067666]",117.91026590002002,118.11048759997357,6.1,118.11048759997357,1,6.1,1,1,1000,num_4,0.6455183000070974,,24,9,2026-03-04_15h58.19.694,2026A_exp2,2022.2.4,59.86507609556201,
1000,1,0.0,0.0,1,0,26,26,23,,,,,118.77752549998695,119.42841849999968,119.42841849999968,119.91291830001865,315,315,119.91291830001865,119.91291830001865,119.91291830001865,119.91291830001865,119.91291830001865,119.91291830001865,119.91291830001865,119.91291830001865,119.91291830001865,120.27928279998014,120.27928279998014,120.27928279998014,120.27928279998014,120.27928279998014,120.27928279998014,120.27928279998014,120.27928279998014,120.27928279998014,12,2,"[0.0012142000487074256, 0.21679160004714504]","[0.017406300001312047, 0.3671815000125207]",120.27928279998014,120.48178689996712,1000,120.48178689996712,1000,1000,1000,1000,1,num_2,1.33838889998151,,24,9,2026-03-04_15h58.19.694,2026A_exp2,2022.2.4,59.86507609556201,
1000,1,0.0,6.1,0,0,27,27,2,,,,,121.84747269999934,122.49803570000222,122.49803570000222,122.99934059998486,315,45,122.99934059998486,122.99934059998486,122.99934059998486,122.99934059998486,122.99934059998486,122.99934059998486,122.99934059998486,122.99934059998486,122.99934059998486,123.3489671999705,123.3489671999705,123.3489671999705,123.3489671999705,123.3489671999705,123.3489671999705,123.3489671999705,123.3489671999705,123.3489671999705,22,0,,,123.3489671999705,123.55115269997623,1000,123.55115269997623,1000,1000,1000,1000,1,num_2,0.6939479000284337,,24,9,2026-03-04_15h58.19.694,2026A_exp2,2022.2.4,59.86507609556201,
1000,1,0.0,0.0,0,0,28,28,6,,,,,124.26651470002253,124.9172794999904,124.9172794999904,125.41840139997657,45,315,125.41840139997657,125.41840139997657,125.41840139997657,125.41840139997657,125.41840139997657,125.41840139997657,125.41840139997657,125.41840139997657,125.41840139997657,125.7847674000077,125.7847674000077,125.7847674000077,125.7847674000077,125.7847674000077,125.7847674000077,125.7847674000077,125.7847674000077,125.7847674000077,13,6,"[0.0012274000328034163, 0.16674790001707152, 0.2170609000022523, 0.2503768000169657, 0.28373379999538884, 0.35046410001814365]","[0.03356890002032742, 0.18324730003951117, 0.23368619999382645, 0.26705910003511235, 0.33379950001835823, 0.36704919999465346]",125.7847674000077,125.98509570001625,1000,125.98509570001625,1000,1000,1000,1000,1,num_2,0.6119952999870293,,24,9,2026-03-04_15h58.19.694,2026A_exp2,2022.2.4,59.86507609556201,
1000,1,3.7,0.0,1,0,29,29,88,,,,,126.61885959998472,127.26943069999106,127.26943069999106,127.77058199996827,45,45,127.77058199996827,127.77058199996827,127.77058199996827,127.77058199996827,127.77058199996827,127.77058199996827,127.77058199996827,127.77058199996827,127.77058199996827,128.12048579996917,128.12048579996917,128.12048579996917,128.12048579996917,128.12048579996917,128.12048579996917,128.12048579996917,128.12048579996917,128.12048579996917,22,0,,,128.12048579996917,128.32271859998582,1000,128.32271859998582,1000,1000,1000,1000,0,num_3,0.9459731000242755,,24,9,2026-03-04_15h58.19.694,2026A_exp2,2022.2.4,59.86507609556201,
1,0,0.0,6.1,0,0,30,30,82,,,,,129.2882329999702,129.93896609998774,129.93896609998774,130.44007050001528,315,315,130.44007050001528,130.44007050001528,130.44007050001528,130.44007050001528,130.44007050001528,130.44007050001528,130.44007050001528,130.44007050001528,130.44007050001528,130.78979850001633,130.78979850001633,130.78979850001633,130.78979850001633,130.78979850001633,130.78979850001633,130.78979850001633,130.78979850001633,130.78979850001633,22,0,,,130.78979850001633,130.98997619998408,0.0,131.00681629998144,0,0.0,0,1,1000,num_1,1.158290899998974,,24,9,2026-03-04_15h58.19.694,2026A_exp2,2022.2.4,59.86507609556201,
1000,1,0.0,0.0,0,0,31,31,67,,,,,132.19109039998148,132.84182729996974,132.84182729996974,133.32623820001027,315,315,133.32623820001027,133.32623820001027,133.32623820001027,133.32623820001027,133.32623820001027,133.32623820001027,133.32623820001027,133.32623820001027,133.32623820001027,133.69267560000299,133.69267560000299,133.69267560000299,133.69267560000299,133.69267560000299,133.69267560000299,133.69267560000299,133.69267560000299,133.69267560000299,23,0,,,133.69267560000299,133.8949830000056,1000,133.8949830000056,1000,1000,1000,1000,0,num_3,0.6289431999903172,,24,9,2026-03-04_15h58.19.694,2026A_exp2,2022.2.4,59.86507609556201,
1,0,4.9,3.7,1,0,32,32,10,,,,,134.54368529998465,135.19420949998312,135.19420949998312,135.6952442000038,315,315,135.6952442000038,135.6952442000038,135.6952442000038,135.6952442000038,135.6952442000038,135.6952442000038,135.6952442000038,135.6952442000038,135.6952442000038,136.06173100002343,136.06173100002343,136.06173100002343,136.06173100002343,136.06173100002343,136.06173100002343,136.06173100002343,136.06173100002343,136.06173100002343,23,0,,,136.06173100002343,136.26189819996944,3.7,136.26189819996944,1,3.7,1,1,1000,num_4,0.6633646999835037,,24,9,2026-03-04_15h58.19.694,2026A_exp2,2022.2.4,59.86507609556201,
1000,1,0.0,0.0,1,0,33,33,16,,,,,136.94584870000836,137.59644839999964,137.59644839999964,138.08086509996792,315,315,138.08086509996792,138.08086509996792,138.08086509996792,138.08086509996792,138.08086509996792,138.08086509996792,138.08086509996792,138.08086509996792,138.08086509996792,138.4474470000132,138.4474470000132,138.4474470000132,138.4474470000132,138.4474470000132,138.4474470000132,138.4474470000132,138.4474470000132,138.4474470000132,5,2,"[0.0012029999634250998, 0.3506667999899946]","[0.28396029997384176, 0.36725049995584413]",138.4474470000132,138.64947820000816,1000,138.64947820000816,1000,1000,1000,1000,0,num_3,0.6586163999745622,,24,9,2026-03-04_15h58.19.694,2026A_exp2,2022.2.4,59.86507609556201,
1000,1,0.0,3.7,1,0,34,34,65,,,,,139.33158479997655,139.9822541999747,139.9822541999747,140.48338400002103,315,315,140.48338400002103,140.48338400002103,140.48338400002103,140.48338400002103,140.48338400002103,140.48338400002103,140.48338400002103,140.48338400002103,140.48338400002103,140.83316949999426,140.83316949999426,140.83316949999426,140.83316949999426,140.83316949999426,140.83316949999426,140.83316949999426,140.83316949999426,140.83316949999426,0,1,[0.0011519999825395644],[0.3507411000318825],140.83316949999426,141.03573519998463,1000,141.03573519998463,1000,1000,1000,1000,1,num_2,0.5446724999928847,,24,9,2026-03-04_15h58.19.694,2026A_exp2,2022.2.4,59.86507609556201,
1,0,0.0,0.0,0,0,35,35,17,,,,,141.6005850000074,142.25148629996693,142.25148629996693,142.75225279998267,45,315,142.75225279998267,142.75225279998267,142.75225279998267,142.75225279998267,142.75225279998267,142.75225279998267,142.75225279998267,142.75225279998267,142.75225279998267,143.11859279999044,143.11859279999044,143.11859279999044,143.11859279999044,143.11859279999044,143.11859279999044,143.11859279999044,143.11859279999044,143.11859279999044,22,1,[0.3004196000401862],[0.33368520002113655],143.11859279999044,143.31904699996812,0.0,143.31904699996812,1,0.0,0,0,1000,num_4,0.8622239999822341,,24,9,2026-03-04_15h58.19.694,2026A_exp2,2022.2.4,59.86507609556201,
0,0,3.7,6.1,0,0,36,36,73,,,,,144.20300849998603,144.85378299996955,144.85378299996955,145.33835109998472,315,45,145.33835109998472,145.33835109998472,145.33835109998472,145.33835109998472,145.33835109998472,145.33835109998472,145.33835109998472,145.33835109998472,145.33835109998472,145.70480840001255,145.70480840001255,145.70480840001255,145.70480840001255,145.70480840001255,145.70480840001255,145.70480840001255,145.70480840001255,145.70480840001255,21,1,[0.001260999997612089],[0.03338800003984943],145.70480840001255,145.90494149998995,6.1,145.90494149998995,1,6.1,1,1,1000,num_4,0.6990528000169434,,24,9,2026-03-04_15h58.19.694,2026A_exp2,2022.2.4,59.86507609556201,
1000,1,0.0,0.0,1,0,37,37,46,,,,,146.62218910001684,147.2729823999689,147.2729823999689,147.7573133999831,45,45,147.7573133999831,147.7573133999831,147.7573133999831,147.7573133999831,147.7573133999831,147.7573133999831,147.7573133999831,147.7573133999831,147.7573133999831,148.12370880000526,148.12370880000526,148.12370880000526,148.12370880000526,148.12370880000526,148.12370880000526,148.12370880000526,148.12370880000526,148.12370880000526,23,0,,,148.12370880000526,148.3260600999929,1000,148.3260600999929,1000,1000,1000,1000,1,num_2,0.6711422000080347,,24,9,2026-03-04_15h58.19.694,2026A_exp2,2022.2.4,59.86507609556201,
1000,1,0.0,6.1,1,0,38,38,62,,,,,149.02458710002247,149.6753096000175,149.6753096000175,150.17745800002012,45,315,150.17745800002012,150.17745800002012,150.17745800002012,150.17745800002012,150.17745800002012,150.17745800002012,150.17745800002012,150.17745800002012,150.17745800002012,150.5262319999747,150.5262319999747,150.5262319999747,150.5262319999747,150.5262319999747,150.5262319999747,150.5262319999747,150.5262319999747,150.5262319999747,3,3,"[0.0018353000050410628, 0.23264220001874492, 0.33282620005775243]","[0.21593630005372688, 0.29956610000226647, 0.3497446000110358]",150.5262319999747,150.72805209999206,1000,150.74297829996794,1000,1000,1000,1000,1,num_2,0.5974628000403754,,24,9,2026-03-04_15h58.19.694,2026A_exp2,2022.2.4,59.86507609556201,
1000,1,0.0,0.0,0,0,39,39,37,,,,,151.3602787000127,152.01108299999032,152.01108299999032,152.51211890002014,45,315,152.51211890002014,152.51211890002014,152.51211890002014,152.51211890002014,152.51211890002014,152.51211890002014,152.51211890002014,152.51211890002014,152.51211890002014,152.87836819997756,152.87836819997756,152.87836819997756,152.87836819997756,152.87836819997756,152.87836819997756,152.87836819997756,152.87836819997756,152.87836819997756,22,1,[0.1336306000011973],[0.15035680000437424],152.87836819997756,153.08107969997218,1000,153.08107969997218,1000,1000,1000,1000,1,num_2,1.4836267000064254,,24,9,2026-03-04_15h58.19.694,2026A_exp2,2022.2.4,59.86507609556201,
0,0,0.0,4.9,0,0,40,40,14,,,,,154.58011570002418,155.23089730000356,155.23089730000356,155.73169320001034,315,45,155.73169320001034,155.73169320001034,155.73169320001034,155.73169320001034,155.73169320001034,155.73169320001034,155.73169320001034,155.73169320001034,155.73169320001034,156.09821580001153,156.09821580001153,156.09821580001153,156.09821580001153,156.09821580001153,156.09821580001153,156.09821580001153,156.09821580001153,156.09821580001153,23,0,,,156.09821580001153,156.29865409998456,4.9,156.29865409998456,1,4.9,1,1,1000,num_4,0.761548499984201,,24,9,2026-03-04_15h58.19.694,2026A_exp2,2022.2.4,59.86507609556201,
1000,1,3.7,0.0,0,0,41,41,32,,,,,157.0826289000106,157.73339820001274,157.73339820001274,158.2182428999804,45,45,158.2182428999804,158.2182428999804,158.2182428999804,158.2182428999804,158.2182428999804,158.2182428999804,158.2182428999804,158.2182428999804,158.2182428999804,158.58413309999742,158.58413309999742,158.58413309999742,158.58413309999742,158.58413309999742,158.58413309999742,158.58413309999742,158.58413309999742,158.58413309999742,21,2,"[0.3006017000298016, 0.3505561000201851]","[0.3171826000325382, 0.36722150002606213]",158.58413309999742,158.78638399997726,1000,158.78638399997726,1000,1000,1000,1000,0,num_3,0.6333969999686815,,24,9,2026-03-04_15h58.19.694,2026A_exp2,2022.2.4,59.86507609556201,
1,0,3.7,0.0,1,0,42,42,11,,,,,159.43510150001384,160.08577080001123,160.08577080001123,160.58684399997583,315,45,160.58684399997583,160.58684399997583,160.58684399997583,160.58684399997583,160.58684399997583,160.58684399997583,160.58684399997583,160.58684399997583,160.58684399997583,160.93664729996817,160.93664729996817,160.93664729996817,160.93664729996817,160.93664729996817,160.93664729996817,160.93664729996817,160.93664729996817,160.93664729996817,22,0,,,160.93664729996817,161.13681840000208,0.0,161.13681840000208,0,0.0,0,1,1000,num_1,1.1880490999901667,,24,9,2026-03-04_15h58.19.694,2026A_exp2,2022.2.4,59.86507609556201,
1000,1,0.0,0.0,0,0,43,43,15,,,,,162.3547679000185,163.00512340001296,163.00512340001296,163.48980939999456,315,45,163.48980939999456,163.48980939999456,163.48980939999456,163.48980939999456,163.48980939999456,163.48980939999456,163.48980939999456,163.48980939999456,163.48980939999456,163.85665869998047,163.85665869998047,163.85665869998047,163.85665869998047,163.85665869998047,163.85665869998047,163.85665869998047,163.85665869998047,163.85665869998047,7,1,[0.0012043999740853906],[0.26713150000432506],163.85665869998047,164.05618790001608,1000,164.05618790001608,1000,1000,1000,1000,0,num_3,0.500064299965743,,24,9,2026-03-04_15h58.19.694,2026A_exp2,2022.2.4,59.86507609556201,
1000,1,0.0,0.0,1,0,44,44,56,,,,,164.57348099997034,165.22426039999118,165.22426039999118,165.72528479999164,45,45,165.72528479999164,165.72528479999164,165.72528479999164,165.72528479999164,165.72528479999164,165.72528479999164,165.72528479999164,165.72528479999164,165.72528479999164,166.07496779999929,166.07496779999929,166.07496779999929,166.07496779999929,166.07496779999929,166.07496779999929,166.07496779999929,166.07496779999929,166.07496779999929,13,1,[0.0012583999778144062],[0.1503231999813579],166.07496779999929,166.27773039997555,1000,166.27773039997555,1000,1000,1000,1000,1,num_2,0.8626187000190839,,24,9,2026-03-04_15h58.19.694,2026A_exp2,2022.2.4,59.86507609556201,
1,0,3.7,0.0,1,0,45,45,13,,,,,167.1594110999722,167.81008149997797,167.81008149997797,168.3112395000062,45,45,168.3112395000062,168.3112395000062,168.3112395000062,168.3112395000062,168.3112395000062,168.3112395000062,168.3112395000062,168.3112395000062,168.3112395000062,168.6776199999731,168.6776199999731,168.6776199999731,168.6776199999731,168.6776199999731,168.6776199999731,168.6776199999731,168.6776199999731,168.6776199999731,23,0,,,168.6776199999731,168.87788769998588,0.0,168.87788769998588,0,0.0,0,1,1000,num_1,1.2542900999542326,,24,9,2026-03-04_15h58.19.694,2026A_exp2,2022.2.4,59.86507609556201,
1,0,0.0,0.0,1,0,46,46,24,,,,,170.16272680001566,170.81325820001075,170.81325820001075,171.29743370000506,45,315,171.29743370000506,171.29743370000506,171.29743370000506,171.29743370000506,171.29743370000506,171.29743370000506,171.29743370000506,171.29743370000506,171.29743370000506,171.66403749998426,171.66403749998426,171.66403749998426,171.66403749998426,171.66403749998426,171.66403749998426,171.66403749998426,171.66403749998426,171.66403749998426,20,3,"[0.0011993999942205846, 0.11720109998714179, 0.2672080000047572]","[0.017394999973475933, 0.1338906000019051, 0.2838937999913469]",171.66403749998426,171.86425320000853,0.0,171.86425320000853,0,0.0,0,1,1000,num_1,0.9323849999927916,,24,9,2026-03-04_15h58.19.694,2026A_exp2,2022.2.4,59.86507609556201,
1,0,4.9,4.9,0,0,47,47,84,,,,,172.8149376999936,173.46574900002452,173.46574900002452,173.9500839000102,315,315,173.9500839000102,173.9500839000102,173.9500839000102,173.9500839000102,173.9500839000102,173.9500839000102,173.9500839000102,173.9500839000102,173.9500839000102,174.31661599996733,174.31661599996733,174.31661599996733,174.31661599996733,174.31661599996733,174.31661599996733,174.31661599996733,174.31661599996733,174.31661599996733,23,0,,,174.31661599996733,174.5168991999817,4.9,174.5168991999817,1,4.9,1,1,1000,num_4,0.6551872999989428,,24,9,2026-03-04_15h58.19.694,2026A_exp2,2022.2.4,59.86507609556201,
1000,1,0.0,4.9,1,0,48,48,79,,,,,175.20074629999,175.85148140002275,175.85148140002275,176.349104599969,45,45,176.349104599969,176.349104599969,176.349104599969,176.349104599969,176.349104599969,176.349104599969,176.349104599969,176.349104599969,176.349104599969,176.70247519999975,176.70247519999975,176.70247519999975,176.70247519999975,176.70247519999975,176.70247519999975,176.70247519999975,176.70247519999975,176.70247519999975,23,0,,,176.70247519999975,176.90279999998165,1000,176.90279999998165,1000,1000,1000,1000,1,num_2,0.6141551000182517,,24,9,2026-03-04_15h58.19.694,2026A_exp2,2022.2.4,59.86507609556201,
1,0,6.1,6.1,0,0,49,49,27,,,,,177.53636690002168,178.18722139997408,178.18722139997408,178.68830709997565,45,45,178.68830709997565,178.68830709997565,178.68830709997565,178.68830709997565,178.68830709997565,178.68830709997565,178.68830709997565,178.68830709997565,178.68830709997565,179.05467649997445,179.05467649997445,179.05467649997445,179.05467649997445,179.05467649997445,179.05467649997445,179.05467649997445,179.05467649997445,179.05467649997445,23,0,,,179.05467649997445,179.25493799999822,6.1,179.25493799999822,1,6.1,1,1,1000,num_4,0.7656268999562599,,24,9,2026-03-04_15h58.19.694,2026A_exp2,2022.2.4,59.86507609556201,
1000,1,6.1,3.7,0,0,50,50,18,,,,,180.0388440999668,180.68964759999653,180.68964759999653,181.17414730001474,45,315,181.17414730001474,181.17414730001474,181.17414730001474,181.17414730001474,181.17414730001474,181.17414730001474,181.17414730001474,181.17414730001474,181.17414730001474,181.5404242000077,181.5404242000077,181.5404242000077,181.5404242000077,181.5404242000077,181.5404242000077,181.5404242000077,181.5404242000077,181.5404242000077,8,4,"[0.0012432000366970897, 0.13364760001422837, 0.23367540002800524, 0.33373900002334267]","[0.017390399996656924, 0.21699210000224411, 0.317251100030262, 0.3670964000048116]",181.5404242000077,181.74263400002383,1000,181.74263400002383,1000,1000,1000,1000,0,num_3,0.5491804999765009,,24,9,2026-03-04_15h58.19.694,2026A_exp2,2022.2.4,59.86507609556201,
1000,1,0.0,4.9,0,0,51,51,53,,,,,182.3079101999756,182.95852470002137,182.95852470002137,183.45980020001298,315,315,183.45980020001298,183.45980020001298,183.45980020001298,183.45980020001298,183.45980020001298,183.45980020001298,183.45980020001298,183.45980020001298,183.45980020001298,183.82617070002016,183.82617070002016,183.82617070002016,183.82617070002016,183.82617070002016,183.82617070002016,183.82617070002016,183.82617070002016,183.82617070002016,22,1,[0.0011958000250160694],[0.017361800011713058],183.82617070002016,184.02846050000517,1000,184.02846050000517,1000,1000,1000,1000,1,num_2,0.767372099973727,,24,9,2026-03-04_15h58.19.694,2026A_exp2,2022.2.4,59.86507609556201,
1000,1,0.0,6.1,1,0,52,52,19,,,,,184.82706460001646,185.48867049999535,185.48867049999535,185.98733229999198,45,315,185.98733229999198,185.98733229999198,185.98733229999198,185.98733229999198,185.98733229999198,185.98733229999198,185.98733229999198,185.98733229999198,185.98733229999198,186.32853749999776,186.32853749999776,186.32853749999776,186.32853749999776,186.32853749999776,186.32853749999776,186.32853749999776,186.32853749999776,186.32853749999776,22,0,,,186.32853749999776,186.53530200000387,1000,186.53530200000387,1000,1000,1000,1000,1,num_2,0.47710610000649467,,24,9,2026-03-04_15h58.19.694,2026A_exp2,2022.2.4,59.86507609556201,
1,0,4.9,3.7,1,0,53,53,26,,,,,187.02932500001043,187.6798572000116,187.6798572000116,188.18114499998046,315,45,188.18114499998046,188.18114499998046,188.18114499998046,188.18114499998046,188.18114499998046,188.18114499998046,188.18114499998046,188.18114499998046,188.18114499998046,188.5474775999901,188.5474775999901,188.5474775999901,188.5474775999901,188.5474775999901,188.5474775999901,188.5474775999901,188.5474775999901,188.5474775999901,15,3,"[0.01739130000350997, 0.06651739997323602, 0.16699489997699857]","[0.04979269998148084, 0.15042510000057518, 0.1836598999798298]",188.5474775999901,188.74787409999408,3.7,188.74787409999408,1,3.7,1,1,1000,num_4,1.1770900000119582,,24,9,2026-03-04_15h58.19.694,2026A_exp2,2022.2.4,59.86507609556201,
1,0,0.0,0.0,1,0,54,54,41,,,,,189.94877459999407,190.59928069997113,190.59928069997113,191.08388029999333,315,315,191.08388029999333,191.08388029999333,191.08388029999333,191.08388029999333,191.08388029999333,191.08388029999333,191.08388029999333,191.08388029999333,191.08388029999333,191.45045589999063,191.45045589999063,191.45045589999063,191.45045589999063,191.45045589999063,191.45045589999063,191.45045589999063,191.45045589999063,191.45045589999063,23,0,,,191.45045589999063,191.65069809998386,0.0,191.65069809998386,1,0.0,0,0,1000,num_4,0.7065177999902517,,24,9,2026-03-04_15h58.19.694,2026A_exp2,2022.2.4,59.86507609556201,
1,0,0.0,0.0,0,0,55,55,34,,,,,192.3847738999757,193.0185969999875,193.0185969999875,193.51976739999373,45,45,193.51976739999373,193.51976739999373,193.51976739999373,193.51976739999373,193.51976739999373,193.51976739999373,193.51976739999373,193.51976739999373,193.51976739999373,193.88625649997266,193.88625649997266,193.88625649997266,193.88625649997266,193.88625649997266,193.88625649997266,193.88625649997266,193.88625649997266,193.88625649997266,20,2,"[0.13378569995984435, 0.3173008000012487]","[0.16713369998615235, 0.3338357999455184]",193.88625649997266,194.08644749998348,0.0,194.08644749998348,0,0.0,0,1,1000,num_1,0.7746430999832228,,24,9,2026-03-04_15h58.19.694,2026A_exp2,2022.2.4,59.86507609556201,
1000,1,0.0,0.0,0,0,56,56,87,,,,,194.88717349997023,195.5378874000162,195.5378874000162,196.02219360001618,45,315,196.02219360001618,196.02219360001618,196.02219360001618,196.02219360001618,196.02219360001618,196.02219360001618,196.02219360001618,196.02219360001618,196.02219360001618,196.388525700022,196.388525700022,196.388525700022,196.388525700022,196.388525700022,196.388525700022,196.388525700022,196.388525700022,196.388525700022,1,1,[0.0016479999758303165],[0.366557199973613],196.388525700022,196.59069819998695,1000,196.59069819998695,1000,1000,1000,1000,0,num_3,2.0851029999903403,,24,9,2026-03-04_15h58.19.694,2026A_exp2,2022.2.4,59.86507609556201,
1000,1,0.0,0.0,0,0,57,57,7,,,,,198.69097659998806,199.3416869000066,199.3416869000066,199.84281070000725,45,45,199.84281070000725,199.84281070000725,199.84281070000725,199.84281070000725,199.84281070000725,199.84281070000725,199.84281070000725,199.84281070000725,199.84281070000725,200.20905790000688,200.20905790000688,200.20905790000688,200.20905790000688,200.20905790000688,200.20905790000688,200.20905790000688,200.20905790000688,200.20905790000688,23,0,,,200.20905790000688,200.41156290000072,1000,200.41156290000072,1000,1000,1000,1000,1,num_2,1.4564916999661364,,24,9,2026-03-04_15h58.19.694,2026A_exp2,2022.2.4,59.86507609556201,
1,0,0.0,3.7,0,0,58,58,61,,,,,201.8941255999962,202.54489820002345,202.54489820002345,203.0460322999861,45,45,203.0460322999861,203.0460322999861,203.0460322999861,203.0460322999861,203.0460322999861,203.0460322999861,203.0460322999861,203.0460322999861,203.0460322999861,203.39582380000502,203.39582380000502,203.39582380000502,203.39582380000502,203.39582380000502,203.39582380000502,203.39582380000502,203.39582380000502,203.39582380000502,20,2,"[0.08352490002289414, 0.11694470001384616]","[0.10023819998605177, 0.13367140002083033]",203.39582380000502,203.5958787999698,0.0,203.6126176000107,0,0.0,0,1,1000,num_1,1.2153767999843694,,24,9,2026-03-04_15h58.19.694,2026A_exp2,2022.2.4,59.86507609556201,
1000,1,0.0,0.0,1,0,59,59,60,,,,,204.84703549998812,205.49794410000322,205.49794410000322,205.98230899998453,45,315,205.98230899998453,205.98230899998453,205.98230899998453,205.98230899998453,205.98230899998453,205.98230899998453,205.98230899998453,205.98230899998453,205.98230899998453,206.34870219998993,206.34870219998993,206.34870219998993,206.34870219998993,206.34870219998993,206.34870219998993,206.34870219998993,206.34870219998993,206.34870219998993,22,1,[0.20034830004442483],[0.2170062000514008],206.34870219998993,206.550817499985,1000,206.550817499985,1000,1000,1000,1000,0,num_3,0.8943041000165977,,24,9,2026-03-04_15h58.19.694,2026A_exp2,2022.2.4,59.86507609556201,
1000,1,6.1,4.9,0,0,60,60,68,,,,,207.466411100002,208.11706060002325,208.11706060002325,208.6182426000014,45,45,208.6182426000014,208.6182426000014,208.6182426000014,208.6182426000014,208.6182426000014,208.6182426000014,208.6182426000014,208.6182426000014,208.6182426000014,208.98460510000587,208.98460510000587,208.98460510000587,208.98460510000587,208.98460510000587,208.98460510000587,208.98460510000587,208.98460510000587,208.98460510000587,23,0,,,208.98460510000587,209.18505769997137,1000,209.18505769997137,1000,1000,1000,1000,0,num_3,0.45077409996883944,,24,9,2026-03-04_15h58.19.694,2026A_exp2,2022.2.4,59.86507609556201,
0,0,6.1,0.0,1,0,61,61,30,,,,,209.65193130000262,210.3027031000238,210.3027031000238,210.80388530000346,45,315,210.80388530000346,210.80388530000346,210.80388530000346,210.80388530000346,210.80388530000346,210.80388530000346,210.80388530000346,210.80388530000346,210.80388530000346,211.17015040002298,211.17015040002298,211.17015040002298,211.17015040002298,211.17015040002298,211.17015040002298,211.17015040002298,211.17015040002298,211.17015040002298,0,1,[0.0007515000179409981],[0.3678836000035517],211.17015040002298,211.3702036999748,6.1,211.3702036999748,1,6.1,1,1,1000,num_4,0.6818004000233486,,24,9,2026-03-04_15h58.19.694,2026A_exp2,2022.2.4,59.86507609556201,
1,0,3.7,3.7,1,0,62,62,86,,,,,212.07100080000237,212.72169259999646,212.72169259999646,213.20619860000443,45,45,213.20619860000443,213.20619860000443,213.20619860000443,213.20619860000443,213.20619860000443,213.20619860000443,213.20619860000443,213.20619860000443,213.20619860000443,213.5723879999714,213.5723879999714,213.5723879999714,213.5723879999714,213.5723879999714,213.5723879999714,213.5723879999714,213.5723879999714,213.5723879999714,23,0,,,213.5723879999714,213.77264460001606,3.7,213.77264460001606,0,3.7,1,0,1000,num_1,0.9593395999982022,,24,9,2026-03-04_15h58.19.694,2026A_exp2,2022.2.4,59.86507609556201,
0,0,0.0,3.7,0,0,63,63,83,,,,,214.7569770999835,215.40776029997505,215.40776029997505,215.89208119997056,45,315,215.89208119997056,215.89208119997056,215.89208119997056,215.89208119997056,215.89208119997056,215.89208119997056,215.89208119997056,215.89208119997056,215.89208119997056,216.25855229998706,216.25855229998706,216.25855229998706,216.25855229998706,216.25855229998706,216.25855229998706,216.25855229998706,216.25855229998706,216.25855229998706,23,0,,,216.25855229998706,216.45869759999914,3.7,216.45869759999914,1,3.7,1,1,1000,num_4,0.6335192000260577,,24,9,2026-03-04_15h58.19.694,2026A_exp2,2022.2.4,59.86507609556201,
0,0,0.0,3.7,0,0,64,64,47,,,,,217.1092670999933,217.76006770000095,217.76006770000095,218.24440670001786,45,45,218.24440670001786,218.24440670001786,218.24440670001786,218.24440670001786,218.24440670001786,218.24440670001786,218.24440670001786,218.24440670001786,218.24440670001786,218.61087530001532,218.61087530001532,218.61087530001532,218.61087530001532,218.61087530001532,218.61087530001532,218.61087530001532,218.61087530001532,218.61087530001532,0,1,[0.0012208999833092093],[0.3672124999575317],218.61087530001532,218.81117379997158,3.7,218.81117379997158,1,3.7,1,1,1000,num_4,0.8175957999774255,,24,9,2026-03-04_15h58.19.694,2026A_exp2,2022.2.4,59.86507609556201,
1000,1,0.0,3.7,0,0,65,65,57,,,,,219.64538509998238,220.29591869999422,220.29591869999422,220.780254399986,315,45,220.780254399986,220.780254399986,220.780254399986,220.780254399986,220.780254399986,220.780254399986,220.780254399986,220.780254399986,220.780254399986,221.14683179999702,221.14683179999702,221.14683179999702,221.14683179999702,221.14683179999702,221.14683179999702,221.14683179999702,221.14683179999702,221.14683179999702,0,1,[0.0012036999687552452],[0.3671777999843471],221.14683179999702,221.3491636000108,1000,221.3491636000108,1000,1000,1000,1000,1,num_2,3.174884899985045,,24,9,2026-03-04_15h58.19.694,2026A_exp2,2022.2.4,59.86507609556201,
1,0,3.7,6.1,1,0,66,66,77,,,,,224.55016039998736,225.20082039997214,225.20082039997214,225.70153839996783,315,315,225.70153839996783,225.70153839996783,225.70153839996783,225.70153839996783,225.70153839996783,225.70153839996783,225.70153839996783,225.70153839996783,225.70153839996783,226.06840910000028,226.06840910000028,226.06840910000028,226.06840910000028,226.06840910000028,226.06840910000028,226.06840910000028,226.06840910000028,226.06840910000028,0,1,[0.001261900004465133],[0.3672016999917105],226.06840910000028,226.26861189998453,6.1,226.26861189998453,1,6.1,1,1,1000,num_4,0.767714999965392,,24,9,2026-03-04_15h58.19.694,2026A_exp2,2022.2.4,59.86507609556201,
1000,1,6.1,0.0,0,0,67,67,59,,,,,227.05263779999223,227.70322259998647,227.70322259998647,228.18777620000765,45,45,228.18777620000765,228.18777620000765,228.18777620000765,228.18777620000765,228.18777620000765,228.18777620000765,228.18777620000765,228.18777620000765,228.18777620000765,228.55399519996718,228.55399519996718,228.55399519996718,228.55399519996718,228.55399519996718,228.55399519996718,228.55399519996718,228.55399519996718,228.55399519996718,0,1,[0.0012166000087745488],[0.3670720000518486],228.55399519996718,228.75614780001342,1000,228.75614780001342,1000,1000,1000,1000,0,num_3,1.1125058999750763,,24,9,2026-03-04_15h58.19.694,2026A_exp2,2022.2.4,59.86507609556201,
1,0,0.0,0.0,0,0,68,68,51,,,,,229.88874969998142,230.53950449998956,230.53950449998956,231.04049179999856,45,315,231.04049179999856,231.04049179999856,231.04049179999856,231.04049179999856,231.04049179999856,231.04049179999856,231.04049179999856,231.04049179999856,231.04049179999856,231.40703120001126,231.40703120001126,231.40703120001126,231.40703120001126,231.40703120001126,231.40703120001126,231.40703120001126,231.40703120001126,231.40703120001126,0,1,[0.0015296999481506646],[0.36681479995604604],231.40703120001126,231.60732080001617,0.0,231.60732080001617,1,0.0,0,0,1000,num_4,0.7976099000079557,,24,9,2026-03-04_15h58.19.694,2026A_exp2,2022.2.4,59.86507609556201,
0,0,0.0,0.0,0,0,69,69,22,,,,,232.4245968000032,233.07530809997115,233.07530809997115,233.55984900001204,315,45,233.55984900001204,233.55984900001204,233.55984900001204,233.55984900001204,233.55984900001204,233.55984900001204,233.55984900001204,233.55984900001204,233.55984900001204,233.92631020001136,233.92631020001136,233.92631020001136,233.92631020001136,233.92631020001136,233.92631020001136,233.92631020001136,233.92631020001136,233.92631020001136,0,1,[0.0012308000004850328],[0.3671617000363767],233.92631020001136,234.12640369997825,0.0,234.12640369997825,0,0.0,0,1,1000,num_1,0.9579318999894895,,24,9,2026-03-04_15h58.19.694,2026A_exp2,2022.2.4,59.86507609556201,
1,0,4.9,3.7,0,0,70,70,63,,,,,235.11063499999,235.76144249999197,235.76144249999197,236.2624123999849,45,45,236.2624123999849,236.2624123999849,236.2624123999849,236.2624123999849,236.2624123999849,236.2624123999849,236.2624123999849,236.2624123999849,236.2624123999849,236.62885390000883,236.62885390000883,236.62885390000883,236.62885390000883,236.62885390000883,236.62885390000883,236.62885390000883,236.62885390000883,236.62885390000883,0,1,[0.001220500038471073],[0.36729180003749207],236.62885390000883,236.8289985000156,4.9,236.8289985000156,1,4.9,1,1,1000,num_4,0.7596914999885485,,24,9,2026-03-04_15h58.19.694,2026A_exp2,2022.2.4,59.86507609556201,
1,0,4.9,4.9,0,0,71,71,39,,,,,237.61318829999072,238.26383000001078,238.26383000001078,238.748396400013,315,315,238.748396400013,238.748396400013,238.748396400013,238.748396400013,238.748396400013,238.748396400013,238.748396400013,238.748396400013,238.748396400013,239.11471799999708,239.11471799999708,239.11471799999708,239.11471799999708,239.11471799999708,239.11471799999708,239.11471799999708,239.11471799999708,239.11471799999708,0,1,[0.0012315000058151782],[0.36714210000354797],239.11471799999708,239.31491479999386,4.9,239.31491479999386,1,4.9,1,1,1000,num_4,0.7534850999945775,,24,9,2026-03-04_15h58.19.694,2026A_exp2,2022.2.4,59.86507609556201,
1000,1,0.0,6.1,1,0,72,72,3,,,,,240.0989601999754,240.74970059999032,240.74970059999032,241.23464989999775,45,45,241.23464989999775,241.23464989999775,241.23464989999775,241.23464989999775,241.23464989999775,241.23464989999775,241.23464989999775,241.23464989999775,241.23464989999775,241.60054479999235,241.60054479999235,241.60054479999235,241.60054479999235,241.60054479999235,241.60054479999235,241.60054479999235,241.60054479999235,241.60054479999235,0,1,[0.0018613999709486961],[0.3660200000158511],241.60054479999235,241.8025934000034,1000,241.8025934000034,1000,1000,1000,1000,1,num_2,0.7774320999742486,,24,9,2026-03-04_15h58.19.694,2026A_exp2,2022.2.4,59.86507609556201,
1000,1,3.7,4.9,0,0,73,73,64,,,,,242.60144050000235,243.2523019000073,243.2523019000073,243.7533706999966,45,315,243.7533706999966,243.7533706999966,243.7533706999966,243.7533706999966,243.7533706999966,243.7533706999966,243.7533706999966,243.7533706999966,243.7533706999966,244.10308239998994,244.10308239998994,244.10308239998994,244.10308239998994,244.10308239998994,244.10308239998994,244.10308239998994,244.10308239998994,244.10308239998994,0,1,[0.0012190000270493329],[0.3502648000139743],244.10308239998994,244.30500900000334,1000,244.32008859998314,1000,1000,1000,1000,1,num_2,1.220282500027679,,24,9,2026-03-04_15h58.19.694,2026A_exp2,2022.2.4,59.86507609556201,
1,0,6.1,4.9,0,0,74,74,81,,,,,245.57159230002435,246.22178630001144,246.22178630001144,246.72295590001158,45,315,246.72295590001158,246.72295590001158,246.72295590001158,246.72295590001158,246.72295590001158,246.72295590001158,246.72295590001158,246.72295590001158,246.72295590001158,247.08929249999346,247.08929249999346,247.08929249999346,247.08929249999346,247.08929249999346,247.08929249999346,247.08929249999346,247.08929249999346,247.08929249999346,0,1,[0.0012411000207066536],[0.3670712999883108],247.08929249999346,247.28962579998188,6.1,247.28962579998188,1,6.1,1,1,1000,num_4,0.6993156999815255,,24,9,2026-03-04_15h58.19.694,2026A_exp2,2022.2.4,59.86507609556201,
0,0,0.0,0.0,1,0,75,75,38,,,,,248.00687510002172,248.65751280001132,248.65751280001132,249.14208720001625,45,45,249.14208720001625,249.14208720001625,249.14208720001625,249.14208720001625,249.14208720001625,249.14208720001625,249.14208720001625,249.14208720001625,249.14208720001625,249.50834090000717,249.50834090000717,249.50834090000717,249.50834090000717,249.50834090000717,249.50834090000717,249.50834090000717,249.50834090000717,249.50834090000717,0,1,[0.0012061999877914786],[0.36711409996496513],249.50834090000717,249.7086497999844,0.0,249.7086497999844,0,0.0,0,1,1000,num_1,0.8721304999780841,,24,9,2026-03-04_15h58.19.694,2026A_exp2,2022.2.4,59.86507609556201,
1000,1,0.0,4.9,0,0,76,76,5,,,,,250.6096344999969,251.26010580000002,251.26010580000002,251.74474529997678,45,45,251.74474529997678,251.74474529997678,251.74474529997678,251.74474529997678,251.74474529997678,251.74474529997678,251.74474529997678,251.74474529997678,251.74474529997678,252.11103999998886,252.11103999998886,252.11103999998886,252.11103999998886,252.11103999998886,252.11103999998886,252.11103999998886,252.11103999998886,252.11103999998886,0,1,[0.001243000035174191],[0.3671538000344299],252.11103999998886,252.31312730000354,1000,252.31312730000354,1000,1000,1000,1000,1,num_2,0.6274260999634862,,24,9,2026-03-04_15h58.19.694,2026A_exp2,2022.2.4,59.86507609556201,
1,0,3.7,0.0,1,0,77,77,28,,,,,252.961897399975,253.61260739999125,253.61260739999125,254.11376290000044,45,45,254.11376290000044,254.11376290000044,254.11376290000044,254.11376290000044,254.11376290000044,254.11376290000044,254.11376290000044,254.11376290000044,254.11376290000044,254.48016089998418,254.48016089998418,254.48016089998418,254.48016089998418,254.48016089998418,254.48016089998418,254.48016089998418,254.48016089998418,254.48016089998418,11,2,"[0.001240600016899407, 0.30041910003637895]","[0.18372030003229156, 0.3171616999898106]",254.48016089998418,254.68038149998756,0.0,254.68038149998756,0,0.0,0,1,1000,num_1,1.1482362999813631,,24,9,2026-03-04_15h58.19.694,2026A_exp2,2022.2.4,59.86507609556201,
1000,1,3.7,4.9,1,0,78,78,20,,,,,255.84808809997048,256.4986342000193,256.4986342000193,256.9832575999899,315,45,256.9832575999899,256.9832575999899,256.9832575999899,256.9832575999899,256.9832575999899,256.9832575999899,256.9832575999899,256.9832575999899,256.9832575999899,257.34965400001965,257.34965400001965,257.34965400001965,257.34965400001965,257.34965400001965,257.34965400001965,257.34965400001965,257.34965400001965,257.34965400001965,0,1,[0.0012487000203691423],[0.36709010001504794],257.34965400001965,257.5501016000053,1000,257.5501016000053,1000,1000,1000,1000,0,num_3,1.27921750000678,,24,9,2026-03-04_15h58.19.694,2026A_exp2,2022.2.4,59.86507609556201,
1000,1,0.0,6.1,0,0,79,79,35,,,,,258.85099030000856,259.50173670001095,259.50173670001095,260.0028524000081,315,315,260.0028524000081,260.0028524000081,260.0028524000081,260.0028524000081,260.0028524000081,260.0028524000081,260.0028524000081,260.0028524000081,260.0028524000081,260.3527823999757,260.3527823999757,260.3527823999757,260.3527823999757,260.3527823999757,260.3527823999757,260.3527823999757,260.3527823999757,260.3527823999757,0,1,[0.001233799965120852],[0.3502959999605082],260.3527823999757,260.56085150002036,1000,260.56085150002036,1000,1000,1000,1000,1,num_2,0.6115152999991551,,24,9,2026-03-04_15h58.19.694,2026A_exp2,2022.2.4,59.86507609556201,
1,0,0.0,0.0,0,0,80,80,44,,,,,261.2036158000119,261.85408959997585,261.85408959997585,262.3551209999714,315,45,262.3551209999714,262.3551209999714,262.3551209999714,262.3551209999714,262.3551209999714,262.3551209999714,262.3551209999714,262.3551209999714,262.3551209999714,262.7049712999724,262.7049712999724,262.7049712999724,262.7049712999724,262.7049712999724,262.7049712999724,262.7049712999724,262.7049712999724,262.7049712999724,6,2,"[0.05029459996148944, 0.21724229998653755]","[0.2006365999695845, 0.3342904999735765]",262.7049712999724,262.9052541999845,0.0,262.9052541999845,0,0.0,0,1,1000,num_1,1.9550561999785714,,24,9,2026-03-04_15h58.19.694,2026A_exp2,2022.2.4,59.86507609556201,
1000,1,6.1,0.0,0,0,81,81,89,,,,,264.8906210999703,265.5411882000044,265.5411882000044,266.0256085000001,315,45,266.0256085000001,266.0256085000001,266.0256085000001,266.0256085000001,266.0256085000001,266.0256085000001,266.0256085000001,266.0256085000001,266.0256085000001,266.39206370001193,266.39206370001193,266.39206370001193,266.39206370001193,266.39206370001193,266.39206370001193,266.39206370001193,266.39206370001193,266.39206370001193,7,3,"[0.001235899981111288, 0.18383280001580715, 0.30045749997952953]","[0.1506019000080414, 0.2505552999791689, 0.35081350000109524]",266.39206370001193,266.5940691999858,1000,266.5940691999858,1000,1000,1000,1000,0,num_3,0.5949236000305973,,24,9,2026-03-04_15h58.19.694,2026A_exp2,2022.2.4,59.86507609556201,
1,0,0.0,6.1,0,0,82,82,43,,,,,267.2094865000108,267.86000849999255,267.86000849999255,268.3613480000058,45,315,268.3613480000058,268.3613480000058,268.3613480000058,268.3613480000058,268.3613480000058,268.3613480000058,268.3613480000058,268.3613480000058,268.3613480000058,268.7110212999978,268.7110212999978,268.7110212999978,268.7110212999978,268.7110212999978,268.7110212999978,268.7110212999978,268.7110212999978,268.7110212999978,0,1,[0.0012105000205338001],[0.3506440999917686],268.7110212999978,268.9111912000226,0.0,268.9279273999855,0,0.0,0,1,1000,num_1,1.9562477000290528,,24,9,2026-03-04_15h58.19.694,2026A_exp2,2022.2.4,59.86507609556201,
1000,1,0.0,0.0,0,0,83,83,45,,,,,270.9130928000086,271.56369129999075,271.56369129999075,272.04816459998256,45,45,272.04816459998256,272.04816459998256,272.04816459998256,272.04816459998256,272.04816459998256,272.04816459998256,272.04816459998256,272.04816459998256,272.04816459998256,272.4145676000044,272.4145676000044,272.4145676000044,272.4145676000044,272.4145676000044,272.4145676000044,272.4145676000044,272.4145676000044,272.4145676000044,0,1,[0.001270499953534454],[0.3673203999642283],272.4145676000044,272.61511110002175,1000,272.61511110002175,1000,1000,1000,1000,1,num_2,0.8299927999614738,,24,9,2026-03-04_15h58.19.694,2026A_exp2,2022.2.4,59.86507609556201,
1000,1,0.0,4.9,1,0,84,84,55,,,,,273.46565889997873,274.1162995999912,274.1162995999912,274.61762019997695,45,45,274.61762019997695,274.61762019997695,274.61762019997695,274.61762019997695,274.61762019997695,274.61762019997695,274.61762019997695,274.61762019997695,274.61762019997695,274.98392700002296,274.98392700002296,274.98392700002296,274.98392700002296,274.98392700002296,274.98392700002296,274.98392700002296,274.98392700002296,274.98392700002296,1,2,"[0.0012153999996371567, 0.1335689999978058]","[0.1166104999720119, 0.36721709999255836]",274.98392700002296,275.1843681000173,1000,275.1843681000173,1000,1000,1000,1000,1,num_2,1.6525266999960877,,24,9,2026-03-04_15h58.19.694,2026A_exp2,2022.2.4,59.86507609556201,
1000,1,0.0,4.9,1,0,85,85,78,,,,,276.85247179999715,277.5031906000222,277.5031906000222,278.0043375000241,45,315,278.0043375000241,278.0043375000241,278.0043375000241,278.0043375000241,278.0043375000241,278.0043375000241,278.0043375000241,278.0043375000241,278.0043375000241,278.37043589999666,278.37043589999666,278.37043589999666,278.37043589999666,278.37043589999666,278.37043589999666,278.37043589999666,278.37043589999666,278.37043589999666,0,1,[0.001240300014615059],[0.36712299997452646],278.37043589999666,278.57272729999386,1000,278.57272729999386,1000,1000,1000,1000,1,num_2,1.088542099983897,,24,9,2026-03-04_15h58.19.694,2026A_exp2,2022.2.4,59.86507609556201,
1,0,4.9,3.7,0,0,86,86,9,,,,,279.68872360000387,280.3393598999828,280.3393598999828,280.8403428000165,315,315,280.8403428000165,280.8403428000165,280.8403428000165,280.8403428000165,280.8403428000165,280.8403428000165,280.8403428000165,280.8403428000165,280.8403428000165,281.1901055999915,281.1901055999915,281.1901055999915,281.1901055999915,281.1901055999915,281.1901055999915,281.1901055999915,281.1901055999915,281.1901055999915,0,1,[0.0012194000300951302],[0.3505904999910854],281.1901055999915,281.3904040000052,4.9,281.3904040000052,1,4.9,1,1,1000,num_4,0.8540342999622226,,24,9,2026-03-04_15h58.19.694,2026A_exp2,2022.2.4,59.86507609556201,
1000,1,0.0,0.0,0,0,87,87,72,,,,,282.2744871000177,282.9251732999692,282.9251732999692,283.409542599984,315,45,283.409542599984,283.409542599984,283.409542599984,283.409542599984,283.409542599984,283.409542599984,283.409542599984,283.409542599984,283.409542599984,283.77589920000173,283.77589920000173,283.77589920000173,283.77589920000173,283.77589920000173,283.77589920000173,283.77589920000173,283.77589920000173,283.77589920000173,0,1,[0.0012048000353388488],[0.36724540003342554],283.77589920000173,283.978345600015,1000,283.978345600015,1000,1000,1000,1000,1,num_2,0.6900202999822795,,24,9,2026-03-04_15h58.19.694,2026A_exp2,2022.2.4,59.86507609556201,
1000,1,3.7,4.9,0,0,88,88,80,,,,,284.6938051999896,285.34439749998273,285.34439749998273,285.84534389997134,45,45,285.84534389997134,285.84534389997134,285.84534389997134,285.84534389997134,285.84534389997134,285.84534389997134,285.84534389997134,285.84534389997134,285.84534389997134,286.1952224000124,286.1952224000124,286.1952224000124,286.1952224000124,286.1952224000124,286.1952224000124,286.1952224000124,286.1952224000124,286.1952224000124,7,5,"[0.05034680000972003, 0.13377860002219677, 0.16717510001035407, 0.20044059999054298, 0.2504641000414267]","[0.11718950001522899, 0.15045180002925918, 0.18394270003773272, 0.23382700001820922, 0.35074260004330426]",286.1952224000124,286.3970956999692,1000,286.4119696000125,1000,1000,1000,1000,1,num_2,0.912988799973391,,24,9,2026-03-04_15h58.19.694,2026A_exp2,2022.2.4,59.86507609556201,
1000,1,0.0,6.1,0,0,89,89,75,,,,,287.3464375999756,287.99696109996876,287.99696109996876,288.48134080000455,45,315,288.48134080000455,288.48134080000455,288.48134080000455,288.48134080000455,288.48134080000455,288.48134080000455,288.48134080000455,288.48134080000455,288.48134080000455,288.84778259997256,288.84778259997256,288.84778259997256,288.84778259997256,288.84778259997256,288.84778259997256,288.84778259997256,288.84778259997256,288.84778259997256,0,1,[0.0013192000333219767],[0.3666666999924928],288.84778259997256,289.0510438000201,1000,289.0510438000201,1000,1000,1000,1000,1,num_2,0.45812759996624663,,24,9,2026-03-04_15h58.19.694,2026A_exp2,2022.2.4,59.86507609556201,
,,,,,,,,,,,,,,,,,,,,,,,,,,,,,,,,,,,,,,,,,,,,,,,,,,,,289.5421855999739,,,,,,,
