validity,detectorcomp,contrastCW,contrastCCW,precueCWorCCW,block_80trials.thisRepN,block_80trials.thisTrialN,block_80trials.thisN,block_80trials.thisIndex,etRecord.started,etRecord.stopped,text.started,text.stopped,text_4.started,text_4.stopped,text_6.started,text_6.stopped,oriCW,oriCCW,roi_2.started,grating_UR.started,grating_UL.started,grating_LR.started,grating_LL.started,noise_UR.started,noise_UL.started,noise_LR.started,noise_LL.started,roi_2.stopped,grating_UR.stopped,grating_UL.stopped,grating_LR.stopped,grating_LL.stopped,noise_UR.stopped,noise_UL.stopped,noise_LR.stopped,noise_LL.stopped,outframe,roi_2.numLooks,roi_2.timesOn,roi_2.timesOff,text_2.started,text_2.stopped,probedcontrast,key_resp.started,respdetect,relevantContrast,correctDetect,TorFdetect,respCWorCCW,key_resp.keys,key_resp.rt,feedback_display_.started,participantNo,blockNo,date,expName,psychopyVersion,frameRate,
1,0,4.9,0.0,0,0,0,0,57,3.300001844763756e-05,3.300001844763756e-05,43.57832620013505,45.58418120001443,45.58418120001443,46.21850230009295,46.21850230009295,46.737853799946606,45,45,46.737853799946606,46.737853799946606,46.737853799946606,46.737853799946606,46.737853799946606,46.737853799946606,46.737853799946606,46.737853799946606,46.737853799946606,47.08610239997506,47.08610239997506,47.08610239997506,47.08610239997506,47.08610239997506,47.08610239997506,47.08610239997506,47.08610239997506,47.08610239997506,0,1,[0.0009574999567121267],[0.3671675000805408],47.08610239997506,47.286298000020906,4.9,47.286298000020906,0,4.9,1,0,1000,num_1,0.8790492000989616,,31,14,2026-03-12_14h32.05.800,2026A_exp2,2022.2.4,59.92818204999257,
1000,1,6.1,3.7,0,0,1,1,43,,,,,48.18719379999675,48.83780189999379,48.83780189999379,49.32213330012746,45,315,49.32213330012746,49.32213330012746,49.32213330012746,49.32213330012746,49.32213330012746,49.32213330012746,49.32213330012746,49.32213330012746,49.32213330012746,49.68868170003407,49.68868170003407,49.68868170003407,49.68868170003407,49.68868170003407,49.68868170003407,49.68868170003407,49.68868170003407,49.68868170003407,0,1,[0.0012749999295920134],[0.3672690000385046],49.68868170003407,49.89354720013216,1000,49.89354720013216,1000,1000,1000,1000,0,num_3,0.6466419999487698,,31,14,2026-03-12_14h32.05.800,2026A_exp2,2022.2.4,59.92818204999257,
0,0,4.9,3.7,1,0,2,2,13,,,,,50.55630680010654,51.206759199965745,51.206759199965745,51.707843699958175,315,45,51.707843699958175,51.707843699958175,51.707843699958175,51.707843699958175,51.707843699958175,51.707843699958175,51.707843699958175,51.707843699958175,51.707843699958175,52.07418320002034,52.07418320002034,52.07418320002034,52.07418320002034,52.07418320002034,52.07418320002034,52.07418320002034,52.07418320002034,52.07418320002034,6,1,[0.1001029999461025],[0.3668120000511408],52.07418320002034,52.274557900149375,4.9,52.274557900149375,1,4.9,1,1,1000,num_4,0.7784446000587195,,31,14,2026-03-12_14h32.05.800,2026A_exp2,2022.2.4,59.92818204999257,
1,0,0.0,0.0,0,0,3,3,64,,,,,53.07546970015392,53.72598660015501,53.72598660015501,54.21027690009214,45,45,54.21027690009214,54.21027690009214,54.21027690009214,54.21027690009214,54.21027690009214,54.21027690009214,54.21027690009214,54.21027690009214,54.21027690009214,54.57694000005722,54.57694000005722,54.57694000005722,54.57694000005722,54.57694000005722,54.57694000005722,54.57694000005722,54.57694000005722,54.57694000005722,4,3,"[0.0012570000253617764, 0.21698289993219078, 0.3501842999830842]","[0.2003460000269115, 0.3003233999479562, 0.3668684000149369]",54.57694000005722,54.77690639998764,0.0,54.77690639998764,0,0.0,0,1,1000,num_1,0.483782600145787,,31,14,2026-03-12_14h32.05.800,2026A_exp2,2022.2.4,59.92818204999257,
1,0,0.0,4.9,0,0,4,4,48,,,,,55.27761430013925,55.92822220013477,55.92822220013477,56.41251719999127,315,45,56.41251719999127,56.41251719999127,56.41251719999127,56.41251719999127,56.41251719999127,56.41251719999127,56.41251719999127,56.41251719999127,56.41251719999127,56.77910290006548,56.77910290006548,56.77910290006548,56.77910290006548,56.77910290006548,56.77910290006548,56.77910290006548,56.77910290006548,56.77910290006548,0,1,[0.0012412001378834248],[0.36736769997514784],56.77910290006548,56.97912760009058,0.0,56.97912760009058,0,0.0,0,1,1000,num_1,0.7929586998652667,,31,14,2026-03-12_14h32.05.800,2026A_exp2,2022.2.4,59.92818204999257,
0,0,0.0,6.1,1,0,5,5,84,,,,,57.79673120006919,58.44742580014281,58.44742580014281,58.93197050015442,315,45,58.93197050015442,58.93197050015442,58.93197050015442,58.93197050015442,58.93197050015442,58.93197050015442,58.93197050015442,58.93197050015442,58.93197050015442,59.29821190005168,59.29821190005168,59.29821190005168,59.29821190005168,59.29821190005168,59.29821190005168,59.29821190005168,59.29821190005168,59.29821190005168,0,1,[0.0012268999125808477],[0.3670771000906825],59.29821190005168,59.49850010010414,0.0,59.49850010010414,0,0.0,0,1,1000,num_1,0.7144865000154823,,31,14,2026-03-12_14h32.05.800,2026A_exp2,2022.2.4,59.92818204999257,
1,0,0.0,6.1,0,0,6,6,3,,,,,60.23232339997776,60.87552270013839,60.87552270013839,61.367517499951646,45,315,61.367517499951646,61.367517499951646,61.367517499951646,61.367517499951646,61.367517499951646,61.367517499951646,61.367517499951646,61.367517499951646,61.367517499951646,61.73402350000106,61.73402350000106,61.73402350000106,61.73402350000106,61.73402350000106,61.73402350000106,61.73402350000106,61.73402350000106,61.73402350000106,23,0,,,61.73402350000106,61.93437519995496,0.0,61.93437519995496,0,0.0,0,1,1000,num_1,0.7425248001236469,,31,14,2026-03-12_14h32.05.800,2026A_exp2,2022.2.4,59.92818204999257,
1000,1,0.0,0.0,0,0,7,7,33,,,,,62.70156039996073,63.36082289996557,63.36082289996557,63.85334750008769,315,315,63.85334750008769,63.85334750008769,63.85334750008769,63.85334750008769,63.85334750008769,63.85334750008769,63.85334750008769,63.85334750008769,63.85334750008769,64.21952169993892,64.21952169993892,64.21952169993892,64.21952169993892,64.21952169993892,64.21952169993892,64.21952169993892,64.21952169993892,64.21952169993892,0,1,[0.001376899890601635],[0.36735019995830953],64.21952169993892,64.41974169993773,1000,64.41974169993773,1000,1000,1000,1000,0,num_3,0.8403626000508666,,31,14,2026-03-12_14h32.05.800,2026A_exp2,2022.2.4,59.92818204999257,
1,0,0.0,0.0,0,0,8,8,87,,,,,65.28752889996395,65.9381057000719,65.9381057000719,66.43926459993236,315,315,66.43926459993236,66.43926459993236,66.43926459993236,66.43926459993236,66.43926459993236,66.43926459993236,66.43926459993236,66.43926459993236,66.43926459993236,66.78906930005178,66.78906930005178,66.78906930005178,66.78906930005178,66.78906930005178,66.78906930005178,66.78906930005178,66.78906930005178,66.78906930005178,0,1,[0.0012336999643594027],[0.3507331998553127],66.78906930005178,66.98916300013661,0.0,66.98916300013661,0,0.0,0,1,1000,num_1,0.7674584998749197,,31,14,2026-03-12_14h32.05.800,2026A_exp2,2022.2.4,59.92818204999257,
1000,1,4.9,3.7,1,0,9,9,46,,,,,67.77341319993138,68.40736560011283,68.40736560011283,68.90851070010103,315,45,68.90851070010103,68.90851070010103,68.90851070010103,68.90851070010103,68.90851070010103,68.90851070010103,68.90851070010103,68.90851070010103,68.90851070010103,69.27505060005933,69.27505060005933,69.27505060005933,69.27505060005933,69.27505060005933,69.27505060005933,69.27505060005933,69.27505060005933,69.27505060005933,0,1,[0.0012318999506533146],[0.3684858998749405],69.27505060005933,69.47940680012107,1000,69.47940680012107,1000,1000,1000,1000,0,num_3,0.4210435999557376,,31,14,2026-03-12_14h32.05.800,2026A_exp2,2022.2.4,59.92818204999257,
1000,1,4.9,4.9,0,0,10,10,6,,,,,69.9254405000247,70.57621970004402,70.57621970004402,71.07746660010889,45,45,71.07746660010889,71.07746660010889,71.07746660010889,71.07746660010889,71.07746660010889,71.07746660010889,71.07746660010889,71.07746660010889,71.07746660010889,71.42718290002085,71.42718290002085,71.42718290002085,71.42718290002085,71.42718290002085,71.42718290002085,71.42718290002085,71.42718290002085,71.42718290002085,0,1,[0.0007157002110034227],[0.35190670005977154],71.42718290002085,71.62903499999084,1000,71.6438965999987,1000,1000,1000,1000,1,num_2,0.7767629998270422,,31,14,2026-03-12_14h32.05.800,2026A_exp2,2022.2.4,59.92818204999257,
1000,1,4.9,3.7,0,0,11,11,26,,,,,72.44467090000398,73.09513549995609,73.09513549995609,73.6113142000977,45,45,73.6113142000977,73.6113142000977,73.6113142000977,73.6113142000977,73.6113142000977,73.6113142000977,73.6113142000977,73.6113142000977,73.6113142000977,73.96290550008416,73.96290550008416,73.96290550008416,73.96290550008416,73.96290550008416,73.96290550008416,73.96290550008416,73.96290550008416,73.96290550008416,11,5,"[0.08124570013023913, 0.14815180003643036, 0.19807130005210638, 0.2971926999744028, 0.36393270012922585]","[0.13160010008141398, 0.1816312000155449, 0.2638958999887109, 0.33056459994986653, 0.36393760005012155]",73.96290550008416,74.1770991999656,1000,74.1770991999656,1000,1000,1000,1000,0,num_3,0.37894770014099777,,31,14,2026-03-12_14h32.05.800,2026A_exp2,2022.2.4,59.92818204999257,
1,0,3.7,3.7,0,0,12,12,69,,,,,74.58012140006758,75.23071429994889,75.23071429994889,75.73185440013185,315,45,75.73185440013185,75.73185440013185,75.73185440013185,75.73185440013185,75.73185440013185,75.73185440013185,75.73185440013185,75.73185440013185,75.73185440013185,76.09836290008388,76.09836290008388,76.09836290008388,76.09836290008388,76.09836290008388,76.09836290008388,76.09836290008388,76.09836290008388,76.09836290008388,0,1,[0.0012129000388085842],[0.3665374999400228],76.09836290008388,76.29845270002261,3.7,76.29845270002261,1,3.7,1,1,1000,num_4,0.7622503999155015,,31,14,2026-03-12_14h32.05.800,2026A_exp2,2022.2.4,59.92818204999257,
1,0,6.1,3.7,1,0,13,13,45,,,,,77.08253000001423,77.7245939001441,77.7245939001441,78.21780650014989,315,315,78.21780650014989,78.21780650014989,78.21780650014989,78.21780650014989,78.21780650014989,78.21780650014989,78.21780650014989,78.21780650014989,78.21780650014989,78.5842726000119,78.5842726000119,78.5842726000119,78.5842726000119,78.5842726000119,78.5842726000119,78.5842726000119,78.5842726000119,78.5842726000119,0,1,[0.0012113999109715223],[0.36703919991850853],78.5842726000119,78.78439439996146,3.7,78.78439439996146,1,3.7,1,1,1000,num_4,1.092069299891591,,31,14,2026-03-12_14h32.05.800,2026A_exp2,2022.2.4,59.92818204999257,
1,0,3.7,4.9,0,0,14,14,70,,,,,79.90195329999551,80.55278110015206,80.55278110015206,81.03736980003305,45,315,81.03736980003305,81.03736980003305,81.03736980003305,81.03736980003305,81.03736980003305,81.03736980003305,81.03736980003305,81.03736980003305,81.03736980003305,81.40374949993566,81.40374949993566,81.40374949993566,81.40374949993566,81.40374949993566,81.40374949993566,81.40374949993566,81.40374949993566,81.40374949993566,0,1,[0.0011978000402450562],[0.3664748000446707],81.40374949993566,81.60382830002345,3.7,81.60382830002345,1,3.7,1,1,1000,num_4,1.0402543002273887,,31,14,2026-03-12_14h32.05.800,2026A_exp2,2022.2.4,59.92818204999257,
1,0,6.1,0.0,0,0,15,15,58,,,,,82.67170500010252,83.32801840011962,83.32801840011962,83.8234651000239,315,45,83.8234651000239,83.8234651000239,83.8234651000239,83.8234651000239,83.8234651000239,83.8234651000239,83.8234651000239,83.8234651000239,83.8234651000239,84.18963959999382,84.18963959999382,84.18963959999382,84.18963959999382,84.18963959999382,84.18963959999382,84.18963959999382,84.18963959999382,84.18963959999382,0,1,[0.0012095000129193068],[0.36708940006792545],84.18963959999382,84.3899825999979,6.1,84.3899825999979,1,6.1,1,1,1000,num_4,0.43007520004175603,,31,14,2026-03-12_14h32.05.800,2026A_exp2,2022.2.4,59.92818204999257,
1,0,4.9,0.0,0,0,16,16,14,,,,,84.84029830014333,85.4910931000486,85.4910931000486,85.97559730010107,45,315,85.97559730010107,85.97559730010107,85.97559730010107,85.97559730010107,85.97559730010107,85.97559730010107,85.97559730010107,85.97559730010107,85.97559730010107,86.34189400007017,86.34189400007017,86.34189400007017,86.34189400007017,86.34189400007017,86.34189400007017,86.34189400007017,86.34189400007017,86.34189400007017,0,1,[0.0012219001073390245],[0.36719710007309914],86.34189400007017,86.54203539993614,4.9,86.54203539993614,1,4.9,1,1,1000,num_4,0.982799299992621,,31,14,2026-03-12_14h32.05.800,2026A_exp2,2022.2.4,59.92818204999257,
1000,1,0.0,0.0,1,0,17,17,37,,,,,87.54299110011198,88.19374909996986,88.19374909996986,88.6781401000917,315,315,88.6781401000917,88.6781401000917,88.6781401000917,88.6781401000917,88.6781401000917,88.6781401000917,88.6781401000917,88.6781401000917,88.6781401000917,89.04469450004399,89.04469450004399,89.04469450004399,89.04469450004399,89.04469450004399,89.04469450004399,89.04469450004399,89.04469450004399,89.04469450004399,0,1,[0.001204600092023611],[0.36711070011369884],89.04469450004399,89.24685809994116,1000,89.24685809994116,1000,1000,1000,1000,0,num_3,0.7744962000288069,,31,14,2026-03-12_14h32.05.800,2026A_exp2,2022.2.4,59.92818204999257,
1000,1,4.9,6.1,1,0,18,18,4,,,,,90.045612399932,90.69629280013032,90.69629280013032,91.19726560008712,315,45,91.19726560008712,91.19726560008712,91.19726560008712,91.19726560008712,91.19726560008712,91.19726560008712,91.19726560008712,91.19726560008712,91.19726560008712,91.5638353000395,91.5638353000395,91.5638353000395,91.5638353000395,91.5638353000395,91.5638353000395,91.5638353000395,91.5638353000395,91.5638353000395,0,1,[0.0012193999718874693],[0.36707929987460375],91.5638353000395,91.7642236999236,1000,91.7642236999236,1000,1000,1000,1000,1,num_2,0.7838177001103759,,31,14,2026-03-12_14h32.05.800,2026A_exp2,2022.2.4,59.92818204999257,
1000,1,4.9,6.1,0,0,19,19,35,,,,,92.56478490005247,93.21535800001584,93.21535800001584,93.71665520011447,45,45,93.71665520011447,93.71665520011447,93.71665520011447,93.71665520011447,93.71665520011447,93.71665520011447,93.71665520011447,93.71665520011447,93.71665520011447,94.08326840004884,94.08326840004884,94.08326840004884,94.08326840004884,94.08326840004884,94.08326840004884,94.08326840004884,94.08326840004884,94.08326840004884,0,1,[0.0012082001194357872],[0.36824239999987185],94.08326840004884,94.28303580009378,1000,94.28303580009378,1000,1000,1000,1000,1,num_2,0.3773668999783695,,31,14,2026-03-12_14h32.05.800,2026A_exp2,2022.2.4,59.92818204999257,
1,0,0.0,6.1,1,0,20,20,39,,,,,94.6838257999625,95.317602599971,95.317602599971,95.81874190014787,45,45,95.81874190014787,95.81874190014787,95.81874190014787,95.81874190014787,95.81874190014787,95.81874190014787,95.81874190014787,95.81874190014787,95.81874190014787,96.18493949994445,96.18493949994445,96.18493949994445,96.18493949994445,96.18493949994445,96.18493949994445,96.18493949994445,96.18493949994445,96.18493949994445,0,1,[0.0012389998883008957],[0.3670882999431342],96.18493949994445,96.38529959996231,6.1,96.38529959996231,1,6.1,1,1,1000,num_4,0.7157203000970185,,31,14,2026-03-12_14h32.05.800,2026A_exp2,2022.2.4,59.92818204999257,
1,0,6.1,0.0,1,0,21,21,41,,,,,97.11930950009264,97.7701525001321,97.7701525001321,98.25454260013066,315,315,98.25454260013066,98.25454260013066,98.25454260013066,98.25454260013066,98.25454260013066,98.25454260013066,98.25454260013066,98.25454260013066,98.25454260013066,98.62083410006016,98.62083410006016,98.62083410006016,98.62083410006016,98.62083410006016,98.62083410006016,98.62083410006016,98.62083410006016,98.62083410006016,0,1,[0.0007088000420480967],[0.3676203000359237],98.62083410006016,98.82103470014408,0.0,98.82103470014408,0,0.0,0,1,1000,num_1,0.8802944000344723,,31,14,2026-03-12_14h32.05.800,2026A_exp2,2022.2.4,59.92818204999257,
1,0,0.0,0.0,1,0,22,22,24,,,,,99.72187580005266,100.38310730014928,100.38310730014928,100.86257100012153,45,45,100.86257100012153,100.86257100012153,100.86257100012153,100.86257100012153,100.86257100012153,100.86257100012153,100.86257100012153,100.86257100012153,100.86257100012153,101.2234736001119,101.2234736001119,101.2234736001119,101.2234736001119,101.2234736001119,101.2234736001119,101.2234736001119,101.2234736001119,101.2234736001119,0,1,[0.002596499864012003],[0.3656808000523597],101.2234736001119,101.4237182000652,0.0,101.4237182000652,0,0.0,0,1,1000,num_1,0.7404811000451446,,31,14,2026-03-12_14h32.05.800,2026A_exp2,2022.2.4,59.92818204999257,
1,0,6.1,0.0,0,0,23,23,22,,,,,102.19260780001059,102.84167720004916,102.84167720004916,103.34292190009728,315,45,103.34292190009728,103.34292190009728,103.34292190009728,103.34292190009728,103.34292190009728,103.34292190009728,103.34292190009728,103.34292190009728,103.34292190009728,103.70934980013408,103.70934980013408,103.70934980013408,103.70934980013408,103.70934980013408,103.70934980013408,103.70934980013408,103.70934980013408,103.70934980013408,0,1,[0.0012622000649571419],[0.36726179998368025],103.70934980013408,103.90959769999608,6.1,103.90959769999608,1,6.1,1,1,1000,num_4,0.7104430999606848,,31,14,2026-03-12_14h32.05.800,2026A_exp2,2022.2.4,59.92818204999257,
1,0,0.0,0.0,1,0,24,24,66,,,,,104.64347500004806,105.29415880003944,105.29415880003944,105.77846259996295,45,45,105.77846259996295,105.77846259996295,105.77846259996295,105.77846259996295,105.77846259996295,105.77846259996295,105.77846259996295,105.77846259996295,105.77846259996295,106.14507670002058,106.14507670002058,106.14507670002058,106.14507670002058,106.14507670002058,106.14507670002058,106.14507670002058,106.14507670002058,106.14507670002058,5,3,"[0.03347469982691109, 0.08342349994927645, 0.13349919999018312]","[0.05022719991393387, 0.11688570003025234, 0.3671295999083668]",106.14507670002058,106.35327500011772,0.0,106.35327500011772,0,0.0,0,1,1000,num_1,0.8591100999619812,,31,14,2026-03-12_14h32.05.800,2026A_exp2,2022.2.4,59.92818204999257,
1,0,4.9,0.0,0,0,25,25,19,,,,,107.2294040999841,107.88006839994341,107.88006839994341,108.36456819996238,45,45,108.36456819996238,108.36456819996238,108.36456819996238,108.36456819996238,108.36456819996238,108.36456819996238,108.36456819996238,108.36456819996238,108.36456819996238,108.73101380001754,108.73101380001754,108.73101380001754,108.73101380001754,108.73101380001754,108.73101380001754,108.73101380001754,108.73101380001754,108.73101380001754,20,2,"[0.0008427000138908625, 0.05061550019308925]","[0.017460200004279613, 0.08368230005726218]",108.73101380001754,108.9312092999462,4.9,108.9312092999462,1,4.9,1,1,1000,num_4,0.5534025998786092,,31,14,2026-03-12_14h32.05.800,2026A_exp2,2022.2.4,59.92818204999257,
1000,1,0.0,0.0,1,0,26,26,27,,,,,109.51498050009832,110.16584579995833,110.16584579995833,110.6501750999596,315,45,110.6501750999596,110.6501750999596,110.6501750999596,110.6501750999596,110.6501750999596,110.6501750999596,110.6501750999596,110.6501750999596,110.6501750999596,111.01672620000318,111.01672620000318,111.01672620000318,111.01672620000318,111.01672620000318,111.01672620000318,111.01672620000318,111.01672620000318,111.01672620000318,23,0,,,111.01672620000318,111.21882580011152,1000,111.21882580011152,1000,1000,1000,1000,0,num_3,0.7291641000192612,,31,14,2026-03-12_14h32.05.800,2026A_exp2,2022.2.4,59.92818204999257,
1,0,6.1,0.0,1,0,27,27,29,,,,,111.96737059997395,112.61817790009081,112.61817790009081,113.11924859997816,45,315,113.11924859997816,113.11924859997816,113.11924859997816,113.11924859997816,113.11924859997816,113.11924859997816,113.11924859997816,113.11924859997816,113.11924859997816,113.48578849993646,113.48578849993646,113.48578849993646,113.48578849993646,113.48578849993646,113.48578849993646,113.48578849993646,113.48578849993646,113.48578849993646,0,1,[0.0012141999322921038],[0.36725550005212426],113.48578849993646,113.68580939993262,0.0,113.68580939993262,0,0.0,0,1,1000,num_1,0.7275865999981761,,31,14,2026-03-12_14h32.05.800,2026A_exp2,2022.2.4,59.92818204999257,
1,0,0.0,0.0,1,0,28,28,56,,,,,114.43658750015311,115.08731580013409,115.08731580013409,115.57186010014266,315,45,115.57186010014266,115.57186010014266,115.57186010014266,115.57186010014266,115.57186010014266,115.57186010014266,115.57186010014266,115.57186010014266,115.57186010014266,115.93825630005449,115.93825630005449,115.93825630005449,115.93825630005449,115.93825630005449,115.93825630005449,115.93825630005449,115.93825630005449,115.93825630005449,0,1,[0.0012038000859320164],[0.367284300038591],115.93825630005449,116.13832319993526,0.0,116.13832319993526,0,0.0,0,1,1000,num_1,0.6826343999709934,,31,14,2026-03-12_14h32.05.800,2026A_exp2,2022.2.4,59.92818204999257,
0,0,0.0,0.0,0,0,29,29,10,,,,,116.83902460010722,117.48975539999083,117.48975539999083,117.97420780011453,315,315,117.97420780011453,117.97420780011453,117.97420780011453,117.97420780011453,117.97420780011453,117.97420780011453,117.97420780011453,117.97420780011453,117.97420780011453,118.34061209997162,118.34061209997162,118.34061209997162,118.34061209997162,118.34061209997162,118.34061209997162,118.34061209997162,118.34061209997162,118.34061209997162,1,2,"[0.001232299953699112, 0.11612759996205568]","[0.10018380009569228, 0.36718309996649623]",118.34061209997162,118.54088749992661,0.0,118.54088749992661,0,0.0,0,1,1000,num_1,0.6478142000269145,,31,14,2026-03-12_14h32.05.800,2026A_exp2,2022.2.4,59.92818204999257,
1,0,4.9,3.7,0,0,30,30,89,,,,,119.20812049997039,119.85888019995764,119.85888019995764,120.34318970004097,45,315,120.34318970004097,120.34318970004097,120.34318970004097,120.34318970004097,120.34318970004097,120.34318970004097,120.34318970004097,120.34318970004097,120.34318970004097,120.70957270008512,120.70957270008512,120.70957270008512,120.70957270008512,120.70957270008512,120.70957270008512,120.70957270008512,120.70957270008512,120.70957270008512,5,4,"[0.03341930010356009, 0.11703080008737743, 0.16695549990981817, 0.2671473000664264]","[0.10030749998986721, 0.15027479990385473, 0.2504384000785649, 0.3669165000319481]",120.70957270008512,120.92100300011225,4.9,120.92100300011225,1,4.9,1,1,1000,num_4,0.7155113001354039,,31,14,2026-03-12_14h32.05.800,2026A_exp2,2022.2.4,59.92818204999257,
1000,1,0.0,0.0,1,0,31,31,80,,,,,121.66048109997064,122.31129520013928,122.31129520013928,122.79565440001898,315,315,122.79565440001898,122.79565440001898,122.79565440001898,122.79565440001898,122.79565440001898,122.79565440001898,122.79565440001898,122.79565440001898,122.79565440001898,123.16225469997153,123.16225469997153,123.16225469997153,123.16225469997153,123.16225469997153,123.16225469997153,123.16225469997153,123.16225469997153,123.16225469997153,5,5,"[0.017498199827969074, 0.08415969996713102, 0.13530689990147948, 0.2352395998314023, 0.31884859991259873]","[0.06729159993119538, 0.1185029000043869, 0.2188638998195529, 0.3020969999488443, 0.3690035999752581]",123.16225469997153,123.37621679995209,1000,123.37621679995209,1000,1000,1000,1000,0,num_3,0.7484971999656409,,31,14,2026-03-12_14h32.05.800,2026A_exp2,2022.2.4,59.92818204999257,
1,0,0.0,0.0,0,0,32,32,75,,,,,124.14623800013214,124.79687770013697,124.79687770013697,125.29070090013556,315,45,125.29070090013556,125.29070090013556,125.29070090013556,125.29070090013556,125.29070090013556,125.29070090013556,125.29070090013556,125.29070090013556,125.29070090013556,125.64796670014039,125.64796670014039,125.64796670014039,125.64796670014039,125.64796670014039,125.64796670014039,125.64796670014039,125.64796670014039,125.64796670014039,0,1,[0.0032186999451369047],[0.36515460000373423],125.64796670014039,125.84825749997981,0.0,125.84825749997981,0,0.0,0,1,1000,num_1,0.7959511000663042,,31,14,2026-03-12_14h32.05.800,2026A_exp2,2022.2.4,59.92818204999257,
1,0,0.0,4.9,1,0,33,33,44,,,,,126.66530560003594,127.31633520009927,127.31633520009927,127.8005832999479,315,45,127.8005832999479,127.8005832999479,127.8005832999479,127.8005832999479,127.8005832999479,127.8005832999479,127.8005832999479,127.8005832999479,127.8005832999479,128.16699580010027,128.16699580010027,128.16699580010027,128.16699580010027,128.16699580010027,128.16699580010027,128.16699580010027,128.16699580010027,128.16699580010027,6,4,"[0.001287899911403656, 0.10012610000558197, 0.20015399996191263, 0.3002857998944819]","[0.06686539994552732, 0.18355349986813962, 0.2835705999750644, 0.3337870999239385]",128.16699580010027,128.36732410010882,4.9,128.36732410010882,1,4.9,1,1,1000,num_4,0.5492889999877661,,31,14,2026-03-12_14h32.05.800,2026A_exp2,2022.2.4,59.92818204999257,
1000,1,0.0,6.1,1,0,34,34,40,,,,,128.93437970010564,129.58511200011708,129.58511200011708,130.06968350009993,45,45,130.06968350009993,130.06968350009993,130.06968350009993,130.06968350009993,130.06968350009993,130.06968350009993,130.06968350009993,130.06968350009993,130.06968350009993,130.43599690007977,130.43599690007977,130.43599690007977,130.43599690007977,130.43599690007977,130.43599690007977,130.43599690007977,130.43599690007977,130.43599690007977,4,3,"[0.0012227999977767467, 0.11707589984871447, 0.18373989989049733]","[0.10030359984375536, 0.15023819985799491, 0.36728749983012676]",130.43599690007977,130.63794369995594,1000,130.63794369995594,1000,1000,1000,1000,1,num_2,0.5754318998660892,,31,14,2026-03-12_14h32.05.800,2026A_exp2,2022.2.4,59.92818204999257,
1000,1,3.7,0.0,0,0,35,35,28,,,,,131.23683220008388,131.88734599994496,131.88734599994496,132.38847839995287,45,315,132.38847839995287,132.38847839995287,132.38847839995287,132.38847839995287,132.38847839995287,132.38847839995287,132.38847839995287,132.38847839995287,132.38847839995287,132.7550665999297,132.7550665999297,132.7550665999297,132.7550665999297,132.7550665999297,132.7550665999297,132.7550665999297,132.7550665999297,132.7550665999297,0,1,[0.0011978999245911837],[0.36707110004499555],132.7550665999297,132.95523840002716,1000,132.95523840002716,1000,1000,1000,1000,0,num_3,0.43335639988072217,,31,14,2026-03-12_14h32.05.800,2026A_exp2,2022.2.4,59.92818204999257,
1000,1,3.7,3.7,0,0,36,36,76,,,,,133.4055723999627,134.0639780999627,134.0639780999627,134.54640190000646,315,315,134.54640190000646,134.54640190000646,134.54640190000646,134.54640190000646,134.54640190000646,134.54640190000646,134.54640190000646,134.54640190000646,134.54640190000646,134.9067979999818,134.9067979999818,134.9067979999818,134.9067979999818,134.9067979999818,134.9067979999818,134.9067979999818,134.9067979999818,134.9067979999818,2,2,"[0.002552999882027507, 0.08202269999310374]","[0.04884039983153343, 0.36591189983300865]",134.9067979999818,135.1092718001455,1000,135.12377170007676,1000,1000,1000,1000,1,num_2,1.1212532001081854,,31,14,2026-03-12_14h32.05.800,2026A_exp2,2022.2.4,59.92818204999257,
0,0,0.0,6.1,0,0,37,37,12,,,,,136.27511009993032,136.92587690008804,136.92587690008804,137.4270230999682,315,45,137.4270230999682,137.4270230999682,137.4270230999682,137.4270230999682,137.4270230999682,137.4270230999682,137.4270230999682,137.4270230999682,137.4270230999682,137.77659250004217,137.77659250004217,137.77659250004217,137.77659250004217,137.77659250004217,137.77659250004217,137.77659250004217,137.77659250004217,137.77659250004217,0,1,[0.0010442999191582203],[0.35068609984591603],137.77659250004217,137.97690719994716,6.1,137.9936476999428,1,6.1,1,1,1000,num_4,0.5143365999683738,,31,14,2026-03-12_14h32.05.800,2026A_exp2,2022.2.4,59.92818204999257,
0,0,4.9,4.9,0,0,38,38,88,,,,,138.52745719999075,139.17800940014422,139.17800940014422,139.66225049993955,315,315,139.66225049993955,139.66225049993955,139.66225049993955,139.66225049993955,139.66225049993955,139.66225049993955,139.66225049993955,139.66225049993955,139.66225049993955,140.02896380005404,140.02896380005404,140.02896380005404,140.02896380005404,140.02896380005404,140.02896380005404,140.02896380005404,140.02896380005404,140.02896380005404,2,3,"[0.0009582999628037214, 0.0336474000941962, 0.20074210013262928]","[0.017327900044620037, 0.18381480011157691, 0.3673560000024736]",140.02896380005404,140.22923010005616,4.9,140.22923010005616,1,4.9,1,1,1000,num_4,0.5993187001440674,,31,14,2026-03-12_14h32.05.800,2026A_exp2,2022.2.4,59.92818204999257,
1,0,0.0,6.1,1,0,39,39,17,,,,,140.84624879993498,141.49708659993485,141.49708659993485,141.98150989995338,45,45,141.98150989995338,141.98150989995338,141.98150989995338,141.98150989995338,141.98150989995338,141.98150989995338,141.98150989995338,141.98150989995338,141.98150989995338,142.34808950009756,142.34808950009756,142.34808950009756,142.34808950009756,142.34808950009756,142.34808950009756,142.34808950009756,142.34808950009756,142.34808950009756,0,1,[0.0012505999766290188],[0.36716789985075593],142.34808950009756,142.54802830005065,6.1,142.54802830005065,1,6.1,1,1,1000,num_4,0.400142400059849,,31,14,2026-03-12_14h32.05.800,2026A_exp2,2022.2.4,59.92818204999257,
1000,1,0.0,6.1,0,0,40,40,85,,,,,142.96525290003046,143.59918819996528,143.59918819996528,144.1002164001111,45,315,144.1002164001111,144.1002164001111,144.1002164001111,144.1002164001111,144.1002164001111,144.1002164001111,144.1002164001111,144.1002164001111,144.1002164001111,144.46676079998724,144.46676079998724,144.46676079998724,144.46676079998724,144.46676079998724,144.46676079998724,144.46676079998724,144.46676079998724,144.46676079998724,0,1,[0.001191799994558096],[0.3670002999715507],144.46676079998724,144.66860250011086,1000,144.66860250011086,1000,1000,1000,1000,1,num_2,0.5274630000349134,,31,14,2026-03-12_14h32.05.800,2026A_exp2,2022.2.4,59.92818204999257,
1000,1,0.0,3.7,1,0,41,41,86,,,,,145.21736340015195,145.86814959999174,145.86814959999174,146.3692765000742,315,45,146.3692765000742,146.3692765000742,146.3692765000742,146.3692765000742,146.3692765000742,146.3692765000742,146.3692765000742,146.3692765000742,146.3692765000742,146.73567300010473,146.73567300010473,146.73567300010473,146.73567300010473,146.73567300010473,146.73567300010473,146.73567300010473,146.73567300010473,146.73567300010473,2,2,"[0.0012113999109715223, 0.2670227000489831]","[0.2337255000602454, 0.3672748999670148]",146.73567300010473,146.93789630010724,1000,146.93789630010724,1000,1000,1000,1000,1,num_2,0.5870764998253435,,31,14,2026-03-12_14h32.05.800,2026A_exp2,2022.2.4,59.92818204999257,
1,0,0.0,3.7,1,0,42,42,83,,,,,147.5530266999267,148.20376110007055,148.20376110007055,148.70478300005198,45,45,148.70478300005198,148.70478300005198,148.70478300005198,148.70478300005198,148.70478300005198,148.70478300005198,148.70478300005198,148.70478300005198,148.70478300005198,149.07130770012736,149.07130770012736,149.07130770012736,149.07130770012736,149.07130770012736,149.07130770012736,149.07130770012736,149.07130770012736,149.07130770012736,0,1,[0.0012060999870300293],[0.36710590007714927],149.07130770012736,149.27147180004977,3.7,149.27147180004977,1,3.7,1,1,1000,num_4,0.628571999957785,,31,14,2026-03-12_14h32.05.800,2026A_exp2,2022.2.4,59.92818204999257,
0,0,3.7,0.0,0,0,43,43,16,,,,,149.9220503999386,150.57293660007417,150.57293660007417,151.05732350004837,45,45,151.05732350004837,151.05732350004837,151.05732350004837,151.05732350004837,151.05732350004837,151.05732350004837,151.05732350004837,151.05732350004837,151.05732350004837,151.42354490002617,151.42354490002617,151.42354490002617,151.42354490002617,151.42354490002617,151.42354490002617,151.42354490002617,151.42354490002617,151.42354490002617,0,1,[0.001204000087454915],[0.36720159999094903],151.42354490002617,151.6238725001458,0.0,151.6238725001458,0,0.0,0,1,1000,num_1,0.6692387999501079,,31,14,2026-03-12_14h32.05.800,2026A_exp2,2022.2.4,59.92818204999257,
1000,1,0.0,0.0,1,0,44,44,72,,,,,152.32448039995506,152.97500830003992,152.97500830003992,153.45973170013167,315,45,153.45973170013167,153.45973170013167,153.45973170013167,153.45973170013167,153.45973170013167,153.45973170013167,153.45973170013167,153.45973170013167,153.45973170013167,153.826059400104,153.826059400104,153.826059400104,153.826059400104,153.826059400104,153.826059400104,153.826059400104,153.826059400104,153.826059400104,5,4,"[0.001228800043463707, 0.08350170007906854, 0.11695039994083345, 0.16697979997843504]","[0.05014299997128546, 0.10016330005601048, 0.13354760012589395, 0.3672424000687897]",153.826059400104,154.0284066000022,1000,154.0284066000022,1000,1000,1000,1000,0,num_3,0.6319887000136077,,31,14,2026-03-12_14h32.05.800,2026A_exp2,2022.2.4,59.92818204999257,
0,0,6.1,0.0,0,0,45,45,65,,,,,154.67674440005794,155.32762510003522,155.32762510003522,155.81208309996873,45,315,155.81208309996873,155.81208309996873,155.81208309996873,155.81208309996873,155.81208309996873,155.81208309996873,155.81208309996873,155.81208309996873,155.81208309996873,156.17844010004774,156.17844010004774,156.17844010004774,156.17844010004774,156.17844010004774,156.17844010004774,156.17844010004774,156.17844010004774,156.17844010004774,13,3,"[0.0012298999354243279, 0.28322719992138445, 0.35010910010896623]","[0.09913900005631149, 0.3167570000514388, 0.3667242000810802]",156.17844010004774,156.37869659997523,0.0,156.37869659997523,0,0.0,0,1,1000,num_1,0.8180713998153806,,31,14,2026-03-12_14h32.05.800,2026A_exp2,2022.2.4,59.92818204999257,
1000,1,0.0,3.7,0,0,46,46,18,,,,,157.21271220012568,157.86340190004557,157.86340190004557,158.34765499993227,315,45,158.34765499993227,158.34765499993227,158.34765499993227,158.34765499993227,158.34765499993227,158.34765499993227,158.34765499993227,158.34765499993227,158.34765499993227,158.7143081999384,158.7143081999384,158.7143081999384,158.7143081999384,158.7143081999384,158.7143081999384,158.7143081999384,158.7143081999384,158.7143081999384,0,1,[0.000835200073197484],[0.3674349000211805],158.7143081999384,158.9165429000277,1000,158.9165429000277,1000,1000,1000,1000,1,num_2,0.6155504998750985,,31,14,2026-03-12_14h32.05.800,2026A_exp2,2022.2.4,59.92818204999257,
1,0,4.9,0.0,1,0,47,47,52,,,,,159.54834570013918,160.2087505001109,160.2087505001109,160.7048543000128,45,315,160.7048543000128,160.7048543000128,160.7048543000128,160.7048543000128,160.7048543000128,160.7048543000128,160.7048543000128,160.7048543000128,160.7048543000128,161.06672040000558,161.06672040000558,161.06672040000558,161.06672040000558,161.06672040000558,161.06672040000558,161.06672040000558,161.06672040000558,161.06672040000558,0,1,[0.0024486000183969736],[0.3671246999874711],161.06672040000558,161.26681739999913,0.0,161.26681739999913,0,0.0,0,1,1000,num_1,0.7052112999372184,,31,14,2026-03-12_14h32.05.800,2026A_exp2,2022.2.4,59.92818204999257,
1000,1,4.9,6.1,0,0,48,48,49,,,,,162.0008237999864,162.65159730007872,162.65159730007872,163.1359509001486,315,45,163.1359509001486,163.1359509001486,163.1359509001486,163.1359509001486,163.1359509001486,163.1359509001486,163.1359509001486,163.1359509001486,163.1359509001486,163.50242469995283,163.50242469995283,163.50242469995283,163.50242469995283,163.50242469995283,163.50242469995283,163.50242469995283,163.50242469995283,163.50242469995283,2,2,"[0.0006973999552428722, 0.267693999921903]","[0.25115779996849597, 0.36776589998044074]",163.50242469995283,163.7047045000363,1000,163.7047045000363,1000,1000,1000,1000,1,num_2,0.7003985000774264,,31,14,2026-03-12_14h32.05.800,2026A_exp2,2022.2.4,59.92818204999257,
1000,1,0.0,3.7,0,0,49,49,21,,,,,164.4367629000917,165.08728919993155,165.08728919993155,165.58839190006256,315,315,165.58839190006256,165.58839190006256,165.58839190006256,165.58839190006256,165.58839190006256,165.58839190006256,165.58839190006256,165.58839190006256,165.58839190006256,165.93824680009857,165.93824680009857,165.93824680009857,165.93824680009857,165.93824680009857,165.93824680009857,165.93824680009857,165.93824680009857,165.93824680009857,0,1,[0.0011997998226433992],[0.35065479995682836],165.93824680009857,166.1386764999479,1000,166.1386764999479,1000,1000,1000,1000,0,num_3,0.8419536999426782,,31,14,2026-03-12_14h32.05.800,2026A_exp2,2022.2.4,59.92818204999257,
0,0,3.7,0.0,1,0,50,50,0,,,,,167.005805300083,167.6566129999701,167.6566129999701,168.1575782999862,315,315,168.1575782999862,168.1575782999862,168.1575782999862,168.1575782999862,168.1575782999862,168.1575782999862,168.1575782999862,168.1575782999862,168.1575782999862,168.5241555001121,168.5241555001121,168.5241555001121,168.5241555001121,168.5241555001121,168.5241555001121,168.5241555001121,168.5241555001121,168.5241555001121,2,3,"[0.001200400060042739, 0.15039479988627136, 0.2830459999386221]","[0.13374969991855323, 0.2663553000893444, 0.3672762999776751]",168.5241555001121,168.7244019000791,3.7,168.7244019000791,1,3.7,1,1,1000,num_4,0.8317269999533892,,31,14,2026-03-12_14h32.05.800,2026A_exp2,2022.2.4,59.92818204999257,
1,0,6.1,0.0,1,0,51,51,23,,,,,169.57495480007492,170.2091828000266,170.2091828000266,170.7101722001098,45,45,170.7101722001098,170.7101722001098,170.7101722001098,170.7101722001098,170.7101722001098,170.7101722001098,170.7101722001098,170.7101722001098,170.7101722001098,171.07654349994846,171.07654349994846,171.07654349994846,171.07654349994846,171.07654349994846,171.07654349994846,171.07654349994846,171.07654349994846,171.07654349994846,23,0,,,171.07654349994846,171.2767446001526,0.0,171.2767446001526,0,0.0,0,1,1000,num_1,0.8074169000610709,,31,14,2026-03-12_14h32.05.800,2026A_exp2,2022.2.4,59.92818204999257,
1,0,6.1,3.7,0,0,52,52,79,,,,,172.11086230003275,172.76172120007686,172.76172120007686,173.2461667000316,45,45,173.2461667000316,173.2461667000316,173.2461667000316,173.2461667000316,173.2461667000316,173.2461667000316,173.2461667000316,173.2461667000316,173.2461667000316,173.61216840008274,173.61216840008274,173.61216840008274,173.61216840008274,173.61216840008274,173.61216840008274,173.61216840008274,173.61216840008274,173.61216840008274,19,2,"[0.2509186000097543, 0.35069210012443364]","[0.28403290011920035, 0.367337099974975]",173.61216840008274,173.81265460001305,6.1,173.81265460001305,1,6.1,1,1,1000,num_4,0.6154358999338001,,31,14,2026-03-12_14h32.05.800,2026A_exp2,2022.2.4,59.92818204999257,
1000,1,4.9,4.9,0,0,53,53,36,,,,,174.44649989996105,175.09723410010338,175.09723410010338,175.58169040014036,315,45,175.58169040014036,175.58169040014036,175.58169040014036,175.58169040014036,175.58169040014036,175.58169040014036,175.58169040014036,175.58169040014036,175.58169040014036,175.94808260002173,175.94808260002173,175.94808260002173,175.94808260002173,175.94808260002173,175.94808260002173,175.94808260002173,175.94808260002173,175.94808260002173,2,1,[0.0334608000703156],[0.3670208000112325],175.94808260002173,176.1505343001336,1000,176.1505343001336,1000,1000,1000,1000,0,num_3,0.5904622001107782,,31,14,2026-03-12_14h32.05.800,2026A_exp2,2022.2.4,59.92818204999257,
1,0,0.0,0.0,1,0,54,54,68,,,,,176.76553510013036,177.4162878000643,177.4162878000643,177.9174604001455,45,315,177.9174604001455,177.9174604001455,177.9174604001455,177.9174604001455,177.9174604001455,177.9174604001455,177.9174604001455,177.9174604001455,177.9174604001455,178.2838131999597,178.2838131999597,178.2838131999597,178.2838131999597,178.2838131999597,178.2838131999597,178.2838131999597,178.2838131999597,178.2838131999597,4,3,"[0.0011265999637544155, 0.1170773000922054, 0.2837968000676483]","[0.08350279997102916, 0.2504344000481069, 0.367187200114131]",178.2838131999597,178.4840565000195,0.0,178.4840565000195,0,0.0,0,1,1000,num_1,0.5838520999532193,,31,14,2026-03-12_14h32.05.800,2026A_exp2,2022.2.4,59.92818204999257,
1000,1,0.0,0.0,1,0,55,55,63,,,,,179.08461010013707,179.73549670004286,179.73549670004286,180.21968830004334,315,45,180.21968830004334,180.21968830004334,180.21968830004334,180.21968830004334,180.21968830004334,180.21968830004334,180.21968830004334,180.21968830004334,180.21968830004334,180.58611409994774,180.58611409994774,180.58611409994774,180.58611409994774,180.58611409994774,180.58611409994774,180.58611409994774,180.58611409994774,180.58611409994774,23,0,,,180.58611409994774,180.78800210007466,1000,180.78800210007466,1000,1000,1000,1000,0,num_3,0.624935399973765,,31,14,2026-03-12_14h32.05.800,2026A_exp2,2022.2.4,59.92818204999257,
1000,1,0.0,3.7,1,0,56,56,7,,,,,181.4368910000194,182.08771999995224,182.08771999995224,182.5887672000099,315,315,182.5887672000099,182.5887672000099,182.5887672000099,182.5887672000099,182.5887672000099,182.5887672000099,182.5887672000099,182.5887672000099,182.5887672000099,182.93858670000918,182.93858670000918,182.93858670000918,182.93858670000918,182.93858670000918,182.93858670000918,182.93858670000918,182.93858670000918,182.93858670000918,17,2,"[0.20042599993757904, 0.2503772999625653]","[0.2170987999998033, 0.3337614999618381]",182.93858670000918,183.14026840007864,1000,183.15574409998953,1000,1000,1000,1000,1,num_2,0.4572643998544663,,31,14,2026-03-12_14h32.05.800,2026A_exp2,2022.2.4,59.92818204999257,
1000,1,0.0,0.0,1,0,57,57,78,,,,,183.63924530008808,184.28980259993114,184.28980259993114,184.7908374001272,45,315,184.7908374001272,184.7908374001272,184.7908374001272,184.7908374001272,184.7908374001272,184.7908374001272,184.7908374001272,184.7908374001272,184.7908374001272,185.1573825001251,185.1573825001251,185.1573825001251,185.1573825001251,185.1573825001251,185.1573825001251,185.1573825001251,185.1573825001251,185.1573825001251,10,4,"[0.06696789991110563, 0.11736689996905625, 0.1836180998943746, 0.33428099984303117]","[0.10061969980597496, 0.13393009989522398, 0.317601699847728, 0.36779910000041127]",185.1573825001251,185.35945719992742,1000,185.35945719992742,1000,1000,1000,1000,0,num_3,0.5413160999305546,,31,14,2026-03-12_14h32.05.800,2026A_exp2,2022.2.4,59.92818204999257,
0,0,0.0,6.1,0,0,58,58,30,,,,,185.92479069996625,186.57540570013225,186.57540570013225,187.0600346000865,315,45,187.0600346000865,187.0600346000865,187.0600346000865,187.0600346000865,187.0600346000865,187.0600346000865,187.0600346000865,187.0600346000865,187.0600346000865,187.42612880002707,187.42612880002707,187.42612880002707,187.42612880002707,187.42612880002707,187.42612880002707,187.42612880002707,187.42612880002707,187.42612880002707,17,4,"[0.23406019993126392, 0.2672963999211788, 0.33416239987127483, 0.3675670998636633]","[0.25068369996733963, 0.31742239999584854, 0.3509102000389248, 0.36757120001129806]",187.42612880002707,187.62659420003183,6.1,187.62659420003183,1,6.1,1,1,1000,num_4,0.6904291000682861,,31,14,2026-03-12_14h32.05.800,2026A_exp2,2022.2.4,59.92818204999257,
1000,1,4.9,0.0,0,0,59,59,82,,,,,188.34393179998733,188.9944895999506,188.9944895999506,189.47904610005207,45,45,189.47904610005207,189.47904610005207,189.47904610005207,189.47904610005207,189.47904610005207,189.47904610005207,189.47904610005207,189.47904610005207,189.47904610005207,189.84544380009174,189.84544380009174,189.84544380009174,189.84544380009174,189.84544380009174,189.84544380009174,189.84544380009174,189.84544380009174,189.84544380009174,0,1,[0.0012137999292463064],[0.36729980004020035],189.84544380009174,190.04773220000789,1000,190.04773220000789,1000,1000,1000,1000,0,num_3,0.5729001997970045,,31,14,2026-03-12_14h32.05.800,2026A_exp2,2022.2.4,59.92818204999257,
1,0,0.0,3.7,0,0,60,60,34,,,,,190.6461879000999,191.29696150007658,191.29696150007658,191.7978503999766,315,45,191.7978503999766,191.7978503999766,191.7978503999766,191.7978503999766,191.7978503999766,191.7978503999766,191.7978503999766,191.7978503999766,191.7978503999766,192.16444290010259,192.16444290010259,192.16444290010259,192.16444290010259,192.16444290010259,192.16444290010259,192.16444290010259,192.16444290010259,192.16444290010259,0,1,[0.0012444001622498035],[0.3670383000280708],192.16444290010259,192.36449329997413,0.0,192.36449329997413,0,0.0,0,1,1000,num_1,0.6088298999238759,,31,14,2026-03-12_14h32.05.800,2026A_exp2,2022.2.4,59.92818204999257,
0,0,0.0,0.0,0,0,61,61,20,,,,,192.9983858000487,193.64930519997142,193.64930519997142,194.1338319000788,315,45,194.1338319000788,194.1338319000788,194.1338319000788,194.1338319000788,194.1338319000788,194.1338319000788,194.1338319000788,194.1338319000788,194.1338319000788,194.5001179999672,194.5001179999672,194.5001179999672,194.5001179999672,194.5001179999672,194.5001179999672,194.5001179999672,194.5001179999672,194.5001179999672,21,2,"[0.08358909981325269, 0.3672565999440849]","[0.10045579983852804, 0.36726159998215735]",194.5001179999672,194.70036220015027,0.0,194.70036220015027,0,0.0,0,1,1000,num_1,0.6165688999462873,,31,14,2026-03-12_14h32.05.800,2026A_exp2,2022.2.4,59.92818204999257,
1,0,0.0,4.9,1,0,62,62,2,,,,,195.3344354000874,195.98498010006733,195.98498010006733,196.46917459997348,315,315,196.46917459997348,196.46917459997348,196.46917459997348,196.46917459997348,196.46917459997348,196.46917459997348,196.46917459997348,196.46917459997348,196.46917459997348,196.83566320012324,196.83566320012324,196.83566320012324,196.83566320012324,196.83566320012324,196.83566320012324,196.83566320012324,196.83566320012324,196.83566320012324,0,1,[0.001198899932205677],[0.36725999996997416],196.83566320012324,197.03600220009685,4.9,197.03600220009685,1,4.9,1,1,1000,num_4,0.5530872999224812,,31,14,2026-03-12_14h32.05.800,2026A_exp2,2022.2.4,59.92818204999257,
1,0,0.0,0.0,1,0,63,63,42,,,,,197.61976659996435,198.27053959993646,198.27053959993646,198.75482819997706,315,45,198.75482819997706,198.75482819997706,198.75482819997706,198.75482819997706,198.75482819997706,198.75482819997706,198.75482819997706,198.75482819997706,198.75482819997706,199.12136940006167,199.12136940006167,199.12136940006167,199.12136940006167,199.12136940006167,199.12136940006167,199.12136940006167,199.12136940006167,199.12136940006167,4,3,"[0.0011481998953968287, 0.15046730008907616, 0.23384519992396235]","[0.13376530003733933, 0.1836832999251783, 0.3673088001087308]",199.12136940006167,199.3214294000063,0.0,199.3214294000063,0,0.0,0,1,1000,num_1,0.5315717998892069,,31,14,2026-03-12_14h32.05.800,2026A_exp2,2022.2.4,59.92818204999257,
1000,1,6.1,0.0,1,0,64,64,71,,,,,199.87349830009043,200.52274690009654,200.52274690009654,201.02392460010014,315,45,201.02392460010014,201.02392460010014,201.02392460010014,201.02392460010014,201.02392460010014,201.02392460010014,201.02392460010014,201.02392460010014,201.02392460010014,201.39032190013677,201.39032190013677,201.39032190013677,201.39032190013677,201.39032190013677,201.39032190013677,201.39032190013677,201.39032190013677,201.39032190013677,0,1,[0.0013282999861985445],[0.3671484999358654],201.39032190013677,201.59134990000166,1000,201.59134990000166,1000,1000,1000,1000,0,num_3,0.47774360002949834,,31,14,2026-03-12_14h32.05.800,2026A_exp2,2022.2.4,59.92818204999257,
0,0,4.9,6.1,0,0,65,65,1,,,,,202.09096230007708,202.74161419994198,202.74161419994198,203.24266520002857,45,45,203.24266520002857,203.24266520002857,203.24266520002857,203.24266520002857,203.24266520002857,203.24266520002857,203.24266520002857,203.24266520002857,203.24266520002857,203.60912470007315,203.60912470007315,203.60912470007315,203.60912470007315,203.60912470007315,203.60912470007315,203.60912470007315,203.60912470007315,203.60912470007315,0,1,[0.001252500107511878],[0.3665406000800431],203.60912470007315,203.82267610006966,6.1,203.82267610006966,1,6.1,1,1,1000,num_4,0.6465048999525607,,31,14,2026-03-12_14h32.05.800,2026A_exp2,2022.2.4,59.92818204999257,
1,0,0.0,4.9,0,0,66,66,9,,,,,204.4934104999993,205.14411150012165,205.14411150012165,205.64487430010922,315,315,205.64487430010922,205.64487430010922,205.64487430010922,205.64487430010922,205.64487430010922,205.64487430010922,205.64487430010922,205.64487430010922,205.64487430010922,206.01164799998514,206.01164799998514,206.01164799998514,206.01164799998514,206.01164799998514,206.01164799998514,206.01164799998514,206.01164799998514,206.01164799998514,0,1,[0.0013394998386502266],[0.3673272000160068],206.01164799998514,206.21189030003734,0.0,206.21189030003734,0,0.0,0,1,1000,num_1,0.9370768000371754,,31,14,2026-03-12_14h32.05.800,2026A_exp2,2022.2.4,59.92818204999257,
1000,1,3.7,3.7,1,0,67,67,25,,,,,207.179312299937,207.83007779996842,207.83007779996842,208.31461010011844,45,315,208.31461010011844,208.31461010011844,208.31461010011844,208.31461010011844,208.31461010011844,208.31461010011844,208.31461010011844,208.31461010011844,208.31461010011844,208.68079370004125,208.68079370004125,208.68079370004125,208.68079370004125,208.68079370004125,208.68079370004125,208.68079370004125,208.68079370004125,208.68079370004125,19,2,"[0.0007182999979704618, 0.1004329000134021]","[0.03335069981403649, 0.1338996000122279]",208.68079370004125,208.88272190000862,1000,208.88272190000862,1000,1000,1000,1000,0,num_3,0.5379856000654399,,31,14,2026-03-12_14h32.05.800,2026A_exp2,2022.2.4,59.92818204999257,
1000,1,0.0,3.7,1,0,68,68,81,,,,,209.44983149995096,210.0989578999579,210.0989578999579,210.60589529993013,315,315,210.60589529993013,210.60589529993013,210.60589529993013,210.60589529993013,210.60589529993013,210.60589529993013,210.60589529993013,210.60589529993013,210.60589529993013,210.96653320011683,210.96653320011683,210.96653320011683,210.96653320011683,210.96653320011683,210.96653320011683,210.96653320011683,210.96653320011683,210.96653320011683,23,0,,,210.96653320011683,211.16844859998673,1000,211.16844859998673,1000,1000,1000,1000,1,num_2,0.5642842999659479,,31,14,2026-03-12_14h32.05.800,2026A_exp2,2022.2.4,59.92818204999257,
1,0,0.0,0.0,1,0,69,69,60,,,,,211.7506186000537,212.4013847000897,212.4013847000897,212.9023210001178,315,45,212.9023210001178,212.9023210001178,212.9023210001178,212.9023210001178,212.9023210001178,212.9023210001178,212.9023210001178,212.9023210001178,212.9023210001178,213.25201279995963,213.25201279995963,213.25201279995963,213.25201279995963,213.25201279995963,213.25201279995963,213.25201279995963,213.25201279995963,213.25201279995963,4,3,"[0.001219400204718113, 0.2339357000309974, 0.31734370021149516]","[0.20060270000249147, 0.28389469999819994, 0.35073170019313693]",213.25201279995963,213.45253430004232,0.0,213.46883650007658,0,0.0,0,1,1000,num_1,0.6240538000129163,,31,14,2026-03-12_14h32.05.800,2026A_exp2,2022.2.4,59.92818204999257,
1000,1,6.1,0.0,1,0,70,70,61,,,,,214.11966550000943,214.75334129994735,214.75334129994735,215.25482090003788,315,45,215.25482090003788,215.25482090003788,215.25482090003788,215.25482090003788,215.25482090003788,215.25482090003788,215.25482090003788,215.25482090003788,215.25482090003788,215.62106569996104,215.62106569996104,215.62106569996104,215.62106569996104,215.62106569996104,215.62106569996104,215.62106569996104,215.62106569996104,215.62106569996104,2,3,"[0.0012008999474346638, 0.20050979987718165, 0.3005109999794513]","[0.18370599998161197, 0.28393539995886385, 0.36722059990279377]",215.62106569996104,215.82321320008487,1000,215.82321320008487,1000,1000,1000,1000,0,num_3,0.6287906998768449,,31,14,2026-03-12_14h32.05.800,2026A_exp2,2022.2.4,59.92818204999257,
1000,1,0.0,4.9,0,0,71,71,50,,,,,216.47172700008377,217.12261990015395,217.12261990015395,217.62388400011696,45,45,217.62388400011696,217.62388400011696,217.62388400011696,217.62388400011696,217.62388400011696,217.62388400011696,217.62388400011696,217.62388400011696,217.62388400011696,217.99029330001213,217.99029330001213,217.99029330001213,217.99029330001213,217.99029330001213,217.99029330001213,217.99029330001213,217.99029330001213,217.99029330001213,19,3,"[0.18363830004818738, 0.25052900006994605, 0.31725160009227693]","[0.2004370999056846, 0.28380979993380606, 0.33402510010637343]",217.99029330001213,218.19084850000218,1000,218.19084850000218,1000,1000,1000,1000,1,num_2,0.4370844999793917,,31,14,2026-03-12_14h32.05.800,2026A_exp2,2022.2.4,59.92818204999257,
1,0,3.7,0.0,0,0,72,72,15,,,,,218.6575656000059,219.3082125999499,219.3082125999499,219.8093711999245,45,315,219.8093711999245,219.8093711999245,219.8093711999245,219.8093711999245,219.8093711999245,219.8093711999245,219.8093711999245,219.8093711999245,219.8093711999245,220.15911250002682,220.15911250002682,220.15911250002682,220.15911250002682,220.15911250002682,220.15911250002682,220.15911250002682,220.15911250002682,220.15911250002682,1,1,[0.01742929988540709],[0.3505851998925209],220.15911250002682,220.37171800015494,3.7,220.37171800015494,0,3.7,1,0,1000,num_1,1.336246700026095,,31,14,2026-03-12_14h32.05.800,2026A_exp2,2022.2.4,59.92818204999257,
1,0,0.0,0.0,1,0,73,73,77,,,,,221.7272187001072,222.37783190002665,222.37783190002665,222.8623526999727,45,45,222.8623526999727,222.8623526999727,222.8623526999727,222.8623526999727,222.8623526999727,222.8623526999727,222.8623526999727,222.8623526999727,222.8623526999727,223.2288093001116,223.2288093001116,223.2288093001116,223.2288093001116,223.2288093001116,223.2288093001116,223.2288093001116,223.2288093001116,223.2288093001116,0,1,[0.0012171999551355839],[0.3671667999587953],223.2288093001116,223.4291098001413,0.0,223.4291098001413,0,0.0,0,1,1000,num_1,0.6549167002085596,,31,14,2026-03-12_14h32.05.800,2026A_exp2,2022.2.4,59.92818204999257,
1000,1,4.9,6.1,0,0,74,74,59,,,,,224.11293009994552,224.76375639997423,224.76375639997423,225.26479079993442,315,315,225.26479079993442,225.26479079993442,225.26479079993442,225.26479079993442,225.26479079993442,225.26479079993442,225.26479079993442,225.26479079993442,225.26479079993442,225.63108139997348,225.63108139997348,225.63108139997348,225.63108139997348,225.63108139997348,225.63108139997348,225.63108139997348,225.63108139997348,225.63108139997348,21,2,"[0.10021040006540716, 0.26709760003723204]","[0.11681730020791292, 0.2837133000139147]",225.63108139997348,225.83329510013573,1000,225.83329510013573,1000,1000,1000,1000,1,num_2,0.651209499919787,,31,14,2026-03-12_14h32.05.800,2026A_exp2,2022.2.4,59.92818204999257,
1,0,4.9,6.1,1,0,75,75,62,,,,,226.51540499995463,227.16611069999635,227.16611069999635,227.65033350000158,315,45,227.65033350000158,227.65033350000158,227.65033350000158,227.65033350000158,227.65033350000158,227.65033350000158,227.65033350000158,227.65033350000158,227.65033350000158,228.01690379995853,228.01690379995853,228.01690379995853,228.01690379995853,228.01690379995853,228.01690379995853,228.01690379995853,228.01690379995853,228.01690379995853,16,4,"[0.08345529995858669, 0.18355510011315346, 0.21700900001451373, 0.3004425000399351]","[0.15027639991603792, 0.2001805999316275, 0.23375910008326173, 0.3170525999739766]",228.01690379995853,228.21721330005676,6.1,228.21721330005676,1,6.1,1,1,1000,num_4,0.731067799963057,,31,14,2026-03-12_14h32.05.800,2026A_exp2,2022.2.4,59.92818204999257,
1000,1,3.7,0.0,1,0,76,76,54,,,,,228.96791519992985,229.60179550014436,229.60179550014436,230.10285790008493,315,315,230.10285790008493,230.10285790008493,230.10285790008493,230.10285790008493,230.10285790008493,230.10285790008493,230.10285790008493,230.10285790008493,230.10285790008493,230.46933460002765,230.46933460002765,230.46933460002765,230.46933460002765,230.46933460002765,230.46933460002765,230.46933460002765,230.46933460002765,230.46933460002765,15,3,"[0.13345089997164905, 0.2168688999954611, 0.3002363999839872]","[0.16686340002343059, 0.25011140014976263, 0.35036609997041523]",230.46933460002765,230.66963399993256,1000,230.66963399993256,1000,1000,1000,1000,0,num_3,0.4623386999592185,,31,14,2026-03-12_14h32.05.800,2026A_exp2,2022.2.4,59.92818204999257,
1,0,0.0,0.0,0,0,77,77,31,,,,,231.15326489997096,231.80406960006803,231.80406960006803,232.30521630006842,315,315,232.30521630006842,232.30521630006842,232.30521630006842,232.30521630006842,232.30521630006842,232.30521630006842,232.30521630006842,232.30521630006842,232.30521630006842,232.671331099933,232.671331099933,232.671331099933,232.671331099933,232.671331099933,232.671331099933,232.671331099933,232.671331099933,232.671331099933,15,4,"[0.05016799992881715, 0.08348359982483089, 0.15026509994640946, 0.21700459998100996]","[0.06698499992489815, 0.13370050000958145, 0.1669916999526322, 0.2671932999510318]",232.671331099933,232.87184490007348,0.0,232.87184490007348,0,0.0,0,1,1000,num_1,0.6844973999541253,,31,14,2026-03-12_14h32.05.800,2026A_exp2,2022.2.4,59.92818204999257,
1000,1,0.0,0.0,1,0,78,78,8,,,,,233.57238010014407,234.2230724999681,234.2230724999681,234.70761859999038,315,315,234.70761859999038,234.70761859999038,234.70761859999038,234.70761859999038,234.70761859999038,234.70761859999038,234.70761859999038,234.70761859999038,234.70761859999038,235.07396410009824,235.07396410009824,235.07396410009824,235.07396410009824,235.07396410009824,235.07396410009824,235.07396410009824,235.07396410009824,235.07396410009824,18,3,"[0.06693680002354085, 0.1336743999272585, 0.23380609997548163]","[0.1002223000396043, 0.16705950000323355, 0.25053670001216233]",235.07396410009824,235.27602749993093,1000,235.27602749993093,1000,1000,1000,1000,0,num_3,0.40849420009180903,,31,14,2026-03-12_14h32.05.800,2026A_exp2,2022.2.4,59.92818204999257,
1,0,6.1,0.0,1,0,79,79,53,,,,,235.70818289997987,236.35861760005355,236.35861760005355,236.85970219993033,315,45,236.85970219993033,236.85970219993033,236.85970219993033,236.85970219993033,236.85970219993033,236.85970219993033,236.85970219993033,236.85970219993033,236.85970219993033,237.22616940014996,237.22616940014996,237.22616940014996,237.22616940014996,237.22616940014996,237.22616940014996,237.22616940014996,237.22616940014996,237.22616940014996,19,4,"[0.05061189993284643, 0.11738579999655485, 0.20085839997045696, 0.3510396000929177]","[0.06707029999233782, 0.1341248000971973, 0.21756629995070398, 0.3678144000004977]",237.22616940014996,237.42635109997354,0.0,237.42635109997354,0,0.0,0,1,1000,num_1,0.7387618999928236,,31,14,2026-03-12_14h32.05.800,2026A_exp2,2022.2.4,59.92818204999257,
1,0,6.1,4.9,1,0,80,80,38,,,,,238.1936505001504,238.84429710009135,238.84429710009135,239.3288934000302,45,315,239.3288934000302,239.3288934000302,239.3288934000302,239.3288934000302,239.3288934000302,239.3288934000302,239.3288934000302,239.3288934000302,239.3288934000302,239.69535179995,239.69535179995,239.69535179995,239.69535179995,239.69535179995,239.69535179995,239.69535179995,239.69535179995,239.69535179995,23,0,,,239.69535179995,239.8953545000404,4.9,239.8953545000404,1,4.9,1,1,1000,num_4,0.7814362999051809,,31,14,2026-03-12_14h32.05.800,2026A_exp2,2022.2.4,59.92818204999257,
1,0,4.9,4.9,1,0,81,81,32,,,,,240.69610560010187,241.34696709993295,241.34696709993295,241.8313623999711,315,315,241.8313623999711,241.8313623999711,241.8313623999711,241.8313623999711,241.8313623999711,241.8313623999711,241.8313623999711,241.8313623999711,241.8313623999711,242.19770750007592,242.19770750007592,242.19770750007592,242.19770750007592,242.19770750007592,242.19770750007592,242.19770750007592,242.19770750007592,242.19770750007592,2,3,"[0.001231399830430746, 0.1502938000485301, 0.3671519998461008]","[0.13346839998848736, 0.3503479999490082, 0.3671561998780817]",242.19770750007592,242.39804639993235,4.9,242.39804639993235,1,4.9,1,1,1000,num_4,0.5425333001185209,,31,14,2026-03-12_14h32.05.800,2026A_exp2,2022.2.4,59.92818204999257,
1,0,3.7,0.0,1,0,82,82,55,,,,,242.9651788000483,243.60988479992375,243.60988479992375,244.10018690000288,45,45,244.10018690000288,244.10018690000288,244.10018690000288,244.10018690000288,244.10018690000288,244.10018690000288,244.10018690000288,244.10018690000288,244.10018690000288,244.46652120002545,244.46652120002545,244.46652120002545,244.46652120002545,244.46652120002545,244.46652120002545,244.46652120002545,244.46652120002545,244.46652120002545,21,1,[0.21693079988472164],[0.25047259987331927],244.46652120002545,244.66670890012756,0.0,244.66670890012756,0,0.0,0,1,1000,num_1,1.3140586998779327,,31,14,2026-03-12_14h32.05.800,2026A_exp2,2022.2.4,59.92818204999257,
1,0,3.7,6.1,0,0,83,83,74,,,,,246.0013586001005,246.63520080014132,246.63520080014132,247.1363210999407,45,315,247.1363210999407,247.1363210999407,247.1363210999407,247.1363210999407,247.1363210999407,247.1363210999407,247.1363210999407,247.1363210999407,247.1363210999407,247.50304120010696,247.50304120010696,247.50304120010696,247.50304120010696,247.50304120010696,247.50304120010696,247.50304120010696,247.50304120010696,247.50304120010696,20,2,"[0.2003787998110056, 0.2835722998715937]","[0.21694840001873672, 0.3170174998231232]",247.50304120010696,247.7032602999825,3.7,247.7032602999825,1,3.7,1,1,1000,num_4,0.9901014000643045,,31,14,2026-03-12_14h32.05.800,2026A_exp2,2022.2.4,59.92818204999257,
1000,1,0.0,4.9,1,0,84,84,51,,,,,248.72088310006075,249.37168330000713,249.37168330000713,249.85608600010164,315,315,249.85608600010164,249.85608600010164,249.85608600010164,249.85608600010164,249.85608600010164,249.85608600010164,249.85608600010164,249.85608600010164,249.85608600010164,250.22244990011677,250.22244990011677,250.22244990011677,250.22244990011677,250.22244990011677,250.22244990011677,250.22244990011677,250.22244990011677,250.22244990011677,4,3,"[0.03363090008497238, 0.083526800153777, 0.13379870005883276]","[0.06683780020102859, 0.11687170015648007, 0.3669128001201898]",250.22244990011677,250.4245267000515,1000,250.4245267000515,1000,1000,1000,1000,1,num_2,1.1479913000948727,,31,14,2026-03-12_14h32.05.800,2026A_exp2,2022.2.4,59.92818204999257,
1000,1,0.0,6.1,0,0,85,85,5,,,,,251.5904034001287,252.24111990001984,252.24111990001984,252.74214450013824,45,315,252.74214450013824,252.74214450013824,252.74214450013824,252.74214450013824,252.74214450013824,252.74214450013824,252.74214450013824,252.74214450013824,252.74214450013824,253.10861470014788,253.10861470014788,253.10861470014788,253.10861470014788,253.10861470014788,253.10861470014788,253.10861470014788,253.10861470014788,253.10861470014788,16,4,"[0.0012516998685896397, 0.1671585999429226, 0.23374479985795915, 0.35052650002762675]","[0.033443199936300516, 0.20033359993249178, 0.25045439996756613, 0.3670246999245137]",253.10861470014788,253.31067609996535,1000,253.31067609996535,1000,1000,1000,1000,1,num_2,0.526187099982053,,31,14,2026-03-12_14h32.05.800,2026A_exp2,2022.2.4,59.92818204999257,
1,0,3.7,0.0,1,0,86,86,73,,,,,253.85939330002293,254.51015980006196,254.51015980006196,255.0111193000339,45,315,255.0111193000339,255.0111193000339,255.0111193000339,255.0111193000339,255.0111193000339,255.0111193000339,255.0111193000339,255.0111193000339,255.0111193000339,255.37761109997518,255.37761109997518,255.37761109997518,255.37761109997518,255.37761109997518,255.37761109997518,255.37761109997518,255.37761109997518,255.37761109997518,21,1,[0.3506205000448972],[0.3671947999391705],255.37761109997518,255.57778410008177,0.0,255.57778410008177,0,0.0,0,1,1000,num_1,0.6020363999996334,,31,14,2026-03-12_14h32.05.800,2026A_exp2,2022.2.4,59.92818204999257,
1,0,3.7,3.7,1,0,87,87,11,,,,,256.2118240999989,256.8624909000937,256.8624909000937,257.3467091000639,315,45,257.3467091000639,257.3467091000639,257.3467091000639,257.3467091000639,257.3467091000639,257.3467091000639,257.3467091000639,257.3467091000639,257.3467091000639,257.71332240011543,257.71332240011543,257.71332240011543,257.71332240011543,257.71332240011543,257.71332240011543,257.71332240011543,257.71332240011543,257.71332240011543,21,2,"[0.03355140006169677, 0.3170958000700921]","[0.05012380005791783, 0.3339272001758218]",257.71332240011543,257.913449899992,3.7,257.913449899992,0,3.7,1,0,1000,num_1,0.7066341999452561,,31,14,2026-03-12_14h32.05.800,2026A_exp2,2022.2.4,59.92818204999257,
1000,1,4.9,4.9,1,0,88,88,67,,,,,258.64751220005564,259.2982206000015,259.2982206000015,259.78365240013227,45,45,259.78365240013227,259.78365240013227,259.78365240013227,259.78365240013227,259.78365240013227,259.78365240013227,259.78365240013227,259.78365240013227,259.78365240013227,260.1491762001533,260.1491762001533,260.1491762001533,260.1491762001533,260.1491762001533,260.1491762001533,260.1491762001533,260.1491762001533,260.1491762001533,9,1,[0.001860199961811304],[0.2330815999303013],260.1491762001533,260.35092280013487,1000,260.35092280013487,1000,1000,1000,1000,0,num_3,0.48494380014017224,,31,14,2026-03-12_14h32.05.800,2026A_exp2,2022.2.4,59.92818204999257,
1,0,4.9,0.0,0,0,89,89,47,,,,,260.86636600014754,261.51695189997554,261.51695189997554,262.01811440009624,315,315,262.01811440009624,262.01811440009624,262.01811440009624,262.01811440009624,262.01811440009624,262.01811440009624,262.01811440009624,262.01811440009624,262.01811440009624,262.36795380013064,262.36795380013064,262.36795380013064,262.36795380013064,262.36795380013064,262.36795380013064,262.36795380013064,262.36795380013064,262.36795380013064,11,2,"[0.10028819995932281, 0.350609399843961]","[0.26711779995821416, 0.35061369999311864]",262.36795380013064,262.56809479999356,4.9,262.58485210011713,0,4.9,1,0,1000,num_1,0.5798624998424202,,31,14,2026-03-12_14h32.05.800,2026A_exp2,2022.2.4,59.92818204999257,
,,,,,,,,,,,,,,,,,,,,,,,,,,,,,,,,,,,,,,,,,,,,,,,,,,,,263.19455280015245,,,,,,,
