validity,detectorcomp,contrastCW,contrastCCW,precueCWorCCW,block_80trials.thisRepN,block_80trials.thisTrialN,block_80trials.thisN,block_80trials.thisIndex,etRecord.started,etRecord.stopped,text.started,text.stopped,text_4.started,text_4.stopped,text_6.started,text_6.stopped,oriCW,oriCCW,roi_2.started,grating_UR.started,grating_UL.started,grating_LR.started,grating_LL.started,noise_UR.started,noise_UL.started,noise_LR.started,noise_LL.started,roi_2.stopped,grating_UR.stopped,grating_UL.stopped,grating_LR.stopped,grating_LL.stopped,noise_UR.stopped,noise_UL.stopped,noise_LR.stopped,noise_LL.stopped,outframe,roi_2.numLooks,roi_2.timesOn,roi_2.timesOff,text_2.started,text_2.stopped,probedcontrast,key_resp.started,respdetect,relevantContrast,correctDetect,TorFdetect,respCWorCCW,key_resp.keys,key_resp.rt,feedback_display_.started,participantNo,blockNo,date,expName,psychopyVersion,frameRate,
1000,1,0.0,0.0,0,0,0,0,41,3.409991040825844e-05,3.409991040825844e-05,53.66575450007804,55.66992860008031,55.66992860008031,56.30173479998484,56.30173479998484,56.821249099913985,45,315,56.821249099913985,56.821249099913985,56.821249099913985,56.821249099913985,56.821249099913985,56.821249099913985,56.821249099913985,56.821249099913985,56.821249099913985,57.169411399867386,57.169411399867386,57.169411399867386,57.169411399867386,57.169411399867386,57.169411399867386,57.169411399867386,57.169411399867386,57.169411399867386,0,1,[0.0012180001940578222],[0.36768970009870827],57.169411399867386,57.376462100073695,1000,57.376462100073695,1000,1000,1000,1000,1,num_2,0.6938510001637042,,34,8,2026-03-13_10h47.16.939,2026A_exp2,2022.2.4,59.907610435258775,
1000,1,4.9,4.9,1,0,1,1,60,,,,,58.087223700014874,58.73767239996232,58.73767239996232,59.23859680001624,315,315,59.23859680001624,59.23859680001624,59.23859680001624,59.23859680001624,59.23859680001624,59.23859680001624,59.23859680001624,59.23859680001624,59.23859680001624,59.60508739994839,59.60508739994839,59.60508739994839,59.60508739994839,59.60508739994839,59.60508739994839,59.60508739994839,59.60508739994839,59.60508739994839,0,1,[0.001258400036022067],[0.3674174000043422],59.60508739994839,59.80697280005552,1000,59.80697280005552,1000,1000,1000,1000,1,num_2,0.5666811999399215,,34,8,2026-03-13_10h47.16.939,2026A_exp2,2022.2.4,59.907610435258775,
1,0,4.9,0.0,0,0,2,2,23,,,,,60.391706000082195,61.03981429990381,61.03981429990381,61.54091960005462,45,45,61.54091960005462,61.54091960005462,61.54091960005462,61.54091960005462,61.54091960005462,61.54091960005462,61.54091960005462,61.54091960005462,61.54091960005462,61.90735129988752,61.90735129988752,61.90735129988752,61.90735129988752,61.90735129988752,61.90735129988752,61.90735129988752,61.90735129988752,61.90735129988752,0,1,[0.001266599865630269],[0.3668775998521596],61.90735129988752,62.10754160000943,4.9,62.10754160000943,1,4.9,1,1,1000,num_4,0.8660873000044376,,34,8,2026-03-13_10h47.16.939,2026A_exp2,2022.2.4,59.907610435258775,
1000,1,0.0,4.9,0,0,3,3,27,,,,,62.99202200002037,63.64835719997063,63.64835719997063,64.1436063000001,315,45,64.1436063000001,64.1436063000001,64.1436063000001,64.1436063000001,64.1436063000001,64.1436063000001,64.1436063000001,64.1436063000001,64.1436063000001,64.50999210006557,64.50999210006557,64.50999210006557,64.50999210006557,64.50999210006557,64.50999210006557,64.50999210006557,64.50999210006557,64.50999210006557,0,1,[0.00113769993185997],[0.3673133000265807],64.50999210006557,64.7121820000466,1000,64.7121820000466,1000,1000,1000,1000,1,num_2,0.8783285999670625,,34,8,2026-03-13_10h47.16.939,2026A_exp2,2022.2.4,59.907610435258775,
1,0,3.7,3.7,1,0,4,4,64,,,,,65.61121989996172,66.26186889992096,66.26186889992096,66.76293560001068,45,45,66.76293560001068,66.76293560001068,66.76293560001068,66.76293560001068,66.76293560001068,66.76293560001068,66.76293560001068,66.76293560001068,66.76293560001068,67.11262120003812,67.11262120003812,67.11262120003812,67.11262120003812,67.11262120003812,67.11262120003812,67.11262120003812,67.11262120003812,67.11262120003812,0,1,[0.0012046999763697386],[0.3506511999294162],67.11262120003812,67.31278569996357,3.7,67.32956449990161,0,3.7,1,0,1000,num_1,0.5964831002056599,,34,8,2026-03-13_10h47.16.939,2026A_exp2,2022.2.4,59.907610435258775,
1000,1,6.1,0.0,0,0,5,5,8,,,,,67.94687330001034,68.59738859999925,68.59738859999925,69.0985640999861,315,315,69.0985640999861,69.0985640999861,69.0985640999861,69.0985640999861,69.0985640999861,69.0985640999861,69.0985640999861,69.0985640999861,69.0985640999861,69.44833849999122,69.44833849999122,69.44833849999122,69.44833849999122,69.44833849999122,69.44833849999122,69.44833849999122,69.44833849999122,69.44833849999122,0,1,[0.0012467000633478165],[0.35050920001231134],69.44833849999122,69.650385200046,1000,69.650385200046,1000,1000,1000,1000,0,num_3,0.5239047999493778,,34,8,2026-03-13_10h47.16.939,2026A_exp2,2022.2.4,59.907610435258775,
1000,1,0.0,0.0,1,0,6,6,39,,,,,70.19893509987742,70.84950120002031,70.84950120002031,71.35069609992206,45,45,71.35069609992206,71.35069609992206,71.35069609992206,71.35069609992206,71.35069609992206,71.35069609992206,71.35069609992206,71.35069609992206,71.35069609992206,71.71726040006615,71.71726040006615,71.71726040006615,71.71726040006615,71.71726040006615,71.71726040006615,71.71726040006615,71.71726040006615,71.71726040006615,0,1,[0.0012199999764561653],[0.3673151000402868],71.71726040006615,71.91945139993913,1000,71.91945139993913,1000,1000,1000,1000,1,num_2,0.6225644999649376,,34,8,2026-03-13_10h47.16.939,2026A_exp2,2022.2.4,59.907610435258775,
1000,1,0.0,0.0,1,0,7,7,70,,,,,72.5679947999306,73.21884019998834,73.21884019998834,73.71988609991968,315,315,73.71988609991968,73.71988609991968,73.71988609991968,73.71988609991968,73.71988609991968,73.71988609991968,73.71988609991968,73.71988609991968,73.71988609991968,74.08628139994107,74.08628139994107,74.08628139994107,74.08628139994107,74.08628139994107,74.08628139994107,74.08628139994107,74.08628139994107,74.08628139994107,0,1,[0.0012485000770539045],[0.3670368001330644],74.08628139994107,74.28835060005076,1000,74.28835060005076,1000,1000,1000,1000,0,num_3,0.6378979999572039,,34,8,2026-03-13_10h47.16.939,2026A_exp2,2022.2.4,59.907610435258775,
1000,1,6.1,3.7,1,0,8,8,45,,,,,74.95375610003248,75.6045345000457,75.6045345000457,76.10546349990182,315,315,76.10546349990182,76.10546349990182,76.10546349990182,76.10546349990182,76.10546349990182,76.10546349990182,76.10546349990182,76.10546349990182,76.10546349990182,76.47175369993784,76.47175369993784,76.47175369993784,76.47175369993784,76.47175369993784,76.47175369993784,76.47175369993784,76.47175369993784,76.47175369993784,0,1,[0.0012397998943924904],[0.36669340007938445],76.47175369993784,76.67397490004078,1000,76.67397490004078,1000,1000,1000,1000,0,num_3,0.45201409980654716,,34,8,2026-03-13_10h47.16.939,2026A_exp2,2022.2.4,59.907610435258775,
1,0,0.0,0.0,0,0,9,9,19,,,,,77.15590090001933,77.80672740004957,77.80672740004957,78.29101849999279,45,45,78.29101849999279,78.29101849999279,78.29101849999279,78.29101849999279,78.29101849999279,78.29101849999279,78.29101849999279,78.29101849999279,78.29101849999279,78.65747099998407,78.65747099998407,78.65747099998407,78.65747099998407,78.65747099998407,78.65747099998407,78.65747099998407,78.65747099998407,78.65747099998407,0,1,[0.0012016999535262585],[0.36704370006918907],78.65747099998407,78.85779069992714,0.0,78.85779069992714,0,0.0,0,1,1000,num_1,0.46828070003539324,,34,8,2026-03-13_10h47.16.939,2026A_exp2,2022.2.4,59.907610435258775,
1000,1,0.0,0.0,1,0,10,10,62,,,,,79.34153129998595,79.9920755000785,79.9920755000785,80.49320730008185,315,315,80.49320730008185,80.49320730008185,80.49320730008185,80.49320730008185,80.49320730008185,80.49320730008185,80.49320730008185,80.49320730008185,80.49320730008185,80.85962809994817,80.85962809994817,80.85962809994817,80.85962809994817,80.85962809994817,80.85962809994817,80.85962809994817,80.85962809994817,80.85962809994817,0,1,[0.0012918999418616295],[0.3672487000003457],80.85962809994817,81.06205930002034,1000,81.06205930002034,1000,1000,1000,1000,1,num_2,0.5120803001336753,,34,8,2026-03-13_10h47.16.939,2026A_exp2,2022.2.4,59.907610435258775,
1,0,0.0,3.7,0,0,11,11,2,,,,,81.59387149987742,82.24509059987031,82.24509059987031,82.74546070001088,315,45,82.74546070001088,82.74546070001088,82.74546070001088,82.74546070001088,82.74546070001088,82.74546070001088,82.74546070001088,82.74546070001088,82.74546070001088,83.11209379998036,83.11209379998036,83.11209379998036,83.11209379998036,83.11209379998036,83.11209379998036,83.11209379998036,83.11209379998036,83.11209379998036,2,2,"[0.0009217001497745514, 0.36738680000416934]","[0.333862200146541, 0.3673920000437647]",83.11209379998036,83.3122038000729,0.0,83.3122038000729,0,0.0,0,1,1000,num_1,0.7012275999877602,,34,8,2026-03-13_10h47.16.939,2026A_exp2,2022.2.4,59.907610435258775,
1000,1,6.1,4.9,0,0,12,12,77,,,,,84.02947250008583,84.68021969986148,84.68021969986148,85.164500300074,315,45,85.164500300074,85.164500300074,85.164500300074,85.164500300074,85.164500300074,85.164500300074,85.164500300074,85.164500300074,85.164500300074,85.53104029991664,85.53104029991664,85.53104029991664,85.53104029991664,85.53104029991664,85.53104029991664,85.53104029991664,85.53104029991664,85.53104029991664,23,0,,,85.53104029991664,85.73331509996206,1000,85.73331509996206,1000,1000,1000,1000,1,num_2,0.5366227999329567,,34,8,2026-03-13_10h47.16.939,2026A_exp2,2022.2.4,59.907610435258775,
1000,1,6.1,0.0,0,0,13,13,68,,,,,86.29837219999172,86.95956599991769,86.95956599991769,87.45026610000059,315,315,87.45026610000059,87.45026610000059,87.45026610000059,87.45026610000059,87.45026610000059,87.45026610000059,87.45026610000059,87.45026610000059,87.45026610000059,87.80004139989614,87.80004139989614,87.80004139989614,87.80004139989614,87.80004139989614,87.80004139989614,87.80004139989614,87.80004139989614,87.80004139989614,22,0,,,87.80004139989614,88.00177629990503,1000,88.00177629990503,1000,1000,1000,1000,0,num_3,0.6049208999611437,,34,8,2026-03-13_10h47.16.939,2026A_exp2,2022.2.4,59.907610435258775,
1,0,0.0,0.0,1,0,14,14,53,,,,,88.63404499995522,89.28485539997928,89.28485539997928,89.78596249991097,45,45,89.78596249991097,89.78596249991097,89.78596249991097,89.78596249991097,89.78596249991097,89.78596249991097,89.78596249991097,89.78596249991097,89.78596249991097,90.13567609991878,90.13567609991878,90.13567609991878,90.13567609991878,90.13567609991878,90.13567609991878,90.13567609991878,90.13567609991878,90.13567609991878,22,0,,,90.13567609991878,90.33575129997917,0.0,90.33575129997917,0,0.0,0,1,1000,num_1,0.7658486000727862,,34,8,2026-03-13_10h47.16.939,2026A_exp2,2022.2.4,59.907610435258775,
1000,1,3.7,0.0,0,0,15,15,37,,,,,91.1198088999372,91.77062559989281,91.77062559989281,92.25489800004289,45,45,92.25489800004289,92.25489800004289,92.25489800004289,92.25489800004289,92.25489800004289,92.25489800004289,92.25489800004289,92.25489800004289,92.25489800004289,92.62153959996067,92.62153959996067,92.62153959996067,92.62153959996067,92.62153959996067,92.62153959996067,92.62153959996067,92.62153959996067,92.62153959996067,23,0,,,92.62153959996067,92.8236467000097,1000,92.8236467000097,1000,1000,1000,1000,0,num_3,0.5740426001138985,,34,8,2026-03-13_10h47.16.939,2026A_exp2,2022.2.4,59.907610435258775,
1000,1,6.1,0.0,1,0,16,16,79,,,,,93.42200889997184,94.0729268998839,94.0729268998839,94.5573996999301,45,45,94.5573996999301,94.5573996999301,94.5573996999301,94.5573996999301,94.5573996999301,94.5573996999301,94.5573996999301,94.5573996999301,94.5573996999301,94.92380980006419,94.92380980006419,94.92380980006419,94.92380980006419,94.92380980006419,94.92380980006419,94.92380980006419,94.92380980006419,94.92380980006419,23,0,,,94.92380980006419,95.12424389994703,1000,95.12424389994703,1000,1000,1000,1000,0,num_3,0.6412702000234276,,34,8,2026-03-13_10h47.16.939,2026A_exp2,2022.2.4,59.907610435258775,
1,0,3.7,6.1,1,0,17,17,6,,,,,95.79123119986616,96.44328149990179,96.44328149990179,96.9429184999317,315,45,96.9429184999317,96.9429184999317,96.9429184999317,96.9429184999317,96.9429184999317,96.9429184999317,96.9429184999317,96.9429184999317,96.9429184999317,97.29279850004241,97.29279850004241,97.29279850004241,97.29279850004241,97.29279850004241,97.29279850004241,97.29279850004241,97.29279850004241,97.29279850004241,22,0,,,97.29279850004241,97.49303509993479,6.1,97.49303509993479,1,6.1,1,1,1000,num_4,1.441326999804005,,34,8,2026-03-13_10h47.16.939,2026A_exp2,2022.2.4,59.907610435258775,
1000,1,6.1,4.9,1,0,18,18,76,,,,,98.96107740001753,99.62017200002447,99.62017200002447,100.09822149993852,45,45,100.09822149993852,100.09822149993852,100.09822149993852,100.09822149993852,100.09822149993852,100.09822149993852,100.09822149993852,100.09822149993852,100.09822149993852,100.46269339998253,100.46269339998253,100.46269339998253,100.46269339998253,100.46269339998253,100.46269339998253,100.46269339998253,100.46269339998253,100.46269339998253,23,0,,,100.46269339998253,100.6645581999328,1000,100.6645581999328,1000,1000,1000,1000,1,num_2,0.516901700058952,,34,8,2026-03-13_10h47.16.939,2026A_exp2,2022.2.4,59.907610435258775,
1,0,4.9,0.0,1,0,19,19,15,,,,,101.19669619994238,101.84741039993241,101.84741039993241,102.34842299995944,45,45,102.34842299995944,102.34842299995944,102.34842299995944,102.34842299995944,102.34842299995944,102.34842299995944,102.34842299995944,102.34842299995944,102.34842299995944,102.71483549987897,102.71483549987897,102.71483549987897,102.71483549987897,102.71483549987897,102.71483549987897,102.71483549987897,102.71483549987897,102.71483549987897,23,0,,,102.71483549987897,102.9149793998804,0.0,102.9149793998804,0,0.0,0,1,1000,num_1,0.6670327999163419,,34,8,2026-03-13_10h47.16.939,2026A_exp2,2022.2.4,59.907610435258775,
1,0,6.1,6.1,1,0,20,20,89,,,,,103.59907320002094,104.24976600008085,104.24976600008085,104.73412090004422,45,45,104.73412090004422,104.73412090004422,104.73412090004422,104.73412090004422,104.73412090004422,104.73412090004422,104.73412090004422,104.73412090004422,104.73412090004422,105.10064859990962,105.10064859990962,105.10064859990962,105.10064859990962,105.10064859990962,105.10064859990962,105.10064859990962,105.10064859990962,105.10064859990962,23,0,,,105.10064859990962,105.30084250005893,6.1,105.30084250005893,1,6.1,1,1,1000,num_4,0.9769337000325322,,34,8,2026-03-13_10h47.16.939,2026A_exp2,2022.2.4,59.907610435258775,
1,0,0.0,3.7,1,0,21,21,12,,,,,106.30149189988151,106.93580839992501,106.93580839992501,107.43687399988994,45,315,107.43687399988994,107.43687399988994,107.43687399988994,107.43687399988994,107.43687399988994,107.43687399988994,107.43687399988994,107.43687399988994,107.43687399988994,107.80337019986473,107.80337019986473,107.80337019986473,107.80337019986473,107.80337019986473,107.80337019986473,107.80337019986473,107.80337019986473,107.80337019986473,23,0,,,107.80337019986473,108.0035844000522,3.7,108.0035844000522,0,3.7,1,0,1000,num_1,0.7630629998166114,,34,8,2026-03-13_10h47.16.939,2026A_exp2,2022.2.4,59.907610435258775,
1000,1,0.0,3.7,1,0,22,22,75,,,,,108.78746959986165,109.43829419999383,109.43829419999383,109.92265730001964,315,45,109.92265730001964,109.92265730001964,109.92265730001964,109.92265730001964,109.92265730001964,109.92265730001964,109.92265730001964,109.92265730001964,109.92265730001964,110.28920909995213,110.28920909995213,110.28920909995213,110.28920909995213,110.28920909995213,110.28920909995213,110.28920909995213,110.28920909995213,110.28920909995213,15,3,"[0.03348149987868965, 0.20018889987841249, 0.3170200998429209]","[0.050194500014185905, 0.2838018999900669, 0.3505021999590099]",110.28920909995213,110.49113529990427,1000,110.49113529990427,1000,1000,1000,1000,1,num_2,0.49851940013468266,,34,8,2026-03-13_10h47.16.939,2026A_exp2,2022.2.4,59.907610435258775,
1,0,6.1,0.0,0,0,23,23,24,,,,,111.00651449989527,111.6571760000661,111.6571760000661,112.15803939988837,315,45,112.15803939988837,112.15803939988837,112.15803939988837,112.15803939988837,112.15803939988837,112.15803939988837,112.15803939988837,112.15803939988837,112.15803939988837,112.52434669993818,112.52434669993818,112.52434669993818,112.52434669993818,112.52434669993818,112.52434669993818,112.52434669993818,112.52434669993818,112.52434669993818,0,1,[0.000757100060582161],[0.36699349991977215],112.52434669993818,112.72477440000512,6.1,112.72477440000512,1,6.1,1,1,1000,num_4,0.5287986001931131,,34,8,2026-03-13_10h47.16.939,2026A_exp2,2022.2.4,59.907610435258775,
0,0,0.0,0.0,0,0,24,24,67,,,,,113.27537659998052,113.92609869991429,113.92609869991429,114.41048439987935,315,45,114.41048439987935,114.41048439987935,114.41048439987935,114.41048439987935,114.41048439987935,114.41048439987935,114.41048439987935,114.41048439987935,114.41048439987935,114.77658269996755,114.77658269996755,114.77658269996755,114.77658269996755,114.77658269996755,114.77658269996755,114.77658269996755,114.77658269996755,114.77658269996755,23,0,,,114.77658269996755,114.97720530000515,0.0,114.97720530000515,0,0.0,0,1,1000,num_1,0.5895084000658244,,34,8,2026-03-13_10h47.16.939,2026A_exp2,2022.2.4,59.907610435258775,
1,0,0.0,4.9,1,0,25,25,36,,,,,115.594257599907,116.24512229999527,116.24512229999527,116.72952599986456,315,45,116.72952599986456,116.72952599986456,116.72952599986456,116.72952599986456,116.72952599986456,116.72952599986456,116.72952599986456,116.72952599986456,116.72952599986456,117.09594450006261,117.09594450006261,117.09594450006261,117.09594450006261,117.09594450006261,117.09594450006261,117.09594450006261,117.09594450006261,117.09594450006261,23,0,,,117.09594450006261,117.29610799998045,4.9,117.29610799998045,1,4.9,1,1,1000,num_4,0.7092931000515819,,34,8,2026-03-13_10h47.16.939,2026A_exp2,2022.2.4,59.907610435258775,
0,0,3.7,6.1,1,0,26,26,17,,,,,118.03006280004047,118.68080989993177,118.68080989993177,119.17030770005658,45,315,119.17030770005658,119.17030770005658,119.17030770005658,119.17030770005658,119.17030770005658,119.17030770005658,119.17030770005658,119.17030770005658,119.17030770005658,119.53173549985513,119.53173549985513,119.53173549985513,119.53173549985513,119.53173549985513,119.53173549985513,119.53173549985513,119.53173549985513,119.53173549985513,23,0,,,119.53173549985513,119.73203979991376,3.7,119.73203979991376,1,3.7,1,1,1000,num_4,0.9375734000932425,,34,8,2026-03-13_10h47.16.939,2026A_exp2,2022.2.4,59.907610435258775,
1,0,3.7,6.1,0,0,27,27,55,,,,,120.69950510002673,121.35148409986869,121.35148409986869,121.83976099989377,315,315,121.83976099989377,121.83976099989377,121.83976099989377,121.83976099989377,121.83976099989377,121.83976099989377,121.83976099989377,121.83976099989377,121.83976099989377,122.20116920000874,122.20116920000874,122.20116920000874,122.20116920000874,122.20116920000874,122.20116920000874,122.20116920000874,122.20116920000874,122.20116920000874,23,0,,,122.20116920000874,122.40692560002208,3.7,122.40692560002208,0,3.7,1,0,1000,num_1,0.5908858000766486,,34,8,2026-03-13_10h47.16.939,2026A_exp2,2022.2.4,59.907610435258775,
1,0,3.7,4.9,0,0,28,28,31,,,,,123.01852909987792,123.66919420007616,123.66919420007616,124.17020449996926,315,315,124.17020449996926,124.17020449996926,124.17020449996926,124.17020449996926,124.17020449996926,124.17020449996926,124.17020449996926,124.17020449996926,124.17020449996926,124.5200628999155,124.5200628999155,124.5200628999155,124.5200628999155,124.5200628999155,124.5200628999155,124.5200628999155,124.5200628999155,124.5200628999155,22,0,,,124.5200628999155,124.72010609996505,3.7,124.72010609996505,0,3.7,1,0,1000,num_1,0.7982481000944972,,34,8,2026-03-13_10h47.16.939,2026A_exp2,2022.2.4,59.907610435258775,
1,0,0.0,0.0,0,0,29,29,66,,,,,125.53759389999323,126.18822399992496,126.18822399992496,126.67269139993005,315,45,126.67269139993005,126.67269139993005,126.67269139993005,126.67269139993005,126.67269139993005,126.67269139993005,126.67269139993005,126.67269139993005,126.67269139993005,127.03908420004882,127.03908420004882,127.03908420004882,127.03908420004882,127.03908420004882,127.03908420004882,127.03908420004882,127.03908420004882,127.03908420004882,23,0,,,127.03908420004882,127.23935949988663,0.0,127.23935949988663,1,0.0,0,0,1000,num_4,0.6145291000138968,,34,8,2026-03-13_10h47.16.939,2026A_exp2,2022.2.4,59.907610435258775,
1000,1,0.0,3.7,0,0,30,30,32,,,,,127.87328549986705,128.53370469994843,128.53370469994843,129.00863749999553,315,45,129.00863749999553,129.00863749999553,129.00863749999553,129.00863749999553,129.00863749999553,129.00863749999553,129.00863749999553,129.00863749999553,129.00863749999553,129.37510129995644,129.37510129995644,129.37510129995644,129.37510129995644,129.37510129995644,129.37510129995644,129.37510129995644,129.37510129995644,129.37510129995644,23,0,,,129.37510129995644,129.57707810006104,1000,129.57707810006104,1000,1000,1000,1000,1,num_2,0.7251045999582857,,34,8,2026-03-13_10h47.16.939,2026A_exp2,2022.2.4,59.907610435258775,
1000,1,4.9,0.0,0,0,31,31,20,,,,,130.32598359999247,130.9764664999675,130.9764664999675,131.46090609999374,45,315,131.46090609999374,131.46090609999374,131.46090609999374,131.46090609999374,131.46090609999374,131.46090609999374,131.46090609999374,131.46090609999374,131.46090609999374,131.82738909986801,131.82738909986801,131.82738909986801,131.82738909986801,131.82738909986801,131.82738909986801,131.82738909986801,131.82738909986801,131.82738909986801,0,1,[0.0012036999687552452],[0.36709519987925887],131.82738909986801,132.02919819997624,1000,132.02919819997624,1000,1000,1000,1000,0,num_3,0.5363968000747263,,34,8,2026-03-13_10h47.16.939,2026A_exp2,2022.2.4,59.907610435258775,
1,0,3.7,4.9,0,0,32,32,84,,,,,132.5947742999997,133.24549630004913,133.24549630004913,133.74644830008037,45,45,133.74644830008037,133.74644830008037,133.74644830008037,133.74644830008037,133.74644830008037,133.74644830008037,133.74644830008037,133.74644830008037,133.74644830008037,134.1128700999543,134.1128700999543,134.1128700999543,134.1128700999543,134.1128700999543,134.1128700999543,134.1128700999543,134.1128700999543,134.1128700999543,1,3,"[0.0012564999051392078, 0.16704509989358485, 0.31725759990513325]","[0.15031810011714697, 0.30044019990600646, 0.3673298000358045]",134.1128700999543,134.3132233999204,3.7,134.3132233999204,0,3.7,1,0,1000,num_1,0.5808415999636054,,34,8,2026-03-13_10h47.16.939,2026A_exp2,2022.2.4,59.907610435258775,
1000,1,6.1,6.1,0,0,33,33,50,,,,,134.91547919996083,135.56440420006402,135.56440420006402,136.06558940000832,315,45,136.06558940000832,136.06558940000832,136.06558940000832,136.06558940000832,136.06558940000832,136.06558940000832,136.06558940000832,136.06558940000832,136.06558940000832,136.4320092999842,136.4320092999842,136.4320092999842,136.4320092999842,136.4320092999842,136.4320092999842,136.4320092999842,136.4320092999842,136.4320092999842,23,0,,,136.4320092999842,136.63401649985462,1000,136.63401649985462,1000,1000,1000,1000,1,num_2,0.5480476999655366,,34,8,2026-03-13_10h47.16.939,2026A_exp2,2022.2.4,59.907610435258775,
0,0,0.0,0.0,0,0,34,34,69,,,,,137.19937789998949,137.85010570008308,137.85010570008308,138.35101630003192,315,45,138.35101630003192,138.35101630003192,138.35101630003192,138.35101630003192,138.35101630003192,138.35101630003192,138.35101630003192,138.35101630003192,138.35101630003192,138.71757239988074,138.71757239988074,138.71757239988074,138.71757239988074,138.71757239988074,138.71757239988074,138.71757239988074,138.71757239988074,138.71757239988074,23,0,,,138.71757239988074,138.91786310006864,0.0,138.91786310006864,1,0.0,0,0,1000,num_4,0.7194183999672532,,34,8,2026-03-13_10h47.16.939,2026A_exp2,2022.2.4,59.907610435258775,
1000,1,6.1,6.1,0,0,35,35,74,,,,,139.6684175999835,140.3192050999496,140.3192050999496,140.8041926000733,315,45,140.8041926000733,140.8041926000733,140.8041926000733,140.8041926000733,140.8041926000733,140.8041926000733,140.8041926000733,140.8041926000733,140.8041926000733,141.1700102998875,141.1700102998875,141.1700102998875,141.1700102998875,141.1700102998875,141.1700102998875,141.1700102998875,141.1700102998875,141.1700102998875,23,0,,,141.1700102998875,141.3720438000746,1000,141.3720438000746,1000,1000,1000,1000,1,num_2,0.48183359997347,,34,8,2026-03-13_10h47.16.939,2026A_exp2,2022.2.4,59.907610435258775,
1000,1,4.9,0.0,0,0,36,36,78,,,,,141.87087969994172,142.52102419990115,142.52102419990115,143.0224718998652,45,315,143.0224718998652,143.0224718998652,143.0224718998652,143.0224718998652,143.0224718998652,143.0224718998652,143.0224718998652,143.0224718998652,143.0224718998652,143.38879309990443,143.38879309990443,143.38879309990443,143.38879309990443,143.38879309990443,143.38879309990443,143.38879309990443,143.38879309990443,143.38879309990443,23,0,,,143.38879309990443,143.59119080007076,1000,143.59119080007076,1000,1000,1000,1000,0,num_3,0.4707555000204593,,34,8,2026-03-13_10h47.16.939,2026A_exp2,2022.2.4,59.907610435258775,
1,0,6.1,4.9,0,0,37,37,30,,,,,144.08964899997227,144.74028289993294,144.74028289993294,145.24148810002953,315,315,145.24148810002953,145.24148810002953,145.24148810002953,145.24148810002953,145.24148810002953,145.24148810002953,145.24148810002953,145.24148810002953,145.24148810002953,145.59127829992212,145.59127829992212,145.59127829992212,145.59127829992212,145.59127829992212,145.59127829992212,145.59127829992212,145.59127829992212,145.59127829992212,22,0,,,145.59127829992212,145.79133969987743,6.1,145.8079375999514,1,6.1,1,1,1000,num_4,0.8378880999516696,,34,8,2026-03-13_10h47.16.939,2026A_exp2,2022.2.4,59.907610435258775,
1000,1,4.9,4.9,1,0,38,38,85,,,,,146.675521499943,147.3094557998702,147.3094557998702,147.81063649989665,45,315,147.81063649989665,147.81063649989665,147.81063649989665,147.81063649989665,147.81063649989665,147.81063649989665,147.81063649989665,147.81063649989665,147.81063649989665,148.17704909993336,148.17704909993336,148.17704909993336,148.17704909993336,148.17704909993336,148.17704909993336,148.17704909993336,148.17704909993336,148.17704909993336,23,0,,,148.17704909993336,148.37945550004952,1000,148.37945550004952,1000,1000,1000,1000,1,num_2,0.7139381999149919,,34,8,2026-03-13_10h47.16.939,2026A_exp2,2022.2.4,59.907610435258775,
1000,1,0.0,0.0,0,0,39,39,47,,,,,149.11122469999827,149.76189059996977,149.76189059996977,150.2631297998596,45,45,150.2631297998596,150.2631297998596,150.2631297998596,150.2631297998596,150.2631297998596,150.2631297998596,150.2631297998596,150.2631297998596,150.2631297998596,150.62945330003276,150.62945330003276,150.62945330003276,150.62945330003276,150.62945330003276,150.62945330003276,150.62945330003276,150.62945330003276,150.62945330003276,23,0,,,150.62945330003276,150.8316478000488,1000,150.8316478000488,1000,1000,1000,1000,1,num_2,0.6061056000180542,,34,8,2026-03-13_10h47.16.939,2026A_exp2,2022.2.4,59.907610435258775,
1000,1,0.0,4.9,1,0,40,40,73,,,,,151.46396169997752,152.11419530003332,152.11419530003332,152.61533529986627,315,315,152.61533529986627,152.61533529986627,152.61533529986627,152.61533529986627,152.61533529986627,152.61533529986627,152.61533529986627,152.61533529986627,152.61533529986627,152.9819134999998,152.9819134999998,152.9819134999998,152.9819134999998,152.9819134999998,152.9819134999998,152.9819134999998,152.9819134999998,152.9819134999998,23,0,,,152.9819134999998,153.18328149989247,1000,153.18328149989247,1000,1000,1000,1000,1,num_2,0.5271127000451088,,34,8,2026-03-13_10h47.16.939,2026A_exp2,2022.2.4,59.907610435258775,
1000,1,3.7,6.1,0,0,41,41,81,,,,,153.73247609985992,154.38310929993168,154.38310929993168,154.884400999872,315,315,154.884400999872,154.884400999872,154.884400999872,154.884400999872,154.884400999872,154.884400999872,154.884400999872,154.884400999872,154.884400999872,155.2505705000367,155.2505705000367,155.2505705000367,155.2505705000367,155.2505705000367,155.2505705000367,155.2505705000367,155.2505705000367,155.2505705000367,23,0,,,155.2505705000367,155.45266809989698,1000,155.45266809989698,1000,1000,1000,1000,1,num_2,0.4420357998460531,,34,8,2026-03-13_10h47.16.939,2026A_exp2,2022.2.4,59.907610435258775,
1000,1,0.0,6.1,0,0,42,42,83,,,,,155.91820559999906,156.56863999995403,156.56863999995403,157.06975919986144,315,315,157.06975919986144,157.06975919986144,157.06975919986144,157.06975919986144,157.06975919986144,157.06975919986144,157.06975919986144,157.06975919986144,157.06975919986144,157.4362051000353,157.4362051000353,157.4362051000353,157.4362051000353,157.4362051000353,157.4362051000353,157.4362051000353,157.4362051000353,157.4362051000353,0,1,[0.0012405000161379576],[0.3666207999922335],157.4362051000353,157.6381900999695,1000,157.6381900999695,1000,1000,1000,1000,1,num_2,0.45655929995700717,,34,8,2026-03-13_10h47.16.939,2026A_exp2,2022.2.4,59.907610435258775,
1,0,0.0,6.1,0,0,43,43,72,,,,,158.1201909999363,158.7709280999843,158.7709280999843,159.27211349993013,315,45,159.27211349993013,159.27211349993013,159.27211349993013,159.27211349993013,159.27211349993013,159.27211349993013,159.27211349993013,159.27211349993013,159.27211349993013,159.63812809996307,159.63812809996307,159.63812809996307,159.63812809996307,159.63812809996307,159.63812809996307,159.63812809996307,159.63812809996307,159.63812809996307,0,1,[0.0012128998059779406],[0.3665442999918014],159.63812809996307,159.8386403999757,0.0,159.8386403999757,0,0.0,0,1,1000,num_1,0.7034444001037627,,34,8,2026-03-13_10h47.16.939,2026A_exp2,2022.2.4,59.907610435258775,
1000,1,6.1,0.0,0,0,44,44,58,,,,,160.5726647998672,161.22343909996562,161.22343909996562,161.70786489988677,315,315,161.70786489988677,161.70786489988677,161.70786489988677,161.70786489988677,161.70786489988677,161.70786489988677,161.70786489988677,161.70786489988677,161.70786489988677,162.07432899996638,162.07432899996638,162.07432899996638,162.07432899996638,162.07432899996638,162.07432899996638,162.07432899996638,162.07432899996638,162.07432899996638,23,0,,,162.07432899996638,162.27662639995106,1000,162.27662639995106,1000,1000,1000,1000,0,num_3,0.5131892000790685,,34,8,2026-03-13_10h47.16.939,2026A_exp2,2022.2.4,59.907610435258775,
1,0,4.9,0.0,1,0,45,45,48,,,,,162.80827199993655,163.45895030000247,163.45895030000247,163.96000329987146,45,315,163.96000329987146,163.96000329987146,163.96000329987146,163.96000329987146,163.96000329987146,163.96000329987146,163.96000329987146,163.96000329987146,163.96000329987146,164.326421600068,164.326421600068,164.326421600068,164.326421600068,164.326421600068,164.326421600068,164.326421600068,164.326421600068,164.326421600068,23,0,,,164.326421600068,164.526809199946,0.0,164.526809199946,1,0.0,0,0,1000,num_4,1.382832600036636,,34,8,2026-03-13_10h47.16.939,2026A_exp2,2022.2.4,59.907610435258775,
1000,1,0.0,3.7,1,0,46,46,43,,,,,165.92796949995682,166.57885649986565,166.57885649986565,167.06310450006276,45,315,167.06310450006276,167.06310450006276,167.06310450006276,167.06310450006276,167.06310450006276,167.06310450006276,167.06310450006276,167.06310450006276,167.06310450006276,167.4296659999527,167.4296659999527,167.4296659999527,167.4296659999527,167.4296659999527,167.4296659999527,167.4296659999527,167.4296659999527,167.4296659999527,23,0,,,167.4296659999527,167.63155539985746,1000,167.63155539985746,1000,1000,1000,1000,1,num_2,0.4948949001263827,,34,8,2026-03-13_10h47.16.939,2026A_exp2,2022.2.4,59.907610435258775,
1000,1,3.7,0.0,1,0,47,47,44,,,,,168.14689669990912,168.79768299986608,168.79768299986608,169.2987514999695,315,315,169.2987514999695,169.2987514999695,169.2987514999695,169.2987514999695,169.2987514999695,169.2987514999695,169.2987514999695,169.2987514999695,169.2987514999695,169.64853019989096,169.64853019989096,169.64853019989096,169.64853019989096,169.64853019989096,169.64853019989096,169.64853019989096,169.64853019989096,169.64853019989096,22,0,,,169.64853019989096,169.85065630008467,1000,169.86548259994015,1000,1000,1000,1000,0,num_3,0.47573930001817644,,34,8,2026-03-13_10h47.16.939,2026A_exp2,2022.2.4,59.907610435258775,
1000,1,6.1,3.7,0,0,48,48,61,,,,,170.36576569988392,171.01646229997277,171.01646229997277,171.51759919989854,45,45,171.51759919989854,171.51759919989854,171.51759919989854,171.51759919989854,171.51759919989854,171.51759919989854,171.51759919989854,171.51759919989854,171.51759919989854,171.88387700007297,171.88387700007297,171.88387700007297,171.88387700007297,171.88387700007297,171.88387700007297,171.88387700007297,171.88387700007297,171.88387700007297,23,0,,,171.88387700007297,172.08432659995742,1000,172.08432659995742,1000,1000,1000,1000,1,num_2,0.48946429998613894,,34,8,2026-03-13_10h47.16.939,2026A_exp2,2022.2.4,59.907610435258775,
0,0,3.7,3.7,0,0,49,49,63,,,,,172.60172179993242,173.25216869986616,173.25216869986616,173.73656810005195,315,45,173.73656810005195,173.73656810005195,173.73656810005195,173.73656810005195,173.73656810005195,173.73656810005195,173.73656810005195,173.73656810005195,173.73656810005195,174.10292609990574,174.10292609990574,174.10292609990574,174.10292609990574,174.10292609990574,174.10292609990574,174.10292609990574,174.10292609990574,174.10292609990574,0,1,[0.001201600069180131],[0.36737870005890727],174.10292609990574,174.30307290004566,3.7,174.30307290004566,1,3.7,1,1,1000,num_4,1.6308060998562723,,34,8,2026-03-13_10h47.16.939,2026A_exp2,2022.2.4,59.907610435258775,
1,0,0.0,0.0,0,0,50,50,49,,,,,175.95458650006913,176.60541100008413,176.60541100008413,177.08976779994555,315,45,177.08976779994555,177.08976779994555,177.08976779994555,177.08976779994555,177.08976779994555,177.08976779994555,177.08976779994555,177.08976779994555,177.08976779994555,177.45638679992408,177.45638679992408,177.45638679992408,177.45638679992408,177.45638679992408,177.45638679992408,177.45638679992408,177.45638679992408,177.45638679992408,23,0,,,177.45638679992408,177.65659680007957,0.0,177.65659680007957,1,0.0,0,0,1000,num_4,0.5423138001933694,,34,8,2026-03-13_10h47.16.939,2026A_exp2,2022.2.4,59.907610435258775,
1,0,0.0,4.9,0,0,51,51,35,,,,,178.22384029999375,178.87448549992405,178.87448549992405,179.37563290004618,315,45,179.37563290004618,179.37563290004618,179.37563290004618,179.37563290004618,179.37563290004618,179.37563290004618,179.37563290004618,179.37563290004618,179.37563290004618,179.74186010006815,179.74186010006815,179.74186010006815,179.74186010006815,179.74186010006815,179.74186010006815,179.74186010006815,179.74186010006815,179.74186010006815,18,1,[0.05028990004211664],[0.13365210010670125],179.74186010006815,179.94191549997777,0.0,179.94191549997777,1,0.0,0,0,1000,num_4,1.6073155000340194,,34,8,2026-03-13_10h47.16.939,2026A_exp2,2022.2.4,59.907610435258775,
1000,1,0.0,0.0,0,0,52,52,5,,,,,181.57709899987094,182.22777609992772,182.22777609992772,182.7122191998642,315,315,182.7122191998642,182.7122191998642,182.7122191998642,182.7122191998642,182.7122191998642,182.7122191998642,182.7122191998642,182.7122191998642,182.7122191998642,183.07851190003566,183.07851190003566,183.07851190003566,183.07851190003566,183.07851190003566,183.07851190003566,183.07851190003566,183.07851190003566,183.07851190003566,23,0,,,183.07851190003566,183.28067669994198,1000,183.28067669994198,1000,1000,1000,1000,1,num_2,0.6220277999527752,,34,8,2026-03-13_10h47.16.939,2026A_exp2,2022.2.4,59.907610435258775,
1,0,0.0,3.7,0,0,53,53,22,,,,,183.92941009998322,184.58010650007054,184.58010650007054,185.08109109988436,315,315,185.08109109988436,185.08109109988436,185.08109109988436,185.08109109988436,185.08109109988436,185.08109109988436,185.08109109988436,185.08109109988436,185.08109109988436,185.43096029991284,185.43096029991284,185.43096029991284,185.43096029991284,185.43096029991284,185.43096029991284,185.43096029991284,185.43096029991284,185.43096029991284,22,0,,,185.43096029991284,185.6310155999381,0.0,185.6310155999381,0,0.0,0,1,1000,num_1,0.7261493999976665,,34,8,2026-03-13_10h47.16.939,2026A_exp2,2022.2.4,59.907610435258775,
1000,1,3.7,4.9,0,0,54,54,13,,,,,186.3819261000026,187.01592849986628,187.01592849986628,187.51703129988164,45,315,187.51703129988164,187.51703129988164,187.51703129988164,187.51703129988164,187.51703129988164,187.51703129988164,187.51703129988164,187.51703129988164,187.51703129988164,187.88344060000964,187.88344060000964,187.88344060000964,187.88344060000964,187.88344060000964,187.88344060000964,187.88344060000964,187.88344060000964,187.88344060000964,23,0,,,187.88344060000964,188.08467789995484,1000,188.08467789995484,1000,1000,1000,1000,1,num_2,0.681148000061512,,34,8,2026-03-13_10h47.16.939,2026A_exp2,2022.2.4,59.907610435258775,
1000,1,0.0,4.9,0,0,55,55,9,,,,,188.78433649986982,189.4349316000007,189.4349316000007,189.93607999989763,315,45,189.93607999989763,189.93607999989763,189.93607999989763,189.93607999989763,189.93607999989763,189.93607999989763,189.93607999989763,189.93607999989763,189.93607999989763,190.30244060000405,190.30244060000405,190.30244060000405,190.30244060000405,190.30244060000405,190.30244060000405,190.30244060000405,190.30244060000405,190.30244060000405,23,0,,,190.30244060000405,190.51351909991354,1000,190.51351909991354,1000,1000,1000,1000,1,num_2,1.0366212001536041,,34,8,2026-03-13_10h47.16.939,2026A_exp2,2022.2.4,59.907610435258775,
1,0,3.7,0.0,1,0,56,56,59,,,,,191.5703366000671,192.22102189995348,192.22102189995348,192.7222944998648,315,45,192.7222944998648,192.7222944998648,192.7222944998648,192.7222944998648,192.7222944998648,192.7222944998648,192.7222944998648,192.7222944998648,192.7222944998648,193.07198469992727,193.07198469992727,193.07198469992727,193.07198469992727,193.07198469992727,193.07198469992727,193.07198469992727,193.07198469992727,193.07198469992727,22,0,,,193.07198469992727,193.2720902999863,0.0,193.2720902999863,1,0.0,0,0,1000,num_4,1.3901097001507878,,34,8,2026-03-13_10h47.16.939,2026A_exp2,2022.2.4,59.907610435258775,
1000,1,3.7,0.0,1,0,57,57,21,,,,,194.69010680005886,195.33554039988667,195.33554039988667,195.82516400003806,315,45,195.82516400003806,195.82516400003806,195.82516400003806,195.82516400003806,195.82516400003806,195.82516400003806,195.82516400003806,195.82516400003806,195.82516400003806,196.1916276998818,196.1916276998818,196.1916276998818,196.1916276998818,196.1916276998818,196.1916276998818,196.1916276998818,196.1916276998818,196.1916276998818,23,0,,,196.1916276998818,196.3936367998831,1000,196.3936367998831,1000,1000,1000,1000,1,num_2,0.5718557999935001,,34,8,2026-03-13_10h47.16.939,2026A_exp2,2022.2.4,59.907610435258775,
1,0,6.1,0.0,1,0,58,58,54,,,,,196.99244800000452,197.6431893000845,197.6431893000845,198.1443376999814,315,315,198.1443376999814,198.1443376999814,198.1443376999814,198.1443376999814,198.1443376999814,198.1443376999814,198.1443376999814,198.1443376999814,198.1443376999814,198.5107416000683,198.5107416000683,198.5107416000683,198.5107416000683,198.5107416000683,198.5107416000683,198.5107416000683,198.5107416000683,198.5107416000683,23,0,,,198.5107416000683,198.7108384000603,0.0,198.7108384000603,1,0.0,0,0,1000,num_4,1.4714838999789208,,34,8,2026-03-13_10h47.16.939,2026A_exp2,2022.2.4,59.907610435258775,
1000,1,3.7,0.0,1,0,59,59,33,,,,,200.21235279995017,200.8630373000633,200.8630373000633,201.34744679997675,315,315,201.34744679997675,201.34744679997675,201.34744679997675,201.34744679997675,201.34744679997675,201.34744679997675,201.34744679997675,201.34744679997675,201.34744679997675,201.713941300055,201.713941300055,201.713941300055,201.713941300055,201.713941300055,201.713941300055,201.713941300055,201.713941300055,201.713941300055,23,0,,,201.713941300055,201.91599479992874,1000,201.91599479992874,1000,1000,1000,1000,1,num_2,1.073482400039211,,34,8,2026-03-13_10h47.16.939,2026A_exp2,2022.2.4,59.907610435258775,
1000,1,4.9,3.7,1,0,60,60,14,,,,,203.0150174999144,203.66585329989903,203.66585329989903,204.16702169994824,315,45,204.16702169994824,204.16702169994824,204.16702169994824,204.16702169994824,204.16702169994824,204.16702169994824,204.16702169994824,204.16702169994824,204.16702169994824,204.53342269989662,204.53342269989662,204.53342269989662,204.53342269989662,204.53342269989662,204.53342269989662,204.53342269989662,204.53342269989662,204.53342269989662,23,0,,,204.53342269989662,204.73564970004372,1000,204.73564970004372,1000,1000,1000,1000,0,num_3,0.4781696000136435,,34,8,2026-03-13_10h47.16.939,2026A_exp2,2022.2.4,59.907610435258775,
1000,1,4.9,6.1,1,0,61,61,18,,,,,205.23393109999597,205.88473879988305,205.88473879988305,206.38567569991574,45,45,206.38567569991574,206.38567569991574,206.38567569991574,206.38567569991574,206.38567569991574,206.38567569991574,206.38567569991574,206.38567569991574,206.38567569991574,206.75206470000558,206.75206470000558,206.75206470000558,206.75206470000558,206.75206470000558,206.75206470000558,206.75206470000558,206.75206470000558,206.75206470000558,23,0,,,206.75206470000558,206.95452909986489,1000,206.95452909986489,1000,1000,1000,1000,1,num_2,0.6440003998577595,,34,8,2026-03-13_10h47.16.939,2026A_exp2,2022.2.4,59.907610435258775,
1,0,0.0,3.7,1,0,62,62,25,,,,,207.61980069987476,208.27273309999146,208.27273309999146,208.77160610002466,315,45,208.77160610002466,208.77160610002466,208.77160610002466,208.77160610002466,208.77160610002466,208.77160610002466,208.77160610002466,208.77160610002466,208.77160610002466,209.13806789997034,209.13806789997034,209.13806789997034,209.13806789997034,209.13806789997034,209.13806789997034,209.13806789997034,209.13806789997034,209.13806789997034,23,0,,,209.13806789997034,209.3382812999189,3.7,209.3382812999189,1,3.7,1,1,1000,num_4,1.4034689001273364,,34,8,2026-03-13_10h47.16.939,2026A_exp2,2022.2.4,59.907610435258775,
1000,1,4.9,0.0,1,0,63,63,28,,,,,210.7730552998837,211.42374540003948,211.42374540003948,211.90817949990742,45,315,211.90817949990742,211.90817949990742,211.90817949990742,211.90817949990742,211.90817949990742,211.90817949990742,211.90817949990742,211.90817949990742,211.90817949990742,212.2744054000359,212.2744054000359,212.2744054000359,212.2744054000359,212.2744054000359,212.2744054000359,212.2744054000359,212.2744054000359,212.2744054000359,23,0,,,212.2744054000359,212.4765117999632,1000,212.4765117999632,1000,1000,1000,1000,1,num_2,0.5049479999579489,,34,8,2026-03-13_10h47.16.939,2026A_exp2,2022.2.4,59.907610435258775,
1,0,0.0,0.0,0,0,64,64,29,,,,,213.0085060999263,213.65915740001947,213.65915740001947,214.16018559993245,315,315,214.16018559993245,214.16018559993245,214.16018559993245,214.16018559993245,214.16018559993245,214.16018559993245,214.16018559993245,214.16018559993245,214.16018559993245,214.52671179990284,214.52671179990284,214.52671179990284,214.52671179990284,214.52671179990284,214.52671179990284,214.52671179990284,214.52671179990284,214.52671179990284,23,0,,,214.52671179990284,214.73750340007246,0.0,214.73750340007246,0,0.0,0,1,1000,num_1,0.7568097999319434,,34,8,2026-03-13_10h47.16.939,2026A_exp2,2022.2.4,59.907610435258775,
1000,1,0.0,0.0,1,0,65,65,42,,,,,215.5107903999742,216.14493339997716,216.14493339997716,216.64617890003137,45,45,216.64617890003137,216.64617890003137,216.64617890003137,216.64617890003137,216.64617890003137,216.64617890003137,216.64617890003137,216.64617890003137,216.64617890003137,217.01257380004972,217.01257380004972,217.01257380004972,217.01257380004972,217.01257380004972,217.01257380004972,217.01257380004972,217.01257380004972,217.01257380004972,23,0,,,217.01257380004972,217.21454549999908,1000,217.21454549999908,1000,1000,1000,1000,1,num_2,0.6077006999403238,,34,8,2026-03-13_10h47.16.939,2026A_exp2,2022.2.4,59.907610435258775,
1000,1,4.9,4.9,1,0,66,66,26,,,,,217.8467053999193,218.49731280002743,218.49731280002743,218.9984867000021,315,315,218.9984867000021,218.9984867000021,218.9984867000021,218.9984867000021,218.9984867000021,218.9984867000021,218.9984867000021,218.9984867000021,218.9984867000021,219.34809640003368,219.34809640003368,219.34809640003368,219.34809640003368,219.34809640003368,219.34809640003368,219.34809640003368,219.34809640003368,219.34809640003368,22,0,,,219.34809640003368,219.55043469998054,1000,219.55043469998054,1000,1000,1000,1000,0,num_3,0.6636529001407325,,34,8,2026-03-13_10h47.16.939,2026A_exp2,2022.2.4,59.907610435258775,
1,0,0.0,3.7,0,0,67,67,1,,,,,220.23232929990627,220.88848199998029,220.88848199998029,221.3841337999329,45,315,221.3841337999329,221.3841337999329,221.3841337999329,221.3841337999329,221.3841337999329,221.3841337999329,221.3841337999329,221.3841337999329,221.3841337999329,221.75058669992723,221.75058669992723,221.75058669992723,221.75058669992723,221.75058669992723,221.75058669992723,221.75058669992723,221.75058669992723,221.75058669992723,23,0,,,221.75058669992723,221.95067219994962,0.0,221.95067219994962,1,0.0,0,0,1000,num_4,4.81528740003705,,34,8,2026-03-13_10h47.16.939,2026A_exp2,2022.2.4,59.907610435258775,
1000,1,6.1,6.1,0,0,68,68,56,,,,,226.79015409993008,227.43944339989685,227.43944339989685,227.9406644999981,315,315,227.9406644999981,227.9406644999981,227.9406644999981,227.9406644999981,227.9406644999981,227.9406644999981,227.9406644999981,227.9406644999981,227.9406644999981,228.30728579987772,228.30728579987772,228.30728579987772,228.30728579987772,228.30728579987772,228.30728579987772,228.30728579987772,228.30728579987772,228.30728579987772,23,0,,,228.30728579987772,228.50944130006246,1000,228.50944130006246,1000,1000,1000,1000,1,num_2,1.0162162000779063,,34,8,2026-03-13_10h47.16.939,2026A_exp2,2022.2.4,59.907610435258775,
1000,1,0.0,0.0,1,0,69,69,71,,,,,229.54169250000268,230.19259599992074,230.19259599992074,230.69389560003765,315,315,230.69389560003765,230.69389560003765,230.69389560003765,230.69389560003765,230.69389560003765,230.69389560003765,230.69389560003765,230.69389560003765,230.69389560003765,231.0599871999584,231.0599871999584,231.0599871999584,231.0599871999584,231.0599871999584,231.0599871999584,231.0599871999584,231.0599871999584,231.0599871999584,23,0,,,231.0599871999584,231.2601968999952,1000,231.2601968999952,1000,1000,1000,1000,0,num_3,0.5301457000896335,,34,8,2026-03-13_10h47.16.939,2026A_exp2,2022.2.4,59.907610435258775,
1000,1,4.9,4.9,0,0,70,70,34,,,,,231.8105548999738,232.46280169999227,232.46280169999227,232.96235699998215,315,315,232.96235699998215,232.96235699998215,232.96235699998215,232.96235699998215,232.96235699998215,232.96235699998215,232.96235699998215,232.96235699998215,232.96235699998215,233.32886609993875,233.32886609993875,233.32886609993875,233.32886609993875,233.32886609993875,233.32886609993875,233.32886609993875,233.32886609993875,233.32886609993875,23,0,,,233.32886609993875,233.53087090002373,1000,233.53087090002373,1000,1000,1000,1000,1,num_2,0.9311271000187844,,34,8,2026-03-13_10h47.16.939,2026A_exp2,2022.2.4,59.907610435258775,
1,0,0.0,0.0,0,0,71,71,0,,,,,234.47994620003738,235.13057249994017,235.13057249994017,235.63183109997772,45,45,235.63183109997772,235.63183109997772,235.63183109997772,235.63183109997772,235.63183109997772,235.63183109997772,235.63183109997772,235.63183109997772,235.63183109997772,235.9983202998992,235.9983202998992,235.9983202998992,235.9983202998992,235.9983202998992,235.9983202998992,235.9983202998992,235.9983202998992,235.9983202998992,23,0,,,235.9983202998992,236.19809419987723,0.0,236.19809419987723,1,0.0,0,0,1000,num_4,0.9444773001596332,,34,8,2026-03-13_10h47.16.939,2026A_exp2,2022.2.4,59.907610435258775,
1000,1,6.1,0.0,1,0,72,72,52,,,,,237.16600179998204,237.81673049996607,237.81673049996607,238.30126450001262,45,45,238.30126450001262,238.30126450001262,238.30126450001262,238.30126450001262,238.30126450001262,238.30126450001262,238.30126450001262,238.30126450001262,238.30126450001262,238.66747480002232,238.66747480002232,238.66747480002232,238.66747480002232,238.66747480002232,238.66747480002232,238.66747480002232,238.66747480002232,238.66747480002232,23,0,,,238.66747480002232,238.8698036998976,1000,238.8698036998976,1000,1000,1000,1000,1,num_2,0.5998706000391394,,34,8,2026-03-13_10h47.16.939,2026A_exp2,2022.2.4,59.907610435258775,
1000,1,4.9,0.0,1,0,73,73,7,,,,,239.48494539991952,240.13569919997826,240.13569919997826,240.63680249988101,315,45,240.63680249988101,240.63680249988101,240.63680249988101,240.63680249988101,240.63680249988101,240.63680249988101,240.63680249988101,240.63680249988101,240.63680249988101,241.00313759990968,241.00313759990968,241.00313759990968,241.00313759990968,241.00313759990968,241.00313759990968,241.00313759990968,241.00313759990968,241.00313759990968,23,0,,,241.00313759990968,241.20519019989297,1000,241.20519019989297,1000,1000,1000,1000,0,num_3,0.5210947999730706,,34,8,2026-03-13_10h47.16.939,2026A_exp2,2022.2.4,59.907610435258775,
1000,1,3.7,3.7,1,0,74,74,46,,,,,241.75379269989207,242.40437559993006,242.40437559993006,242.90562169998884,315,45,242.90562169998884,242.90562169998884,242.90562169998884,242.90562169998884,242.90562169998884,242.90562169998884,242.90562169998884,242.90562169998884,242.90562169998884,243.27216370007955,243.27216370007955,243.27216370007955,243.27216370007955,243.27216370007955,243.27216370007955,243.27216370007955,243.27216370007955,243.27216370007955,23,0,,,243.27216370007955,243.47398440004326,1000,243.47398440004326,1000,1000,1000,1000,1,num_2,0.6120500001125038,,34,8,2026-03-13_10h47.16.939,2026A_exp2,2022.2.4,59.907610435258775,
1,0,6.1,6.1,0,0,75,75,51,,,,,244.10658499994315,244.75691689993255,244.75691689993255,245.2580075999722,315,45,245.2580075999722,245.2580075999722,245.2580075999722,245.2580075999722,245.2580075999722,245.2580075999722,245.2580075999722,245.2580075999722,245.2580075999722,245.62446069996804,245.62446069996804,245.62446069996804,245.62446069996804,245.62446069996804,245.62446069996804,245.62446069996804,245.62446069996804,245.62446069996804,23,0,,,245.62446069996804,245.82470089988783,6.1,245.82470089988783,0,6.1,1,0,1000,num_1,0.72488550003618,,34,8,2026-03-13_10h47.16.939,2026A_exp2,2022.2.4,59.907610435258775,
1,0,0.0,6.1,0,0,76,76,57,,,,,246.57520870002918,247.226017100038,247.226017100038,247.71039659995586,315,315,247.71039659995586,247.71039659995586,247.71039659995586,247.71039659995586,247.71039659995586,247.71039659995586,247.71039659995586,247.71039659995586,247.71039659995586,248.0769293999765,248.0769293999765,248.0769293999765,248.0769293999765,248.0769293999765,248.0769293999765,248.0769293999765,248.0769293999765,248.0769293999765,23,0,,,248.0769293999765,248.27718169987202,0.0,248.27718169987202,0,0.0,0,1,1000,num_1,0.6001456000376493,,34,8,2026-03-13_10h47.16.939,2026A_exp2,2022.2.4,59.907610435258775,
1,0,0.0,0.0,1,0,77,77,82,,,,,248.8942499998957,249.54500059993006,249.54500059993006,250.04621970001608,315,45,250.04621970001608,250.04621970001608,250.04621970001608,250.04621970001608,250.04621970001608,250.04621970001608,250.04621970001608,250.04621970001608,250.04621970001608,250.41246300004423,250.41246300004423,250.41246300004423,250.41246300004423,250.41246300004423,250.41246300004423,250.41246300004423,250.41246300004423,250.41246300004423,23,0,,,250.41246300004423,250.61267459997907,0.0,250.61267459997907,1,0.0,0,0,1000,num_4,0.6972018000669777,,34,8,2026-03-13_10h47.16.939,2026A_exp2,2022.2.4,59.907610435258775,
1000,1,3.7,3.7,0,0,78,78,16,,,,,251.33024799986742,251.98088439996354,251.98088439996354,252.4653123000171,45,45,252.4653123000171,252.4653123000171,252.4653123000171,252.4653123000171,252.4653123000171,252.4653123000171,252.4653123000171,252.4653123000171,252.4653123000171,252.8315741000697,252.8315741000697,252.8315741000697,252.8315741000697,252.8315741000697,252.8315741000697,252.8315741000697,252.8315741000697,252.8315741000697,23,0,,,252.8315741000697,253.03356970008463,1000,253.03356970008463,1000,1000,1000,1000,0,num_3,0.6525413000490516,,34,8,2026-03-13_10h47.16.939,2026A_exp2,2022.2.4,59.907610435258775,
1000,1,3.7,3.7,1,0,79,79,88,,,,,253.7158468000125,254.36651590000838,254.36651590000838,254.86772440001369,45,45,254.86772440001369,254.86772440001369,254.86772440001369,254.86772440001369,254.86772440001369,254.86772440001369,254.86772440001369,254.86772440001369,254.86772440001369,255.23398729995824,255.23398729995824,255.23398729995824,255.23398729995824,255.23398729995824,255.23398729995824,255.23398729995824,255.23398729995824,255.23398729995824,23,0,,,255.23398729995824,255.4363764000591,1000,255.4363764000591,1000,1000,1000,1000,1,num_2,0.45701030013151467,,34,8,2026-03-13_10h47.16.939,2026A_exp2,2022.2.4,59.907610435258775,
1,0,6.1,6.1,0,0,80,80,11,,,,,255.9180346999783,256.56866939994507,256.56866939994507,257.0699096999597,315,45,257.0699096999597,257.0699096999597,257.0699096999597,257.0699096999597,257.0699096999597,257.0699096999597,257.0699096999597,257.0699096999597,257.0699096999597,257.4193960998673,257.4193960998673,257.4193960998673,257.4193960998673,257.4193960998673,257.4193960998673,257.4193960998673,257.4193960998673,257.4193960998673,22,0,,,257.4193960998673,257.61977409990504,6.1,257.63652429985814,0,6.1,1,0,1000,num_1,0.9139151000417769,,34,8,2026-03-13_10h47.16.939,2026A_exp2,2022.2.4,59.907610435258775,
1,0,4.9,0.0,0,0,81,81,87,,,,,258.570568599971,259.2213353998959,259.2213353998959,259.70587329985574,315,315,259.70587329985574,259.70587329985574,259.70587329985574,259.70587329985574,259.70587329985574,259.70587329985574,259.70587329985574,259.70587329985574,259.70587329985574,260.0722991998773,260.0722991998773,260.0722991998773,260.0722991998773,260.0722991998773,260.0722991998773,260.0722991998773,260.0722991998773,260.0722991998773,23,0,,,260.0722991998773,260.2723820998799,4.9,260.2723820998799,0,4.9,1,0,1000,num_1,0.6769993000198156,,34,8,2026-03-13_10h47.16.939,2026A_exp2,2022.2.4,59.907610435258775,
1000,1,0.0,6.1,1,0,82,82,3,,,,,260.9731592000462,261.6237194999121,261.6237194999121,262.1078405000735,45,315,262.1078405000735,262.1078405000735,262.1078405000735,262.1078405000735,262.1078405000735,262.1078405000735,262.1078405000735,262.1078405000735,262.1078405000735,262.47472669999115,262.47472669999115,262.47472669999115,262.47472669999115,262.47472669999115,262.47472669999115,262.47472669999115,262.47472669999115,262.47472669999115,23,0,,,262.47472669999115,262.682200799929,1000,262.682200799929,1000,1000,1000,1000,1,num_2,0.5723727000877261,,34,8,2026-03-13_10h47.16.939,2026A_exp2,2022.2.4,59.907610435258775,
1000,1,6.1,0.0,0,0,83,83,80,,,,,263.275376399979,263.9260970999021,263.9260970999021,264.42723180004396,45,45,264.42723180004396,264.42723180004396,264.42723180004396,264.42723180004396,264.42723180004396,264.42723180004396,264.42723180004396,264.42723180004396,264.42723180004396,264.79367619985715,264.79367619985715,264.79367619985715,264.79367619985715,264.79367619985715,264.79367619985715,264.79367619985715,264.79367619985715,264.79367619985715,23,0,,,264.79367619985715,264.99696370004676,1000,264.99696370004676,1000,1000,1000,1000,0,num_3,0.5523793001193553,,34,8,2026-03-13_10h47.16.939,2026A_exp2,2022.2.4,59.907610435258775,
1,0,6.1,3.7,0,0,84,84,86,,,,,265.57786299986765,266.22828110004775,266.22828110004775,266.72958040004596,45,315,266.72958040004596,266.72958040004596,266.72958040004596,266.72958040004596,266.72958040004596,266.72958040004596,266.72958040004596,266.72958040004596,266.72958040004596,267.095885100076,267.095885100076,267.095885100076,267.095885100076,267.095885100076,267.095885100076,267.095885100076,267.095885100076,267.095885100076,23,0,,,267.095885100076,267.2963276999071,6.1,267.2963276999071,1,6.1,1,1,1000,num_4,0.6381322999950498,,34,8,2026-03-13_10h47.16.939,2026A_exp2,2022.2.4,59.907610435258775,
0,0,0.0,0.0,0,0,85,85,4,,,,,267.96338670002297,268.61404390004463,268.61404390004463,269.0986645000521,45,45,269.0986645000521,269.0986645000521,269.0986645000521,269.0986645000521,269.0986645000521,269.0986645000521,269.0986645000521,269.0986645000521,269.0986645000521,269.4647359000519,269.4647359000519,269.4647359000519,269.4647359000519,269.4647359000519,269.4647359000519,269.4647359000519,269.4647359000519,269.4647359000519,23,0,,,269.4647359000519,269.66507079987787,0.0,269.66507079987787,0,0.0,0,1,1000,num_1,0.8860736000351608,,34,8,2026-03-13_10h47.16.939,2026A_exp2,2022.2.4,59.907610435258775,
1000,1,0.0,0.0,1,0,86,86,40,,,,,270.5827118998859,271.23338650004007,271.23338650004007,271.7345630999189,45,315,271.7345630999189,271.7345630999189,271.7345630999189,271.7345630999189,271.7345630999189,271.7345630999189,271.7345630999189,271.7345630999189,271.7345630999189,272.08425479987636,272.08425479987636,272.08425479987636,272.08425479987636,272.08425479987636,272.08425479987636,272.08425479987636,272.08425479987636,272.08425479987636,22,0,,,272.08425479987636,272.28617680002935,1000,272.28617680002935,1000,1000,1000,1000,1,num_2,1.0405294999945909,,34,8,2026-03-13_10h47.16.939,2026A_exp2,2022.2.4,59.907610435258775,
1,0,6.1,0.0,1,0,87,87,38,,,,,273.35212449985556,274.00279129995033,274.00279129995033,274.50387790007517,315,45,274.50387790007517,274.50387790007517,274.50387790007517,274.50387790007517,274.50387790007517,274.50387790007517,274.50387790007517,274.50387790007517,274.50387790007517,274.87026769993827,274.87026769993827,274.87026769993827,274.87026769993827,274.87026769993827,274.87026769993827,274.87026769993827,274.87026769993827,274.87026769993827,23,0,,,274.87026769993827,275.07061870000325,0.0,275.07061870000325,0,0.0,0,1,1000,num_1,1.4073016000911593,,34,8,2026-03-13_10h47.16.939,2026A_exp2,2022.2.4,59.907610435258775,
1,0,0.0,4.9,1,0,88,88,65,,,,,276.5055104000494,277.15597039996646,277.15597039996646,277.64035289990716,45,315,277.64035289990716,277.64035289990716,277.64035289990716,277.64035289990716,277.64035289990716,277.64035289990716,277.64035289990716,277.64035289990716,277.64035289990716,278.0070150999818,278.0070150999818,278.0070150999818,278.0070150999818,278.0070150999818,278.0070150999818,278.0070150999818,278.0070150999818,278.0070150999818,23,0,,,278.0070150999818,278.2070766999386,4.9,278.2070766999386,1,4.9,1,1,1000,num_4,0.6470671000424773,,34,8,2026-03-13_10h47.16.939,2026A_exp2,2022.2.4,59.907610435258775,
1,0,0.0,3.7,1,0,89,89,10,,,,,278.87443870003335,279.52500239992514,279.52500239992514,280.0094192000106,45,45,280.0094192000106,280.0094192000106,280.0094192000106,280.0094192000106,280.0094192000106,280.0094192000106,280.0094192000106,280.0094192000106,280.0094192000106,280.375935100019,280.375935100019,280.375935100019,280.375935100019,280.375935100019,280.375935100019,280.375935100019,280.375935100019,280.375935100019,23,0,,,280.375935100019,280.5759272000287,3.7,280.5759272000287,1,3.7,1,1,1000,num_4,1.00628129998222,,34,8,2026-03-13_10h47.16.939,2026A_exp2,2022.2.4,59.907610435258775,
,,,,,,,,,,,,,,,,,,,,,,,,,,,,,,,,,,,,,,,,,,,,,,,,,,,,281.6195102999918,,,,,,,
