validity,detectorcomp,contrastCW,contrastCCW,precueCWorCCW,block_80trials.thisRepN,block_80trials.thisTrialN,block_80trials.thisN,block_80trials.thisIndex,etRecord.started,etRecord.stopped,text.started,text.stopped,text_4.started,text_4.stopped,text_6.started,text_6.stopped,oriCW,oriCCW,roi_2.started,grating_UR.started,grating_UL.started,grating_LR.started,grating_LL.started,noise_UR.started,noise_UL.started,noise_LR.started,noise_LL.started,roi_2.stopped,grating_UR.stopped,grating_UL.stopped,grating_LR.stopped,grating_LL.stopped,noise_UR.stopped,noise_UL.stopped,noise_LR.stopped,noise_LL.stopped,outframe,roi_2.numLooks,roi_2.timesOn,roi_2.timesOff,text_2.started,text_2.stopped,probedcontrast,key_resp.started,respdetect,relevantContrast,correctDetect,TorFdetect,respCWorCCW,key_resp.keys,key_resp.rt,feedback_display_.started,participantNo,blockNo,date,expName,psychopyVersion,frameRate,
1,0,0.0,6.1,1,0,0,0,31,5.23999915458262e-05,5.23999915458262e-05,56.08749150001677,58.09014990000287,58.09014990000287,58.72432450001361,58.72432450001361,59.24380940000992,315,315,59.24380940000992,59.24380940000992,59.24380940000992,59.24380940000992,59.24380940000992,59.24380940000992,59.24380940000992,59.24380940000992,59.24380940000992,59.59172669996042,59.59172669996042,59.59172669996042,59.59172669996042,59.59172669996042,59.59172669996042,59.59172669996042,59.59172669996042,59.59172669996042,0,1,[0.0011808000272139907],[0.36674010002752766],59.59172669996042,59.79179230000591,6.1,59.79179230000591,1,6.1,1,1,1000,num_4,1.565999299986288,,28,4,2026-03-05_15h36.25.371,2026A_exp2,2022.2.4,59.981453746901764,
1,0,3.7,4.9,1,0,1,1,18,,,,,61.37697360001039,62.02738629997475,62.02738629997475,62.511860199971125,315,315,62.511860199971125,62.511860199971125,62.511860199971125,62.511860199971125,62.511860199971125,62.511860199971125,62.511860199971125,62.511860199971125,62.511860199971125,62.87830350000877,62.87830350000877,62.87830350000877,62.87830350000877,62.87830350000877,62.87830350000877,62.87830350000877,62.87830350000877,62.87830350000877,0,1,[0.0009649000130593777],[0.36742409999715164],62.87830350000877,63.07844939996721,4.9,63.07844939996721,1,4.9,1,1,1000,num_4,0.983826500014402,,28,4,2026-03-05_15h36.25.371,2026A_exp2,2022.2.4,59.981453746901764,
1,0,0.0,4.9,1,0,2,2,37,,,,,64.07949939998798,64.73017240001354,64.73017240001354,65.21469699998852,315,45,65.21469699998852,65.21469699998852,65.21469699998852,65.21469699998852,65.21469699998852,65.21469699998852,65.21469699998852,65.21469699998852,65.21469699998852,65.58109920000425,65.58109920000425,65.58109920000425,65.58109920000425,65.58109920000425,65.58109920000425,65.58109920000425,65.58109920000425,65.58109920000425,13,4,"[0.0012511999811977148, 0.13373950001550838, 0.16707530000712723, 0.28375430003507063]","[0.11716510000405833, 0.15016999997897074, 0.18378140003187582, 0.3006961999926716]",65.58109920000425,65.78128639998613,4.9,65.78128639998613,0,4.9,1,0,1000,num_1,0.40073900000425056,,28,4,2026-03-05_15h36.25.371,2026A_exp2,2022.2.4,59.981453746901764,
1000,1,0.0,3.7,1,0,3,3,84,,,,,66.19850910000969,66.8490235999925,66.8490235999925,67.33346840000013,45,315,67.33346840000013,67.33346840000013,67.33346840000013,67.33346840000013,67.33346840000013,67.33346840000013,67.33346840000013,67.33346840000013,67.33346840000013,67.69968869996956,67.69968869996956,67.69968869996956,67.69968869996956,67.69968869996956,67.69968869996956,67.69968869996956,67.69968869996956,67.69968869996956,0,1,[0.0011891000322066247],[0.3670607000240125],67.69968869996956,67.90470499999356,1000,67.90470499999356,1000,1000,1000,1000,0,num_3,0.7019895000266843,,28,4,2026-03-05_15h36.25.371,2026A_exp2,2022.2.4,59.981453746901764,
1000,1,6.1,0.0,1,0,4,4,25,,,,,68.63401270000031,69.28484979999484,69.28484979999484,69.7859794999822,45,315,69.7859794999822,69.7859794999822,69.7859794999822,69.7859794999822,69.7859794999822,69.7859794999822,69.7859794999822,69.7859794999822,69.7859794999822,70.13564200000837,70.13564200000837,70.13564200000837,70.13564200000837,70.13564200000837,70.13564200000837,70.13564200000837,70.13564200000837,70.13564200000837,0,1,[0.0012416000245139003],[0.3504032000200823],70.13564200000837,70.33764899999369,1000,70.33764899999369,1000,1000,1000,1000,0,num_3,0.8357008000020869,,28,4,2026-03-05_15h36.25.371,2026A_exp2,2022.2.4,59.981453746901764,
1,0,0.0,4.9,0,0,5,5,73,,,,,71.20333549997304,71.85393390001263,71.85393390001263,72.35484350001207,45,315,72.35484350001207,72.35484350001207,72.35484350001207,72.35484350001207,72.35484350001207,72.35484350001207,72.35484350001207,72.35484350001207,72.35484350001207,72.721528199967,72.721528199967,72.721528199967,72.721528199967,72.721528199967,72.721528199967,72.721528199967,72.721528199967,72.721528199967,0,1,[0.0012596999877132475],[0.367657299968414],72.721528199967,72.92177770001581,0.0,72.92177770001581,0,0.0,0,1,1000,num_1,0.9957599000190385,,28,4,2026-03-05_15h36.25.371,2026A_exp2,2022.2.4,59.981453746901764,
1,0,0.0,0.0,0,0,6,6,79,,,,,73.9395542999846,74.59042449999833,74.59042449999833,75.07457950001117,315,315,75.07457950001117,75.07457950001117,75.07457950001117,75.07457950001117,75.07457950001117,75.07457950001117,75.07457950001117,75.07457950001117,75.07457950001117,75.44086049997713,75.44086049997713,75.44086049997713,75.44086049997713,75.44086049997713,75.44086049997713,75.44086049997713,75.44086049997713,75.44086049997713,16,3,"[0.03363860002718866, 0.11704919999465346, 0.16713640000671148]","[0.050234600028488785, 0.13359139999374747, 0.26711999997496605]",75.44086049997713,75.64108520001173,0.0,75.64108520001173,1,0.0,0,0,1000,num_4,1.2362120000179857,,28,4,2026-03-05_15h36.25.371,2026A_exp2,2022.2.4,59.981453746901764,
1000,1,4.9,3.7,0,0,7,7,40,,,,,76.90913749998435,77.55962179997005,77.55962179997005,78.04416009999113,315,45,78.04416009999113,78.04416009999113,78.04416009999113,78.04416009999113,78.04416009999113,78.04416009999113,78.04416009999113,78.04416009999113,78.04416009999113,78.41060359997209,78.41060359997209,78.41060359997209,78.41060359997209,78.41060359997209,78.41060359997209,78.41060359997209,78.41060359997209,78.41060359997209,23,0,,,78.41060359997209,78.61598920001416,1000,78.61598920001416,1000,1000,1000,1000,0,num_3,0.8452760999789461,,28,4,2026-03-05_15h36.25.371,2026A_exp2,2022.2.4,59.981453746901764,
1,0,3.7,3.7,1,0,8,8,30,,,,,79.47823949996382,80.12882459996035,80.12882459996035,80.63014239998301,315,45,80.63014239998301,80.63014239998301,80.63014239998301,80.63014239998301,80.63014239998301,80.63014239998301,80.63014239998301,80.63014239998301,80.63014239998301,80.97982209996553,80.97982209996553,80.97982209996553,80.97982209996553,80.97982209996553,80.97982209996553,80.97982209996553,80.97982209996553,80.97982209996553,22,0,,,80.97982209996553,81.18007979996037,3.7,81.18007979996037,0,3.7,1,0,1000,num_1,1.209108799987007,,28,4,2026-03-05_15h36.25.371,2026A_exp2,2022.2.4,59.981453746901764,
1000,1,0.0,4.9,0,0,9,9,60,,,,,82.41453670000192,83.06518749997485,83.06518749997485,83.549561599968,315,315,83.549561599968,83.549561599968,83.549561599968,83.549561599968,83.549561599968,83.549561599968,83.549561599968,83.549561599968,83.549561599968,83.91606959997443,83.91606959997443,83.91606959997443,83.91606959997443,83.91606959997443,83.91606959997443,83.91606959997443,83.91606959997443,83.91606959997443,23,0,,,83.91606959997443,84.11777660000371,1000,84.11777660000371,1000,1000,1000,1000,0,num_3,0.7043594000278972,,28,4,2026-03-05_15h36.25.371,2026A_exp2,2022.2.4,59.981453746901764,
1000,1,0.0,6.1,1,0,10,10,43,,,,,84.85022089997074,85.50094569998328,85.50094569998328,86.00220370001625,315,45,86.00220370001625,86.00220370001625,86.00220370001625,86.00220370001625,86.00220370001625,86.00220370001625,86.00220370001625,86.00220370001625,86.00220370001625,86.36853769997833,86.36853769997833,86.36853769997833,86.36853769997833,86.36853769997833,86.36853769997833,86.36853769997833,86.36853769997833,86.36853769997833,23,0,,,86.36853769997833,86.57071850000648,1000,86.57071850000648,1000,1000,1000,1000,1,num_2,1.2347198999486864,,28,4,2026-03-05_15h36.25.371,2026A_exp2,2022.2.4,59.981453746901764,
1,0,6.1,4.9,1,0,11,11,64,,,,,87.83644089999143,88.48726670001633,88.48726670001633,88.97179320000578,315,315,88.97179320000578,88.97179320000578,88.97179320000578,88.97179320000578,88.97179320000578,88.97179320000578,88.97179320000578,88.97179320000578,88.97179320000578,89.338120099972,89.338120099972,89.338120099972,89.338120099972,89.338120099972,89.338120099972,89.338120099972,89.338120099972,89.338120099972,23,0,,,89.338120099972,89.53824759996496,4.9,89.53824759996496,0,4.9,1,0,1000,num_1,0.9556982999783941,,28,4,2026-03-05_15h36.25.371,2026A_exp2,2022.2.4,59.981453746901764,
1,0,4.9,0.0,1,0,12,12,65,,,,,90.52265539998189,91.1732214000076,91.1732214000076,91.65773330000229,315,315,91.65773330000229,91.65773330000229,91.65773330000229,91.65773330000229,91.65773330000229,91.65773330000229,91.65773330000229,91.65773330000229,91.65773330000229,92.02402690000599,92.02402690000599,92.02402690000599,92.02402690000599,92.02402690000599,92.02402690000599,92.02402690000599,92.02402690000599,92.02402690000599,23,0,,,92.02402690000599,92.22447159996955,0.0,92.22447159996955,0,0.0,0,1,1000,num_1,0.5336127000045963,,28,4,2026-03-05_15h36.25.371,2026A_exp2,2022.2.4,59.981453746901764,
1000,1,4.9,4.9,1,0,13,13,68,,,,,92.7748032999807,93.42540100001497,93.42540100001497,93.91007350001018,315,45,93.91007350001018,93.91007350001018,93.91007350001018,93.91007350001018,93.91007350001018,93.91007350001018,93.91007350001018,93.91007350001018,93.91007350001018,94.27646630001254,94.27646630001254,94.27646630001254,94.27646630001254,94.27646630001254,94.27646630001254,94.27646630001254,94.27646630001254,94.27646630001254,23,0,,,94.27646630001254,94.47842459997628,1000,94.47842459997628,1000,1000,1000,1000,0,num_3,0.8868322999915108,,28,4,2026-03-05_15h36.25.371,2026A_exp2,2022.2.4,59.981453746901764,
1,0,3.7,0.0,0,0,14,14,87,,,,,95.39414589997614,96.0448791999952,96.0448791999952,96.54594949999591,45,315,96.54594949999591,96.54594949999591,96.54594949999591,96.54594949999591,96.54594949999591,96.54594949999591,96.54594949999591,96.54594949999591,96.54594949999591,96.89575209998293,96.89575209998293,96.89575209998293,96.89575209998293,96.89575209998293,96.89575209998293,96.89575209998293,96.89575209998293,96.89575209998293,22,0,,,96.89575209998293,97.09601629996905,3.7,97.09601629996905,1,3.7,1,1,1000,num_4,0.5586605999851599,,28,4,2026-03-05_15h36.25.371,2026A_exp2,2022.2.4,59.981453746901764,
1,0,6.1,0.0,0,0,15,15,47,,,,,97.68003139999928,98.33060569997178,98.33060569997178,98.81505009997636,315,315,98.81505009997636,98.81505009997636,98.81505009997636,98.81505009997636,98.81505009997636,98.81505009997636,98.81505009997636,98.81505009997636,98.81505009997636,99.18138359999284,99.18138359999284,99.18138359999284,99.18138359999284,99.18138359999284,99.18138359999284,99.18138359999284,99.18138359999284,99.18138359999284,23,0,,,99.18138359999284,99.38153939996846,6.1,99.38153939996846,0,6.1,1,0,1000,num_1,1.4558382999966852,,28,4,2026-03-05_15h36.25.371,2026A_exp2,2022.2.4,59.981453746901764,
1000,1,3.7,3.7,0,0,16,16,63,,,,,100.86632480000844,101.51674589997856,101.51674589997856,102.00132709997706,45,315,102.00132709997706,102.00132709997706,102.00132709997706,102.00132709997706,102.00132709997706,102.00132709997706,102.00132709997706,102.00132709997706,102.00132709997706,102.36786669999128,102.36786669999128,102.36786669999128,102.36786669999128,102.36786669999128,102.36786669999128,102.36786669999128,102.36786669999128,102.36786669999128,20,2,"[0.0017461000243201852, 0.11701670003822073]","[0.03347890003351495, 0.13373180001508445]",102.36786669999128,102.56997000001138,1000,102.56997000001138,1000,1000,1000,1000,0,num_3,0.6992519999621436,,28,4,2026-03-05_15h36.25.371,2026A_exp2,2022.2.4,59.981453746901764,
1,0,6.1,0.0,0,0,17,17,21,,,,,103.28557289997116,103.93597759999102,103.93597759999102,104.43734870001208,315,45,104.43734870001208,104.43734870001208,104.43734870001208,104.43734870001208,104.43734870001208,104.43734870001208,104.43734870001208,104.43734870001208,104.43734870001208,104.80359219998354,104.80359219998354,104.80359219998354,104.80359219998354,104.80359219998354,104.80359219998354,104.80359219998354,104.80359219998354,104.80359219998354,23,0,,,104.80359219998354,105.00380279996898,6.1,105.00380279996898,1,6.1,1,1,1000,num_4,1.2736073000123724,,28,4,2026-03-05_15h36.25.371,2026A_exp2,2022.2.4,59.981453746901764,
1000,1,6.1,6.1,0,0,18,18,16,,,,,106.30506589997094,106.94683189998614,106.94683189998614,107.4460446999874,315,45,107.4460446999874,107.4460446999874,107.4460446999874,107.4460446999874,107.4460446999874,107.4460446999874,107.4460446999874,107.4460446999874,107.4460446999874,107.80684360000305,107.80684360000305,107.80684360000305,107.80684360000305,107.80684360000305,107.80684360000305,107.80684360000305,107.80684360000305,107.80684360000305,23,0,,,107.80684360000305,108.00662689999444,1000,108.00662689999444,1000,1000,1000,1000,1,num_2,1.008080500003416,,28,4,2026-03-05_15h36.25.371,2026A_exp2,2022.2.4,59.981453746901764,
1000,1,0.0,3.7,1,0,19,19,13,,,,,109.04133410000941,109.69184739998309,109.69184739998309,110.19301960000303,315,45,110.19301960000303,110.19301960000303,110.19301960000303,110.19301960000303,110.19301960000303,110.19301960000303,110.19301960000303,110.19301960000303,110.19301960000303,110.55942169995978,110.55942169995978,110.55942169995978,110.55942169995978,110.55942169995978,110.55942169995978,110.55942169995978,110.55942169995978,110.55942169995978,23,0,,,110.55942169995978,110.76148679998005,1000,110.76148679998005,1000,1000,1000,1000,0,num_3,0.8609950999962166,,28,4,2026-03-05_15h36.25.371,2026A_exp2,2022.2.4,59.981453746901764,
1000,1,0.0,0.0,1,0,20,20,78,,,,,111.64373999997042,112.29843799996888,112.29843799996888,112.7955775000155,315,315,112.7955775000155,112.7955775000155,112.7955775000155,112.7955775000155,112.7955775000155,112.7955775000155,112.7955775000155,112.7955775000155,112.7955775000155,113.16193359997123,113.16193359997123,113.16193359997123,113.16193359997123,113.16193359997123,113.16193359997123,113.16193359997123,113.16193359997123,113.16193359997123,23,0,,,113.16193359997123,113.36436770000728,1000,113.36436770000728,1000,1000,1000,1000,1,num_2,3.2092437999672256,,28,4,2026-03-05_15h36.25.371,2026A_exp2,2022.2.4,59.981453746901764,
1,0,0.0,6.1,0,0,21,21,0,,,,,116.59891180001432,117.2494422000018,117.2494422000018,117.75046999996994,315,315,117.75046999996994,117.75046999996994,117.75046999996994,117.75046999996994,117.75046999996994,117.75046999996994,117.75046999996994,117.75046999996994,117.75046999996994,118.11675149999792,118.11675149999792,118.11675149999792,118.11675149999792,118.11675149999792,118.11675149999792,118.11675149999792,118.11675149999792,118.11675149999792,23,0,,,118.11675149999792,118.31699479999952,0.0,118.31699479999952,0,0.0,0,1,1000,num_1,0.6168877999880351,,28,4,2026-03-05_15h36.25.371,2026A_exp2,2022.2.4,59.981453746901764,
1000,1,0.0,0.0,0,0,22,22,15,,,,,118.95107010001084,119.60210229997756,119.60210229997756,120.0860767000122,45,45,120.0860767000122,120.0860767000122,120.0860767000122,120.0860767000122,120.0860767000122,120.0860767000122,120.0860767000122,120.0860767000122,120.0860767000122,120.45257349999156,120.45257349999156,120.45257349999156,120.45257349999156,120.45257349999156,120.45257349999156,120.45257349999156,120.45257349999156,120.45257349999156,23,0,,,120.45257349999156,120.65484510001261,1000,120.65484510001261,1000,1000,1000,1000,1,num_2,0.9983626999892294,,28,4,2026-03-05_15h36.25.371,2026A_exp2,2022.2.4,59.981453746901764,
1,0,6.1,3.7,1,0,23,23,51,,,,,121.67055589996744,122.32114650000585,122.32114650000585,122.82216849998804,45,315,122.82216849998804,122.82216849998804,122.82216849998804,122.82216849998804,122.82216849998804,122.82216849998804,122.82216849998804,122.82216849998804,122.82216849998804,123.1887824999867,123.1887824999867,123.1887824999867,123.1887824999867,123.1887824999867,123.1887824999867,123.1887824999867,123.1887824999867,123.1887824999867,23,0,,,123.1887824999867,123.38881659996696,3.7,123.38881659996696,1,3.7,1,1,1000,num_4,0.9530028000008315,,28,4,2026-03-05_15h36.25.371,2026A_exp2,2022.2.4,59.981453746901764,
1000,1,0.0,4.9,0,0,24,24,26,,,,,124.37321230000816,125.02383560000453,125.02383560000453,125.50817609997466,315,45,125.50817609997466,125.50817609997466,125.50817609997466,125.50817609997466,125.50817609997466,125.50817609997466,125.50817609997466,125.50817609997466,125.50817609997466,125.87471329997061,125.87471329997061,125.87471329997061,125.87471329997061,125.87471329997061,125.87471329997061,125.87471329997061,125.87471329997061,125.87471329997061,23,0,,,125.87471329997061,126.0771628000075,1000,126.0771628000075,1000,1000,1000,1000,1,num_2,0.9840913999942131,,28,4,2026-03-05_15h36.25.371,2026A_exp2,2022.2.4,59.981453746901764,
1000,1,4.9,0.0,0,0,25,25,41,,,,,127.09257949999301,127.74326650000876,127.74326650000876,128.24450289999368,315,315,128.24450289999368,128.24450289999368,128.24450289999368,128.24450289999368,128.24450289999368,128.24450289999368,128.24450289999368,128.24450289999368,128.24450289999368,128.59410639997805,128.59410639997805,128.59410639997805,128.59410639997805,128.59410639997805,128.59410639997805,128.59410639997805,128.59410639997805,128.59410639997805,22,0,,,128.59410639997805,128.79622229997767,1000,128.8110285999719,1000,1000,1000,1000,0,num_3,0.9224938999977894,,28,4,2026-03-05_15h36.25.371,2026A_exp2,2022.2.4,59.981453746901764,
0,0,6.1,4.9,0,0,26,26,22,,,,,129.76199779997114,130.41258249996463,130.41258249996463,130.9136244999827,45,45,130.9136244999827,130.9136244999827,130.9136244999827,130.9136244999827,130.9136244999827,130.9136244999827,130.9136244999827,130.9136244999827,130.9136244999827,131.26346350001404,131.26346350001404,131.26346350001404,131.26346350001404,131.26346350001404,131.26346350001404,131.26346350001404,131.26346350001404,131.26346350001404,22,0,,,131.26346350001404,131.46364619996166,4.9,131.46364619996166,1,4.9,1,1,1000,num_4,1.590693400008604,,28,4,2026-03-05_15h36.25.371,2026A_exp2,2022.2.4,59.981453746901764,
1000,1,0.0,4.9,0,0,27,27,6,,,,,133.08199689997127,133.73263210000005,133.73263210000005,134.23367300000973,45,45,134.23367300000973,134.23367300000973,134.23367300000973,134.23367300000973,134.23367300000973,134.23367300000973,134.23367300000973,134.23367300000973,134.23367300000973,134.60007270000642,134.60007270000642,134.60007270000642,134.60007270000642,134.60007270000642,134.60007270000642,134.60007270000642,134.60007270000642,134.60007270000642,23,0,,,134.60007270000642,134.80198669998208,1000,134.80198669998208,1000,1000,1000,1000,1,num_2,0.6837744999793358,,28,4,2026-03-05_15h36.25.371,2026A_exp2,2022.2.4,59.981453746901764,
0,0,0.0,0.0,1,0,28,28,2,,,,,135.50100389996078,136.1515553999925,136.1515553999925,136.65305839997018,45,315,136.65305839997018,136.65305839997018,136.65305839997018,136.65305839997018,136.65305839997018,136.65305839997018,136.65305839997018,136.65305839997018,136.65305839997018,137.01925329997903,137.01925329997903,137.01925329997903,137.01925329997903,137.01925329997903,137.01925329997903,137.01925329997903,137.01925329997903,137.01925329997903,23,0,,,137.01925329997903,137.21940100000938,0.0,137.21940100000938,0,0.0,0,1,1000,num_1,1.0343319000094198,,28,4,2026-03-05_15h36.25.371,2026A_exp2,2022.2.4,59.981453746901764,
1,0,0.0,3.7,1,0,29,29,35,,,,,138.270027999999,138.92105659999652,138.92105659999652,139.422047799977,315,315,139.422047799977,139.422047799977,139.422047799977,139.422047799977,139.422047799977,139.422047799977,139.422047799977,139.422047799977,139.422047799977,139.78869979997398,139.78869979997398,139.78869979997398,139.78869979997398,139.78869979997398,139.78869979997398,139.78869979997398,139.78869979997398,139.78869979997398,23,0,,,139.78869979997398,139.9888364999788,3.7,139.9888364999788,1,3.7,1,1,1000,num_4,0.2649519999977201,,28,4,2026-03-05_15h36.25.371,2026A_exp2,2022.2.4,59.981453746901764,
0,0,0.0,0.0,0,0,30,30,59,,,,,140.27243889996316,140.9230112999794,140.9230112999794,141.40757549996488,45,45,141.40757549996488,141.40757549996488,141.40757549996488,141.40757549996488,141.40757549996488,141.40757549996488,141.40757549996488,141.40757549996488,141.40757549996488,141.77392299997155,141.77392299997155,141.77392299997155,141.77392299997155,141.77392299997155,141.77392299997155,141.77392299997155,141.77392299997155,141.77392299997155,23,0,,,141.77392299997155,141.9741245000041,0.0,141.9741245000041,0,0.0,0,1,1000,num_1,0.3671029999968596,,28,4,2026-03-05_15h36.25.371,2026A_exp2,2022.2.4,59.981453746901764,
1000,1,3.7,0.0,0,0,31,31,56,,,,,142.35784499999136,143.00860850000754,143.00860850000754,143.4929003000143,315,315,143.4929003000143,143.4929003000143,143.4929003000143,143.4929003000143,143.4929003000143,143.4929003000143,143.4929003000143,143.4929003000143,143.4929003000143,143.8593772999593,143.8593772999593,143.8593772999593,143.8593772999593,143.8593772999593,143.8593772999593,143.8593772999593,143.8593772999593,143.8593772999593,23,0,,,143.8593772999593,144.06120100000408,1000,144.06120100000408,1000,1000,1000,1000,0,num_3,0.48937810002826154,,28,4,2026-03-05_15h36.25.371,2026A_exp2,2022.2.4,59.981453746901764,
1,0,0.0,0.0,0,0,32,32,55,,,,,144.5768706999952,145.22743089997675,145.22743089997675,145.72845150000649,45,315,145.72845150000649,145.72845150000649,145.72845150000649,145.72845150000649,145.72845150000649,145.72845150000649,145.72845150000649,145.72845150000649,145.72845150000649,146.07825209997827,146.07825209997827,146.07825209997827,146.07825209997827,146.07825209997827,146.07825209997827,146.07825209997827,146.07825209997827,146.07825209997827,22,0,,,146.07825209997827,146.2783827999956,0.0,146.29502859996865,0,0.0,0,1,1000,num_1,0.7827930999919772,,28,4,2026-03-05_15h36.25.371,2026A_exp2,2022.2.4,59.981453746901764,
1,0,4.9,3.7,1,0,33,33,27,,,,,147.0960752000101,147.72990589996334,147.72990589996334,148.2310531999683,45,315,148.2310531999683,148.2310531999683,148.2310531999683,148.2310531999683,148.2310531999683,148.2310531999683,148.2310531999683,148.2310531999683,148.2310531999683,148.59747380000772,148.59747380000772,148.59747380000772,148.59747380000772,148.59747380000772,148.59747380000772,148.59747380000772,148.59747380000772,148.59747380000772,23,0,,,148.59747380000772,148.79768730001524,3.7,148.79768730001524,1,3.7,1,1,1000,num_4,0.44867499999236315,,28,4,2026-03-05_15h36.25.371,2026A_exp2,2022.2.4,59.981453746901764,
1,0,0.0,3.7,1,0,34,34,14,,,,,149.26481269998476,149.91541449999204,149.91541449999204,150.39990819996456,45,45,150.39990819996456,150.39990819996456,150.39990819996456,150.39990819996456,150.39990819996456,150.39990819996456,150.39990819996456,150.39990819996456,150.39990819996456,150.7661359999911,150.7661359999911,150.7661359999911,150.7661359999911,150.7661359999911,150.7661359999911,150.7661359999911,150.7661359999911,150.7661359999911,23,0,,,150.7661359999911,150.96644250000827,3.7,150.96644250000827,1,3.7,1,1,1000,num_4,0.431841199984774,,28,4,2026-03-05_15h36.25.371,2026A_exp2,2022.2.4,59.981453746901764,
1,0,6.1,0.0,1,0,35,35,89,,,,,151.41689280001447,152.06762809999054,152.06762809999054,152.55185739998706,315,315,152.55185739998706,152.55185739998706,152.55185739998706,152.55185739998706,152.55185739998706,152.55185739998706,152.55185739998706,152.55185739998706,152.55185739998706,152.91830969997682,152.91830969997682,152.91830969997682,152.91830969997682,152.91830969997682,152.91830969997682,152.91830969997682,152.91830969997682,152.91830969997682,23,0,,,152.91830969997682,153.11846849997528,0.0,153.11846849997528,0,0.0,0,1,1000,num_1,0.9030426999670453,,28,4,2026-03-05_15h36.25.371,2026A_exp2,2022.2.4,59.981453746901764,
1000,1,6.1,0.0,1,0,36,36,83,,,,,154.05312130000675,154.7035249999608,154.7035249999608,155.18799249996664,315,45,155.18799249996664,155.18799249996664,155.18799249996664,155.18799249996664,155.18799249996664,155.18799249996664,155.18799249996664,155.18799249996664,155.18799249996664,155.55420740001136,155.55420740001136,155.55420740001136,155.55420740001136,155.55420740001136,155.55420740001136,155.55420740001136,155.55420740001136,155.55420740001136,23,0,,,155.55420740001136,155.75651609996567,1000,155.75651609996567,1000,1000,1000,1000,0,num_3,0.5779836000292562,,28,4,2026-03-05_15h36.25.371,2026A_exp2,2022.2.4,59.981453746901764,
1,0,0.0,6.1,1,0,37,37,33,,,,,156.35527050000383,157.01310219999868,157.01310219999868,157.50703749997774,45,45,157.50703749997774,157.50703749997774,157.50703749997774,157.50703749997774,157.50703749997774,157.50703749997774,157.50703749997774,157.50703749997774,157.50703749997774,157.8731831999612,157.8731831999612,157.8731831999612,157.8731831999612,157.8731831999612,157.8731831999612,157.8731831999612,157.8731831999612,157.8731831999612,23,0,,,157.8731831999612,158.0735956999706,6.1,158.0735956999706,1,6.1,1,1,1000,num_4,0.716688200016506,,28,4,2026-03-05_15h36.25.371,2026A_exp2,2022.2.4,59.981453746901764,
1000,1,4.9,0.0,0,0,38,38,54,,,,,158.8076040999731,159.45803370000795,159.45803370000795,159.9427767000161,45,45,159.9427767000161,159.9427767000161,159.9427767000161,159.9427767000161,159.9427767000161,159.9427767000161,159.9427767000161,159.9427767000161,159.9427767000161,160.30898769997293,160.30898769997293,160.30898769997293,160.30898769997293,160.30898769997293,160.30898769997293,160.30898769997293,160.30898769997293,160.30898769997293,23,0,,,160.30898769997293,160.5114303000155,1000,160.5114303000155,1000,1000,1000,1000,0,num_3,1.5346032999805175,,28,4,2026-03-05_15h36.25.371,2026A_exp2,2022.2.4,59.981453746901764,
1,0,0.0,3.7,1,0,39,39,32,,,,,162.07770109997364,162.7282017999678,162.7282017999678,163.2293456000043,45,45,163.2293456000043,163.2293456000043,163.2293456000043,163.2293456000043,163.2293456000043,163.2293456000043,163.2293456000043,163.2293456000043,163.2293456000043,163.59546879999107,163.59546879999107,163.59546879999107,163.59546879999107,163.59546879999107,163.59546879999107,163.59546879999107,163.59546879999107,163.59546879999107,23,0,,,163.59546879999107,163.79611960001057,3.7,163.79611960001057,0,3.7,1,0,1000,num_1,0.8659369999659248,,28,4,2026-03-05_15h36.25.371,2026A_exp2,2022.2.4,59.981453746901764,
1000,1,6.1,0.0,1,0,40,40,29,,,,,164.68020499998238,165.3310402999632,165.3310402999632,165.8152311000158,315,315,165.8152311000158,165.8152311000158,165.8152311000158,165.8152311000158,165.8152311000158,165.8152311000158,165.8152311000158,165.8152311000158,165.8152311000158,166.18164799996885,166.18164799996885,166.18164799996885,166.18164799996885,166.18164799996885,166.18164799996885,166.18164799996885,166.18164799996885,166.18164799996885,23,0,,,166.18164799996885,166.38349099998595,1000,166.38349099998595,1000,1000,1000,1000,0,num_3,1.3184764999896288,,28,4,2026-03-05_15h36.25.371,2026A_exp2,2022.2.4,59.981453746901764,
1000,1,4.9,0.0,1,0,41,41,10,,,,,167.7331027999753,168.383828799997,168.383828799997,168.88497579999967,315,315,168.88497579999967,168.88497579999967,168.88497579999967,168.88497579999967,168.88497579999967,168.88497579999967,168.88497579999967,168.88497579999967,168.88497579999967,169.25140119995922,169.25140119995922,169.25140119995922,169.25140119995922,169.25140119995922,169.25140119995922,169.25140119995922,169.25140119995922,169.25140119995922,23,0,,,169.25140119995922,169.4538232999621,1000,169.4538232999621,1000,1000,1000,1000,1,num_2,1.3928990000276826,,28,4,2026-03-05_15h36.25.371,2026A_exp2,2022.2.4,59.981453746901764,
1000,1,0.0,6.1,1,0,42,42,71,,,,,170.86966640001629,171.5203221999691,171.5203221999691,172.02138619998004,315,45,172.02138619998004,172.02138619998004,172.02138619998004,172.02138619998004,172.02138619998004,172.02138619998004,172.02138619998004,172.02138619998004,172.02138619998004,172.3879406999913,172.3879406999913,172.3879406999913,172.3879406999913,172.3879406999913,172.3879406999913,172.3879406999913,172.3879406999913,172.3879406999913,23,0,,,172.3879406999913,172.58987879997585,1000,172.58987879997585,1000,1000,1000,1000,1,num_2,0.8007258999859914,,28,4,2026-03-05_15h36.25.371,2026A_exp2,2022.2.4,59.981453746901764,
1000,1,6.1,0.0,1,0,43,43,57,,,,,173.42213590000756,174.07292090001283,174.07292090001283,174.57406359998276,315,45,174.57406359998276,174.57406359998276,174.57406359998276,174.57406359998276,174.57406359998276,174.57406359998276,174.57406359998276,174.57406359998276,174.57406359998276,174.94045299995923,174.94045299995923,174.94045299995923,174.94045299995923,174.94045299995923,174.94045299995923,174.94045299995923,174.94045299995923,174.94045299995923,23,0,,,174.94045299995923,175.1426256999839,1000,175.1426256999839,1000,1000,1000,1000,0,num_3,0.7353883000323549,,28,4,2026-03-05_15h36.25.371,2026A_exp2,2022.2.4,59.981453746901764,
1,0,0.0,0.0,0,0,44,44,24,,,,,175.90811759995995,176.55878479999956,176.55878479999956,177.05990379996365,45,45,177.05990379996365,177.05990379996365,177.05990379996365,177.05990379996365,177.05990379996365,177.05990379996365,177.05990379996365,177.05990379996365,177.05990379996365,177.42613709997386,177.42613709997386,177.42613709997386,177.42613709997386,177.42613709997386,177.42613709997386,177.42613709997386,177.42613709997386,177.42613709997386,23,0,,,177.42613709997386,177.62632659997325,0.0,177.62632659997325,0,0.0,0,1,1000,num_1,0.9795400999719277,,28,4,2026-03-05_15h36.25.371,2026A_exp2,2022.2.4,59.981453746901764,
1,0,0.0,0.0,1,0,45,45,69,,,,,178.62728459999198,179.26153099996736,179.26153099996736,179.7624198999838,45,315,179.7624198999838,179.7624198999838,179.7624198999838,179.7624198999838,179.7624198999838,179.7624198999838,179.7624198999838,179.7624198999838,179.7624198999838,180.12883970001712,180.12883970001712,180.12883970001712,180.12883970001712,180.12883970001712,180.12883970001712,180.12883970001712,180.12883970001712,180.12883970001712,23,0,,,180.12883970001712,180.32927899999777,0.0,180.32927899999777,0,0.0,0,1,1000,num_1,1.30927349999547,,28,4,2026-03-05_15h36.25.371,2026A_exp2,2022.2.4,59.981453746901764,
1,0,3.7,0.0,1,0,46,46,12,,,,,181.66384120000293,182.31447929999558,182.31447929999558,182.7989737999742,315,315,182.7989737999742,182.7989737999742,182.7989737999742,182.7989737999742,182.7989737999742,182.7989737999742,182.7989737999742,182.7989737999742,182.7989737999742,183.16536459996132,183.16536459996132,183.16536459996132,183.16536459996132,183.16536459996132,183.16536459996132,183.16536459996132,183.16536459996132,183.16536459996132,23,0,,,183.16536459996132,183.36553459998686,0.0,183.36553459998686,0,0.0,0,1,1000,num_1,0.9847635999904014,,28,4,2026-03-05_15h36.25.371,2026A_exp2,2022.2.4,59.981453746901764,
1000,1,0.0,0.0,1,0,47,47,9,,,,,184.36652189999586,185.0171864000149,185.0171864000149,185.50168569997186,315,315,185.50168569997186,185.50168569997186,185.50168569997186,185.50168569997186,185.50168569997186,185.50168569997186,185.50168569997186,185.50168569997186,185.50168569997186,185.86809080000967,185.86809080000967,185.86809080000967,185.86809080000967,185.86809080000967,185.86809080000967,185.86809080000967,185.86809080000967,185.86809080000967,23,0,,,185.86809080000967,186.07020010001725,1000,186.07020010001725,1000,1000,1000,1000,0,num_3,0.7674987000063993,,28,4,2026-03-05_15h36.25.371,2026A_exp2,2022.2.4,59.981453746901764,
1000,1,0.0,4.9,0,0,48,48,61,,,,,186.86930209997809,187.51961059996393,187.51961059996393,188.020790199982,315,315,188.020790199982,188.020790199982,188.020790199982,188.020790199982,188.020790199982,188.020790199982,188.020790199982,188.020790199982,188.020790199982,188.38696259999415,188.38696259999415,188.38696259999415,188.38696259999415,188.38696259999415,188.38696259999415,188.38696259999415,188.38696259999415,188.38696259999415,18,1,[0.08369780000066385],[0.16699850000441074],188.38696259999415,188.610941299994,1000,188.610941299994,1000,1000,1000,1000,0,num_3,1.2110664000501856,,28,4,2026-03-05_15h36.25.371,2026A_exp2,2022.2.4,59.981453746901764,
1000,1,6.1,6.1,1,0,49,49,8,,,,,189.83875100000296,190.48932230001083,190.48932230001083,190.9903427999816,45,45,190.9903427999816,190.9903427999816,190.9903427999816,190.9903427999816,190.9903427999816,190.9903427999816,190.9903427999816,190.9903427999816,190.9903427999816,191.35718940000515,191.35718940000515,191.35718940000515,191.35718940000515,191.35718940000515,191.35718940000515,191.35718940000515,191.35718940000515,191.35718940000515,2,2,"[0.001249200024176389, 0.20051439997041598]","[0.1837264000205323, 0.3671909000258893]",191.35718940000515,191.55893309996463,1000,191.55893309996463,1000,1000,1000,1000,1,num_2,0.9023075000150129,,28,4,2026-03-05_15h36.25.371,2026A_exp2,2022.2.4,59.981453746901764,
1,0,3.7,4.9,1,0,50,50,20,,,,,192.49131109996233,193.1420402000076,193.1420402000076,193.6429850999848,315,315,193.6429850999848,193.6429850999848,193.6429850999848,193.6429850999848,193.6429850999848,193.6429850999848,193.6429850999848,193.6429850999848,193.6429850999848,194.00940669997362,194.00940669997362,194.00940669997362,194.00940669997362,194.00940669997362,194.00940669997362,194.00940669997362,194.00940669997362,194.00940669997362,23,0,,,194.00940669997362,194.20968099997845,4.9,194.20968099997845,0,4.9,1,0,1000,num_1,0.7641286999569274,,28,4,2026-03-05_15h36.25.371,2026A_exp2,2022.2.4,59.981453746901764,
1000,1,0.0,4.9,1,0,51,51,66,,,,,194.99379629996838,195.64446619997034,195.64446619997034,196.12897109996993,315,315,196.12897109996993,196.12897109996993,196.12897109996993,196.12897109996993,196.12897109996993,196.12897109996993,196.12897109996993,196.12897109996993,196.12897109996993,196.49536040000385,196.49536040000385,196.49536040000385,196.49536040000385,196.49536040000385,196.49536040000385,196.49536040000385,196.49536040000385,196.49536040000385,23,0,,,196.49536040000385,196.69721079996089,1000,196.69721079996089,1000,1000,1000,1000,0,num_3,0.8762596999877132,,28,4,2026-03-05_15h36.25.371,2026A_exp2,2022.2.4,59.981453746901764,
1,0,0.0,4.9,0,0,52,52,3,,,,,197.5964973999653,198.24715379998088,198.24715379998088,198.73216229997342,315,45,198.73216229997342,198.73216229997342,198.73216229997342,198.73216229997342,198.73216229997342,198.73216229997342,198.73216229997342,198.73216229997342,198.73216229997342,199.11459189996822,199.11459189996822,199.11459189996822,199.11459189996822,199.11459189996822,199.11459189996822,199.11459189996822,199.11459189996822,199.11459189996822,24,0,,,199.11459189996822,199.31466470001033,0.0,199.31466470001033,0,0.0,0,1,1000,num_1,0.738719700020738,,28,4,2026-03-05_15h36.25.371,2026A_exp2,2022.2.4,59.981453746901764,
1000,1,6.1,6.1,1,0,53,53,4,,,,,200.08224789996166,200.73297810001532,200.73297810001532,201.21737649996066,45,45,201.21737649996066,201.21737649996066,201.21737649996066,201.21737649996066,201.21737649996066,201.21737649996066,201.21737649996066,201.21737649996066,201.21737649996066,201.583771399979,201.583771399979,201.583771399979,201.583771399979,201.583771399979,201.583771399979,201.583771399979,201.583771399979,201.583771399979,23,0,,,201.583771399979,201.78583169996273,1000,201.78583169996273,1000,1000,1000,1000,0,num_3,1.299782000016421,,28,4,2026-03-05_15h36.25.371,2026A_exp2,2022.2.4,59.981453746901764,
1,0,6.1,6.1,1,0,54,54,23,,,,,203.1020043999888,203.7525745999883,203.7525745999883,204.25360759999603,315,45,204.25360759999603,204.25360759999603,204.25360759999603,204.25360759999603,204.25360759999603,204.25360759999603,204.25360759999603,204.25360759999603,204.25360759999603,204.61995600000955,204.61995600000955,204.61995600000955,204.61995600000955,204.61995600000955,204.61995600000955,204.61995600000955,204.61995600000955,204.61995600000955,23,0,,,204.61995600000955,204.82029810000677,6.1,204.82029810000677,1,6.1,1,1,1000,num_4,0.8741478000301868,,28,4,2026-03-05_15h36.25.371,2026A_exp2,2022.2.4,59.981453746901764,
0,0,0.0,3.7,0,0,55,55,34,,,,,205.72130089998245,206.37195900001097,206.37195900001097,206.8728528000065,45,45,206.8728528000065,206.8728528000065,206.8728528000065,206.8728528000065,206.8728528000065,206.8728528000065,206.8728528000065,206.8728528000065,206.8728528000065,207.23906499997247,207.23906499997247,207.23906499997247,207.23906499997247,207.23906499997247,207.23906499997247,207.23906499997247,207.23906499997247,207.23906499997247,23,0,,,207.23906499997247,207.43955670000287,3.7,207.43955670000287,1,3.7,1,1,1000,num_4,0.7270204999949783,,28,4,2026-03-05_15h36.25.371,2026A_exp2,2022.2.4,59.981453746901764,
1,0,6.1,0.0,0,0,56,56,82,,,,,208.1905112999957,208.84078560001217,208.84078560001217,209.3421585999895,315,315,209.3421585999895,209.3421585999895,209.3421585999895,209.3421585999895,209.3421585999895,209.3421585999895,209.3421585999895,209.3421585999895,209.3421585999895,209.7084473000141,209.7084473000141,209.7084473000141,209.7084473000141,209.7084473000141,209.7084473000141,209.7084473000141,209.7084473000141,209.7084473000141,23,0,,,209.7084473000141,209.9087986999657,6.1,209.9087986999657,1,6.1,1,1,1000,num_4,0.8418581999721937,,28,4,2026-03-05_15h36.25.371,2026A_exp2,2022.2.4,59.981453746901764,
0,0,3.7,0.0,0,0,57,57,62,,,,,210.77616179996403,211.4268034999841,211.4268034999841,211.91139279998606,45,315,211.91139279998606,211.91139279998606,211.91139279998606,211.91139279998606,211.91139279998606,211.91139279998606,211.91139279998606,211.91139279998606,211.91139279998606,212.27770530001726,212.27770530001726,212.27770530001726,212.27770530001726,212.27770530001726,212.27770530001726,212.27770530001726,212.27770530001726,212.27770530001726,23,0,,,212.27770530001726,212.47785749996547,0.0,212.47785749996547,1,0.0,0,0,1000,num_4,0.8554439999861643,,28,4,2026-03-05_15h36.25.371,2026A_exp2,2022.2.4,59.981453746901764,
1000,1,0.0,0.0,0,0,58,58,17,,,,,213.3622192000039,213.99618000001647,213.99618000001647,214.4972878000117,315,45,214.4972878000117,214.4972878000117,214.4972878000117,214.4972878000117,214.4972878000117,214.4972878000117,214.4972878000117,214.4972878000117,214.4972878000117,214.86371740000322,214.86371740000322,214.86371740000322,214.86371740000322,214.86371740000322,214.86371740000322,214.86371740000322,214.86371740000322,214.86371740000322,0,1,[0.0012278000358492136],[0.36721130000660196],214.86371740000322,215.06586749997223,1000,215.06586749997223,1000,1000,1000,1000,1,num_2,0.7718943000072613,,28,4,2026-03-05_15h36.25.371,2026A_exp2,2022.2.4,59.981453746901764,
1,0,6.1,4.9,1,0,59,59,11,,,,,215.86481669999193,216.5153377999668,216.5153377999668,217.0164681999595,315,45,217.0164681999595,217.0164681999595,217.0164681999595,217.0164681999595,217.0164681999595,217.0164681999595,217.0164681999595,217.0164681999595,217.0164681999595,217.38268839998636,217.38268839998636,217.38268839998636,217.38268839998636,217.38268839998636,217.38268839998636,217.38268839998636,217.38268839998636,217.38268839998636,23,0,,,217.38268839998636,217.58313410001574,4.9,217.58313410001574,1,4.9,1,1,1000,num_4,1.0230593999731354,,28,4,2026-03-05_15h36.25.371,2026A_exp2,2022.2.4,59.981453746901764,
1,0,4.9,0.0,0,0,60,60,53,,,,,218.63420669996412,219.28493570000865,219.28493570000865,219.78574530000333,315,315,219.78574530000333,219.78574530000333,219.78574530000333,219.78574530000333,219.78574530000333,219.78574530000333,219.78574530000333,219.78574530000333,219.78574530000333,220.15243979997467,220.15243979997467,220.15243979997467,220.15243979997467,220.15243979997467,220.15243979997467,220.15243979997467,220.15243979997467,220.15243979997467,23,0,,,220.15243979997467,220.35248579998733,4.9,220.35248579998733,0,4.9,1,0,1000,num_1,0.5579671000014059,,28,4,2026-03-05_15h36.25.371,2026A_exp2,2022.2.4,59.981453746901764,
1,0,0.0,0.0,1,0,61,61,39,,,,,220.93642459996045,221.5868833999848,221.5868833999848,222.07143700000597,45,315,222.07143700000597,222.07143700000597,222.07143700000597,222.07143700000597,222.07143700000597,222.07143700000597,222.07143700000597,222.07143700000597,222.07143700000597,222.43787239998346,222.43787239998346,222.43787239998346,222.43787239998346,222.43787239998346,222.43787239998346,222.43787239998346,222.43787239998346,222.43787239998346,23,0,,,222.43787239998346,222.63814190000994,0.0,222.63814190000994,0,0.0,0,1,1000,num_1,0.4557522999821231,,28,4,2026-03-05_15h36.25.371,2026A_exp2,2022.2.4,59.981453746901764,
1,0,0.0,0.0,0,0,62,62,88,,,,,223.12197669997113,223.77274709998164,223.77274709998164,224.25697739998577,315,45,224.25697739998577,224.25697739998577,224.25697739998577,224.25697739998577,224.25697739998577,224.25697739998577,224.25697739998577,224.25697739998577,224.25697739998577,224.62350109999534,224.62350109999534,224.62350109999534,224.62350109999534,224.62350109999534,224.62350109999534,224.62350109999534,224.62350109999534,224.62350109999534,23,0,,,224.62350109999534,224.82364039996173,0.0,224.82364039996173,0,0.0,0,1,1000,num_1,0.43016699998406693,,28,4,2026-03-05_15h36.25.371,2026A_exp2,2022.2.4,59.981453746901764,
1000,1,0.0,3.7,0,0,63,63,46,,,,,225.27413289999822,225.9247920999769,225.9247920999769,226.4257140000118,45,315,226.4257140000118,226.4257140000118,226.4257140000118,226.4257140000118,226.4257140000118,226.4257140000118,226.4257140000118,226.4257140000118,226.4257140000118,226.79227049998008,226.79227049998008,226.79227049998008,226.79227049998008,226.79227049998008,226.79227049998008,226.79227049998008,226.79227049998008,226.79227049998008,0,1,[0.001193900010548532],[0.36739099997794256],226.79227049998008,226.99394299997948,1000,226.99394299997948,1000,1000,1000,1000,1,num_2,0.8435299000120722,,28,4,2026-03-05_15h36.25.371,2026A_exp2,2022.2.4,59.981453746901764,
1,0,4.9,3.7,0,0,64,64,44,,,,,227.86019999999553,228.51065740000922,228.51065740000922,228.99500699999044,45,315,228.99500699999044,228.99500699999044,228.99500699999044,228.99500699999044,228.99500699999044,228.99500699999044,228.99500699999044,228.99500699999044,228.99500699999044,229.3614592999802,229.3614592999802,229.3614592999802,229.3614592999802,229.3614592999802,229.3614592999802,229.3614592999802,229.3614592999802,229.3614592999802,20,2,"[0.0012450999929569662, 0.05013039999175817]","[0.03333910001674667, 0.06695260002743453]",229.3614592999802,229.56161380000412,4.9,229.56161380000412,0,4.9,1,0,1000,num_1,0.6687738000182435,,28,4,2026-03-05_15h36.25.371,2026A_exp2,2022.2.4,59.981453746901764,
1000,1,0.0,0.0,1,0,65,65,85,,,,,230.2457982999622,230.8963409999851,230.8963409999851,231.39752920001047,45,45,231.39752920001047,231.39752920001047,231.39752920001047,231.39752920001047,231.39752920001047,231.39752920001047,231.39752920001047,231.39752920001047,231.39752920001047,231.76396379998187,231.76396379998187,231.76396379998187,231.76396379998187,231.76396379998187,231.76396379998187,231.76396379998187,231.76396379998187,231.76396379998187,6,1,[0.0013346000341698527],[0.28346040000906214],231.76396379998187,231.96531469997717,1000,231.96531469997717,1000,1000,1000,1000,0,num_3,0.6638856999925338,,28,4,2026-03-05_15h36.25.371,2026A_exp2,2022.2.4,59.981453746901764,
1,0,0.0,6.1,1,0,66,66,50,,,,,232.64824030001182,233.2987936999998,233.2987936999998,233.79989779996686,315,45,233.79989779996686,233.79989779996686,233.79989779996686,233.79989779996686,233.79989779996686,233.79989779996686,233.79989779996686,233.79989779996686,233.79989779996686,234.16614330001175,234.16614330001175,234.16614330001175,234.16614330001175,234.16614330001175,234.16614330001175,234.16614330001175,234.16614330001175,234.16614330001175,23,0,,,234.16614330001175,234.36658089997945,6.1,234.36658089997945,0,6.1,1,0,1000,num_1,0.9039005999802612,,28,4,2026-03-05_15h36.25.371,2026A_exp2,2022.2.4,59.981453746901764,
1,0,0.0,0.0,1,0,67,67,49,,,,,235.3007370000123,235.95145659998525,235.95145659998525,236.4360244999989,315,45,236.4360244999989,236.4360244999989,236.4360244999989,236.4360244999989,236.4360244999989,236.4360244999989,236.4360244999989,236.4360244999989,236.4360244999989,236.80223259999184,236.80223259999184,236.80223259999184,236.80223259999184,236.80223259999184,236.80223259999184,236.80223259999184,236.80223259999184,236.80223259999184,23,0,,,236.80223259999184,237.00246240000706,0.0,237.00246240000706,0,0.0,0,1,1000,num_1,0.39553039998281747,,28,4,2026-03-05_15h36.25.371,2026A_exp2,2022.2.4,59.981453746901764,
0,0,4.9,0.0,1,0,68,68,67,,,,,237.41961430001538,238.07012039999245,238.07012039999245,238.55458820000058,45,45,238.55458820000058,238.55458820000058,238.55458820000058,238.55458820000058,238.55458820000058,238.55458820000058,238.55458820000058,238.55458820000058,238.55458820000058,238.9210449999664,238.9210449999664,238.9210449999664,238.9210449999664,238.9210449999664,238.9210449999664,238.9210449999664,238.9210449999664,238.9210449999664,23,0,,,238.9210449999664,239.12127319996944,4.9,239.12127319996944,1,4.9,1,1,1000,num_4,1.1488397999783047,,28,4,2026-03-05_15h36.25.371,2026A_exp2,2022.2.4,59.981453746901764,
0,0,4.9,3.7,0,0,69,69,28,,,,,240.28911559999688,240.93966440000804,240.93966440000804,241.42408550000982,45,45,241.42408550000982,241.42408550000982,241.42408550000982,241.42408550000982,241.42408550000982,241.42408550000982,241.42408550000982,241.42408550000982,241.42408550000982,241.79067259997828,241.79067259997828,241.79067259997828,241.79067259997828,241.79067259997828,241.79067259997828,241.79067259997828,241.79067259997828,241.79067259997828,23,0,,,241.79067259997828,241.9907494999934,3.7,241.9907494999934,1,3.7,1,1,1000,num_4,1.0387551000458188,,28,4,2026-03-05_15h36.25.371,2026A_exp2,2022.2.4,59.981453746901764,
1,0,6.1,0.0,1,0,70,70,80,,,,,243.05847069999436,243.70918479998363,243.70918479998363,244.19348059996264,45,45,244.19348059996264,244.19348059996264,244.19348059996264,244.19348059996264,244.19348059996264,244.19348059996264,244.19348059996264,244.19348059996264,244.19348059996264,244.56008129997645,244.56008129997645,244.56008129997645,244.56008129997645,244.56008129997645,244.56008129997645,244.56008129997645,244.56008129997645,244.56008129997645,23,0,,,244.56008129997645,244.76013259997126,0.0,244.76013259997126,0,0.0,0,1,1000,num_1,0.37407409999286756,,28,4,2026-03-05_15h36.25.371,2026A_exp2,2022.2.4,59.981453746901764,
1,0,3.7,6.1,0,0,71,71,52,,,,,245.16073259996483,245.81136140000308,245.81136140000308,246.29563499998767,45,45,246.29563499998767,246.29563499998767,246.29563499998767,246.29563499998767,246.29563499998767,246.29563499998767,246.29563499998767,246.29563499998767,246.29563499998767,246.66214209998725,246.66214209998725,246.66214209998725,246.66214209998725,246.66214209998725,246.66214209998725,246.66214209998725,246.66214209998725,246.66214209998725,21,1,[0.20005420001689345],[0.23381960002006963],246.66214209998725,246.86225840001134,3.7,246.86225840001134,0,3.7,1,0,1000,num_1,0.6079890000401065,,28,4,2026-03-05_15h36.25.371,2026A_exp2,2022.2.4,59.981453746901764,
1000,1,3.7,0.0,0,0,72,72,76,,,,,247.49630419997266,248.14818229997763,248.14818229997763,248.63145919999806,315,315,248.63145919999806,248.63145919999806,248.63145919999806,248.63145919999806,248.63145919999806,248.63145919999806,248.63145919999806,248.63145919999806,248.63145919999806,248.99780999997165,248.99780999997165,248.99780999997165,248.99780999997165,248.99780999997165,248.99780999997165,248.99780999997165,248.99780999997165,248.99780999997165,7,1,[0.0012157000019215047],[0.2671284999814816],248.99780999997165,249.2000398999662,1000,249.2000398999662,1000,1000,1000,1000,1,num_2,0.8461912000202574,,28,4,2026-03-05_15h36.25.371,2026A_exp2,2022.2.4,59.981453746901764,
1000,1,3.7,0.0,1,0,73,73,38,,,,,250.06560329999775,250.71607699996093,250.71607699996093,251.2172819999978,315,315,251.2172819999978,251.2172819999978,251.2172819999978,251.2172819999978,251.2172819999978,251.2172819999978,251.2172819999978,251.2172819999978,251.2172819999978,251.5836557999719,251.5836557999719,251.5836557999719,251.5836557999719,251.5836557999719,251.5836557999719,251.5836557999719,251.5836557999719,251.5836557999719,23,0,,,251.5836557999719,251.78404850000516,1000,251.78404850000516,1000,1000,1000,1000,1,num_2,1.7491719999816269,,28,4,2026-03-05_15h36.25.371,2026A_exp2,2022.2.4,59.981453746901764,
1,0,0.0,0.0,1,0,74,74,42,,,,,253.55235060001723,254.20301180001115,254.20301180001115,254.70372960000532,45,45,254.70372960000532,254.70372960000532,254.70372960000532,254.70372960000532,254.70372960000532,254.70372960000532,254.70372960000532,254.70372960000532,254.70372960000532,255.05369099997915,255.05369099997915,255.05369099997915,255.05369099997915,255.05369099997915,255.05369099997915,255.05369099997915,255.05369099997915,255.05369099997915,22,0,,,255.05369099997915,255.25395290000597,0.0,255.25395290000597,0,0.0,0,1,1000,num_1,1.519305500027258,,28,4,2026-03-05_15h36.25.371,2026A_exp2,2022.2.4,59.981453746901764,
1000,1,4.9,0.0,1,0,75,75,77,,,,,256.80547959997784,257.45649529999355,257.45649529999355,257.94040490000043,45,45,257.94040490000043,257.94040490000043,257.94040490000043,257.94040490000043,257.94040490000043,257.94040490000043,257.94040490000043,257.94040490000043,257.94040490000043,258.3069958999986,258.3069958999986,258.3069958999986,258.3069958999986,258.3069958999986,258.3069958999986,258.3069958999986,258.3069958999986,258.3069958999986,23,0,,,258.3069958999986,258.50903999997536,1000,258.50903999997536,1000,1000,1000,1000,0,num_3,0.6963255000300705,,28,4,2026-03-05_15h36.25.371,2026A_exp2,2022.2.4,59.981453746901764,
1000,1,3.7,3.7,0,0,76,76,72,,,,,259.2246670000022,259.85868409997784,259.85868409997784,260.3598411999992,315,45,260.3598411999992,260.3598411999992,260.3598411999992,260.3598411999992,260.3598411999992,260.3598411999992,260.3598411999992,260.3598411999992,260.3598411999992,260.72627749998355,260.72627749998355,260.72627749998355,260.72627749998355,260.72627749998355,260.72627749998355,260.72627749998355,260.72627749998355,260.72627749998355,23,0,,,260.72627749998355,260.92856679996476,1000,260.92856679996476,1000,1000,1000,1000,0,num_3,0.900956799974665,,28,4,2026-03-05_15h36.25.371,2026A_exp2,2022.2.4,59.981453746901764,
1000,1,6.1,3.7,0,0,77,77,75,,,,,261.8607147000148,262.5114140000078,262.5114140000078,263.0121541999979,315,315,263.0121541999979,263.0121541999979,263.0121541999979,263.0121541999979,263.0121541999979,263.0121541999979,263.0121541999979,263.0121541999979,263.0121541999979,263.36212800000794,263.36212800000794,263.36212800000794,263.36212800000794,263.36212800000794,263.36212800000794,263.36212800000794,263.36212800000794,263.36212800000794,22,0,,,263.36212800000794,263.56245229998603,1000,263.56245229998603,1000,1000,1000,1000,0,num_3,0.8914771000272594,,28,4,2026-03-05_15h36.25.371,2026A_exp2,2022.2.4,59.981453746901764,
0,0,6.1,0.0,0,0,78,78,74,,,,,264.4801222999813,265.13068639999256,265.13068639999256,265.6318057999597,315,315,265.6318057999597,265.6318057999597,265.6318057999597,265.6318057999597,265.6318057999597,265.6318057999597,265.6318057999597,265.6318057999597,265.6318057999597,265.981465299963,265.981465299963,265.981465299963,265.981465299963,265.981465299963,265.981465299963,265.981465299963,265.981465299963,265.981465299963,22,0,,,265.981465299963,266.1817583999946,0.0,266.1984408000135,1,0.0,0,0,1000,num_4,0.9594782000058331,,28,4,2026-03-05_15h36.25.371,2026A_exp2,2022.2.4,59.981453746901764,
1000,1,6.1,0.0,0,0,79,79,81,,,,,267.1828125999891,267.81656259996817,267.81656259996817,268.3176921000122,45,315,268.3176921000122,268.3176921000122,268.3176921000122,268.3176921000122,268.3176921000122,268.3176921000122,268.3176921000122,268.3176921000122,268.3176921000122,268.6842032999848,268.6842032999848,268.6842032999848,268.6842032999848,268.6842032999848,268.6842032999848,268.6842032999848,268.6842032999848,268.6842032999848,17,1,[0.0011899999808520079],[0.10018519998993725],268.6842032999848,268.88659060001373,1000,268.88659060001373,1000,1000,1000,1000,1,num_2,0.7673013000166975,,28,4,2026-03-05_15h36.25.371,2026A_exp2,2022.2.4,59.981453746901764,
1000,1,0.0,0.0,0,0,80,80,86,,,,,269.6851286999881,270.3358092000126,270.3358092000126,270.83696250000503,45,315,270.83696250000503,270.83696250000503,270.83696250000503,270.83696250000503,270.83696250000503,270.83696250000503,270.83696250000503,270.83696250000503,270.83696250000503,271.2033823999809,271.2033823999809,271.2033823999809,271.2033823999809,271.2033823999809,271.2033823999809,271.2033823999809,271.2033823999809,271.2033823999809,23,0,,,271.2033823999809,271.40526359999785,1000,271.40526359999785,1000,1000,1000,1000,1,num_2,0.8329963999567553,,28,4,2026-03-05_15h36.25.371,2026A_exp2,2022.2.4,59.981453746901764,
1,0,0.0,6.1,1,0,81,81,36,,,,,272.2545189000084,272.90499379998073,272.90499379998073,273.4061678000144,315,45,273.4061678000144,273.4061678000144,273.4061678000144,273.4061678000144,273.4061678000144,273.4061678000144,273.4061678000144,273.4061678000144,273.4061678000144,273.7727024999913,273.7727024999913,273.7727024999913,273.7727024999913,273.7727024999913,273.7727024999913,273.7727024999913,273.7727024999913,273.7727024999913,23,0,,,273.7727024999913,273.97274930001004,6.1,273.97274930001004,0,6.1,1,0,1000,num_1,0.7616683000233024,,28,4,2026-03-05_15h36.25.371,2026A_exp2,2022.2.4,59.981453746901764,
1000,1,3.7,6.1,1,0,82,82,48,,,,,274.7569352000137,275.4073174999794,275.4073174999794,275.8918986999779,315,315,275.8918986999779,275.8918986999779,275.8918986999779,275.8918986999779,275.8918986999779,275.8918986999779,275.8918986999779,275.8918986999779,275.8918986999779,276.2585532999947,276.2585532999947,276.2585532999947,276.2585532999947,276.2585532999947,276.2585532999947,276.2585532999947,276.2585532999947,276.2585532999947,23,0,,,276.2585532999947,276.4605559000047,1000,276.4605559000047,1000,1000,1000,1000,0,num_3,1.1367415999993682,,28,4,2026-03-05_15h36.25.371,2026A_exp2,2022.2.4,59.981453746901764,
1000,1,3.7,6.1,1,0,83,83,58,,,,,277.626584899961,278.2769597999868,278.2769597999868,278.7781270999694,315,45,278.7781270999694,278.7781270999694,278.7781270999694,278.7781270999694,278.7781270999694,278.7781270999694,278.7781270999694,278.7781270999694,278.7781270999694,279.14465480000945,279.14465480000945,279.14465480000945,279.14465480000945,279.14465480000945,279.14465480000945,279.14465480000945,279.14465480000945,279.14465480000945,23,0,,,279.14465480000945,279.3460586000001,1000,279.3460586000001,1000,1000,1000,1000,0,num_3,0.819981699984055,,28,4,2026-03-05_15h36.25.371,2026A_exp2,2022.2.4,59.981453746901764,
1,0,6.1,0.0,1,0,84,84,70,,,,,280.1957895999658,280.8462519000168,280.8462519000168,281.34741629997734,315,45,281.34741629997734,281.34741629997734,281.34741629997734,281.34741629997734,281.34741629997734,281.34741629997734,281.34741629997734,281.34741629997734,281.34741629997734,281.6971545999986,281.6971545999986,281.6971545999986,281.6971545999986,281.6971545999986,281.6971545999986,281.6971545999986,281.6971545999986,281.6971545999986,22,0,,,281.6971545999986,281.8972403999651,0.0,281.913824999996,0,0.0,0,1,1000,num_1,1.5403635999537073,,28,4,2026-03-05_15h36.25.371,2026A_exp2,2022.2.4,59.981453746901764,
1000,1,3.7,0.0,1,0,85,85,19,,,,,283.48238890001085,284.12453929998446,284.12453929998446,284.61743599997135,315,315,284.61743599997135,284.61743599997135,284.61743599997135,284.61743599997135,284.61743599997135,284.61743599997135,284.61743599997135,284.61743599997135,284.61743599997135,284.9838152999873,284.9838152999873,284.9838152999873,284.9838152999873,284.9838152999873,284.9838152999873,284.9838152999873,284.9838152999873,284.9838152999873,23,0,,,284.9838152999873,285.1877195999841,1000,285.1877195999841,1000,1000,1000,1000,0,num_3,0.7304907999932766,,28,4,2026-03-05_15h36.25.371,2026A_exp2,2022.2.4,59.981453746901764,
1000,1,3.7,4.9,0,0,86,86,45,,,,,285.93482199998107,286.5853602999705,286.5853602999705,287.0865510000149,45,45,287.0865510000149,287.0865510000149,287.0865510000149,287.0865510000149,287.0865510000149,287.0865510000149,287.0865510000149,287.0865510000149,287.0865510000149,287.45285190001596,287.45285190001596,287.45285190001596,287.45285190001596,287.45285190001596,287.45285190001596,287.45285190001596,287.45285190001596,287.45285190001596,23,0,,,287.45285190001596,287.6549640999874,1000,287.6549640999874,1000,1000,1000,1000,1,num_2,2.0070851999917068,,28,4,2026-03-05_15h36.25.371,2026A_exp2,2022.2.4,59.981453746901764,
1000,1,0.0,0.0,0,0,87,87,7,,,,,289.68863439996494,290.3391876000096,290.3391876000096,290.84030799998436,45,45,290.84030799998436,290.84030799998436,290.84030799998436,290.84030799998436,290.84030799998436,290.84030799998436,290.84030799998436,290.84030799998436,290.84030799998436,291.20672109996667,291.20672109996667,291.20672109996667,291.20672109996667,291.20672109996667,291.20672109996667,291.20672109996667,291.20672109996667,291.20672109996667,2,1,[0.0011115000233985484],[0.3506123999832198],291.20672109996667,291.40863510000054,1000,291.40863510000054,1000,1000,1000,1000,0,num_3,0.6941384999663569,,28,4,2026-03-05_15h36.25.371,2026A_exp2,2022.2.4,59.981453746901764,
1000,1,0.0,0.0,0,0,88,88,5,,,,,292.1242738000001,292.7749786999775,292.7749786999775,293.2594460999826,45,45,293.2594460999826,293.2594460999826,293.2594460999826,293.2594460999826,293.2594460999826,293.2594460999826,293.2594460999826,293.2594460999826,293.2594460999826,293.6258184000035,293.6258184000035,293.6258184000035,293.6258184000035,293.6258184000035,293.6258184000035,293.6258184000035,293.6258184000035,293.6258184000035,3,2,"[0.0012345000286586583, 0.049726199998985976]","[0.03328999999212101, 0.35038540000095963]",293.6258184000035,293.82774579996476,1000,293.82774579996476,1000,1000,1000,1000,0,num_3,0.4984157999861054,,28,4,2026-03-05_15h36.25.371,2026A_exp2,2022.2.4,59.981453746901764,
1000,1,0.0,0.0,1,0,89,89,1,,,,,294.3432245000149,294.99369370000204,294.99369370000204,295.4950111999642,315,45,295.4950111999642,295.4950111999642,295.4950111999642,295.4950111999642,295.4950111999642,295.4950111999642,295.4950111999642,295.4950111999642,295.4950111999642,295.8445599999977,295.8445599999977,295.8445599999977,295.8445599999977,295.8445599999977,295.8445599999977,295.8445599999977,295.8445599999977,295.8445599999977,16,6,"[0.11673740000696853, 0.1834971999633126, 0.21692179999081418, 0.2499608999933116, 0.2835198999964632, 0.3335820999927819]","[0.1333331000059843, 0.20008330000564456, 0.23354449996259063, 0.26680849998956546, 0.3002246999531053, 0.35035909997532144]",295.8445599999977,296.0464689999935,1000,296.0615675000008,1000,1000,1000,1000,1,num_2,1.2487417999655008,,28,4,2026-03-05_15h36.25.371,2026A_exp2,2022.2.4,59.981453746901764,
,,,,,,,,,,,,,,,,,,,,,,,,,,,,,,,,,,,,,,,,,,,,,,,,,,,,297.33874689997174,,,,,,,
