validity,detectorcomp,contrastCW,contrastCCW,precueCWorCCW,block_80trials.thisRepN,block_80trials.thisTrialN,block_80trials.thisN,block_80trials.thisIndex,etRecord.started,etRecord.stopped,text.started,text.stopped,text_4.started,text_4.stopped,text_6.started,text_6.stopped,oriCW,oriCCW,roi_2.started,grating_UR.started,grating_UL.started,grating_LR.started,grating_LL.started,noise_UR.started,noise_UL.started,noise_LR.started,noise_LL.started,roi_2.stopped,grating_UR.stopped,grating_UL.stopped,grating_LR.stopped,grating_LL.stopped,noise_UR.stopped,noise_UL.stopped,noise_LR.stopped,noise_LL.stopped,outframe,roi_2.numLooks,roi_2.timesOn,roi_2.timesOff,text_2.started,text_2.stopped,probedcontrast,key_resp.started,respdetect,relevantContrast,correctDetect,TorFdetect,respCWorCCW,key_resp.keys,key_resp.rt,feedback_display_.started,participantNo,blockNo,date,expName,psychopyVersion,frameRate,
1,0,3.7,0.0,1,0,0,0,13,9.639980271458626e-05,9.639980271458626e-05,52.7362452999223,54.744183799950406,54.744183799950406,55.373635299969465,55.373635299969465,55.89731219992973,45,315,55.89731219992973,55.89731219992973,55.89731219992973,55.89731219992973,55.89731219992973,55.89731219992973,55.89731219992973,55.89731219992973,55.89731219992973,56.24027069984004,56.24027069984004,56.24027069984004,56.24027069984004,56.24027069984004,56.24027069984004,56.24027069984004,56.24027069984004,56.24027069984004,22,1,[0.36627470003440976],[0.36627770005725324],56.24027069984004,56.44076159992255,0.0,56.44076159992255,1,0.0,0,0,1000,num_4,7.0936094000935555,,32,1,2026-03-12_15h09.08.479,2026A_exp2,2022.2.4,59.87815994042274,
0,0,6.1,0.0,1,0,1,1,30,,,,,63.564887000015005,64.21504709986039,64.21504709986039,64.7164348999504,45,45,64.7164348999504,64.7164348999504,64.7164348999504,64.7164348999504,64.7164348999504,64.7164348999504,64.7164348999504,64.7164348999504,64.7164348999504,65.0827623999212,65.0827623999212,65.0827623999212,65.0827623999212,65.0827623999212,65.0827623999212,65.0827623999212,65.0827623999212,65.0827623999212,23,0,,,65.0827623999212,65.2827914999798,6.1,65.2827914999798,1,6.1,1,1,1000,num_4,0.9634449002332985,,32,1,2026-03-12_15h09.08.479,2026A_exp2,2022.2.4,59.87815994042274,
1000,1,6.1,0.0,0,0,2,2,59,,,,,66.267949400004,66.917695999844,66.917695999844,67.40213779988699,45,315,67.40213779988699,67.40213779988699,67.40213779988699,67.40213779988699,67.40213779988699,67.40213779988699,67.40213779988699,67.40213779988699,67.40213779988699,67.76855019992217,67.76855019992217,67.76855019992217,67.76855019992217,67.76855019992217,67.76855019992217,67.76855019992217,67.76855019992217,67.76855019992217,23,0,,,67.76855019992217,67.96933529991657,1000,67.96933529991657,1000,1000,1000,1000,0,num_3,3.005424600094557,,32,1,2026-03-12_15h09.08.479,2026A_exp2,2022.2.4,59.87815994042274,
1000,1,0.0,0.0,1,0,3,3,16,,,,,71.00626559997909,71.65584059990942,71.65584059990942,72.15725859999657,45,45,72.15725859999657,72.15725859999657,72.15725859999657,72.15725859999657,72.15725859999657,72.15725859999657,72.15725859999657,72.15725859999657,72.15725859999657,72.52410509996116,72.52410509996116,72.52410509996116,72.52410509996116,72.52410509996116,72.52410509996116,72.52410509996116,72.52410509996116,72.52410509996116,23,0,,,72.52410509996116,72.72365299984813,1000,72.72365299984813,1000,1000,1000,1000,1,num_2,1.338935700012371,,32,1,2026-03-12_15h09.08.479,2026A_exp2,2022.2.4,59.87815994042274,
1,0,4.9,6.1,0,0,4,4,33,,,,,74.09204769995995,74.74221029994078,74.74221029994078,75.2268079998903,315,315,75.2268079998903,75.2268079998903,75.2268079998903,75.2268079998903,75.2268079998903,75.2268079998903,75.2268079998903,75.2268079998903,75.2268079998903,75.5931486999616,75.5931486999616,75.5931486999616,75.5931486999616,75.5931486999616,75.5931486999616,75.5931486999616,75.5931486999616,75.5931486999616,23,0,,,75.5931486999616,75.79346819990315,4.9,75.79346819990315,1,4.9,1,1,1000,num_4,1.4853401000145823,,32,1,2026-03-12_15h09.08.479,2026A_exp2,2022.2.4,59.87815994042274,
1,0,3.7,0.0,0,0,5,5,8,,,,,77.31251889979467,77.96214079996571,77.96214079996571,78.44652449991554,315,315,78.44652449991554,78.44652449991554,78.44652449991554,78.44652449991554,78.44652449991554,78.44652449991554,78.44652449991554,78.44652449991554,78.44652449991554,78.81328419991769,78.81328419991769,78.81328419991769,78.81328419991769,78.81328419991769,78.81328419991769,78.81328419991769,78.81328419991769,78.81328419991769,23,0,,,78.81328419991769,79.01316969981417,3.7,79.01316969981417,1,3.7,1,1,1000,num_4,6.680907900212333,,32,1,2026-03-12_15h09.08.479,2026A_exp2,2022.2.4,59.87815994042274,
1000,1,0.0,4.9,0,0,6,6,74,,,,,85.7204831999261,86.37045189994387,86.37045189994387,86.8551147999242,45,315,86.8551147999242,86.8551147999242,86.8551147999242,86.8551147999242,86.8551147999242,86.8551147999242,86.8551147999242,86.8551147999242,86.8551147999242,87.22156480001286,87.22156480001286,87.22156480001286,87.22156480001286,87.22156480001286,87.22156480001286,87.22156480001286,87.22156480001286,87.22156480001286,23,0,,,87.22156480001286,87.42157989996485,1000,87.42157989996485,1000,1000,1000,1000,1,num_2,0.6245949002914131,,32,1,2026-03-12_15h09.08.479,2026A_exp2,2022.2.4,59.87815994042274,
1000,1,6.1,4.9,0,0,7,7,68,,,,,88.07315670000389,88.72335009998642,88.72335009998642,89.22540999995545,315,45,89.22540999995545,89.22540999995545,89.22540999995545,89.22540999995545,89.22540999995545,89.22540999995545,89.22540999995545,89.22540999995545,89.22540999995545,89.59051419980824,89.59051419980824,89.59051419980824,89.59051419980824,89.59051419980824,89.59051419980824,89.59051419980824,89.59051419980824,89.59051419980824,23,0,,,89.59051419980824,89.79139199992642,1000,89.79139199992642,1000,1000,1000,1000,0,num_3,0.6630577000323683,,32,1,2026-03-12_15h09.08.479,2026A_exp2,2022.2.4,59.87815994042274,
0,0,0.0,0.0,0,0,8,8,70,,,,,90.4751805998385,91.12596639990807,91.12596639990807,91.62680709990673,315,45,91.62680709990673,91.62680709990673,91.62680709990673,91.62680709990673,91.62680709990673,91.62680709990673,91.62680709990673,91.62680709990673,91.62680709990673,91.97664739983156,91.97664739983156,91.97664739983156,91.97664739983156,91.97664739983156,91.97664739983156,91.97664739983156,91.97664739983156,91.97664739983156,22,0,,,91.97664739983156,92.17636139993556,0.0,92.17636139993556,0,0.0,0,1,1000,num_1,1.181866500293836,,32,1,2026-03-12_15h09.08.479,2026A_exp2,2022.2.4,59.87815994042274,
1,0,0.0,0.0,0,0,9,9,51,,,,,93.37792329979129,94.02822320000269,94.02822320000269,94.51391909993254,315,45,94.51391909993254,94.51391909993254,94.51391909993254,94.51391909993254,94.51391909993254,94.51391909993254,94.51391909993254,94.51391909993254,94.51391909993254,94.87901679985225,94.87901679985225,94.87901679985225,94.87901679985225,94.87901679985225,94.87901679985225,94.87901679985225,94.87901679985225,94.87901679985225,23,0,,,94.87901679985225,95.07973959995434,0.0,95.07973959995434,1,0.0,0,0,1000,num_4,0.9510608001146466,,32,1,2026-03-12_15h09.08.479,2026A_exp2,2022.2.4,59.87815994042274,
1000,1,0.0,0.0,0,0,10,10,6,,,,,96.04775219992734,96.68232689984143,96.68232689984143,97.18331069988199,45,45,97.18331069988199,97.18331069988199,97.18331069988199,97.18331069988199,97.18331069988199,97.18331069988199,97.18331069988199,97.18331069988199,97.18331069988199,97.54960009991191,97.54960009991191,97.54960009991191,97.54960009991191,97.54960009991191,97.54960009991191,97.54960009991191,97.54960009991191,97.54960009991191,23,0,,,97.54960009991191,97.75343829998747,1000,97.75343829998747,1000,1000,1000,1000,0,num_3,0.6211141999810934,,32,1,2026-03-12_15h09.08.479,2026A_exp2,2022.2.4,59.87815994042274,
0,0,6.1,6.1,0,0,11,11,42,,,,,98.40090689994395,99.05197509983554,99.05197509983554,99.55121059995145,45,45,99.55121059995145,99.55121059995145,99.55121059995145,99.55121059995145,99.55121059995145,99.55121059995145,99.55121059995145,99.55121059995145,99.55121059995145,99.90099080000073,99.90099080000073,99.90099080000073,99.90099080000073,99.90099080000073,99.90099080000073,99.90099080000073,99.90099080000073,99.90099080000073,22,0,,,99.90099080000073,100.10117949987762,6.1,100.11768009979278,1,6.1,1,1,1000,num_4,1.8007350000552833,,32,1,2026-03-12_15h09.08.479,2026A_exp2,2022.2.4,59.87815994042274,
1000,1,0.0,0.0,1,0,12,12,46,,,,,101.93673219997436,102.58733040001243,102.58733040001243,103.07244389993139,315,315,103.07244389993139,103.07244389993139,103.07244389993139,103.07244389993139,103.07244389993139,103.07244389993139,103.07244389993139,103.07244389993139,103.07244389993139,103.43790809996426,103.43790809996426,103.43790809996426,103.43790809996426,103.43790809996426,103.43790809996426,103.43790809996426,103.43790809996426,103.43790809996426,23,0,,,103.43790809996426,103.63824519980699,1000,103.63824519980699,1000,1000,1000,1000,0,num_3,0.7125254001002759,,32,1,2026-03-12_15h09.08.479,2026A_exp2,2022.2.4,59.87815994042274,
1000,1,3.7,6.1,1,0,13,13,29,,,,,104.37261319998652,105.02274419995956,105.02274419995956,105.5239887998905,45,315,105.5239887998905,105.5239887998905,105.5239887998905,105.5239887998905,105.5239887998905,105.5239887998905,105.5239887998905,105.5239887998905,105.5239887998905,105.87375069991685,105.87375069991685,105.87375069991685,105.87375069991685,105.87375069991685,105.87375069991685,105.87375069991685,105.87375069991685,105.87375069991685,22,0,,,105.87375069991685,106.07393949991092,1000,106.09078939980827,1000,1000,1000,1000,1,num_2,0.5560242999345064,,32,1,2026-03-12_15h09.08.479,2026A_exp2,2022.2.4,59.87815994042274,
1,0,3.7,0.0,1,0,14,14,28,,,,,106.67436679988168,107.32520089996979,107.32520089996979,107.8259448998142,315,315,107.8259448998142,107.8259448998142,107.8259448998142,107.8259448998142,107.8259448998142,107.8259448998142,107.8259448998142,107.8259448998142,107.8259448998142,108.17600589990616,108.17600589990616,108.17600589990616,108.17600589990616,108.17600589990616,108.17600589990616,108.17600589990616,108.17600589990616,108.17600589990616,22,0,,,108.17600589990616,108.37634339998476,0.0,108.37634339998476,0,0.0,0,1,1000,num_1,1.9577973000705242,,32,1,2026-03-12_15h09.08.479,2026A_exp2,2022.2.4,59.87815994042274,
1000,1,0.0,6.1,1,0,15,15,52,,,,,110.36140159983188,110.99529059999622,110.99529059999622,111.49652799987234,45,315,111.49652799987234,111.49652799987234,111.49652799987234,111.49652799987234,111.49652799987234,111.49652799987234,111.49652799987234,111.49652799987234,111.49652799987234,111.86294699995779,111.86294699995779,111.86294699995779,111.86294699995779,111.86294699995779,111.86294699995779,111.86294699995779,111.86294699995779,111.86294699995779,23,0,,,111.86294699995779,112.06343139987439,1000,112.06343139987439,1000,1000,1000,1000,1,num_2,0.8230104001704603,,32,1,2026-03-12_15h09.08.479,2026A_exp2,2022.2.4,59.87815994042274,
1,0,0.0,3.7,1,0,16,16,0,,,,,112.91408000001684,113.56468199985102,113.56468199985102,114.06783399987034,315,315,114.06783399987034,114.06783399987034,114.06783399987034,114.06783399987034,114.06783399987034,114.06783399987034,114.06783399987034,114.06783399987034,114.06783399987034,114.43224419979379,114.43224419979379,114.43224419979379,114.43224419979379,114.43224419979379,114.43224419979379,114.43224419979379,114.43224419979379,114.43224419979379,23,0,,,114.43224419979379,114.63262169994414,3.7,114.63262169994414,1,3.7,1,1,1000,num_4,1.5423400001600385,,32,1,2026-03-12_15h09.08.479,2026A_exp2,2022.2.4,59.87815994042274,
0,0,4.9,4.9,1,0,17,17,48,,,,,116.2005177999381,116.83450389979407,116.83450389979407,117.3356761999894,45,315,117.3356761999894,117.3356761999894,117.3356761999894,117.3356761999894,117.3356761999894,117.3356761999894,117.3356761999894,117.3356761999894,117.3356761999894,117.70200169994496,117.70200169994496,117.70200169994496,117.70200169994496,117.70200169994496,117.70200169994496,117.70200169994496,117.70200169994496,117.70200169994496,23,0,,,117.70200169994496,117.90208599995822,4.9,117.90208599995822,0,4.9,1,0,1000,num_1,2.4326422999147326,,32,1,2026-03-12_15h09.08.479,2026A_exp2,2022.2.4,59.87815994042274,
1,0,4.9,3.7,0,0,18,18,9,,,,,120.35599969979376,121.00539389997721,121.00539389997721,121.50659819995053,45,45,121.50659819995053,121.50659819995053,121.50659819995053,121.50659819995053,121.50659819995053,121.50659819995053,121.50659819995053,121.50659819995053,121.50659819995053,121.8731282998342,121.8731282998342,121.8731282998342,121.8731282998342,121.8731282998342,121.8731282998342,121.8731282998342,121.8731282998342,121.8731282998342,23,0,,,121.8731282998342,122.0733545999974,4.9,122.0733545999974,1,4.9,1,1,1000,num_4,1.4139073002152145,,32,1,2026-03-12_15h09.08.479,2026A_exp2,2022.2.4,59.87815994042274,
1000,1,0.0,4.9,1,0,19,19,79,,,,,123.50812629982829,124.15862459992059,124.15862459992059,124.65976909990422,45,315,124.65976909990422,124.65976909990422,124.65976909990422,124.65976909990422,124.65976909990422,124.65976909990422,124.65976909990422,124.65976909990422,124.65976909990422,125.02622130000964,125.02622130000964,125.02622130000964,125.02622130000964,125.02622130000964,125.02622130000964,125.02622130000964,125.02622130000964,125.02622130000964,23,0,,,125.02622130000964,125.22654079995118,1000,125.22654079995118,1000,1000,1000,1000,1,num_2,0.5478266002610326,,32,1,2026-03-12_15h09.08.479,2026A_exp2,2022.2.4,59.87815994042274,
1,0,0.0,6.1,0,0,20,20,43,,,,,125.79426379990764,126.44424839993007,126.44424839993007,126.94529860001057,315,45,126.94529860001057,126.94529860001057,126.94529860001057,126.94529860001057,126.94529860001057,126.94529860001057,126.94529860001057,126.94529860001057,126.94529860001057,127.29490259988233,127.29490259988233,127.29490259988233,127.29490259988233,127.29490259988233,127.29490259988233,127.29490259988233,127.29490259988233,127.29490259988233,22,0,,,127.29490259988233,127.4954183998052,0.0,127.4954183998052,0,0.0,0,1,1000,num_1,1.047153300140053,,32,1,2026-03-12_15h09.08.479,2026A_exp2,2022.2.4,59.87815994042274,
1,0,0.0,6.1,0,0,21,21,82,,,,,128.5631287000142,129.21358829992823,129.21358829992823,129.71466739987954,45,45,129.71466739987954,129.71466739987954,129.71466739987954,129.71466739987954,129.71466739987954,129.71466739987954,129.71466739987954,129.71466739987954,129.71466739987954,130.0645482998807,130.0645482998807,130.0645482998807,130.0645482998807,130.0645482998807,130.0645482998807,130.0645482998807,130.0645482998807,130.0645482998807,9,1,[0.0012656999751925468],[0.21663789986632764],130.0645482998807,130.2645364999771,0.0,130.2645364999771,0,0.0,0,1,1000,num_1,0.9494561001192778,,32,1,2026-03-12_15h09.08.479,2026A_exp2,2022.2.4,59.87815994042274,
1,0,4.9,0.0,1,0,22,22,25,,,,,131.23220500000753,131.883087299997,131.883087299997,132.36895909998566,45,315,132.36895909998566,132.36895909998566,132.36895909998566,132.36895909998566,132.36895909998566,132.36895909998566,132.36895909998566,132.36895909998566,132.36895909998566,132.73387649981305,132.73387649981305,132.73387649981305,132.73387649981305,132.73387649981305,132.73387649981305,132.73387649981305,132.73387649981305,132.73387649981305,23,0,,,132.73387649981305,132.93421969981864,0.0,132.93421969981864,0,0.0,0,1,1000,num_1,0.9360923999920487,,32,1,2026-03-12_15h09.08.479,2026A_exp2,2022.2.4,59.87815994042274,
1000,1,0.0,0.0,1,0,23,23,56,,,,,133.90167529997416,134.55259879981168,134.55259879981168,135.0367571997922,315,315,135.0367571997922,135.0367571997922,135.0367571997922,135.0367571997922,135.0367571997922,135.0367571997922,135.0367571997922,135.0367571997922,135.0367571997922,135.40315799997188,135.40315799997188,135.40315799997188,135.40315799997188,135.40315799997188,135.40315799997188,135.40315799997188,135.40315799997188,135.40315799997188,22,1,[0.2502518000546843],[0.26708580018021166],135.40315799997188,135.60357419983484,1000,135.60357419983484,1000,1000,1000,1000,1,num_2,0.7074424002785236,,32,1,2026-03-12_15h09.08.479,2026A_exp2,2022.2.4,59.87815994042274,
1000,1,0.0,6.1,1,0,24,24,3,,,,,136.33739699982107,136.98796469997615,136.98796469997615,137.489247799851,45,45,137.489247799851,137.489247799851,137.489247799851,137.489247799851,137.489247799851,137.489247799851,137.489247799851,137.489247799851,137.489247799851,137.85566210001707,137.85566210001707,137.85566210001707,137.85566210001707,137.85566210001707,137.85566210001707,137.85566210001707,137.85566210001707,137.85566210001707,23,0,,,137.85566210001707,138.05580009985715,1000,138.05580009985715,1000,1000,1000,1000,1,num_2,0.43068870017305017,,32,1,2026-03-12_15h09.08.479,2026A_exp2,2022.2.4,59.87815994042274,
0,0,3.7,6.1,0,0,25,25,73,,,,,138.50717989983968,139.15698229987174,139.15698229987174,139.65795009979047,45,315,139.65795009979047,139.65795009979047,139.65795009979047,139.65795009979047,139.65795009979047,139.65795009979047,139.65795009979047,139.65795009979047,139.65795009979047,140.02434779983014,140.02434779983014,140.02434779983014,140.02434779983014,140.02434779983014,140.02434779983014,140.02434779983014,140.02434779983014,140.02434779983014,21,1,[0.050087699899449944],[0.08312550000846386],140.02434779983014,140.22439939994365,6.1,140.22439939994365,1,6.1,1,1,1000,num_4,1.3335177002009004,,32,1,2026-03-12_15h09.08.479,2026A_exp2,2022.2.4,59.87815994042274,
1000,1,3.7,0.0,1,0,26,26,54,,,,,141.57601319998503,142.22667309991084,142.22667309991084,142.7276920999866,315,45,142.7276920999866,142.7276920999866,142.7276920999866,142.7276920999866,142.7276920999866,142.7276920999866,142.7276920999866,142.7276920999866,142.7276920999866,143.07747419993393,143.07747419993393,143.07747419993393,143.07747419993393,143.07747419993393,143.07747419993393,143.07747419993393,143.07747419993393,143.07747419993393,22,0,,,143.07747419993393,143.27984389988706,1000,143.27984389988706,1000,1000,1000,1000,0,num_3,0.7750709000974894,,32,1,2026-03-12_15h09.08.479,2026A_exp2,2022.2.4,59.87815994042274,
1,0,6.1,4.9,0,0,27,27,81,,,,,144.07916319998913,144.73899819981307,144.73899819981307,145.23390519991517,45,315,145.23390519991517,145.23390519991517,145.23390519991517,145.23390519991517,145.23390519991517,145.23390519991517,145.23390519991517,145.23390519991517,145.23390519991517,145.5801895998884,145.5801895998884,145.5801895998884,145.5801895998884,145.5801895998884,145.5801895998884,145.5801895998884,145.5801895998884,145.5801895998884,22,0,,,145.5801895998884,145.7806038998533,6.1,145.7971826000139,1,6.1,1,1,1000,num_4,1.8409910001792014,,32,1,2026-03-12_15h09.08.479,2026A_exp2,2022.2.4,59.87815994042274,
1000,1,0.0,6.1,0,0,28,28,2,,,,,147.66531049995683,148.31590649997815,148.31590649997815,148.80020549986511,315,45,148.80020549986511,148.80020549986511,148.80020549986511,148.80020549986511,148.80020549986511,148.80020549986511,148.80020549986511,148.80020549986511,148.80020549986511,149.16687579988502,149.16687579988502,149.16687579988502,149.16687579988502,149.16687579988502,149.16687579988502,149.16687579988502,149.16687579988502,149.16687579988502,23,0,,,149.16687579988502,149.36708879983053,1000,149.36708879983053,1000,1000,1000,1000,1,num_2,0.7674704000819474,,32,1,2026-03-12_15h09.08.479,2026A_exp2,2022.2.4,59.87815994042274,
1000,1,0.0,6.1,1,0,29,29,62,,,,,150.15126399998553,150.80177399981767,150.80177399981767,151.3029350999277,315,315,151.3029350999277,151.3029350999277,151.3029350999277,151.3029350999277,151.3029350999277,151.3029350999277,151.3029350999277,151.3029350999277,151.3029350999277,151.6691405000165,151.6691405000165,151.6691405000165,151.6691405000165,151.6691405000165,151.6691405000165,151.6691405000165,151.6691405000165,151.6691405000165,23,0,,,151.6691405000165,151.86965089989826,1000,151.86965089989826,1000,1000,1000,1000,1,num_2,0.672345100203529,,32,1,2026-03-12_15h09.08.479,2026A_exp2,2022.2.4,59.87815994042274,
1,0,3.7,0.0,1,0,30,30,11,,,,,152.57021509995684,153.22099279984832,153.22099279984832,153.70534599991515,315,315,153.70534599991515,153.70534599991515,153.70534599991515,153.70534599991515,153.70534599991515,153.70534599991515,153.70534599991515,153.70534599991515,153.70534599991515,154.07191419997253,154.07191419997253,154.07191419997253,154.07191419997253,154.07191419997253,154.07191419997253,154.07191419997253,154.07191419997253,154.07191419997253,23,0,,,154.07191419997253,154.27213579998352,0.0,154.27213579998352,0,0.0,0,1,1000,num_1,1.7180287002120167,,32,1,2026-03-12_15h09.08.479,2026A_exp2,2022.2.4,59.87815994042274,
1000,1,0.0,3.7,1,0,31,31,65,,,,,156.00705050001852,156.65768419997767,156.65768419997767,157.14227089984342,315,315,157.14227089984342,157.14227089984342,157.14227089984342,157.14227089984342,157.14227089984342,157.14227089984342,157.14227089984342,157.14227089984342,157.14227089984342,157.50847009988502,157.50847009988502,157.50847009988502,157.50847009988502,157.50847009988502,157.50847009988502,157.50847009988502,157.50847009988502,157.50847009988502,23,0,,,157.50847009988502,157.7089338998776,1000,157.7089338998776,1000,1000,1000,1000,1,num_2,1.0744935001712292,,32,1,2026-03-12_15h09.08.479,2026A_exp2,2022.2.4,59.87815994042274,
0,0,0.0,3.7,0,0,32,32,47,,,,,158.80987200001255,159.46064009983093,159.46064009983093,159.96165329986252,315,315,159.96165329986252,159.96165329986252,159.96165329986252,159.96165329986252,159.96165329986252,159.96165329986252,159.96165329986252,159.96165329986252,159.96165329986252,160.3113348998595,160.3113348998595,160.3113348998595,160.3113348998595,160.3113348998595,160.3113348998595,160.3113348998595,160.3113348998595,160.3113348998595,21,2,"[0.0834961999207735, 0.3336018999107182]","[0.10000350000336766, 0.3502680999226868]",160.3113348998595,160.51154709979892,3.7,160.51154709979892,1,3.7,1,1,1000,num_4,1.5835096002556384,,32,1,2026-03-12_15h09.08.479,2026A_exp2,2022.2.4,59.87815994042274,
1000,1,0.0,4.9,1,0,33,33,55,,,,,162.11345890001394,162.76390439993702,162.76390439993702,163.2483311998658,45,315,163.2483311998658,163.2483311998658,163.2483311998658,163.2483311998658,163.2483311998658,163.2483311998658,163.2483311998658,163.2483311998658,163.2483311998658,163.61460259999149,163.61460259999149,163.61460259999149,163.61460259999149,163.61460259999149,163.61460259999149,163.61460259999149,163.61460259999149,163.61460259999149,23,0,,,163.61460259999149,163.81509949988686,1000,163.81509949988686,1000,1000,1000,1000,1,num_2,1.1352652001660317,,32,1,2026-03-12_15h09.08.479,2026A_exp2,2022.2.4,59.87815994042274,
1,0,3.7,0.0,1,0,34,34,12,,,,,164.96651049982756,165.62699799984694,165.62699799984694,166.10107739991508,315,315,166.10107739991508,166.10107739991508,166.10107739991508,166.10107739991508,166.10107739991508,166.10107739991508,166.10107739991508,166.10107739991508,166.10107739991508,166.467643099837,166.467643099837,166.467643099837,166.467643099837,166.467643099837,166.467643099837,166.467643099837,166.467643099837,166.467643099837,23,0,,,166.467643099837,166.6677981999237,0.0,166.6677981999237,0,0.0,0,1,1000,num_1,1.3472780000884086,,32,1,2026-03-12_15h09.08.479,2026A_exp2,2022.2.4,59.87815994042274,
1,0,4.9,0.0,0,0,35,35,4,,,,,168.03603839990683,168.6864520998206,168.6864520998206,169.17095639999025,315,315,169.17095639999025,169.17095639999025,169.17095639999025,169.17095639999025,169.17095639999025,169.17095639999025,169.17095639999025,169.17095639999025,169.17095639999025,169.53726419992745,169.53726419992745,169.53726419992745,169.53726419992745,169.53726419992745,169.53726419992745,169.53726419992745,169.53726419992745,169.53726419992745,23,0,,,169.53726419992745,169.73736669984646,4.9,169.73736669984646,1,4.9,1,1,1000,num_4,0.7565810002852231,,32,1,2026-03-12_15h09.08.479,2026A_exp2,2022.2.4,59.87815994042274,
1,0,6.1,6.1,0,0,36,36,27,,,,,170.52162969997153,171.15551429986954,171.15551429986954,171.65667099994607,45,315,171.65667099994607,171.65667099994607,171.65667099994607,171.65667099994607,171.65667099994607,171.65667099994607,171.65667099994607,171.65667099994607,171.65667099994607,172.02304150001146,172.02304150001146,172.02304150001146,172.02304150001146,172.02304150001146,172.02304150001146,172.02304150001146,172.02304150001146,172.02304150001146,23,0,,,172.02304150001146,172.22348799998872,6.1,172.22348799998872,0,6.1,1,0,1000,num_1,1.0793191001284868,,32,1,2026-03-12_15h09.08.479,2026A_exp2,2022.2.4,59.87815994042274,
1000,1,6.1,3.7,0,0,37,37,18,,,,,173.3243829999119,173.97502689994872,173.97502689994872,174.45956859993748,45,315,174.45956859993748,174.45956859993748,174.45956859993748,174.45956859993748,174.45956859993748,174.45956859993748,174.45956859993748,174.45956859993748,174.45956859993748,174.82570299995132,174.82570299995132,174.82570299995132,174.82570299995132,174.82570299995132,174.82570299995132,174.82570299995132,174.82570299995132,174.82570299995132,23,0,,,174.82570299995132,175.0261496999301,1000,175.0261496999301,1000,1000,1000,1000,1,num_2,0.4522169001866132,,32,1,2026-03-12_15h09.08.479,2026A_exp2,2022.2.4,59.87815994042274,
0,0,0.0,3.7,0,0,38,38,83,,,,,175.51007079984993,176.16064379992895,176.16064379992895,176.66177779994905,45,315,176.66177779994905,176.66177779994905,176.66177779994905,176.66177779994905,176.66177779994905,176.66177779994905,176.66177779994905,176.66177779994905,176.66177779994905,177.02811349998228,177.02811349998228,177.02811349998228,177.02811349998228,177.02811349998228,177.02811349998228,177.02811349998228,177.02811349998228,177.02811349998228,23,0,,,177.02811349998228,177.2284316997975,3.7,177.2284316997975,0,3.7,1,0,1000,num_1,3.4502779999747872,,32,1,2026-03-12_15h09.08.479,2026A_exp2,2022.2.4,59.87815994042274,
1000,1,0.0,0.0,1,0,39,39,40,,,,,180.7007795998361,181.34906299994327,181.34906299994327,181.85013659996912,45,315,181.85013659996912,181.85013659996912,181.85013659996912,181.85013659996912,181.85013659996912,181.85013659996912,181.85013659996912,181.85013659996912,181.85013659996912,182.2165335000027,182.2165335000027,182.2165335000027,182.2165335000027,182.2165335000027,182.2165335000027,182.2165335000027,182.2165335000027,182.2165335000027,23,0,,,182.2165335000027,182.4170375999529,1000,182.4170375999529,1000,1000,1000,1000,1,num_2,1.349790400126949,,32,1,2026-03-12_15h09.08.479,2026A_exp2,2022.2.4,59.87815994042274,
1000,1,3.7,4.9,1,0,40,40,20,,,,,183.78472369979136,184.4353624000214,184.4353624000214,184.93657089979388,45,315,184.93657089979388,184.93657089979388,184.93657089979388,184.93657089979388,184.93657089979388,184.93657089979388,184.93657089979388,184.93657089979388,184.93657089979388,185.2862992999144,185.2862992999144,185.2862992999144,185.2862992999144,185.2862992999144,185.2862992999144,185.2862992999144,185.2862992999144,185.2862992999144,22,0,,,185.2862992999144,185.48672069981694,1000,185.50345600000583,1000,1000,1000,1000,1,num_2,0.4156061999965459,,32,1,2026-03-12_15h09.08.479,2026A_exp2,2022.2.4,59.87815994042274,
1000,1,0.0,0.0,0,0,41,41,67,,,,,185.9369687999133,186.58767729997635,186.58767729997635,187.07214569998905,315,45,187.07214569998905,187.07214569998905,187.07214569998905,187.07214569998905,187.07214569998905,187.07214569998905,187.07214569998905,187.07214569998905,187.07214569998905,187.43836679984815,187.43836679984815,187.43836679984815,187.43836679984815,187.43836679984815,187.43836679984815,187.43836679984815,187.43836679984815,187.43836679984815,23,0,,,187.43836679984815,187.63904349994846,1000,187.63904349994846,1000,1000,1000,1000,0,num_3,1.4955768000800163,,32,1,2026-03-12_15h09.08.479,2026A_exp2,2022.2.4,59.87815994042274,
1000,1,0.0,4.9,0,0,42,42,53,,,,,189.15687779989094,189.80757920001633,189.80757920001633,190.2919267998077,45,315,190.2919267998077,190.2919267998077,190.2919267998077,190.2919267998077,190.2919267998077,190.2919267998077,190.2919267998077,190.2919267998077,190.2919267998077,190.6583604000043,190.6583604000043,190.6583604000043,190.6583604000043,190.6583604000043,190.6583604000043,190.6583604000043,190.6583604000043,190.6583604000043,23,0,,,190.6583604000043,190.8584437998943,1000,190.8584437998943,1000,1000,1000,1000,1,num_2,0.46059100003913045,,32,1,2026-03-12_15h09.08.479,2026A_exp2,2022.2.4,59.87815994042274,
1000,1,0.0,0.0,0,0,43,43,15,,,,,191.3428599999752,191.99504920002073,191.99504920002073,192.47742209979333,45,315,192.47742209979333,192.47742209979333,192.47742209979333,192.47742209979333,192.47742209979333,192.47742209979333,192.47742209979333,192.47742209979333,192.47742209979333,192.8438104998786,192.8438104998786,192.8438104998786,192.8438104998786,192.8438104998786,192.8438104998786,192.8438104998786,192.8438104998786,192.8438104998786,23,0,,,192.8438104998786,193.04440109990537,1000,193.04440109990537,1000,1000,1000,1000,1,num_2,1.5856341000180691,,32,1,2026-03-12_15h09.08.479,2026A_exp2,2022.2.4,59.87815994042274,
1,0,3.7,6.1,1,0,44,44,77,,,,,194.6460678000003,195.29635999980383,195.29635999980383,195.7823919998482,45,45,195.7823919998482,195.7823919998482,195.7823919998482,195.7823919998482,195.7823919998482,195.7823919998482,195.7823919998482,195.7823919998482,195.7823919998482,196.14745809999295,196.14745809999295,196.14745809999295,196.14745809999295,196.14745809999295,196.14745809999295,196.14745809999295,196.14745809999295,196.14745809999295,23,0,,,196.14745809999295,196.34756649984047,6.1,196.34756649984047,1,6.1,1,1,1000,num_4,1.4995424002408981,,32,1,2026-03-12_15h09.08.479,2026A_exp2,2022.2.4,59.87815994042274,
1000,1,6.1,4.9,0,0,45,45,49,,,,,197.86574829998426,198.5243432999123,198.5243432999123,199.00435870001093,315,45,199.00435870001093,199.00435870001093,199.00435870001093,199.00435870001093,199.00435870001093,199.00435870001093,199.00435870001093,199.00435870001093,199.00435870001093,199.367101599928,199.367101599928,199.367101599928,199.367101599928,199.367101599928,199.367101599928,199.367101599928,199.367101599928,199.367101599928,23,0,,,199.367101599928,199.57693929993547,1000,199.57693929993547,1000,1000,1000,1000,0,num_3,3.789257900090888,,32,1,2026-03-12_15h09.08.479,2026A_exp2,2022.2.4,59.87815994042274,
0,0,0.0,0.0,0,0,46,46,22,,,,,203.38796720001847,204.02184770000167,204.02184770000167,204.5228428998962,45,45,204.5228428998962,204.5228428998962,204.5228428998962,204.5228428998962,204.5228428998962,204.5228428998962,204.5228428998962,204.5228428998962,204.5228428998962,204.88943320000544,204.88943320000544,204.88943320000544,204.88943320000544,204.88943320000544,204.88943320000544,204.88943320000544,204.88943320000544,204.88943320000544,9,1,[0.0007404000498354435],[0.23387810005806386],204.88943320000544,205.09001829987392,0.0,205.09001829987392,1,0.0,0,0,1000,num_4,2.0039764002431184,,32,1,2026-03-12_15h09.08.479,2026A_exp2,2022.2.4,59.87815994042274,
1000,1,4.9,0.0,0,0,47,47,50,,,,,207.12531049991958,207.77548029995523,207.77548029995523,208.27646699990146,315,45,208.27646699990146,208.27646699990146,208.27646699990146,208.27646699990146,208.27646699990146,208.27646699990146,208.27646699990146,208.27646699990146,208.27646699990146,208.62636199989356,208.62636199989356,208.62636199989356,208.62636199989356,208.62636199989356,208.62636199989356,208.62636199989356,208.62636199989356,208.62636199989356,22,0,,,208.62636199989356,208.82675180002116,1000,208.8433697000146,1000,1000,1000,1000,0,num_3,0.5872839000076056,,32,1,2026-03-12_15h09.08.479,2026A_exp2,2022.2.4,59.87815994042274,
1,0,0.0,3.7,0,0,48,48,61,,,,,209.46214540000074,210.11123219993897,210.11123219993897,210.61235759989358,45,45,210.61235759989358,210.61235759989358,210.61235759989358,210.61235759989358,210.61235759989358,210.61235759989358,210.61235759989358,210.61235759989358,210.61235759989358,210.97867209999822,210.97867209999822,210.97867209999822,210.97867209999822,210.97867209999822,210.97867209999822,210.97867209999822,210.97867209999822,210.97867209999822,23,0,,,210.97867209999822,211.17897479981184,0.0,211.17897479981184,0,0.0,0,1,1000,num_1,0.8829963002353907,,32,1,2026-03-12_15h09.08.479,2026A_exp2,2022.2.4,59.87815994042274,
1,0,4.9,3.7,1,0,49,49,10,,,,,212.08012669999152,212.73040359979495,212.73040359979495,213.21485139988363,315,315,213.21485139988363,213.21485139988363,213.21485139988363,213.21485139988363,213.21485139988363,213.21485139988363,213.21485139988363,213.21485139988363,213.21485139988363,213.58122129994445,213.58122129994445,213.58122129994445,213.58122129994445,213.58122129994445,213.58122129994445,213.58122129994445,213.58122129994445,213.58122129994445,23,0,,,213.58122129994445,213.7817908998113,3.7,213.7817908998113,1,3.7,1,1,1000,num_4,1.3123090001754463,,32,1,2026-03-12_15h09.08.479,2026A_exp2,2022.2.4,59.87815994042274,
1000,1,0.0,0.0,1,0,50,50,60,,,,,215.11611259984784,215.76685529993847,215.76685529993847,216.25122819980606,45,45,216.25122819980606,216.25122819980606,216.25122819980606,216.25122819980606,216.25122819980606,216.25122819980606,216.25122819980606,216.25122819980606,216.25122819980606,216.617747399956,216.617747399956,216.617747399956,216.617747399956,216.617747399956,216.617747399956,216.617747399956,216.617747399956,216.617747399956,23,0,,,216.617747399956,216.81800549989566,1000,216.81800549989566,1000,1000,1000,1000,1,num_2,0.7490224000066519,,32,1,2026-03-12_15h09.08.479,2026A_exp2,2022.2.4,59.87815994042274,
1,0,0.0,0.0,0,0,51,51,44,,,,,217.58556249993853,218.23605059995316,218.23605059995316,218.73711809981614,45,45,218.73711809981614,218.73711809981614,218.73711809981614,218.73711809981614,218.73711809981614,218.73711809981614,218.73711809981614,218.73711809981614,218.73711809981614,219.1032666999381,219.1032666999381,219.1032666999381,219.1032666999381,219.1032666999381,219.1032666999381,219.1032666999381,219.1032666999381,219.1032666999381,23,0,,,219.1032666999381,219.3039003999438,0.0,219.3039003999438,1,0.0,0,0,1000,num_4,1.2382118001114577,,32,1,2026-03-12_15h09.08.479,2026A_exp2,2022.2.4,59.87815994042274,
1,0,4.9,3.7,0,0,52,52,63,,,,,220.57195549993776,221.2055450999178,221.2055450999178,221.70682489988394,315,45,221.70682489988394,221.70682489988394,221.70682489988394,221.70682489988394,221.70682489988394,221.70682489988394,221.70682489988394,221.70682489988394,221.70682489988394,222.0729705998674,222.0729705998674,222.0729705998674,222.0729705998674,222.0729705998674,222.0729705998674,222.0729705998674,222.0729705998674,222.0729705998674,23,0,,,222.0729705998674,222.273366099922,4.9,222.273366099922,1,4.9,1,1,1000,num_4,1.9005973001476377,,32,1,2026-03-12_15h09.08.479,2026A_exp2,2022.2.4,59.87815994042274,
1000,1,0.0,4.9,0,0,53,53,5,,,,,224.1922392998822,224.8425525999628,224.8425525999628,225.32674649986438,45,45,225.32674649986438,225.32674649986438,225.32674649986438,225.32674649986438,225.32674649986438,225.32674649986438,225.32674649986438,225.32674649986438,225.32674649986438,225.69337789993733,225.69337789993733,225.69337789993733,225.69337789993733,225.69337789993733,225.69337789993733,225.69337789993733,225.69337789993733,225.69337789993733,23,0,,,225.69337789993733,225.8940663000103,1000,225.8940663000103,1000,1000,1000,1000,1,num_2,0.6893114000558853,,32,1,2026-03-12_15h09.08.479,2026A_exp2,2022.2.4,59.87815994042274,
1,0,3.7,4.9,0,0,54,54,76,,,,,226.61093819979578,227.26158769987524,227.26158769987524,227.76272060000338,45,45,227.76272060000338,227.76272060000338,227.76272060000338,227.76272060000338,227.76272060000338,227.76272060000338,227.76272060000338,227.76272060000338,227.76272060000338,228.1125802998431,228.1125802998431,228.1125802998431,228.1125802998431,228.1125802998431,228.1125802998431,228.1125802998431,228.1125802998431,228.1125802998431,22,0,,,228.1125802998431,228.3128737998195,3.7,228.3128737998195,0,3.7,1,0,1000,num_1,2.9179746001027524,,32,1,2026-03-12_15h09.08.479,2026A_exp2,2022.2.4,59.87815994042274,
1,0,0.0,4.9,1,0,55,55,1,,,,,231.2515830998309,231.89970089984126,231.89970089984126,232.3840038999915,315,45,232.3840038999915,232.3840038999915,232.3840038999915,232.3840038999915,232.3840038999915,232.3840038999915,232.3840038999915,232.3840038999915,232.3840038999915,232.7505124998279,232.7505124998279,232.7505124998279,232.7505124998279,232.7505124998279,232.7505124998279,232.7505124998279,232.7505124998279,232.7505124998279,23,0,,,232.7505124998279,232.95082569983788,4.9,232.95082569983788,0,4.9,1,0,1000,num_1,1.5521956000011414,,32,1,2026-03-12_15h09.08.479,2026A_exp2,2022.2.4,59.87815994042274,
0,0,0.0,0.0,1,0,56,56,38,,,,,234.5193593997974,235.16955929994583,235.16955929994583,235.65405689994805,45,45,235.65405689994805,235.65405689994805,235.65405689994805,235.65405689994805,235.65405689994805,235.65405689994805,235.65405689994805,235.65405689994805,235.65405689994805,236.0204594999086,236.0204594999086,236.0204594999086,236.0204594999086,236.0204594999086,236.0204594999086,236.0204594999086,236.0204594999086,236.0204594999086,23,0,,,236.0204594999086,236.22068649996072,0.0,236.22068649996072,1,0.0,0,0,1000,num_4,1.9213545999955386,,32,1,2026-03-12_15h09.08.479,2026A_exp2,2022.2.4,59.87815994042274,
1000,1,0.0,0.0,0,0,57,57,7,,,,,238.17253629979677,238.8235778999515,238.8235778999515,239.30748499999754,45,45,239.30748499999754,239.30748499999754,239.30748499999754,239.30748499999754,239.30748499999754,239.30748499999754,239.30748499999754,239.30748499999754,239.30748499999754,239.67391349980608,239.67391349980608,239.67391349980608,239.67391349980608,239.67391349980608,239.67391349980608,239.67391349980608,239.67391349980608,239.67391349980608,23,0,,,239.67391349980608,239.8743042999413,1000,239.8743042999413,1000,1000,1000,1000,0,num_3,1.0206479001790285,,32,1,2026-03-12_15h09.08.479,2026A_exp2,2022.2.4,59.87815994042274,
1000,1,0.0,6.1,1,0,58,58,19,,,,,240.9257871999871,241.57602249993943,241.57602249993943,242.0770196998492,45,45,242.0770196998492,242.0770196998492,242.0770196998492,242.0770196998492,242.0770196998492,242.0770196998492,242.0770196998492,242.0770196998492,242.0770196998492,242.44338379986584,242.44338379986584,242.44338379986584,242.44338379986584,242.44338379986584,242.44338379986584,242.44338379986584,242.44338379986584,242.44338379986584,23,0,,,242.44338379986584,242.64390079979785,1000,242.64390079979785,1000,1000,1000,1000,1,num_2,0.5148539000656456,,32,1,2026-03-12_15h09.08.479,2026A_exp2,2022.2.4,59.87815994042274,
1000,1,0.0,0.0,0,0,59,59,36,,,,,243.17784109991044,243.8283555000089,243.8283555000089,244.32941279979423,315,315,244.32941279979423,244.32941279979423,244.32941279979423,244.32941279979423,244.32941279979423,244.32941279979423,244.32941279979423,244.32941279979423,244.32941279979423,244.69585689995438,244.69585689995438,244.69585689995438,244.69585689995438,244.69585689995438,244.69585689995438,244.69585689995438,244.69585689995438,244.69585689995438,23,0,,,244.69585689995438,244.8960857000202,1000,244.8960857000202,1000,1000,1000,1000,0,num_3,1.447253999998793,,32,1,2026-03-12_15h09.08.479,2026A_exp2,2022.2.4,59.87815994042274,
1000,1,0.0,6.1,0,0,60,60,85,,,,,246.36436779983342,247.014907799894,247.014907799894,247.51588119985536,45,45,247.51588119985536,247.51588119985536,247.51588119985536,247.51588119985536,247.51588119985536,247.51588119985536,247.51588119985536,247.51588119985536,247.51588119985536,247.88215849990956,247.88215849990956,247.88215849990956,247.88215849990956,247.88215849990956,247.88215849990956,247.88215849990956,247.88215849990956,247.88215849990956,23,0,,,247.88215849990956,248.08291379990987,1000,248.08291379990987,1000,1000,1000,1000,1,num_2,0.5724508001003414,,32,1,2026-03-12_15h09.08.479,2026A_exp2,2022.2.4,59.87815994042274,
1000,1,0.0,6.1,1,0,61,61,69,,,,,248.68314979993738,249.33379710000008,249.33379710000008,249.81806919979863,45,45,249.81806919979863,249.81806919979863,249.81806919979863,249.81806919979863,249.81806919979863,249.81806919979863,249.81806919979863,249.81806919979863,249.81806919979863,250.18457519984804,250.18457519984804,250.18457519984804,250.18457519984804,250.18457519984804,250.18457519984804,250.18457519984804,250.18457519984804,250.18457519984804,23,0,,,250.18457519984804,250.38472849992104,1000,250.38472849992104,1000,1000,1000,1000,1,num_2,0.5016363002359867,,32,1,2026-03-12_15h09.08.479,2026A_exp2,2022.2.4,59.87815994042274,
1000,1,6.1,0.0,0,0,62,62,89,,,,,250.9018989999313,251.55256089987233,251.55256089987233,252.0537940999493,315,315,252.0537940999493,252.0537940999493,252.0537940999493,252.0537940999493,252.0537940999493,252.0537940999493,252.0537940999493,252.0537940999493,252.0537940999493,252.42021399992518,252.42021399992518,252.42021399992518,252.42021399992518,252.42021399992518,252.42021399992518,252.42021399992518,252.42021399992518,252.42021399992518,23,0,,,252.42021399992518,252.621983199846,1000,252.621983199846,1000,1000,1000,1000,0,num_3,0.28937900019809604,,32,1,2026-03-12_15h09.08.479,2026A_exp2,2022.2.4,59.87815994042274,
1000,1,0.0,6.1,0,0,63,63,35,,,,,252.93721289979294,253.5879472999368,253.5879472999368,254.07244399981573,45,45,254.07244399981573,254.07244399981573,254.07244399981573,254.07244399981573,254.07244399981573,254.07244399981573,254.07244399981573,254.07244399981573,254.07244399981573,254.43898379988968,254.43898379988968,254.43898379988968,254.43898379988968,254.43898379988968,254.43898379988968,254.43898379988968,254.43898379988968,254.43898379988968,23,0,,,254.43898379988968,254.64062689989805,1000,254.64062689989805,1000,1000,1000,1000,0,num_3,1.7906082002446055,,32,1,2026-03-12_15h09.08.479,2026A_exp2,2022.2.4,59.87815994042274,
1,0,4.9,4.9,0,0,64,64,39,,,,,256.4578801000025,257.1082163997926,257.1082163997926,257.6092504998669,45,45,257.6092504998669,257.6092504998669,257.6092504998669,257.6092504998669,257.6092504998669,257.6092504998669,257.6092504998669,257.6092504998669,257.6092504998669,257.9590239999816,257.9590239999816,257.9590239999816,257.9590239999816,257.9590239999816,257.9590239999816,257.9590239999816,257.9590239999816,257.9590239999816,22,0,,,257.9590239999816,258.1592495997902,4.9,258.1592495997902,1,4.9,1,1,1000,num_4,1.2228557001799345,,32,1,2026-03-12_15h09.08.479,2026A_exp2,2022.2.4,59.87815994042274,
1,0,4.9,3.7,1,0,65,65,26,,,,,259.41061459993944,260.04444849980064,260.04444849980064,260.54546479997225,45,315,260.54546479997225,260.54546479997225,260.54546479997225,260.54546479997225,260.54546479997225,260.54546479997225,260.54546479997225,260.54546479997225,260.54546479997225,260.91194259980693,260.91194259980693,260.91194259980693,260.91194259980693,260.91194259980693,260.91194259980693,260.91194259980693,260.91194259980693,260.91194259980693,23,0,,,260.91194259980693,261.1124208997935,3.7,261.1124208997935,1,3.7,1,1,1000,num_4,1.6224469998851418,,32,1,2026-03-12_15h09.08.479,2026A_exp2,2022.2.4,59.87815994042274,
1000,1,0.0,0.0,1,0,66,66,23,,,,,262.76394209987484,263.39773650001734,263.39773650001734,263.8989176999312,315,315,263.8989176999312,263.8989176999312,263.8989176999312,263.8989176999312,263.8989176999312,263.8989176999312,263.8989176999312,263.8989176999312,263.8989176999312,264.2653687999118,264.2653687999118,264.2653687999118,264.2653687999118,264.2653687999118,264.2653687999118,264.2653687999118,264.2653687999118,264.2653687999118,23,0,,,264.2653687999118,264.46583759994246,1000,264.46583759994246,1000,1000,1000,1000,0,num_3,1.1970292001497,,32,1,2026-03-12_15h09.08.479,2026A_exp2,2022.2.4,59.87815994042274,
1,0,0.0,0.0,1,0,67,67,24,,,,,265.68358939979225,266.3174988999963,266.3174988999963,266.81860549980775,315,45,266.81860549980775,266.81860549980775,266.81860549980775,266.81860549980775,266.81860549980775,266.81860549980775,266.81860549980775,266.81860549980775,266.81860549980775,267.18490689992905,267.18490689992905,267.18490689992905,267.18490689992905,267.18490689992905,267.18490689992905,267.18490689992905,267.18490689992905,267.18490689992905,23,0,,,267.18490689992905,267.3852537998464,0.0,267.3852537998464,1,0.0,0,0,1000,num_4,1.8288485000375658,,32,1,2026-03-12_15h09.08.479,2026A_exp2,2022.2.4,59.87815994042274,
1,0,0.0,0.0,1,0,68,68,21,,,,,269.2378082999494,269.8875731998123,269.8875731998123,270.38867089990526,45,315,270.38867089990526,270.38867089990526,270.38867089990526,270.38867089990526,270.38867089990526,270.38867089990526,270.38867089990526,270.38867089990526,270.38867089990526,270.73846559994854,270.73846559994854,270.73846559994854,270.73846559994854,270.73846559994854,270.73846559994854,270.73846559994854,270.73846559994854,270.73846559994854,22,0,,,270.73846559994854,270.93855049996637,0.0,270.95534519990906,1,0.0,0,0,1000,num_4,2.0507302000187337,,32,1,2026-03-12_15h09.08.479,2026A_exp2,2022.2.4,59.87815994042274,
1000,1,3.7,0.0,0,0,69,69,66,,,,,273.0242957000155,273.67469729995355,273.67469729995355,274.1592444998678,45,45,274.1592444998678,274.1592444998678,274.1592444998678,274.1592444998678,274.1592444998678,274.1592444998678,274.1592444998678,274.1592444998678,274.1592444998678,274.52556119998917,274.52556119998917,274.52556119998917,274.52556119998917,274.52556119998917,274.52556119998917,274.52556119998917,274.52556119998917,274.52556119998917,23,0,,,274.52556119998917,274.72624749992974,1000,274.72624749992974,1000,1000,1000,1000,0,num_3,0.7681774999946356,,32,1,2026-03-12_15h09.08.479,2026A_exp2,2022.2.4,59.87815994042274,
1000,1,3.7,0.0,0,0,70,70,32,,,,,275.5098983999342,276.1606029998511,276.1606029998511,276.6615936998278,45,45,276.6615936998278,276.6615936998278,276.6615936998278,276.6615936998278,276.6615936998278,276.6615936998278,276.6615936998278,276.6615936998278,276.6615936998278,277.0280279999133,277.0280279999133,277.0280279999133,277.0280279999133,277.0280279999133,277.0280279999133,277.0280279999133,277.0280279999133,277.0280279999133,23,0,,,277.0280279999133,277.2424696998205,1000,277.2424696998205,1000,1000,1000,1000,0,num_3,0.5879941999446601,,32,1,2026-03-12_15h09.08.479,2026A_exp2,2022.2.4,59.87815994042274,
1000,1,0.0,0.0,0,0,71,71,87,,,,,277.8460714998655,278.49632079992443,278.49632079992443,278.9974158999976,315,45,278.9974158999976,278.9974158999976,278.9974158999976,278.9974158999976,278.9974158999976,278.9974158999976,278.9974158999976,278.9974158999976,278.9974158999976,279.3638270997908,279.3638270997908,279.3638270997908,279.3638270997908,279.3638270997908,279.3638270997908,279.3638270997908,279.3638270997908,279.3638270997908,23,0,,,279.3638270997908,279.5642561998684,1000,279.5642561998684,1000,1000,1000,1000,0,num_3,0.42679479997605085,,32,1,2026-03-12_15h09.08.479,2026A_exp2,2022.2.4,59.87815994042274,
0,0,0.0,4.9,0,0,72,72,14,,,,,280.014928399818,280.66497389995493,280.66497389995493,281.1660687997937,315,315,281.1660687997937,281.1660687997937,281.1660687997937,281.1660687997937,281.1660687997937,281.1660687997937,281.1660687997937,281.1660687997937,281.1660687997937,281.5158794999588,281.5158794999588,281.5158794999588,281.5158794999588,281.5158794999588,281.5158794999588,281.5158794999588,281.5158794999588,281.5158794999588,22,0,,,281.5158794999588,281.71606009989046,4.9,281.71606009989046,1,4.9,1,1,1000,num_4,1.0508252000436187,,32,1,2026-03-12_15h09.08.479,2026A_exp2,2022.2.4,59.87815994042274,
1000,1,0.0,3.7,0,0,73,73,57,,,,,282.7838302999735,283.4343838999048,283.4343838999048,283.9189027999528,315,45,283.9189027999528,283.9189027999528,283.9189027999528,283.9189027999528,283.9189027999528,283.9189027999528,283.9189027999528,283.9189027999528,283.9189027999528,284.2852475999389,284.2852475999389,284.2852475999389,284.2852475999389,284.2852475999389,284.2852475999389,284.2852475999389,284.2852475999389,284.2852475999389,23,0,,,284.2852475999389,284.4855942998547,1000,284.4855942998547,1000,1000,1000,1000,1,num_2,1.1209019001107663,,32,1,2026-03-12_15h09.08.479,2026A_exp2,2022.2.4,59.87815994042274,
1,0,0.0,0.0,0,0,74,74,17,,,,,285.6370994998142,286.28740699985065,286.28740699985065,286.78868849994615,45,315,286.78868849994615,286.78868849994615,286.78868849994615,286.78868849994615,286.78868849994615,286.78868849994615,286.78868849994615,286.78868849994615,286.78868849994615,287.1548357999418,287.1548357999418,287.1548357999418,287.1548357999418,287.1548357999418,287.1548357999418,287.1548357999418,287.1548357999418,287.1548357999418,23,0,,,287.1548357999418,287.35506059997715,0.0,287.35506059997715,1,0.0,0,0,1000,num_4,0.9722543002571911,,32,1,2026-03-12_15h09.08.479,2026A_exp2,2022.2.4,59.87815994042274,
1000,1,0.0,6.1,0,0,75,75,58,,,,,288.3561826997902,288.9901204998605,288.9901204998605,289.4915822998155,315,45,289.4915822998155,289.4915822998155,289.4915822998155,289.4915822998155,289.4915822998155,289.4915822998155,289.4915822998155,289.4915822998155,289.4915822998155,289.85760260000825,289.85760260000825,289.85760260000825,289.85760260000825,289.85760260000825,289.85760260000825,289.85760260000825,289.85760260000825,289.85760260000825,23,0,,,289.85760260000825,290.0580849999096,1000,290.0580849999096,1000,1000,1000,1000,1,num_2,0.9006248998921365,,32,1,2026-03-12_15h09.08.479,2026A_exp2,2022.2.4,59.87815994042274,
1,0,4.9,4.9,0,0,76,76,84,,,,,290.9753492998425,291.62591929989867,291.62591929989867,292.1270810998976,315,315,292.1270810998976,292.1270810998976,292.1270810998976,292.1270810998976,292.1270810998976,292.1270810998976,292.1270810998976,292.1270810998976,292.1270810998976,292.493554999819,292.493554999819,292.493554999819,292.493554999819,292.493554999819,292.493554999819,292.493554999819,292.493554999819,292.493554999819,22,1,[0.01728749996982515],[0.03347519994713366],292.493554999819,292.6938177999109,4.9,292.6938177999109,0,4.9,1,0,1000,num_1,4.632414100226015,,32,1,2026-03-12_15h09.08.479,2026A_exp2,2022.2.4,59.87815994042274,
1,0,3.7,4.9,1,0,77,77,71,,,,,297.3483531998936,297.9990681000054,297.9990681000054,298.48344519990496,315,45,298.48344519990496,298.48344519990496,298.48344519990496,298.48344519990496,298.48344519990496,298.48344519990496,298.48344519990496,298.48344519990496,298.48344519990496,298.84976779995486,298.84976779995486,298.84976779995486,298.84976779995486,298.84976779995486,298.84976779995486,298.84976779995486,298.84976779995486,298.84976779995486,23,0,,,298.84976779995486,299.0501552999485,4.9,299.0501552999485,1,4.9,1,1,1000,num_4,0.612722400110215,,32,1,2026-03-12_15h09.08.479,2026A_exp2,2022.2.4,59.87815994042274,
1000,1,0.0,0.0,0,0,78,78,72,,,,,299.68449649983086,300.3347107998561,300.3347107998561,300.835837099934,45,45,300.835837099934,300.835837099934,300.835837099934,300.835837099934,300.835837099934,300.835837099934,300.835837099934,300.835837099934,300.835837099934,301.20222259988077,301.20222259988077,301.20222259988077,301.20222259988077,301.20222259988077,301.20222259988077,301.20222259988077,301.20222259988077,301.20222259988077,23,0,,,301.20222259988077,301.4030011999421,1000,301.4030011999421,1000,1000,1000,1000,0,num_3,0.7478600002359599,,32,1,2026-03-12_15h09.08.479,2026A_exp2,2022.2.4,59.87815994042274,
1000,1,3.7,0.0,1,0,79,79,88,,,,,302.17036079987884,302.8206604998559,302.8206604998559,303.3216114998795,315,315,303.3216114998795,303.3216114998795,303.3216114998795,303.3216114998795,303.3216114998795,303.3216114998795,303.3216114998795,303.3216114998795,303.3216114998795,303.6712022998836,303.6712022998836,303.6712022998836,303.6712022998836,303.6712022998836,303.6712022998836,303.6712022998836,303.6712022998836,303.6712022998836,22,0,,,303.6712022998836,303.8719009999186,1000,303.8719009999186,1000,1000,1000,1000,0,num_3,0.8472773001994938,,32,1,2026-03-12_15h09.08.479,2026A_exp2,2022.2.4,59.87815994042274,
1,0,0.0,0.0,0,0,80,80,34,,,,,304.7392430999316,305.38980209990405,305.38980209990405,305.89092309982516,315,315,305.89092309982516,305.89092309982516,305.89092309982516,305.89092309982516,305.89092309982516,305.89092309982516,305.89092309982516,305.89092309982516,305.89092309982516,306.24062359984964,306.24062359984964,306.24062359984964,306.24062359984964,306.24062359984964,306.24062359984964,306.24062359984964,306.24062359984964,306.24062359984964,22,0,,,306.24062359984964,306.4411145998165,0.0,306.4411145998165,1,0.0,0,0,1000,num_4,1.149550200207159,,32,1,2026-03-12_15h09.08.479,2026A_exp2,2022.2.4,59.87815994042274,
1000,1,3.7,4.9,0,0,81,81,80,,,,,307.60888889990747,308.2594934999943,308.2594934999943,308.743645099923,45,45,308.743645099923,308.743645099923,308.743645099923,308.743645099923,308.743645099923,308.743645099923,308.743645099923,308.743645099923,308.743645099923,309.11029739980586,309.11029739980586,309.11029739980586,309.11029739980586,309.11029739980586,309.11029739980586,309.11029739980586,309.11029739980586,309.11029739980586,23,0,,,309.11029739980586,309.31154849985614,1000,309.31154849985614,1000,1000,1000,1000,1,num_2,0.7347777001559734,,32,1,2026-03-12_15h09.08.479,2026A_exp2,2022.2.4,59.87815994042274,
1000,1,0.0,0.0,0,0,82,82,37,,,,,310.0778444998432,310.72849559993483,310.72849559993483,311.2128119999543,45,45,311.2128119999543,311.2128119999543,311.2128119999543,311.2128119999543,311.2128119999543,311.2128119999543,311.2128119999543,311.2128119999543,311.2128119999543,311.5793567998335,311.5793567998335,311.5793567998335,311.5793567998335,311.5793567998335,311.5793567998335,311.5793567998335,311.5793567998335,311.5793567998335,23,0,,,311.5793567998335,311.7797580999322,1000,311.7797580999322,1000,1000,1000,1000,0,num_3,1.1382446002680808,,32,1,2026-03-12_15h09.08.479,2026A_exp2,2022.2.4,59.87815994042274,
1000,1,0.0,4.9,1,0,83,83,78,,,,,312.94775369996205,313.59809069987386,313.59809069987386,314.0822906999383,45,45,314.0822906999383,314.0822906999383,314.0822906999383,314.0822906999383,314.0822906999383,314.0822906999383,314.0822906999383,314.0822906999383,314.0822906999383,314.44855259987526,314.44855259987526,314.44855259987526,314.44855259987526,314.44855259987526,314.44855259987526,314.44855259987526,314.44855259987526,314.44855259987526,23,0,,,314.44855259987526,314.6490482999943,1000,314.6490482999943,1000,1000,1000,1000,1,num_2,0.4049677001312375,,32,1,2026-03-12_15h09.08.479,2026A_exp2,2022.2.4,59.87815994042274,
1000,1,0.0,6.1,0,0,84,84,75,,,,,315.08336399984546,315.7334375998471,315.7334375998471,316.23470759997144,315,315,316.23470759997144,316.23470759997144,316.23470759997144,316.23470759997144,316.23470759997144,316.23470759997144,316.23470759997144,316.23470759997144,316.23470759997144,316.5843506997917,316.5843506997917,316.5843506997917,316.5843506997917,316.5843506997917,316.5843506997917,316.5843506997917,316.5843506997917,316.5843506997917,22,0,,,316.5843506997917,316.78474209993146,1000,316.78474209993146,1000,1000,1000,1000,1,num_2,0.4057940002530813,,32,1,2026-03-12_15h09.08.479,2026A_exp2,2022.2.4,59.87815994042274,
1000,1,3.7,4.9,0,0,85,85,64,,,,,317.21825829986483,317.8689386998303,317.8689386998303,318.35335869994015,45,45,318.35335869994015,318.35335869994015,318.35335869994015,318.35335869994015,318.35335869994015,318.35335869994015,318.35335869994015,318.35335869994015,318.35335869994015,318.7196864997968,318.7196864997968,318.7196864997968,318.7196864997968,318.7196864997968,318.7196864997968,318.7196864997968,318.7196864997968,318.7196864997968,23,0,,,318.7196864997968,318.92020679987036,1000,318.92020679987036,1000,1000,1000,1000,1,num_2,0.46220720023848116,,32,1,2026-03-12_15h09.08.479,2026A_exp2,2022.2.4,59.87815994042274,
1000,1,0.0,0.0,0,0,86,86,45,,,,,319.40421679988503,320.0545080997981,320.0545080997981,320.53914949996397,315,315,320.53914949996397,320.53914949996397,320.53914949996397,320.53914949996397,320.53914949996397,320.53914949996397,320.53914949996397,320.53914949996397,320.53914949996397,320.90524829993956,320.90524829993956,320.90524829993956,320.90524829993956,320.90524829993956,320.90524829993956,320.90524829993956,320.90524829993956,320.90524829993956,23,0,,,320.90524829993956,321.10575339989737,1000,321.10575339989737,1000,1000,1000,1000,1,num_2,0.636355800088495,,32,1,2026-03-12_15h09.08.479,2026A_exp2,2022.2.4,59.87815994042274,
1,0,6.1,3.7,0,0,87,87,31,,,,,321.7734653998632,322.4235022999346,322.4235022999346,322.9245076000225,315,45,322.9245076000225,322.9245076000225,322.9245076000225,322.9245076000225,322.9245076000225,322.9245076000225,322.9245076000225,322.9245076000225,322.9245076000225,323.2743768999353,323.2743768999353,323.2743768999353,323.2743768999353,323.2743768999353,323.2743768999353,323.2743768999353,323.2743768999353,323.2743768999353,22,0,,,323.2743768999353,323.47475899988785,6.1,323.47475899988785,1,6.1,1,1,1000,num_4,0.8835831000469625,,32,1,2026-03-12_15h09.08.479,2026A_exp2,2022.2.4,59.87815994042274,
1,0,0.0,0.0,1,0,88,88,41,,,,,324.37567929993384,325.02603679988533,325.02603679988533,325.5105107999407,45,45,325.5105107999407,325.5105107999407,325.5105107999407,325.5105107999407,325.5105107999407,325.5105107999407,325.5105107999407,325.5105107999407,325.5105107999407,325.8768464999739,325.8768464999739,325.8768464999739,325.8768464999739,325.8768464999739,325.8768464999739,325.8768464999739,325.8768464999739,325.8768464999739,23,0,,,325.8768464999739,326.0773435998708,0.0,326.0773435998708,0,0.0,0,1,1000,num_1,0.8250029999762774,,32,1,2026-03-12_15h09.08.479,2026A_exp2,2022.2.4,59.87815994042274,
1,0,3.7,3.7,1,0,89,89,86,,,,,326.9282052000053,327.57870329986326,327.57870329986326,328.0631218999624,45,315,328.0631218999624,328.0631218999624,328.0631218999624,328.0631218999624,328.0631218999624,328.0631218999624,328.0631218999624,328.0631218999624,328.0631218999624,328.42952919984236,328.42952919984236,328.42952919984236,328.42952919984236,328.42952919984236,328.42952919984236,328.42952919984236,328.42952919984236,328.42952919984236,23,0,,,328.42952919984236,328.62973889987916,3.7,328.62973889987916,1,3.7,1,1,1000,num_4,0.8648841001559049,,32,1,2026-03-12_15h09.08.479,2026A_exp2,2022.2.4,59.87815994042274,
,,,,,,,,,,,,,,,,,,,,,,,,,,,,,,,,,,,,,,,,,,,,,,,,,,,,329.5204956999514,,,,,,,
