validity,detectorcomp,contrastCW,contrastCCW,precueCWorCCW,block_80trials.thisRepN,block_80trials.thisTrialN,block_80trials.thisN,block_80trials.thisIndex,etRecord.started,etRecord.stopped,text.started,text.stopped,text_4.started,text_4.stopped,text_6.started,text_6.stopped,oriCW,oriCCW,roi_2.started,grating_UR.started,grating_UL.started,grating_LR.started,grating_LL.started,noise_UR.started,noise_UL.started,noise_LR.started,noise_LL.started,roi_2.stopped,grating_UR.stopped,grating_UL.stopped,grating_LR.stopped,grating_LL.stopped,noise_UR.stopped,noise_UL.stopped,noise_LR.stopped,noise_LL.stopped,outframe,roi_2.numLooks,roi_2.timesOn,roi_2.timesOff,text_2.started,text_2.stopped,probedcontrast,key_resp.started,respdetect,relevantContrast,correctDetect,TorFdetect,respCWorCCW,key_resp.keys,key_resp.rt,feedback_display_.started,participantNo,blockNo,date,expName,psychopyVersion,frameRate,
1,0,0.0,3.7,0,0,0,0,61,5.5999960750341415e-05,5.5999960750341415e-05,52.090359700028785,54.100014100025874,54.100014100025874,54.72989920002874,54.72989920002874,55.24403890001122,45,315,55.24403890001122,55.24403890001122,55.24403890001122,55.24403890001122,55.24403890001122,55.24403890001122,55.24403890001122,55.24403890001122,55.24403890001122,55.59484320000047,55.59484320000047,55.59484320000047,55.59484320000047,55.59484320000047,55.59484320000047,55.59484320000047,55.59484320000047,55.59484320000047,23,0,,,55.59484320000047,55.7950320999953,0.0,55.7950320999953,0,0.0,0,1,1000,num_1,1.3107920000329614,,26,2,2026-03-05_10h24.16.789,2026A_exp2,2022.2.4,59.866509671740715,
1000,1,0.0,0.0,0,0,1,1,18,,,,,57.1297153000487,57.7803711000015,57.7803711000015,58.281177400029264,315,45,58.281177400029264,58.281177400029264,58.281177400029264,58.281177400029264,58.281177400029264,58.281177400029264,58.281177400029264,58.281177400029264,58.281177400029264,58.63115980004659,58.63115980004659,58.63115980004659,58.63115980004659,58.63115980004659,58.63115980004659,58.63115980004659,58.63115980004659,58.63115980004659,22,0,,,58.63115980004659,58.8362956000492,1000,58.8362956000492,1000,1000,1000,1000,1,num_2,0.6049245999893174,,26,2,2026-03-05_10h24.16.789,2026A_exp2,2022.2.4,59.866509671740715,
1,0,4.9,0.0,1,0,2,2,38,,,,,59.465464400011115,60.11599760001991,60.11599760001991,60.63292290002573,45,45,60.63292290002573,60.63292290002573,60.63292290002573,60.63292290002573,60.63292290002573,60.63292290002573,60.63292290002573,60.63292290002573,60.63292290002573,60.9835176000488,60.9835176000488,60.9835176000488,60.9835176000488,60.9835176000488,60.9835176000488,60.9835176000488,60.9835176000488,60.9835176000488,23,0,,,60.9835176000488,61.18371930002468,0.0,61.18371930002468,0,0.0,0,1,1000,num_1,1.9451192999840714,,26,2,2026-03-05_10h24.16.789,2026A_exp2,2022.2.4,59.866509671740715,
1000,1,4.9,0.0,1,0,3,3,72,,,,,63.152360400010366,63.80322810000507,63.80322810000507,64.28738280001562,315,315,64.28738280001562,64.28738280001562,64.28738280001562,64.28738280001562,64.28738280001562,64.28738280001562,64.28738280001562,64.28738280001562,64.28738280001562,64.65387400001055,64.65387400001055,64.65387400001055,64.65387400001055,64.65387400001055,64.65387400001055,64.65387400001055,64.65387400001055,64.65387400001055,23,0,,,64.65387400001055,64.85543500003405,1000,64.85543500003405,1000,1000,1000,1000,0,num_3,0.5224052999983542,,26,2,2026-03-05_10h24.16.789,2026A_exp2,2022.2.4,59.866509671740715,
1000,1,0.0,0.0,0,0,4,4,80,,,,,65.40466590004507,66.0552042000345,66.0552042000345,66.55657640000572,45,315,66.55657640000572,66.55657640000572,66.55657640000572,66.55657640000572,66.55657640000572,66.55657640000572,66.55657640000572,66.55657640000572,66.55657640000572,66.92264430003706,66.92264430003706,66.92264430003706,66.92264430003706,66.92264430003706,66.92264430003706,66.92264430003706,66.92264430003706,66.92264430003706,23,0,,,66.92264430003706,67.12466220004717,1000,67.12466220004717,1000,1000,1000,1000,0,num_3,0.9479932999820448,,26,2,2026-03-05_10h24.16.789,2026A_exp2,2022.2.4,59.866509671740715,
1000,1,3.7,6.1,0,0,5,5,0,,,,,68.09076590003679,68.74132670002291,68.74132670002291,69.24226050003199,315,315,69.24226050003199,69.24226050003199,69.24226050003199,69.24226050003199,69.24226050003199,69.24226050003199,69.24226050003199,69.24226050003199,69.24226050003199,69.608850300021,69.608850300021,69.608850300021,69.608850300021,69.608850300021,69.608850300021,69.608850300021,69.608850300021,69.608850300021,23,0,,,69.608850300021,69.81071260001045,1000,69.81071260001045,1000,1000,1000,1000,1,num_2,0.49475930002518,,26,2,2026-03-05_10h24.16.789,2026A_exp2,2022.2.4,59.866509671740715,
1,0,3.7,6.1,0,0,6,6,55,,,,,70.32608359999722,70.97690180002246,70.97690180002246,71.47801110002911,315,45,71.47801110002911,71.47801110002911,71.47801110002911,71.47801110002911,71.47801110002911,71.47801110002911,71.47801110002911,71.47801110002911,71.47801110002911,71.84436720004305,71.84436720004305,71.84436720004305,71.84436720004305,71.84436720004305,71.84436720004305,71.84436720004305,71.84436720004305,71.84436720004305,23,0,,,71.84436720004305,72.04456710000522,3.7,72.04456710000522,0,3.7,1,0,1000,num_1,0.9802462999941781,,26,2,2026-03-05_10h24.16.789,2026A_exp2,2022.2.4,59.866509671740715,
0,0,0.0,6.1,0,0,7,7,7,,,,,73.04547569999704,73.69675910001388,73.69675910001388,74.18068950000452,45,45,74.18068950000452,74.18068950000452,74.18068950000452,74.18068950000452,74.18068950000452,74.18068950000452,74.18068950000452,74.18068950000452,74.18068950000452,74.54709730000468,74.54709730000468,74.54709730000468,74.54709730000468,74.54709730000468,74.54709730000468,74.54709730000468,74.54709730000468,74.54709730000468,6,3,"[0.001198899990413338, 0.1333646000130102, 0.25028569996356964]","[0.10029309999663383, 0.2336292999680154, 0.350503999972716]",74.54709730000468,74.74721330002649,6.1,74.74721330002649,1,6.1,1,1,1000,num_4,0.8295893999747932,,26,2,2026-03-05_10h24.16.789,2026A_exp2,2022.2.4,59.866509671740715,
1000,1,4.9,6.1,1,0,8,8,28,,,,,75.59806750004645,76.2487470000051,76.2487470000051,76.7332242000266,45,45,76.7332242000266,76.7332242000266,76.7332242000266,76.7332242000266,76.7332242000266,76.7332242000266,76.7332242000266,76.7332242000266,76.7332242000266,77.09955199999968,77.09955199999968,77.09955199999968,77.09955199999968,77.09955199999968,77.09955199999968,77.09955199999968,77.09955199999968,77.09955199999968,23,0,,,77.09955199999968,77.30194540001685,1000,77.30194540001685,1000,1000,1000,1000,1,num_2,0.8599805000121705,,26,2,2026-03-05_10h24.16.789,2026A_exp2,2022.2.4,59.866509671740715,
1000,1,3.7,0.0,1,0,9,9,48,,,,,78.18428600003244,78.83469180000247,78.83469180000247,79.33587190002436,315,45,79.33587190002436,79.33587190002436,79.33587190002436,79.33587190002436,79.33587190002436,79.33587190002436,79.33587190002436,79.33587190002436,79.33587190002436,79.70227480004542,79.70227480004542,79.70227480004542,79.70227480004542,79.70227480004542,79.70227480004542,79.70227480004542,79.70227480004542,79.70227480004542,23,0,,,79.70227480004542,79.90402390004601,1000,79.90402390004601,1000,1000,1000,1000,0,num_3,0.5453365999856032,,26,2,2026-03-05_10h24.16.789,2026A_exp2,2022.2.4,59.866509671740715,
1000,1,3.7,6.1,0,0,10,10,84,,,,,80.46969510003692,81.12038090004353,81.12038090004353,81.62142630002927,45,45,81.62142630002927,81.62142630002927,81.62142630002927,81.62142630002927,81.62142630002927,81.62142630002927,81.62142630002927,81.62142630002927,81.62142630002927,81.98796300002141,81.98796300002141,81.98796300002141,81.98796300002141,81.98796300002141,81.98796300002141,81.98796300002141,81.98796300002141,81.98796300002141,23,0,,,81.98796300002141,82.18990340002347,1000,82.18990340002347,1000,1000,1000,1000,1,num_2,0.6027952999575064,,26,2,2026-03-05_10h24.16.789,2026A_exp2,2022.2.4,59.866509671740715,
1000,1,4.9,0.0,1,0,11,11,5,,,,,82.82201780000469,83.47274920000928,83.47274920000928,83.97363940003561,45,315,83.97363940003561,83.97363940003561,83.97363940003561,83.97363940003561,83.97363940003561,83.97363940003561,83.97363940003561,83.97363940003561,83.97363940003561,84.34004060004372,84.34004060004372,84.34004060004372,84.34004060004372,84.34004060004372,84.34004060004372,84.34004060004372,84.34004060004372,84.34004060004372,23,0,,,84.34004060004372,84.54250500001945,1000,84.54250500001945,1000,1000,1000,1000,0,num_3,0.5710883000283502,,26,2,2026-03-05_10h24.16.789,2026A_exp2,2022.2.4,59.866509671740715,
0,0,0.0,0.0,1,0,12,12,89,,,,,85.14107220002916,85.79148390004411,85.79148390004411,86.29273230000399,315,45,86.29273230000399,86.29273230000399,86.29273230000399,86.29273230000399,86.29273230000399,86.29273230000399,86.29273230000399,86.29273230000399,86.29273230000399,86.65925570001127,86.65925570001127,86.65925570001127,86.65925570001127,86.65925570001127,86.65925570001127,86.65925570001127,86.65925570001127,86.65925570001127,23,0,,,86.65925570001127,86.85941340000136,0.0,86.85941340000136,0,0.0,0,1,1000,num_1,2.2776998999761418,,26,2,2026-03-05_10h24.16.789,2026A_exp2,2022.2.4,59.866509671740715,
1000,1,0.0,4.9,1,0,13,13,79,,,,,89.16175410000142,89.81234390003374,89.81234390003374,90.29682460002368,315,45,90.29682460002368,90.29682460002368,90.29682460002368,90.29682460002368,90.29682460002368,90.29682460002368,90.29682460002368,90.29682460002368,90.29682460002368,90.66309350001393,90.66309350001393,90.66309350001393,90.66309350001393,90.66309350001393,90.66309350001393,90.66309350001393,90.66309350001393,90.66309350001393,23,0,,,90.66309350001393,90.86522750003496,1000,90.86522750003496,1000,1000,1000,1000,1,num_2,0.3839927999651991,,26,2,2026-03-05_10h24.16.789,2026A_exp2,2022.2.4,59.866509671740715,
1000,1,6.1,0.0,1,0,14,14,75,,,,,91.28058350004721,91.9308510000119,91.9308510000119,92.43219490000047,45,315,92.43219490000047,92.43219490000047,92.43219490000047,92.43219490000047,92.43219490000047,92.43219490000047,92.43219490000047,92.43219490000047,92.43219490000047,92.79869070003042,92.79869070003042,92.79869070003042,92.79869070003042,92.79869070003042,92.79869070003042,92.79869070003042,92.79869070003042,92.79869070003042,23,0,,,92.79869070003042,93.00068670004839,1000,93.00068670004839,1000,1000,1000,1000,0,num_3,0.5201000000233762,,26,2,2026-03-05_10h24.16.789,2026A_exp2,2022.2.4,59.866509671740715,
1,0,3.7,3.7,0,0,15,15,13,,,,,93.54969830001937,94.20003550004913,94.20003550004913,94.68434440001147,315,45,94.68434440001147,94.68434440001147,94.68434440001147,94.68434440001147,94.68434440001147,94.68434440001147,94.68434440001147,94.68434440001147,94.68434440001147,95.05083940003533,95.05083940003533,95.05083940003533,95.05083940003533,95.05083940003533,95.05083940003533,95.05083940003533,95.05083940003533,95.05083940003533,23,0,,,95.05083940003533,95.25098300003447,3.7,95.25098300003447,1,3.7,1,1,1000,num_4,0.9183349000522867,,26,2,2026-03-05_10h24.16.789,2026A_exp2,2022.2.4,59.866509671740715,
1,0,0.0,3.7,1,0,16,16,41,,,,,96.18520570005057,96.83601830003317,96.83601830003317,97.32036380004138,45,315,97.32036380004138,97.32036380004138,97.32036380004138,97.32036380004138,97.32036380004138,97.32036380004138,97.32036380004138,97.32036380004138,97.32036380004138,97.6868519000127,97.6868519000127,97.6868519000127,97.6868519000127,97.6868519000127,97.6868519000127,97.6868519000127,97.6868519000127,97.6868519000127,23,0,,,97.6868519000127,97.88696990004973,3.7,97.88696990004973,0,3.7,1,0,1000,num_1,1.3142023999826051,,26,2,2026-03-05_10h24.16.789,2026A_exp2,2022.2.4,59.866509671740715,
1000,1,0.0,0.0,1,0,17,17,33,,,,,99.22157819999848,99.87243490002584,99.87243490002584,100.35686800000258,315,315,100.35686800000258,100.35686800000258,100.35686800000258,100.35686800000258,100.35686800000258,100.35686800000258,100.35686800000258,100.35686800000258,100.35686800000258,100.72329110000283,100.72329110000283,100.72329110000283,100.72329110000283,100.72329110000283,100.72329110000283,100.72329110000283,100.72329110000283,100.72329110000283,23,0,,,100.72329110000283,100.92541820002953,1000,100.92541820002953,1000,1000,1000,1000,0,num_3,0.7246807999908924,,26,2,2026-03-05_10h24.16.789,2026A_exp2,2022.2.4,59.866509671740715,
1000,1,0.0,0.0,0,0,18,18,64,,,,,101.67402110004332,102.32453939999687,102.32453939999687,102.82591920002596,45,315,102.82591920002596,102.82591920002596,102.82591920002596,102.82591920002596,102.82591920002596,102.82591920002596,102.82591920002596,102.82591920002596,102.82591920002596,103.17567329999292,103.17567329999292,103.17567329999292,103.17567329999292,103.17567329999292,103.17567329999292,103.17567329999292,103.17567329999292,103.17567329999292,22,0,,,103.17567329999292,103.37781440000981,1000,103.37781440000981,1000,1000,1000,1000,0,num_3,0.631874600017909,,26,2,2026-03-05_10h24.16.789,2026A_exp2,2022.2.4,59.866509671740715,
1,0,6.1,4.9,0,0,19,19,24,,,,,104.02649700001348,104.67722330003744,104.67722330003744,105.17842340003699,315,45,105.17842340003699,105.17842340003699,105.17842340003699,105.17842340003699,105.17842340003699,105.17842340003699,105.17842340003699,105.17842340003699,105.17842340003699,105.54475980001735,105.54475980001735,105.54475980001735,105.54475980001735,105.54475980001735,105.54475980001735,105.54475980001735,105.54475980001735,105.54475980001735,23,0,,,105.54475980001735,105.744918100012,6.1,105.744918100012,1,6.1,1,1,1000,num_4,0.8484049999970011,,26,2,2026-03-05_10h24.16.789,2026A_exp2,2022.2.4,59.866509671740715,
1,0,6.1,4.9,0,0,20,20,39,,,,,106.61231009999756,107.26313690003008,107.26313690003008,107.74759939999785,45,45,107.74759939999785,107.74759939999785,107.74759939999785,107.74759939999785,107.74759939999785,107.74759939999785,107.74759939999785,107.74759939999785,107.74759939999785,108.1139930000063,108.1139930000063,108.1139930000063,108.1139930000063,108.1139930000063,108.1139930000063,108.1139930000063,108.1139930000063,108.1139930000063,22,1,[0.03351989999646321],[0.05002209998201579],108.1139930000063,108.31401120004011,6.1,108.31401120004011,1,6.1,1,1,1000,num_4,0.8707151000271551,,26,2,2026-03-05_10h24.16.789,2026A_exp2,2022.2.4,59.866509671740715,
1000,1,4.9,6.1,0,0,21,21,20,,,,,109.21486320003169,109.8656975000049,109.8656975000049,110.3503602000419,315,315,110.3503602000419,110.3503602000419,110.3503602000419,110.3503602000419,110.3503602000419,110.3503602000419,110.3503602000419,110.3503602000419,110.3503602000419,110.71665519999806,110.71665519999806,110.71665519999806,110.71665519999806,110.71665519999806,110.71665519999806,110.71665519999806,110.71665519999806,110.71665519999806,23,0,,,110.71665519999806,110.91845130000729,1000,110.91845130000729,1000,1000,1000,1000,1,num_2,1.0583738999557681,,26,2,2026-03-05_10h24.16.789,2026A_exp2,2022.2.4,59.866509671740715,
1,0,0.0,4.9,1,0,22,22,53,,,,,112.00117340002907,112.65180700004566,112.65180700004566,113.15313059999608,315,45,113.15313059999608,113.15313059999608,113.15313059999608,113.15313059999608,113.15313059999608,113.15313059999608,113.15313059999608,113.15313059999608,113.15313059999608,113.51939700002549,113.51939700002549,113.51939700002549,113.51939700002549,113.51939700002549,113.51939700002549,113.51939700002549,113.51939700002549,113.51939700002549,23,0,,,113.51939700002549,113.71960520005086,4.9,113.71960520005086,1,4.9,1,1,1000,num_4,0.7613622000208125,,26,2,2026-03-05_10h24.16.789,2026A_exp2,2022.2.4,59.866509671740715,
1,0,0.0,4.9,0,0,23,23,4,,,,,114.5035712000099,115.1542868000106,115.1542868000106,115.63866860000417,45,315,115.63866860000417,115.63866860000417,115.63866860000417,115.63866860000417,115.63866860000417,115.63866860000417,115.63866860000417,115.63866860000417,115.63866860000417,116.00512820004951,116.00512820004951,116.00512820004951,116.00512820004951,116.00512820004951,116.00512820004951,116.00512820004951,116.00512820004951,116.00512820004951,23,0,,,116.00512820004951,116.2054022999946,0.0,116.2054022999946,0,0.0,0,1,1000,num_1,1.0516199000412598,,26,2,2026-03-05_10h24.16.789,2026A_exp2,2022.2.4,59.866509671740715,
1000,1,4.9,0.0,1,0,24,24,22,,,,,117.27310039999429,117.9237963000196,117.9237963000196,118.40812440001173,315,45,118.40812440001173,118.40812440001173,118.40812440001173,118.40812440001173,118.40812440001173,118.40812440001173,118.40812440001173,118.40812440001173,118.40812440001173,118.77453970001079,118.77453970001079,118.77453970001079,118.77453970001079,118.77453970001079,118.77453970001079,118.77453970001079,118.77453970001079,118.77453970001079,23,0,,,118.77453970001079,118.97663980000652,1000,118.97663980000652,1000,1000,1000,1000,0,num_3,0.5841894000186585,,26,2,2026-03-05_10h24.16.789,2026A_exp2,2022.2.4,59.866509671740715,
1,0,0.0,0.0,1,0,25,25,87,,,,,119.59208030003356,120.24274810001953,120.24274810001953,120.74384589999681,45,315,120.74384589999681,120.74384589999681,120.74384589999681,120.74384589999681,120.74384589999681,120.74384589999681,120.74384589999681,120.74384589999681,120.74384589999681,121.09361919999355,121.09361919999355,121.09361919999355,121.09361919999355,121.09361919999355,121.09361919999355,121.09361919999355,121.09361919999355,121.09361919999355,22,0,,,121.09361919999355,121.29385280003771,0.0,121.31034700002056,0,0.0,0,1,1000,num_1,1.707199299999047,,26,2,2026-03-05_10h24.16.789,2026A_exp2,2022.2.4,59.866509671740715,
1,0,0.0,3.7,1,0,26,26,66,,,,,123.04543290002039,123.69621730002109,123.69621730002109,124.1806973000057,45,315,124.1806973000057,124.1806973000057,124.1806973000057,124.1806973000057,124.1806973000057,124.1806973000057,124.1806973000057,124.1806973000057,124.1806973000057,124.54688310000347,124.54688310000347,124.54688310000347,124.54688310000347,124.54688310000347,124.54688310000347,124.54688310000347,124.54688310000347,124.54688310000347,23,0,,,124.54688310000347,124.74725549999857,3.7,124.74725549999857,1,3.7,1,1,1000,num_4,0.7817279000300914,,26,2,2026-03-05_10h24.16.789,2026A_exp2,2022.2.4,59.866509671740715,
1000,1,6.1,0.0,0,0,27,27,14,,,,,125.54782830004115,126.18198080000002,126.18198080000002,126.68313960003434,45,45,126.68313960003434,126.68313960003434,126.68313960003434,126.68313960003434,126.68313960003434,126.68313960003434,126.68313960003434,126.68313960003434,126.68313960003434,127.04959830001462,127.04959830001462,127.04959830001462,127.04959830001462,127.04959830001462,127.04959830001462,127.04959830001462,127.04959830001462,127.04959830001462,23,0,,,127.04959830001462,127.25152220000746,1000,127.25152220000746,1000,1000,1000,1000,0,num_3,0.525802800024394,,26,2,2026-03-05_10h24.16.789,2026A_exp2,2022.2.4,59.866509671740715,
1,0,4.9,0.0,1,0,28,28,8,,,,,127.80037100001937,128.4508158999961,128.4508158999961,128.95212470000843,45,315,128.95212470000843,128.95212470000843,128.95212470000843,128.95212470000843,128.95212470000843,128.95212470000843,128.95212470000843,128.95212470000843,128.95212470000843,129.30184710002504,129.30184710002504,129.30184710002504,129.30184710002504,129.30184710002504,129.30184710002504,129.30184710002504,129.30184710002504,129.30184710002504,22,0,,,129.30184710002504,129.5021420000121,0.0,129.5021420000121,0,0.0,0,1,1000,num_1,0.93159769999329,,26,2,2026-03-05_10h24.16.789,2026A_exp2,2022.2.4,59.866509671740715,
1000,1,0.0,0.0,1,0,29,29,23,,,,,130.45279579999624,131.1036582000088,131.1036582000088,131.58849230001215,45,315,131.58849230001215,131.58849230001215,131.58849230001215,131.58849230001215,131.58849230001215,131.58849230001215,131.58849230001215,131.58849230001215,131.58849230001215,131.9545058000367,131.9545058000367,131.9545058000367,131.9545058000367,131.9545058000367,131.9545058000367,131.9545058000367,131.9545058000367,131.9545058000367,23,0,,,131.9545058000367,132.1567716000136,1000,132.1567716000136,1000,1000,1000,1000,0,num_3,0.6600700000417419,,26,2,2026-03-05_10h24.16.789,2026A_exp2,2022.2.4,59.866509671740715,
1000,1,0.0,0.0,0,0,30,30,17,,,,,132.8387059000088,133.47269750002306,133.47269750002306,133.97382280003512,315,315,133.97382280003512,133.97382280003512,133.97382280003512,133.97382280003512,133.97382280003512,133.97382280003512,133.97382280003512,133.97382280003512,133.97382280003512,134.34020720003173,134.34020720003173,134.34020720003173,134.34020720003173,134.34020720003173,134.34020720003173,134.34020720003173,134.34020720003173,134.34020720003173,23,0,,,134.34020720003173,134.5425025000004,1000,134.5425025000004,1000,1000,1000,1000,0,num_3,1.0580675999517553,,26,2,2026-03-05_10h24.16.789,2026A_exp2,2022.2.4,59.866509671740715,
1000,1,0.0,6.1,0,0,31,31,37,,,,,135.6247604000382,136.27543239999795,136.27543239999795,136.7599043000373,45,315,136.7599043000373,136.7599043000373,136.7599043000373,136.7599043000373,136.7599043000373,136.7599043000373,136.7599043000373,136.7599043000373,136.7599043000373,137.12632740003755,137.12632740003755,137.12632740003755,137.12632740003755,137.12632740003755,137.12632740003755,137.12632740003755,137.12632740003755,137.12632740003755,23,0,,,137.12632740003755,137.3453593000304,1000,137.3453593000304,1000,1000,1000,1000,1,num_2,0.5672058999771252,,26,2,2026-03-05_10h24.16.789,2026A_exp2,2022.2.4,59.866509671740715,
1000,1,3.7,0.0,0,0,32,32,2,,,,,137.94387489999644,138.5944840000011,138.5944840000011,139.09557780000614,315,45,139.09557780000614,139.09557780000614,139.09557780000614,139.09557780000614,139.09557780000614,139.09557780000614,139.09557780000614,139.09557780000614,139.09557780000614,139.4619815000333,139.4619815000333,139.4619815000333,139.4619815000333,139.4619815000333,139.4619815000333,139.4619815000333,139.4619815000333,139.4619815000333,23,0,,,139.4619815000333,139.6640699999989,1000,139.6640699999989,1000,1000,1000,1000,0,num_3,0.7047626000130549,,26,2,2026-03-05_10h24.16.789,2026A_exp2,2022.2.4,59.866509671740715,
1,0,0.0,0.0,0,0,33,33,29,,,,,140.39621020003688,141.04700990003766,141.04700990003766,141.54804610001156,315,315,141.54804610001156,141.54804610001156,141.54804610001156,141.54804610001156,141.54804610001156,141.54804610001156,141.54804610001156,141.54804610001156,141.54804610001156,141.89783289999468,141.89783289999468,141.89783289999468,141.89783289999468,141.89783289999468,141.89783289999468,141.89783289999468,141.89783289999468,141.89783289999468,22,0,,,141.89783289999468,142.0980172000127,0.0,142.11460840003565,1,0.0,0,0,1000,num_4,0.8140694000176154,,26,2,2026-03-05_10h24.16.789,2026A_exp2,2022.2.4,59.866509671740715,
1000,1,6.1,6.1,1,0,34,34,77,,,,,142.94862310000462,143.599525800033,143.599525800033,144.0838880999945,315,45,144.0838880999945,144.0838880999945,144.0838880999945,144.0838880999945,144.0838880999945,144.0838880999945,144.0838880999945,144.0838880999945,144.0838880999945,144.45035810000263,144.45035810000263,144.45035810000263,144.45035810000263,144.45035810000263,144.45035810000263,144.45035810000263,144.45035810000263,144.45035810000263,23,0,,,144.45035810000263,144.6522907000035,1000,144.6522907000035,1000,1000,1000,1000,1,num_2,1.3170154000399634,,26,2,2026-03-05_10h24.16.789,2026A_exp2,2022.2.4,59.866509671740715,
1000,1,0.0,3.7,0,0,35,35,51,,,,,145.9851913000457,146.63571840000805,146.63571840000805,147.13694260001648,45,315,147.13694260001648,147.13694260001648,147.13694260001648,147.13694260001648,147.13694260001648,147.13694260001648,147.13694260001648,147.13694260001648,147.13694260001648,147.50328689999878,147.50328689999878,147.50328689999878,147.50328689999878,147.50328689999878,147.50328689999878,147.50328689999878,147.50328689999878,147.50328689999878,23,0,,,147.50328689999878,147.70522350003012,1000,147.70522350003012,1000,1000,1000,1000,1,num_2,0.6724091999931261,,26,2,2026-03-05_10h24.16.789,2026A_exp2,2022.2.4,59.866509671740715,
1000,1,0.0,6.1,0,0,36,36,9,,,,,148.40417720004916,149.0547514000209,149.0547514000209,149.55593110003974,45,45,149.55593110003974,149.55593110003974,149.55593110003974,149.55593110003974,149.55593110003974,149.55593110003974,149.55593110003974,149.55593110003974,149.55593110003974,149.90572420001263,149.90572420001263,149.90572420001263,149.90572420001263,149.90572420001263,149.90572420001263,149.90572420001263,149.90572420001263,149.90572420001263,22,0,,,149.90572420001263,150.10760710004251,1000,150.10760710004251,1000,1000,1000,1000,1,num_2,0.4612024999805726,,26,2,2026-03-05_10h24.16.789,2026A_exp2,2022.2.4,59.866509671740715,
1000,1,3.7,4.9,1,0,37,37,46,,,,,150.5896779000177,151.24042470002314,151.24042470002314,151.74125890003052,315,45,151.74125890003052,151.74125890003052,151.74125890003052,151.74125890003052,151.74125890003052,151.74125890003052,151.74125890003052,151.74125890003052,151.74125890003052,152.10805840004468,152.10805840004468,152.10805840004468,152.10805840004468,152.10805840004468,152.10805840004468,152.10805840004468,152.10805840004468,152.10805840004468,23,0,,,152.10805840004468,152.31009240000276,1000,152.31009240000276,1000,1000,1000,1000,1,num_2,1.0276319999829866,,26,2,2026-03-05_10h24.16.789,2026A_exp2,2022.2.4,59.866509671740715,
1000,1,0.0,0.0,1,0,38,38,27,,,,,153.35918210004456,154.00983720005024,154.00983720005024,154.51098429999547,315,45,154.51098429999547,154.51098429999547,154.51098429999547,154.51098429999547,154.51098429999547,154.51098429999547,154.51098429999547,154.51098429999547,154.51098429999547,154.86055680003483,154.86055680003483,154.86055680003483,154.86055680003483,154.86055680003483,154.86055680003483,154.86055680003483,154.86055680003483,154.86055680003483,22,0,,,154.86055680003483,155.06086180004058,1000,155.06086180004058,1000,1000,1000,1000,1,num_2,1.364617499988526,,26,2,2026-03-05_10h24.16.789,2026A_exp2,2022.2.4,59.866509671740715,
1000,1,6.1,0.0,1,0,39,39,30,,,,,156.4455327000469,157.09624210000038,157.09624210000038,157.6019368999987,45,45,157.6019368999987,157.6019368999987,157.6019368999987,157.6019368999987,157.6019368999987,157.6019368999987,157.6019368999987,157.6019368999987,157.6019368999987,157.96367240004474,157.96367240004474,157.96367240004474,157.96367240004474,157.96367240004474,157.96367240004474,157.96367240004474,157.96367240004474,157.96367240004474,23,0,,,157.96367240004474,158.16576150001492,1000,158.16576150001492,1000,1000,1000,1000,0,num_3,0.47511360002681613,,26,2,2026-03-05_10h24.16.789,2026A_exp2,2022.2.4,59.866509671740715,
1,0,3.7,0.0,1,0,40,40,19,,,,,158.6643924000091,159.31525690003764,159.31525690003764,159.81632260000333,315,45,159.81632260000333,159.81632260000333,159.81632260000333,159.81632260000333,159.81632260000333,159.81632260000333,159.81632260000333,159.81632260000333,159.81632260000333,160.18254970002454,160.18254970002454,160.18254970002454,160.18254970002454,160.18254970002454,160.18254970002454,160.18254970002454,160.18254970002454,160.18254970002454,23,0,,,160.18254970002454,160.38296640000772,0.0,160.38296640000772,0,0.0,0,1,1000,num_1,1.0661485000164248,,26,2,2026-03-05_10h24.16.789,2026A_exp2,2022.2.4,59.866509671740715,
1,0,0.0,6.1,1,0,41,41,52,,,,,161.46722880000016,162.11802799999714,162.11802799999714,162.6022501999978,45,45,162.6022501999978,162.6022501999978,162.6022501999978,162.6022501999978,162.6022501999978,162.6022501999978,162.6022501999978,162.6022501999978,162.6022501999978,162.96882110001752,162.96882110001752,162.96882110001752,162.96882110001752,162.96882110001752,162.96882110001752,162.96882110001752,162.96882110001752,162.96882110001752,23,0,,,162.96882110001752,163.16900769999484,6.1,163.16900769999484,1,6.1,1,1,1000,num_4,0.8410119999898598,,26,2,2026-03-05_10h24.16.789,2026A_exp2,2022.2.4,59.866509671740715,
1,0,3.7,0.0,0,0,42,42,65,,,,,164.03654790000292,164.68722220003838,164.68722220003838,165.17181040003197,315,315,165.17181040003197,165.17181040003197,165.17181040003197,165.17181040003197,165.17181040003197,165.17181040003197,165.17181040003197,165.17181040003197,165.17181040003197,165.5379310999997,165.5379310999997,165.5379310999997,165.5379310999997,165.5379310999997,165.5379310999997,165.5379310999997,165.5379310999997,165.5379310999997,21,1,[0.06763689999934286],[0.10099169996101409],165.5379310999997,165.7383114999975,3.7,165.7383114999975,1,3.7,1,1,1000,num_4,0.7753958000103012,,26,2,2026-03-05_10h24.16.789,2026A_exp2,2022.2.4,59.866509671740715,
1,0,6.1,0.0,0,0,43,43,70,,,,,166.53887530002976,167.1897020000033,167.1897020000033,167.67406180000398,45,315,167.67406180000398,167.67406180000398,167.67406180000398,167.67406180000398,167.67406180000398,167.67406180000398,167.67406180000398,167.67406180000398,167.67406180000398,168.04040520003764,168.04040520003764,168.04040520003764,168.04040520003764,168.04040520003764,168.04040520003764,168.04040520003764,168.04040520003764,168.04040520003764,23,0,,,168.04040520003764,168.2408305000281,6.1,168.2408305000281,1,6.1,1,1,1000,num_4,0.8407445999910124,,26,2,2026-03-05_10h24.16.789,2026A_exp2,2022.2.4,59.866509671740715,
1,0,0.0,6.1,0,0,44,44,60,,,,,169.10822220001137,169.75897230004193,169.75897230004193,170.2434149000328,45,45,170.2434149000328,170.2434149000328,170.2434149000328,170.2434149000328,170.2434149000328,170.2434149000328,170.2434149000328,170.2434149000328,170.2434149000328,170.60983670002315,170.60983670002315,170.60983670002315,170.60983670002315,170.60983670002315,170.60983670002315,170.60983670002315,170.60983670002315,170.60983670002315,23,0,,,170.60983670002315,170.80987250001635,0.0,170.80987250001635,0,0.0,0,1,1000,num_1,1.3196400000015274,,26,2,2026-03-05_10h24.16.789,2026A_exp2,2022.2.4,59.866509671740715,
1,0,0.0,0.0,1,0,45,45,6,,,,,172.1612868999946,172.81204380001873,172.81204380001873,173.29631659999723,45,315,173.29631659999723,173.29631659999723,173.29631659999723,173.29631659999723,173.29631659999723,173.29631659999723,173.29631659999723,173.29631659999723,173.29631659999723,173.66285340004833,173.66285340004833,173.66285340004833,173.66285340004833,173.66285340004833,173.66285340004833,173.66285340004833,173.66285340004833,173.66285340004833,23,0,,,173.66285340004833,173.86294940003427,0.0,173.86294940003427,1,0.0,0,0,1000,num_4,1.0666984000126831,,26,2,2026-03-05_10h24.16.789,2026A_exp2,2022.2.4,59.866509671740715,
1,0,0.0,4.9,1,0,46,46,21,,,,,174.94724170002155,175.59033440001076,175.59033440001076,176.08258320001187,315,315,176.08258320001187,176.08258320001187,176.08258320001187,176.08258320001187,176.08258320001187,176.08258320001187,176.08258320001187,176.08258320001187,176.08258320001187,176.44895039999392,176.44895039999392,176.44895039999392,176.44895039999392,176.44895039999392,176.44895039999392,176.44895039999392,176.44895039999392,176.44895039999392,23,0,,,176.44895039999392,176.6492328000022,4.9,176.6492328000022,1,4.9,1,1,1000,num_4,0.5117192000034265,,26,2,2026-03-05_10h24.16.789,2026A_exp2,2022.2.4,59.866509671740715,
1000,1,0.0,6.1,1,0,47,47,88,,,,,177.18309360003332,177.8336483000312,177.8336483000312,178.31818380003097,45,315,178.31818380003097,178.31818380003097,178.31818380003097,178.31818380003097,178.31818380003097,178.31818380003097,178.31818380003097,178.31818380003097,178.31818380003097,178.6845844000345,178.6845844000345,178.6845844000345,178.6845844000345,178.6845844000345,178.6845844000345,178.6845844000345,178.6845844000345,178.6845844000345,23,0,,,178.6845844000345,178.88705910003046,1000,178.88705910003046,1000,1000,1000,1000,1,num_2,0.722210299980361,,26,2,2026-03-05_10h24.16.789,2026A_exp2,2022.2.4,59.866509671740715,
1,0,6.1,0.0,0,0,48,48,56,,,,,179.63535430002958,180.2862041000044,180.2862041000044,180.78713710000739,315,315,180.78713710000739,180.78713710000739,180.78713710000739,180.78713710000739,180.78713710000739,180.78713710000739,180.78713710000739,180.78713710000739,180.78713710000739,181.13698930002283,181.13698930002283,181.13698930002283,181.13698930002283,181.13698930002283,181.13698930002283,181.13698930002283,181.13698930002283,181.13698930002283,0,1,[0.0012608999968506396],[0.350424500007648],181.13698930002283,181.33724680001615,6.1,181.33724680001615,1,6.1,1,1,1000,num_4,1.8317643000045791,,26,2,2026-03-05_10h24.16.789,2026A_exp2,2022.2.4,59.866509671740715,
1,0,0.0,3.7,0,0,49,49,35,,,,,183.1889173000236,183.8396086000139,183.8396086000139,184.34104100003606,45,45,184.34104100003606,184.34104100003606,184.34104100003606,184.34104100003606,184.34104100003606,184.34104100003606,184.34104100003606,184.34104100003606,184.34104100003606,184.69047760003014,184.69047760003014,184.69047760003014,184.69047760003014,184.69047760003014,184.69047760003014,184.69047760003014,184.69047760003014,184.69047760003014,20,3,"[0.1479224000358954, 0.3138838000013493, 0.3640019000158645]","[0.1640124000259675, 0.33066460001282394, 0.36400580004556105]",184.69047760003014,184.89061689999653,0.0,184.89061689999653,0,0.0,0,1,1000,num_1,1.334722800005693,,26,2,2026-03-05_10h24.16.789,2026A_exp2,2022.2.4,59.866509671740715,
1000,1,4.9,3.7,0,0,50,50,32,,,,,186.24230430001626,186.8927665000083,186.8927665000083,187.37716329999967,45,45,187.37716329999967,187.37716329999967,187.37716329999967,187.37716329999967,187.37716329999967,187.37716329999967,187.37716329999967,187.37716329999967,187.37716329999967,187.74357640004018,187.74357640004018,187.74357640004018,187.74357640004018,187.74357640004018,187.74357640004018,187.74357640004018,187.74357640004018,187.74357640004018,23,0,,,187.74357640004018,187.9453371000127,1000,187.9453371000127,1000,1000,1000,1000,0,num_3,0.5599700000020675,,26,2,2026-03-05_10h24.16.789,2026A_exp2,2022.2.4,59.866509671740715,
1000,1,0.0,0.0,0,0,51,51,83,,,,,188.5276687000296,189.17841450002743,189.17841450002743,189.67916500003776,45,315,189.67916500003776,189.67916500003776,189.67916500003776,189.67916500003776,189.67916500003776,189.67916500003776,189.67916500003776,189.67916500003776,189.67916500003776,190.02922349999426,190.02922349999426,190.02922349999426,190.02922349999426,190.02922349999426,190.02922349999426,190.02922349999426,190.02922349999426,190.02922349999426,22,0,,,190.02922349999426,190.23166000004858,1000,190.23166000004858,1000,1000,1000,1000,1,num_2,0.6490960999508388,,26,2,2026-03-05_10h24.16.789,2026A_exp2,2022.2.4,59.866509671740715,
1,0,3.7,0.0,0,0,52,52,42,,,,,190.8967845000443,191.5474685000372,191.5474685000372,192.0485632000491,45,315,192.0485632000491,192.0485632000491,192.0485632000491,192.0485632000491,192.0485632000491,192.0485632000491,192.0485632000491,192.0485632000491,192.0485632000491,192.4148736000061,192.4148736000061,192.4148736000061,192.4148736000061,192.4148736000061,192.4148736000061,192.4148736000061,192.4148736000061,192.4148736000061,23,0,,,192.4148736000061,192.61507960001472,3.7,192.61507960001472,1,3.7,1,1,1000,num_4,0.7788410999928601,,26,2,2026-03-05_10h24.16.789,2026A_exp2,2022.2.4,59.866509671740715,
1000,1,0.0,0.0,1,0,53,53,67,,,,,193.41587369999615,194.06657369999448,194.06657369999448,194.5509021000471,315,45,194.5509021000471,194.5509021000471,194.5509021000471,194.5509021000471,194.5509021000471,194.5509021000471,194.5509021000471,194.5509021000471,194.5509021000471,194.91742090001935,194.91742090001935,194.91742090001935,194.91742090001935,194.91742090001935,194.91742090001935,194.91742090001935,194.91742090001935,194.91742090001935,7,3,"[0.0011993999942205846, 0.11685900000156835, 0.3170531999785453]","[0.08348669996485114, 0.26708769996184856, 0.3504652999690734]",194.91742090001935,195.1195957000018,1000,195.1195957000018,1000,1000,1000,1000,1,num_2,0.626531400019303,,26,2,2026-03-05_10h24.16.789,2026A_exp2,2022.2.4,59.866509671740715,
1000,1,3.7,4.9,1,0,54,54,44,,,,,195.76839800004382,196.40226570004597,196.40226570004597,196.9032105000224,315,315,196.9032105000224,196.9032105000224,196.9032105000224,196.9032105000224,196.9032105000224,196.9032105000224,196.9032105000224,196.9032105000224,196.9032105000224,197.26984409999568,197.26984409999568,197.26984409999568,197.26984409999568,197.26984409999568,197.26984409999568,197.26984409999568,197.26984409999568,197.26984409999568,23,0,,,197.26984409999568,197.4718899000436,1000,197.4718899000436,1000,1000,1000,1000,1,num_2,0.7061364999972284,,26,2,2026-03-05_10h24.16.789,2026A_exp2,2022.2.4,59.866509671740715,
1,0,0.0,0.0,1,0,55,55,73,,,,,198.2039863000391,198.85477610002272,198.85477610002272,199.35578410001472,315,45,199.35578410001472,199.35578410001472,199.35578410001472,199.35578410001472,199.35578410001472,199.35578410001472,199.35578410001472,199.35578410001472,199.35578410001472,199.70551180001348,199.70551180001348,199.70551180001348,199.70551180001348,199.70551180001348,199.70551180001348,199.70551180001348,199.70551180001348,199.70551180001348,22,0,,,199.70551180001348,199.9058195000398,0.0,199.9058195000398,1,0.0,0,0,1000,num_4,1.1833968000137247,,26,2,2026-03-05_10h24.16.789,2026A_exp2,2022.2.4,59.866509671740715,
1,0,4.9,0.0,0,0,56,56,58,,,,,201.10661720001372,201.75763250002638,201.75763250002638,202.24197540001478,45,45,202.24197540001478,202.24197540001478,202.24197540001478,202.24197540001478,202.24197540001478,202.24197540001478,202.24197540001478,202.24197540001478,202.24197540001478,202.60837360000005,202.60837360000005,202.60837360000005,202.60837360000005,202.60837360000005,202.60837360000005,202.60837360000005,202.60837360000005,202.60837360000005,23,0,,,202.60837360000005,202.80852900003083,4.9,202.80852900003083,1,4.9,1,1,1000,num_4,0.5920531000010669,,26,2,2026-03-05_10h24.16.789,2026A_exp2,2022.2.4,59.866509671740715,
1000,1,6.1,0.0,1,0,57,57,69,,,,,203.4260048000142,204.05982910003513,204.05982910003513,204.56093580002198,45,315,204.56093580002198,204.56093580002198,204.56093580002198,204.56093580002198,204.56093580002198,204.56093580002198,204.56093580002198,204.56093580002198,204.56093580002198,204.92748920002487,204.92748920002487,204.92748920002487,204.92748920002487,204.92748920002487,204.92748920002487,204.92748920002487,204.92748920002487,204.92748920002487,8,4,"[0.0011944000143557787, 0.11690500000258908, 0.18371209996985272, 0.28384340001503006]","[0.10027479997370392, 0.16706989996600896, 0.26723140000831336, 0.3005456000100821]",204.92748920002487,205.12967890000436,1000,205.12967890000436,1000,1000,1000,1000,0,num_3,0.6469701000023633,,26,2,2026-03-05_10h24.16.789,2026A_exp2,2022.2.4,59.866509671740715,
1,0,0.0,6.1,0,0,58,58,34,,,,,205.7948483999935,206.44568699999945,206.44568699999945,206.94680140004493,315,45,206.94680140004493,206.94680140004493,206.94680140004493,206.94680140004493,206.94680140004493,206.94680140004493,206.94680140004493,206.94680140004493,206.94680140004493,207.3132136000204,207.3132136000204,207.3132136000204,207.3132136000204,207.3132136000204,207.3132136000204,207.3132136000204,207.3132136000204,207.3132136000204,15,5,"[0.05025030003162101, 0.08342670003185049, 0.23367420001886785, 0.31709440000122413, 0.35034649999579415]","[0.06679270003223792, 0.11688990000402555, 0.28380470001138747, 0.3337694000219926, 0.3671288000186905]",207.3132136000204,207.51367050001863,0.0,207.51367050001863,0,0.0,0,1,1000,num_1,0.8404388000490144,,26,2,2026-03-05_10h24.16.789,2026A_exp2,2022.2.4,59.866509671740715,
1,0,0.0,6.1,1,0,59,59,36,,,,,208.3809248000034,209.0315465000458,209.0315465000458,209.53261640004348,45,45,209.53261640004348,209.53261640004348,209.53261640004348,209.53261640004348,209.53261640004348,209.53261640004348,209.53261640004348,209.53261640004348,209.53261640004348,209.8990401000483,209.8990401000483,209.8990401000483,209.8990401000483,209.8990401000483,209.8990401000483,209.8990401000483,209.8990401000483,209.8990401000483,4,1,[0.0009159999899566174],[0.3175785999628715],209.8990401000483,210.09932959999423,6.1,210.09932959999423,1,6.1,1,1,1000,num_4,0.8066904000006616,,26,2,2026-03-05_10h24.16.789,2026A_exp2,2022.2.4,59.866509671740715,
0,0,0.0,3.7,1,0,60,60,10,,,,,210.93329610000364,211.58383890002733,211.58383890002733,212.06837640004233,45,45,212.06837640004233,212.06837640004233,212.06837640004233,212.06837640004233,212.06837640004233,212.06837640004233,212.06837640004233,212.06837640004233,212.06837640004233,212.4348680000403,212.4348680000403,212.4348680000403,212.4348680000403,212.4348680000403,212.4348680000403,212.4348680000403,212.4348680000403,212.4348680000403,23,0,,,212.4348680000403,212.6351077000145,0.0,212.6351077000145,0,0.0,0,1,1000,num_1,1.08577459998196,,26,2,2026-03-05_10h24.16.789,2026A_exp2,2022.2.4,59.866509671740715,
1,0,3.7,0.0,0,0,61,61,3,,,,,213.75292590004392,214.40355740004452,214.40355740004452,214.88789730001008,45,45,214.88789730001008,214.88789730001008,214.88789730001008,214.88789730001008,214.88789730001008,214.88789730001008,214.88789730001008,214.88789730001008,214.88789730001008,215.25452040001983,215.25452040001983,215.25452040001983,215.25452040001983,215.25452040001983,215.25452040001983,215.25452040001983,215.25452040001983,215.25452040001983,2,3,"[0.0012009000056423247, 0.15025800000876188, 0.23362499999348074]","[0.13365729997167364, 0.2170559999649413, 0.3672398999915458]",215.25452040001983,215.45462490001228,3.7,215.45462490001228,1,3.7,1,1,1000,num_4,0.7142722000135109,,26,2,2026-03-05_10h24.16.789,2026A_exp2,2022.2.4,59.866509671740715,
1000,1,3.7,4.9,1,0,62,62,43,,,,,216.1885202000267,216.8225963000441,216.8225963000441,217.3236964000389,45,45,217.3236964000389,217.3236964000389,217.3236964000389,217.3236964000389,217.3236964000389,217.3236964000389,217.3236964000389,217.3236964000389,217.3236964000389,217.69019960000878,217.69019960000878,217.69019960000878,217.69019960000878,217.69019960000878,217.69019960000878,217.69019960000878,217.69019960000878,217.69019960000878,23,0,,,217.69019960000878,217.89630970003782,1000,217.89630970003782,1000,1000,1000,1000,1,num_2,0.6327178999781609,,26,2,2026-03-05_10h24.16.789,2026A_exp2,2022.2.4,59.866509671740715,
1000,1,0.0,0.0,0,0,63,63,81,,,,,218.55756490002386,219.20826129999477,219.20826129999477,219.70948160003172,315,45,219.70948160003172,219.70948160003172,219.70948160003172,219.70948160003172,219.70948160003172,219.70948160003172,219.70948160003172,219.70948160003172,219.70948160003172,220.059294900042,220.059294900042,220.059294900042,220.059294900042,220.059294900042,220.059294900042,220.059294900042,220.059294900042,220.059294900042,20,2,"[0.2168390000006184, 0.3336865000310354]","[0.2331080000149086, 0.3505571000277996]",220.059294900042,220.2609788000118,1000,220.2609788000118,1000,1000,1000,1000,0,num_3,1.0290626999922097,,26,2,2026-03-05_10h24.16.789,2026A_exp2,2022.2.4,59.866509671740715,
1000,1,4.9,0.0,0,0,64,64,26,,,,,221.31057240004884,221.9609093000181,221.9609093000181,222.4455042000045,315,45,222.4455042000045,222.4455042000045,222.4455042000045,222.4455042000045,222.4455042000045,222.4455042000045,222.4455042000045,222.4455042000045,222.4455042000045,222.81203150004148,222.81203150004148,222.81203150004148,222.81203150004148,222.81203150004148,222.81203150004148,222.81203150004148,222.81203150004148,222.81203150004148,23,0,,,222.81203150004148,223.01387340005022,1000,223.01387340005022,1000,1000,1000,1000,0,num_3,0.6988065000041388,,26,2,2026-03-05_10h24.16.789,2026A_exp2,2022.2.4,59.866509671740715,
1000,1,6.1,0.0,0,0,65,65,82,,,,,223.72950920002768,224.38013890001457,224.38013890001457,224.88126150000608,45,45,224.88126150000608,224.88126150000608,224.88126150000608,224.88126150000608,224.88126150000608,224.88126150000608,224.88126150000608,224.88126150000608,224.88126150000608,225.2477757000015,225.2477757000015,225.2477757000015,225.2477757000015,225.2477757000015,225.2477757000015,225.2477757000015,225.2477757000015,225.2477757000015,23,0,,,225.2477757000015,225.4499965000432,1000,225.4499965000432,1000,1000,1000,1000,0,num_3,0.6630007000057958,,26,2,2026-03-05_10h24.16.789,2026A_exp2,2022.2.4,59.866509671740715,
1000,1,0.0,3.7,0,0,66,66,78,,,,,226.13182010001037,226.7825788000482,226.7825788000482,227.28362000000197,45,315,227.28362000000197,227.28362000000197,227.28362000000197,227.28362000000197,227.28362000000197,227.28362000000197,227.28362000000197,227.28362000000197,227.28362000000197,227.63352130004205,227.63352130004205,227.63352130004205,227.63352130004205,227.63352130004205,227.63352130004205,227.63352130004205,227.63352130004205,227.63352130004205,22,0,,,227.63352130004205,227.83593290002318,1000,227.83593290002318,1000,1000,1000,1000,1,num_2,0.668705299962312,,26,2,2026-03-05_10h24.16.789,2026A_exp2,2022.2.4,59.866509671740715,
1,0,0.0,6.1,1,0,67,67,40,,,,,228.53428000002168,229.18497719999868,229.18497719999868,229.68606979999458,45,45,229.68606979999458,229.68606979999458,229.68606979999458,229.68606979999458,229.68606979999458,229.68606979999458,229.68606979999458,229.68606979999458,229.68606979999458,230.0525745000341,230.0525745000341,230.0525745000341,230.0525745000341,230.0525745000341,230.0525745000341,230.0525745000341,230.0525745000341,230.0525745000341,23,0,,,230.0525745000341,230.25260520004667,6.1,230.25260520004667,1,6.1,1,1,1000,num_4,0.7002543000271544,,26,2,2026-03-05_10h24.16.789,2026A_exp2,2022.2.4,59.866509671740715,
0,0,0.0,0.0,1,0,68,68,71,,,,,230.9700501000043,231.62079660000745,231.62079660000745,232.1051311000483,45,315,232.1051311000483,232.1051311000483,232.1051311000483,232.1051311000483,232.1051311000483,232.1051311000483,232.1051311000483,232.1051311000483,232.1051311000483,232.47174780000933,232.47174780000933,232.47174780000933,232.47174780000933,232.47174780000933,232.47174780000933,232.47174780000933,232.47174780000933,232.47174780000933,23,0,,,232.47174780000933,232.67190080002183,0.0,232.67190080002183,1,0.0,0,0,1000,num_4,1.0818493999540806,,26,2,2026-03-05_10h24.16.789,2026A_exp2,2022.2.4,59.866509671740715,
1000,1,3.7,0.0,0,0,69,69,57,,,,,233.7727717999951,234.42396360001294,234.42396360001294,234.90800769999623,315,45,234.90800769999623,234.90800769999623,234.90800769999623,234.90800769999623,234.90800769999623,234.90800769999623,234.90800769999623,234.90800769999623,234.90800769999623,235.274447600008,235.274447600008,235.274447600008,235.274447600008,235.274447600008,235.274447600008,235.274447600008,235.274447600008,235.274447600008,2,1,[0.0012680000509135425],[0.35024900001008064],235.274447600008,235.47652170003857,1000,235.47652170003857,1000,1000,1000,1000,0,num_3,0.5969090999569744,,26,2,2026-03-05_10h24.16.789,2026A_exp2,2022.2.4,59.866509671740715,
1000,1,0.0,0.0,1,0,70,70,12,,,,,236.0918186000199,236.74253380001755,236.74253380001755,237.24360099999467,45,315,237.24360099999467,237.24360099999467,237.24360099999467,237.24360099999467,237.24360099999467,237.24360099999467,237.24360099999467,237.24360099999467,237.24360099999467,237.6103157000034,237.6103157000034,237.6103157000034,237.6103157000034,237.6103157000034,237.6103157000034,237.6103157000034,237.6103157000034,237.6103157000034,0,1,[0.0012778000091202557],[0.3689343999722041],237.6103157000034,237.82551100000273,1000,237.82551100000273,1000,1000,1000,1000,1,num_2,0.6954679999616928,,26,2,2026-03-05_10h24.16.789,2026A_exp2,2022.2.4,59.866509671740715,
0,0,6.1,3.7,1,0,71,71,49,,,,,238.54439530003583,239.19505270000082,239.19505270000082,239.69630000001052,45,315,239.69630000001052,239.69630000001052,239.69630000001052,239.69630000001052,239.69630000001052,239.69630000001052,239.69630000001052,239.69630000001052,239.69630000001052,240.0625776000088,240.0625776000088,240.0625776000088,240.0625776000088,240.0625776000088,240.0625776000088,240.0625776000088,240.0625776000088,240.0625776000088,23,0,,,240.0625776000088,240.26274740003282,6.1,240.26274740003282,1,6.1,1,1,1000,num_4,0.7793621000018902,,26,2,2026-03-05_10h24.16.789,2026A_exp2,2022.2.4,59.866509671740715,
1000,1,6.1,0.0,1,0,72,72,16,,,,,241.063401899999,241.71426400000928,241.71426400000928,242.21537900000112,315,45,242.21537900000112,242.21537900000112,242.21537900000112,242.21537900000112,242.21537900000112,242.21537900000112,242.21537900000112,242.21537900000112,242.21537900000112,242.58171220001532,242.58171220001532,242.58171220001532,242.58171220001532,242.58171220001532,242.58171220001532,242.58171220001532,242.58171220001532,242.58171220001532,1,1,[0.001227899978403002],[0.3673024000017904],242.58171220001532,242.78367720003007,1000,242.78367720003007,1000,1000,1000,1000,0,num_3,0.5458977000089362,,26,2,2026-03-05_10h24.16.789,2026A_exp2,2022.2.4,59.866509671740715,
1000,1,0.0,0.0,0,0,73,73,86,,,,,243.34915409999667,243.99977140000556,243.99977140000556,244.500875000027,45,45,244.500875000027,244.500875000027,244.500875000027,244.500875000027,244.500875000027,244.500875000027,244.500875000027,244.500875000027,244.500875000027,244.86754880001536,244.86754880001536,244.86754880001536,244.86754880001536,244.86754880001536,244.86754880001536,244.86754880001536,244.86754880001536,244.86754880001536,23,0,,,244.86754880001536,245.06945830001496,1000,245.06945830001496,1000,1000,1000,1000,0,num_3,0.7233838000101969,,26,2,2026-03-05_10h24.16.789,2026A_exp2,2022.2.4,59.866509671740715,
1,0,3.7,0.0,1,0,74,74,50,,,,,245.81854370003566,246.46900320000714,246.46900320000714,246.97017990000313,45,45,246.97017990000313,246.97017990000313,246.97017990000313,246.97017990000313,246.97017990000313,246.97017990000313,246.97017990000313,246.97017990000313,246.97017990000313,247.31985590001568,247.31985590001568,247.31985590001568,247.31985590001568,247.31985590001568,247.31985590001568,247.31985590001568,247.31985590001568,247.31985590001568,2,2,"[0.0012144999927841127, 0.28377340000588447]","[0.2504808999947272, 0.350734600040596]",247.31985590001568,247.5199274000479,0.0,247.53676930000074,0,0.0,0,1,1000,num_1,1.4644244000082836,,26,2,2026-03-05_10h24.16.789,2026A_exp2,2022.2.4,59.866509671740715,
1000,1,0.0,0.0,0,0,75,75,15,,,,,249.02143220003927,249.67224070004886,249.67224070004886,250.15662470000098,45,45,250.15662470000098,250.15662470000098,250.15662470000098,250.15662470000098,250.15662470000098,250.15662470000098,250.15662470000098,250.15662470000098,250.15662470000098,250.52309610001976,250.52309610001976,250.52309610001976,250.52309610001976,250.52309610001976,250.52309610001976,250.52309610001976,250.52309610001976,250.52309610001976,23,0,,,250.52309610001976,250.72488590003923,1000,250.72488590003923,1000,1000,1000,1000,0,num_3,0.8525823999661952,,26,2,2026-03-05_10h24.16.789,2026A_exp2,2022.2.4,59.866509671740715,
1000,1,0.0,4.9,1,0,76,76,76,,,,,251.60749090003083,252.25813210004708,252.25813210004708,252.75913310004398,45,45,252.75913310004398,252.75913310004398,252.75913310004398,252.75913310004398,252.75913310004398,252.75913310004398,252.75913310004398,252.75913310004398,252.75913310004398,253.12570440000854,253.12570440000854,253.12570440000854,253.12570440000854,253.12570440000854,253.12570440000854,253.12570440000854,253.12570440000854,253.12570440000854,23,0,,,253.12570440000854,253.32808290002868,1000,253.32808290002868,1000,1000,1000,1000,1,num_2,0.6965445000096224,,26,2,2026-03-05_10h24.16.789,2026A_exp2,2022.2.4,59.866509671740715,
1000,1,0.0,4.9,1,0,77,77,31,,,,,254.0431144000031,254.69387160002952,254.69387160002952,255.19475790002616,315,45,255.19475790002616,255.19475790002616,255.19475790002616,255.19475790002616,255.19475790002616,255.19475790002616,255.19475790002616,255.19475790002616,255.19475790002616,255.56143850000808,255.56143850000808,255.56143850000808,255.56143850000808,255.56143850000808,255.56143850000808,255.56143850000808,255.56143850000808,255.56143850000808,15,6,"[0.0011118000256828964, 0.05052610003622249, 0.11761750001460314, 0.15074480004841462, 0.2008044000249356, 0.2341768000042066]","[0.03394040005514398, 0.08402540005045012, 0.13427360000787303, 0.16754100000252947, 0.21753070002887398, 0.25096850004047155]",255.56143850000808,255.76333899999736,1000,255.76333899999736,1000,1000,1000,1000,1,num_2,0.5420299000106752,,26,2,2026-03-05_10h24.16.789,2026A_exp2,2022.2.4,59.866509671740715,
1000,1,4.9,0.0,0,0,78,78,54,,,,,256.3287907000049,256.97951890004333,256.97951890004333,257.48567030002596,45,45,257.48567030002596,257.48567030002596,257.48567030002596,257.48567030002596,257.48567030002596,257.48567030002596,257.48567030002596,257.48567030002596,257.48567030002596,257.83038930001203,257.83038930001203,257.83038930001203,257.83038930001203,257.83038930001203,257.83038930001203,257.83038930001203,257.83038930001203,257.83038930001203,22,0,,,257.83038930001203,258.03292440000223,1000,258.04730279999785,1000,1000,1000,1000,0,num_3,0.4175180000020191,,26,2,2026-03-05_10h24.16.789,2026A_exp2,2022.2.4,59.866509671740715,
1000,1,0.0,3.7,1,0,79,79,47,,,,,258.48087950004265,259.13156920002075,259.13156920002075,259.63267110002926,315,45,259.63267110002926,259.63267110002926,259.63267110002926,259.63267110002926,259.63267110002926,259.63267110002926,259.63267110002926,259.63267110002926,259.63267110002926,259.9824855000479,259.9824855000479,259.9824855000479,259.9824855000479,259.9824855000479,259.9824855000479,259.9824855000479,259.9824855000479,259.9824855000479,22,0,,,259.9824855000479,260.1843311000266,1000,260.1995575000183,1000,1000,1000,1000,1,num_2,0.4892208999954164,,26,2,2026-03-05_10h24.16.789,2026A_exp2,2022.2.4,59.866509671740715,
1,0,0.0,0.0,0,0,80,80,1,,,,,260.7165775000467,261.3671652000048,261.3671652000048,261.8684729000088,45,315,261.8684729000088,261.8684729000088,261.8684729000088,261.8684729000088,261.8684729000088,261.8684729000088,261.8684729000088,261.8684729000088,261.8684729000088,262.2347201000084,262.2347201000084,262.2347201000084,262.2347201000084,262.2347201000084,262.2347201000084,262.2347201000084,262.2347201000084,262.2347201000084,23,0,,,262.2347201000084,262.4349127000314,0.0,262.4349127000314,1,0.0,0,0,1000,num_4,1.0057063999702223,,26,2,2026-03-05_10h24.16.789,2026A_exp2,2022.2.4,59.866509671740715,
1000,1,0.0,4.9,1,0,81,81,59,,,,,263.46930019999854,264.1033208000008,264.1033208000008,264.6043780000182,45,45,264.6043780000182,264.6043780000182,264.6043780000182,264.6043780000182,264.6043780000182,264.6043780000182,264.6043780000182,264.6043780000182,264.6043780000182,264.9708522000001,264.9708522000001,264.9708522000001,264.9708522000001,264.9708522000001,264.9708522000001,264.9708522000001,264.9708522000001,264.9708522000001,23,0,,,264.9708522000001,265.1721863000421,1000,265.1721863000421,1000,1000,1000,1000,1,num_2,0.44529880001209676,,26,2,2026-03-05_10h24.16.789,2026A_exp2,2022.2.4,59.866509671740715,
0,0,4.9,0.0,1,0,82,82,25,,,,,265.6380546000437,266.28889650001656,266.28889650001656,266.7897957999958,315,45,266.7897957999958,266.7897957999958,266.7897957999958,266.7897957999958,266.7897957999958,266.7897957999958,266.7897957999958,266.7897957999958,266.7897957999958,267.1563848000369,267.1563848000369,267.1563848000369,267.1563848000369,267.1563848000369,267.1563848000369,267.1563848000369,267.1563848000369,267.1563848000369,23,0,,,267.1563848000369,267.3563914000406,4.9,267.3563914000406,1,4.9,1,1,1000,num_4,1.3168030000524595,,26,2,2026-03-05_10h24.16.789,2026A_exp2,2022.2.4,59.866509671740715,
1000,1,3.7,0.0,0,0,83,83,45,,,,,268.6910543999984,269.34188730001915,269.34188730001915,269.84283870004583,315,315,269.84283870004583,269.84283870004583,269.84283870004583,269.84283870004583,269.84283870004583,269.84283870004583,269.84283870004583,269.84283870004583,269.84283870004583,270.19268600002397,270.19268600002397,270.19268600002397,270.19268600002397,270.19268600002397,270.19268600002397,270.19268600002397,270.19268600002397,270.19268600002397,22,0,,,270.19268600002397,270.39478880004026,1000,270.39478880004026,1000,1000,1000,1000,0,num_3,0.5986494999960996,,26,2,2026-03-05_10h24.16.789,2026A_exp2,2022.2.4,59.866509671740715,
1000,1,0.0,0.0,0,0,84,84,74,,,,,271.01007780001964,271.6609043000499,271.6609043000499,272.16191439999966,45,315,272.16191439999966,272.16191439999966,272.16191439999966,272.16191439999966,272.16191439999966,272.16191439999966,272.16191439999966,272.16191439999966,272.16191439999966,272.52827740000794,272.52827740000794,272.52827740000794,272.52827740000794,272.52827740000794,272.52827740000794,272.52827740000794,272.52827740000794,272.52827740000794,5,1,[0.0008507000165991485],[0.30048810003791004],272.52827740000794,272.7302890000283,1000,272.7302890000283,1000,1000,1000,1000,0,num_3,0.5749762000050396,,26,2,2026-03-05_10h24.16.789,2026A_exp2,2022.2.4,59.866509671740715,
1,0,0.0,0.0,0,0,85,85,63,,,,,273.32915830001,273.9799847000395,273.9799847000395,274.48061150003923,315,45,274.48061150003923,274.48061150003923,274.48061150003923,274.48061150003923,274.48061150003923,274.48061150003923,274.48061150003923,274.48061150003923,274.48061150003923,274.84731690003537,274.84731690003537,274.84731690003537,274.84731690003537,274.84731690003537,274.84731690003537,274.84731690003537,274.84731690003537,274.84731690003537,11,5,"[0.0009759999811649323, 0.15032709995284677, 0.20015549997333437, 0.266369599965401, 0.31647909997263923]","[0.10002889996394515, 0.1671100999810733, 0.21720579999964684, 0.29983679996803403, 0.3498219999601133]",274.84731690003537,275.0476384999929,0.0,275.0476384999929,1,0.0,0,0,1000,num_4,0.929452600015793,,26,2,2026-03-05_10h24.16.789,2026A_exp2,2022.2.4,59.866509671740715,
1000,1,0.0,0.0,0,0,86,86,85,,,,,275.99833190004574,276.632452299993,276.632452299993,277.1335113000241,45,315,277.1335113000241,277.1335113000241,277.1335113000241,277.1335113000241,277.1335113000241,277.1335113000241,277.1335113000241,277.1335113000241,277.1335113000241,277.5000746000442,277.5000746000442,277.5000746000442,277.5000746000442,277.5000746000442,277.5000746000442,277.5000746000442,277.5000746000442,277.5000746000442,15,3,"[0.08376649999991059, 0.20042170002125204, 0.3172088999999687]","[0.11699020001105964, 0.2504240999696776, 0.36713999998755753]",277.5000746000442,277.70197690004716,1000,277.70197690004716,1000,1000,1000,1000,0,num_3,0.6666182999615557,,26,2,2026-03-05_10h24.16.789,2026A_exp2,2022.2.4,59.866509671740715,
1000,1,0.0,6.1,1,0,87,87,62,,,,,278.3842573000002,279.0348404000397,279.0348404000397,279.536021500011,315,315,279.536021500011,279.536021500011,279.536021500011,279.536021500011,279.536021500011,279.536021500011,279.536021500011,279.536021500011,279.536021500011,279.90244630002417,279.90244630002417,279.90244630002417,279.90244630002417,279.90244630002417,279.90244630002417,279.90244630002417,279.90244630002417,279.90244630002417,23,0,,,279.90244630002417,280.1045049999957,1000,280.1045049999957,1000,1000,1000,1000,1,num_2,0.5525388999958523,,26,2,2026-03-05_10h24.16.789,2026A_exp2,2022.2.4,59.866509671740715,
1000,1,6.1,0.0,1,0,88,88,68,,,,,280.6864906999981,281.33723590004956,281.33723590004956,281.8380291000358,45,45,281.8380291000358,281.8380291000358,281.8380291000358,281.8380291000358,281.8380291000358,281.8380291000358,281.8380291000358,281.8380291000358,281.8380291000358,282.1880063000135,282.1880063000135,282.1880063000135,282.1880063000135,282.1880063000135,282.1880063000135,282.1880063000135,282.1880063000135,282.1880063000135,22,0,,,282.1880063000135,282.38998840004206,1000,282.4049573999946,1000,1000,1000,1000,0,num_3,0.4603261999436654,,26,2,2026-03-05_10h24.16.789,2026A_exp2,2022.2.4,59.866509671740715,
1,0,0.0,6.1,0,0,89,89,11,,,,,282.88864690001355,283.53922960005,283.53922960005,284.04050740000093,315,315,284.04050740000093,284.04050740000093,284.04050740000093,284.04050740000093,284.04050740000093,284.04050740000093,284.04050740000093,284.04050740000093,284.04050740000093,284.4067957000225,284.4067957000225,284.4067957000225,284.4067957000225,284.4067957000225,284.4067957000225,284.4067957000225,284.4067957000225,284.4067957000225,23,0,,,284.4067957000225,284.6071106000454,0.0,284.6071106000454,0,0.0,0,1,1000,num_1,0.8335168000194244,,26,2,2026-03-05_10h24.16.789,2026A_exp2,2022.2.4,59.866509671740715,
,,,,,,,,,,,,,,,,,,,,,,,,,,,,,,,,,,,,,,,,,,,,,,,,,,,,285.46621620003134,,,,,,,
