validity,detectorcomp,contrastCW,contrastCCW,precueCWorCCW,block_80trials.thisRepN,block_80trials.thisTrialN,block_80trials.thisN,block_80trials.thisIndex,etRecord.started,etRecord.stopped,text.started,text.stopped,text_4.started,text_4.stopped,text_6.started,text_6.stopped,oriCW,oriCCW,roi_2.started,grating_UR.started,grating_UL.started,grating_LR.started,grating_LL.started,noise_UR.started,noise_UL.started,noise_LR.started,noise_LL.started,roi_2.stopped,grating_UR.stopped,grating_UL.stopped,grating_LR.stopped,grating_LL.stopped,noise_UR.stopped,noise_UL.stopped,noise_LR.stopped,noise_LL.stopped,outframe,roi_2.numLooks,roi_2.timesOn,roi_2.timesOff,text_2.started,text_2.stopped,probedcontrast,key_resp.started,respdetect,relevantContrast,correctDetect,TorFdetect,respCWorCCW,key_resp.keys,key_resp.rt,feedback_display_.started,participantNo,blockNo,date,expName,psychopyVersion,frameRate,
1,0,0.0,0.0,0,0,0,0,2,4.8600020818412304e-05,4.8600020818412304e-05,46.00051630003145,48.00283340003807,48.00283340003807,48.63668620004319,48.63668620004319,49.157991800049786,315,315,49.157991800049786,49.157991800049786,49.157991800049786,49.157991800049786,49.157991800049786,49.157991800049786,49.157991800049786,49.157991800049786,49.157991800049786,49.50411790004,49.50411790004,49.50411790004,49.50411790004,49.50411790004,49.50411790004,49.50411790004,49.50411790004,49.50411790004,23,0,,,49.50411790004,49.70428120001452,0.0,49.70428120001452,1,0.0,0,0,1000,num_4,0.7759373000008054,,26,11,2026-03-05_11h10.13.114,2026A_exp2,2022.2.4,59.92301092229048,
1,0,0.0,4.9,1,0,1,1,45,,,,,50.50511870003538,51.15572380000958,51.15572380000958,51.6401298000128,315,45,51.6401298000128,51.6401298000128,51.6401298000128,51.6401298000128,51.6401298000128,51.6401298000128,51.6401298000128,51.6401298000128,51.6401298000128,52.006581100053154,52.006581100053154,52.006581100053154,52.006581100053154,52.006581100053154,52.006581100053154,52.006581100053154,52.006581100053154,52.006581100053154,1,2,"[0.0012594999861903489, 0.30034060002071783]","[0.2836040999973193, 0.36727869999594986]",52.006581100053154,52.207009300007485,4.9,52.207009300007485,1,4.9,1,1,1000,num_4,0.6398171000182629,,26,11,2026-03-05_11h10.13.114,2026A_exp2,2022.2.4,59.92301092229048,
0,0,0.0,0.0,1,0,2,2,8,,,,,52.87419100000989,53.52472330001183,53.52472330001183,54.024016400042456,45,45,54.024016400042456,54.024016400042456,54.024016400042456,54.024016400042456,54.024016400042456,54.024016400042456,54.024016400042456,54.024016400042456,54.024016400042456,54.37567940005101,54.37567940005101,54.37567940005101,54.37567940005101,54.37567940005101,54.37567940005101,54.37567940005101,54.37567940005101,54.37567940005101,23,0,,,54.37567940005101,54.57968390005408,0.0,54.57968390005408,1,0.0,0,0,1000,num_4,0.8919774999958463,,26,11,2026-03-05_11h10.13.114,2026A_exp2,2022.2.4,59.92301092229048,
0,0,0.0,3.7,1,0,3,3,21,,,,,55.49355870002182,56.14417880005203,56.14417880005203,56.628386199998204,315,45,56.628386199998204,56.628386199998204,56.628386199998204,56.628386199998204,56.628386199998204,56.628386199998204,56.628386199998204,56.628386199998204,56.628386199998204,56.99486670002807,56.99486670002807,56.99486670002807,56.99486670002807,56.99486670002807,56.99486670002807,56.99486670002807,56.99486670002807,56.99486670002807,7,3,"[0.0012176000163890421, 0.18379300000378862, 0.2669840999878943]","[0.16712870000628754, 0.21694850001949817, 0.33370319998357445]",56.99486670002807,57.19515860005049,0.0,57.19515860005049,0,0.0,0,1,1000,num_1,1.1236378999892622,,26,11,2026-03-05_11h10.13.114,2026A_exp2,2022.2.4,59.92301092229048,
1,0,0.0,0.0,1,0,4,4,37,,,,,58.34616170002846,58.996592200011946,58.996592200011946,59.481409700005315,45,45,59.481409700005315,59.481409700005315,59.481409700005315,59.481409700005315,59.481409700005315,59.481409700005315,59.481409700005315,59.481409700005315,59.481409700005315,59.84782120003365,59.84782120003365,59.84782120003365,59.84782120003365,59.84782120003365,59.84782120003365,59.84782120003365,59.84782120003365,59.84782120003365,0,1,[0.0012014000094495714],[0.36739420000230893],59.84782120003365,60.04789480002364,0.0,60.04789480002364,0,0.0,0,1,1000,num_1,0.7997360999579541,,26,11,2026-03-05_11h10.13.114,2026A_exp2,2022.2.4,59.92301092229048,
1000,1,0.0,3.7,1,0,5,5,80,,,,,60.86557400005404,61.516172000032384,61.516172000032384,62.000607100024354,45,45,62.000607100024354,62.000607100024354,62.000607100024354,62.000607100024354,62.000607100024354,62.000607100024354,62.000607100024354,62.000607100024354,62.000607100024354,62.36705440003425,62.36705440003425,62.36705440003425,62.36705440003425,62.36705440003425,62.36705440003425,62.36705440003425,62.36705440003425,62.36705440003425,23,0,,,62.36705440003425,62.567008100042585,1000,62.567008100042585,1000,1000,1000,1000,1,num_2,0.8482616000110283,,26,11,2026-03-05_11h10.13.114,2026A_exp2,2022.2.4,59.92301092229048,
1,0,0.0,3.7,0,0,6,6,12,,,,,63.43463350000093,64.08530120004434,64.08530120004434,64.57156160002341,45,45,64.57156160002341,64.57156160002341,64.57156160002341,64.57156160002341,64.57156160002341,64.57156160002341,64.57156160002341,64.57156160002341,64.57156160002341,64.93739980005194,64.93739980005194,64.93739980005194,64.93739980005194,64.93739980005194,64.93739980005194,64.93739980005194,64.93739980005194,64.93739980005194,23,0,,,64.93739980005194,65.13673310005106,0.0,65.13673310005106,1,0.0,0,0,1000,num_4,0.870800299977418,,26,11,2026-03-05_11h10.13.114,2026A_exp2,2022.2.4,59.92301092229048,
1,0,0.0,0.0,0,0,7,7,59,,,,,66.03775499999756,66.6727226000512,66.6727226000512,67.17238090001047,45,45,67.17238090001047,67.17238090001047,67.17238090001047,67.17238090001047,67.17238090001047,67.17238090001047,67.17238090001047,67.17238090001047,67.17238090001047,67.53865020000376,67.53865020000376,67.53865020000376,67.53865020000376,67.53865020000376,67.53865020000376,67.53865020000376,67.53865020000376,67.53865020000376,23,0,,,67.53865020000376,67.73860720003722,0.0,67.73860720003722,1,0.0,0,0,1000,num_4,1.7403651000349782,,26,11,2026-03-05_11h10.13.114,2026A_exp2,2022.2.4,59.92301092229048,
1,0,0.0,0.0,1,0,8,8,18,,,,,69.50710250000702,70.14908699999796,70.14908699999796,70.64251200004946,315,45,70.64251200004946,70.64251200004946,70.64251200004946,70.64251200004946,70.64251200004946,70.64251200004946,70.64251200004946,70.64251200004946,70.64251200004946,71.00901840004371,71.00901840004371,71.00901840004371,71.00901840004371,71.00901840004371,71.00901840004371,71.00901840004371,71.00901840004371,71.00901840004371,23,0,,,71.00901840004371,71.20913610002026,0.0,71.20913610002026,1,0.0,0,0,1000,num_4,0.558962800016161,,26,11,2026-03-05_11h10.13.114,2026A_exp2,2022.2.4,59.92301092229048,
1,0,4.9,0.0,1,0,9,9,84,,,,,71.7929905000492,72.44379640003899,72.44379640003899,72.92823680001311,45,45,72.92823680001311,72.92823680001311,72.92823680001311,72.92823680001311,72.92823680001311,72.92823680001311,72.92823680001311,72.92823680001311,72.92823680001311,73.29475250001997,73.29475250001997,73.29475250001997,73.29475250001997,73.29475250001997,73.29475250001997,73.29475250001997,73.29475250001997,73.29475250001997,23,0,,,73.29475250001997,73.4948335000081,0.0,73.4948335000081,0,0.0,0,1,1000,num_1,0.6801206999807619,,26,11,2026-03-05_11h10.13.114,2026A_exp2,2022.2.4,59.92301092229048,
0,0,4.9,0.0,0,0,10,10,30,,,,,74.19552960002329,74.846201700042,74.846201700042,75.3304978000233,315,45,75.3304978000233,75.3304978000233,75.3304978000233,75.3304978000233,75.3304978000233,75.3304978000233,75.3304978000233,75.3304978000233,75.3304978000233,75.69672070001252,75.69672070001252,75.69672070001252,75.69672070001252,75.69672070001252,75.69672070001252,75.69672070001252,75.69672070001252,75.69672070001252,23,0,,,75.69672070001252,75.89727630000561,0.0,75.89727630000561,0,0.0,0,1,1000,num_1,0.8066428999882191,,26,11,2026-03-05_11h10.13.114,2026A_exp2,2022.2.4,59.92301092229048,
1000,1,6.1,0.0,0,0,11,11,33,,,,,76.7312439000234,77.36541880003642,77.36541880003642,77.8664667000412,315,315,77.8664667000412,77.8664667000412,77.8664667000412,77.8664667000412,77.8664667000412,77.8664667000412,77.8664667000412,77.8664667000412,77.8664667000412,78.23272030003136,78.23272030003136,78.23272030003136,78.23272030003136,78.23272030003136,78.23272030003136,78.23272030003136,78.23272030003136,78.23272030003136,23,0,,,78.23272030003136,78.43495409999741,1000,78.43495409999741,1000,1000,1000,1000,0,num_3,0.6358656999655068,,26,11,2026-03-05_11h10.13.114,2026A_exp2,2022.2.4,59.92301092229048,
1,0,4.9,6.1,1,0,12,12,46,,,,,79.10062260000268,79.7342203000444,79.7342203000444,80.23553250002442,315,315,80.23553250002442,80.23553250002442,80.23553250002442,80.23553250002442,80.23553250002442,80.23553250002442,80.23553250002442,80.23553250002442,80.23553250002442,80.60191030002898,80.60191030002898,80.60191030002898,80.60191030002898,80.60191030002898,80.60191030002898,80.60191030002898,80.60191030002898,80.60191030002898,23,0,,,80.60191030002898,80.80231900000945,6.1,80.80231900000945,1,6.1,1,1,1000,num_4,0.5011599999852479,,26,11,2026-03-05_11h10.13.114,2026A_exp2,2022.2.4,59.92301092229048,
1,0,6.1,0.0,0,0,13,13,50,,,,,81.3209446000401,81.97003090003273,81.97003090003273,82.47103360004257,45,315,82.47103360004257,82.47103360004257,82.47103360004257,82.47103360004257,82.47103360004257,82.47103360004257,82.47103360004257,82.47103360004257,82.47103360004257,82.8374231000198,82.8374231000198,82.8374231000198,82.8374231000198,82.8374231000198,82.8374231000198,82.8374231000198,82.8374231000198,82.8374231000198,23,0,,,82.8374231000198,83.03774090000661,6.1,83.03774090000661,1,6.1,1,1,1000,num_4,0.8424320000340231,,26,11,2026-03-05_11h10.13.114,2026A_exp2,2022.2.4,59.92301092229048,
1,0,0.0,3.7,0,0,14,14,78,,,,,83.90507390000857,84.55587110004853,84.55587110004853,85.04032470000675,45,45,85.04032470000675,85.04032470000675,85.04032470000675,85.04032470000675,85.04032470000675,85.04032470000675,85.04032470000675,85.04032470000675,85.04032470000675,85.40669380000327,85.40669380000327,85.40669380000327,85.40669380000327,85.40669380000327,85.40669380000327,85.40669380000327,85.40669380000327,85.40669380000327,23,0,,,85.40669380000327,85.60693560005166,0.0,85.60693560005166,1,0.0,0,0,1000,num_4,0.6646888999966905,,26,11,2026-03-05_11h10.13.114,2026A_exp2,2022.2.4,59.92301092229048,
1,0,0.0,4.9,0,0,15,15,85,,,,,86.29083780001383,86.94147730001714,86.94147730001714,87.42611570004374,45,315,87.42611570004374,87.42611570004374,87.42611570004374,87.42611570004374,87.42611570004374,87.42611570004374,87.42611570004374,87.42611570004374,87.42611570004374,87.7924469000427,87.7924469000427,87.7924469000427,87.7924469000427,87.7924469000427,87.7924469000427,87.7924469000427,87.7924469000427,87.7924469000427,23,0,,,87.7924469000427,87.99258640001062,0.0,87.99258640001062,0,0.0,0,1,1000,num_1,0.7186790999840014,,26,11,2026-03-05_11h10.13.114,2026A_exp2,2022.2.4,59.92301092229048,
1,0,0.0,6.1,0,0,16,16,5,,,,,88.74343600001885,89.39368960005231,89.39368960005231,89.88630810001632,45,315,89.88630810001632,89.88630810001632,89.88630810001632,89.88630810001632,89.88630810001632,89.88630810001632,89.88630810001632,89.88630810001632,89.88630810001632,90.24495990003925,90.24495990003925,90.24495990003925,90.24495990003925,90.24495990003925,90.24495990003925,90.24495990003925,90.24495990003925,90.24495990003925,23,0,,,90.24495990003925,90.44510290003382,0.0,90.44510290003382,0,0.0,0,1,1000,num_1,0.7064742999500595,,26,11,2026-03-05_11h10.13.114,2026A_exp2,2022.2.4,59.92301092229048,
1000,1,6.1,0.0,0,0,17,17,19,,,,,91.17993350001052,91.82973100000527,91.82973100000527,92.33078460005345,315,45,92.33078460005345,92.33078460005345,92.33078460005345,92.33078460005345,92.33078460005345,92.33078460005345,92.33078460005345,92.33078460005345,92.33078460005345,92.69727360003162,92.69727360003162,92.69727360003162,92.69727360003162,92.69727360003162,92.69727360003162,92.69727360003162,92.69727360003162,92.69727360003162,23,0,,,92.69727360003162,92.89895280002384,1000,92.89895280002384,1000,1000,1000,1000,0,num_3,0.6040019000065513,,26,11,2026-03-05_11h10.13.114,2026A_exp2,2022.2.4,59.92301092229048,
1,0,0.0,0.0,1,0,18,18,70,,,,,93.53140200005146,94.18219150003279,94.18219150003279,94.68320400000084,45,315,94.68320400000084,94.68320400000084,94.68320400000084,94.68320400000084,94.68320400000084,94.68320400000084,94.68320400000084,94.68320400000084,94.68320400000084,95.03298910002923,95.03298910002923,95.03298910002923,95.03298910002923,95.03298910002923,95.03298910002923,95.03298910002923,95.03298910002923,95.03298910002923,22,0,,,95.03298910002923,95.2332550000283,0.0,95.2332550000283,1,0.0,0,0,1000,num_4,0.9108324999688193,,26,11,2026-03-05_11h10.13.114,2026A_exp2,2022.2.4,59.92301092229048,
1,0,4.9,0.0,0,0,19,19,48,,,,,96.16747190000024,96.8181048000115,96.8181048000115,97.30259160004789,45,315,97.30259160004789,97.30259160004789,97.30259160004789,97.30259160004789,97.30259160004789,97.30259160004789,97.30259160004789,97.30259160004789,97.30259160004789,97.66896060004365,97.66896060004365,97.66896060004365,97.66896060004365,97.66896060004365,97.66896060004365,97.66896060004365,97.66896060004365,97.66896060004365,23,0,,,97.66896060004365,97.86918290000176,4.9,97.86918290000176,1,4.9,1,1,1000,num_4,0.7537668999866582,,26,11,2026-03-05_11h10.13.114,2026A_exp2,2022.2.4,59.92301092229048,
0,0,3.7,4.9,1,0,20,20,3,,,,,98.65310350002255,99.3038187000202,99.3038187000202,99.78833940002369,45,315,99.78833940002369,99.78833940002369,99.78833940002369,99.78833940002369,99.78833940002369,99.78833940002369,99.78833940002369,99.78833940002369,99.78833940002369,100.15491830004612,100.15491830004612,100.15491830004612,100.15491830004612,100.15491830004612,100.15491830004612,100.15491830004612,100.15491830004612,100.15491830004612,23,0,,,100.15491830004612,100.3550641000038,3.7,100.3550641000038,1,3.7,1,1,1000,num_4,0.21986610000021756,,26,11,2026-03-05_11h10.13.114,2026A_exp2,2022.2.4,59.92301092229048,
1,0,3.7,4.9,1,0,21,21,39,,,,,100.60508310003206,101.25582830002531,101.25582830002531,101.7403040000354,315,45,101.7403040000354,101.7403040000354,101.7403040000354,101.7403040000354,101.7403040000354,101.7403040000354,101.7403040000354,101.7403040000354,101.7403040000354,102.10675020003691,102.10675020003691,102.10675020003691,102.10675020003691,102.10675020003691,102.10675020003691,102.10675020003691,102.10675020003691,102.10675020003691,23,0,,,102.10675020003691,102.30709510005545,4.9,102.30709510005545,0,4.9,1,0,1000,num_1,1.8839946999796666,,26,11,2026-03-05_11h10.13.114,2026A_exp2,2022.2.4,59.92301092229048,
1000,1,6.1,0.0,1,0,22,22,60,,,,,104.20889250002801,104.85958230000688,104.85958230000688,105.34399810002651,45,315,105.34399810002651,105.34399810002651,105.34399810002651,105.34399810002651,105.34399810002651,105.34399810002651,105.34399810002651,105.34399810002651,105.34399810002651,105.71013880003011,105.71013880003011,105.71013880003011,105.71013880003011,105.71013880003011,105.71013880003011,105.71013880003011,105.71013880003011,105.71013880003011,23,0,,,105.71013880003011,105.91242700000294,1000,105.91242700000294,1000,1000,1000,1000,0,num_3,0.5755623000441119,,26,11,2026-03-05_11h10.13.114,2026A_exp2,2022.2.4,59.92301092229048,
1,0,4.9,0.0,1,0,23,23,6,,,,,106.51107730000513,107.16197539999848,107.16197539999848,107.6628209000337,45,315,107.6628209000337,107.6628209000337,107.6628209000337,107.6628209000337,107.6628209000337,107.6628209000337,107.6628209000337,107.6628209000337,107.6628209000337,108.01273850002326,108.01273850002326,108.01273850002326,108.01273850002326,108.01273850002326,108.01273850002326,108.01273850002326,108.01273850002326,108.01273850002326,22,0,,,108.01273850002326,108.21301360003417,0.0,108.22957220004173,0,0.0,0,1,1000,num_1,0.6982814999646507,,26,11,2026-03-05_11h10.13.114,2026A_exp2,2022.2.4,59.92301092229048,
1000,1,4.9,6.1,1,0,24,24,1,,,,,108.9468390000402,109.59747530001914,109.59747530001914,110.08196370000951,45,45,110.08196370000951,110.08196370000951,110.08196370000951,110.08196370000951,110.08196370000951,110.08196370000951,110.08196370000951,110.08196370000951,110.08196370000951,110.44845860003261,110.44845860003261,110.44845860003261,110.44845860003261,110.44845860003261,110.44845860003261,110.44845860003261,110.44845860003261,110.44845860003261,0,1,[0.0012377999955788255],[0.367189500015229],110.44845860003261,110.65048180002486,1000,110.65048180002486,1000,1000,1000,1000,0,num_3,0.6125254000071436,,26,11,2026-03-05_11h10.13.114,2026A_exp2,2022.2.4,59.92301092229048,
1000,1,4.9,0.0,0,0,25,25,22,,,,,111.28252130001783,111.93310660001589,111.93310660001589,112.45030720002251,315,315,112.45030720002251,112.45030720002251,112.45030720002251,112.45030720002251,112.45030720002251,112.45030720002251,112.45030720002251,112.45030720002251,112.45030720002251,112.80085430003237,112.80085430003237,112.80085430003237,112.80085430003237,112.80085430003237,112.80085430003237,112.80085430003237,112.80085430003237,112.80085430003237,23,0,,,112.80085430003237,113.00841010001022,1000,113.00841010001022,1000,1000,1000,1000,0,num_3,0.38278789998730645,,26,11,2026-03-05_11h10.13.114,2026A_exp2,2022.2.4,59.92301092229048,
1,0,4.9,4.9,1,0,26,26,89,,,,,113.4182707000291,114.06869370001368,114.06869370001368,114.55315180000616,315,315,114.55315180000616,114.55315180000616,114.55315180000616,114.55315180000616,114.55315180000616,114.55315180000616,114.55315180000616,114.55315180000616,114.55315180000616,114.91955780005082,114.91955780005082,114.91955780005082,114.91955780005082,114.91955780005082,114.91955780005082,114.91955780005082,114.91955780005082,114.91955780005082,22,1,[0.03353760001482442],[0.05020830000285059],114.91955780005082,115.1198317000526,4.9,115.1198317000526,1,4.9,1,1,1000,num_4,0.9357065000222065,,26,11,2026-03-05_11h10.13.114,2026A_exp2,2022.2.4,59.92301092229048,
1000,1,0.0,0.0,0,0,27,27,65,,,,,116.0873970000539,116.73813780001365,116.73813780001365,117.2225318000419,45,315,117.2225318000419,117.2225318000419,117.2225318000419,117.2225318000419,117.2225318000419,117.2225318000419,117.2225318000419,117.2225318000419,117.2225318000419,117.58883420005441,117.58883420005441,117.58883420005441,117.58883420005441,117.58883420005441,117.58883420005441,117.58883420005441,117.58883420005441,117.58883420005441,22,1,[0.317157200013753],[0.3339642000501044],117.58883420005441,117.79112370003713,1000,117.79112370003713,1000,1000,1000,1000,0,num_3,0.3932615999947302,,26,11,2026-03-05_11h10.13.114,2026A_exp2,2022.2.4,59.92301092229048,
1000,1,0.0,3.7,0,0,28,28,44,,,,,118.2059824000462,118.85683180001797,118.85683180001797,119.35779280000133,45,315,119.35779280000133,119.35779280000133,119.35779280000133,119.35779280000133,119.35779280000133,119.35779280000133,119.35779280000133,119.35779280000133,119.35779280000133,119.724359200045,119.724359200045,119.724359200045,119.724359200045,119.724359200045,119.724359200045,119.724359200045,119.724359200045,119.724359200045,20,2,"[0.3171343000140041, 0.36711839999770746]","[0.3504191000247374, 0.3671230000327341]",119.724359200045,119.92656370002078,1000,119.92656370002078,1000,1000,1000,1000,1,num_2,0.4249001999851316,,26,11,2026-03-05_11h10.13.114,2026A_exp2,2022.2.4,59.92301092229048,
1,0,0.0,0.0,0,0,29,29,64,,,,,120.3748872000142,121.02565130003495,121.02565130003495,121.52681200002553,315,315,121.52681200002553,121.52681200002553,121.52681200002553,121.52681200002553,121.52681200002553,121.52681200002553,121.52681200002553,121.52681200002553,121.52681200002553,121.89312090002932,121.89312090002932,121.89312090002932,121.89312090002932,121.89312090002932,121.89312090002932,121.89312090002932,121.89312090002932,121.89312090002932,23,0,,,121.89312090002932,122.09325309999986,0.0,122.09325309999986,1,0.0,0,0,1000,num_4,1.7063189999898896,,26,11,2026-03-05_11h10.13.114,2026A_exp2,2022.2.4,59.92301092229048,
1000,1,0.0,4.9,0,0,30,30,77,,,,,123.82840530003887,124.47932990000118,124.47932990000118,124.96370390005177,315,315,124.96370390005177,124.96370390005177,124.96370390005177,124.96370390005177,124.96370390005177,124.96370390005177,124.96370390005177,124.96370390005177,124.96370390005177,125.32991150004091,125.32991150004091,125.32991150004091,125.32991150004091,125.32991150004091,125.32991150004091,125.32991150004091,125.32991150004091,125.32991150004091,23,0,,,125.32991150004091,125.53198369999882,1000,125.53198369999882,1000,1000,1000,1000,1,num_2,0.3318219999782741,,26,11,2026-03-05_11h10.13.114,2026A_exp2,2022.2.4,59.92301092229048,
1000,1,6.1,3.7,0,0,31,31,87,,,,,125.880550700007,126.53102630004287,126.53102630004287,127.03227190003963,45,45,127.03227190003963,127.03227190003963,127.03227190003963,127.03227190003963,127.03227190003963,127.03227190003963,127.03227190003963,127.03227190003963,127.03227190003963,127.39873630000511,127.39873630000511,127.39873630000511,127.39873630000511,127.39873630000511,127.39873630000511,127.39873630000511,127.39873630000511,127.39873630000511,0,1,[0.001539000018965453],[0.366896599996835],127.39873630000511,127.6005980000482,1000,127.6005980000482,1000,1000,1000,1000,0,num_3,0.31956430000718683,,26,11,2026-03-05_11h10.13.114,2026A_exp2,2022.2.4,59.92301092229048,
1,0,4.9,4.9,0,0,32,32,63,,,,,127.94913680001628,128.59986980003305,128.59986980003305,129.1010303000221,315,45,129.1010303000221,129.1010303000221,129.1010303000221,129.1010303000221,129.1010303000221,129.1010303000221,129.1010303000221,129.1010303000221,129.1010303000221,129.46746110002277,129.46746110002277,129.46746110002277,129.46746110002277,129.46746110002277,129.46746110002277,129.46746110002277,129.46746110002277,129.46746110002277,19,4,"[0.1166541000129655, 0.16667240002425388, 0.2499699000036344, 0.2832820999901742]","[0.13331410003593192, 0.18326299998443574, 0.2667368000256829, 0.3000563000096008]",129.46746110002277,129.6676254000049,4.9,129.6676254000049,1,4.9,1,1,1000,num_4,0.7886346000013873,,26,11,2026-03-05_11h10.13.114,2026A_exp2,2022.2.4,59.92301092229048,
1,0,4.9,0.0,1,0,33,33,4,,,,,130.48496940004406,131.1358272000216,131.1358272000216,131.6201054000412,315,315,131.6201054000412,131.6201054000412,131.6201054000412,131.6201054000412,131.6201054000412,131.6201054000412,131.6201054000412,131.6201054000412,131.6201054000412,131.98670610005502,131.98670610005502,131.98670610005502,131.98670610005502,131.98670610005502,131.98670610005502,131.98670610005502,131.98670610005502,131.98670610005502,12,7,"[0.0012818000395782292, 0.033479300036560744, 0.2167913000448607, 0.25044530001468956, 0.2837990000261925, 0.31731400004355237, 0.3672385000390932]","[0.017456900037359446, 0.10025560000212863, 0.23349270003382117, 0.26725910004461184, 0.30056689999764785, 0.35058630001731217, 0.3672433000174351]",131.98670610005502,132.18683980003698,0.0,132.18683980003698,0,0.0,0,1,1000,num_1,0.8288380999583751,,26,11,2026-03-05_11h10.13.114,2026A_exp2,2022.2.4,59.92301092229048,
1,0,0.0,0.0,1,0,34,34,73,,,,,133.03743130003568,133.68833140004426,133.68833140004426,134.17277930001728,45,315,134.17277930001728,134.17277930001728,134.17277930001728,134.17277930001728,134.17277930001728,134.17277930001728,134.17277930001728,134.17277930001728,134.17277930001728,134.53916560002835,134.53916560002835,134.53916560002835,134.53916560002835,134.53916560002835,134.53916560002835,134.53916560002835,134.53916560002835,134.53916560002835,0,1,[0.001331100007519126],[0.36724880000110716],134.53916560002835,134.73911240004236,0.0,134.73911240004236,1,0.0,0,0,1000,num_4,0.7399267999571748,,26,11,2026-03-05_11h10.13.114,2026A_exp2,2022.2.4,59.92301092229048,
0,0,0.0,0.0,1,0,35,35,62,,,,,135.5066361000063,136.1573602000135,136.1573602000135,136.6418351000175,315,315,136.6418351000175,136.6418351000175,136.6418351000175,136.6418351000175,136.6418351000175,136.6418351000175,136.6418351000175,136.6418351000175,136.6418351000175,137.00838900002418,137.00838900002418,137.00838900002418,137.00838900002418,137.00838900002418,137.00838900002418,137.00838900002418,137.00838900002418,137.00838900002418,0,1,[0.0012051999801769853],[0.36725439998554066],137.00838900002418,137.20847670000512,0.0,137.20847670000512,1,0.0,0,0,1000,num_4,1.0471767000271939,,26,11,2026-03-05_11h10.13.114,2026A_exp2,2022.2.4,59.92301092229048,
1000,1,6.1,3.7,1,0,36,36,10,,,,,138.27637450001203,138.92696950002573,138.92696950002573,139.411227900011,315,45,139.411227900011,139.411227900011,139.411227900011,139.411227900011,139.411227900011,139.411227900011,139.411227900011,139.411227900011,139.411227900011,139.77771540003596,139.77771540003596,139.77771540003596,139.77771540003596,139.77771540003596,139.77771540003596,139.77771540003596,139.77771540003596,139.77771540003596,0,1,[0.0012339000240899622],[0.3670298000215553],139.77771540003596,139.97975710005267,1000,139.97975710005267,1000,1000,1000,1000,0,num_3,0.43511119997128844,,26,11,2026-03-05_11h10.13.114,2026A_exp2,2022.2.4,59.92301092229048,
1,0,0.0,0.0,0,0,37,37,49,,,,,140.44508110004244,141.0958558000275,141.0958558000275,141.5968816000386,45,315,141.5968816000386,141.5968816000386,141.5968816000386,141.5968816000386,141.5968816000386,141.5968816000386,141.5968816000386,141.5968816000386,141.5968816000386,141.9632981000468,141.9632981000468,141.9632981000468,141.9632981000468,141.9632981000468,141.9632981000468,141.9632981000468,141.9632981000468,141.9632981000468,23,1,[0.017378600023221225],[0.03345570003148168],141.9632981000468,142.16348060005112,0.0,142.16348060005112,1,0.0,0,0,1000,num_4,0.9962830999866128,,26,11,2026-03-05_11h10.13.114,2026A_exp2,2022.2.4,59.92301092229048,
1,0,0.0,0.0,1,0,38,38,41,,,,,143.1810194000136,143.83181170001626,143.83181170001626,144.316120100033,315,315,144.316120100033,144.316120100033,144.316120100033,144.316120100033,144.316120100033,144.316120100033,144.316120100033,144.316120100033,144.316120100033,144.6826000000001,144.6826000000001,144.6826000000001,144.6826000000001,144.6826000000001,144.6826000000001,144.6826000000001,144.6826000000001,144.6826000000001,23,0,,,144.6826000000001,144.88273790001404,0.0,144.88273790001404,0,0.0,0,1,1000,num_1,2.3721690000384115,,26,11,2026-03-05_11h10.13.114,2026A_exp2,2022.2.4,59.92301092229048,
1000,1,0.0,4.9,1,0,39,39,51,,,,,147.28511220001383,147.93587350001326,147.93587350001326,148.42027070000768,315,315,148.42027070000768,148.42027070000768,148.42027070000768,148.42027070000768,148.42027070000768,148.42027070000768,148.42027070000768,148.42027070000768,148.42027070000768,148.78676080005243,148.78676080005243,148.78676080005243,148.78676080005243,148.78676080005243,148.78676080005243,148.78676080005243,148.78676080005243,148.78676080005243,23,0,,,148.78676080005243,148.98772150004515,1000,148.98772150004515,1000,1000,1000,1000,1,num_2,0.5723063999903388,,26,11,2026-03-05_11h10.13.114,2026A_exp2,2022.2.4,59.92301092229048,
1000,1,4.9,3.7,1,0,40,40,32,,,,,149.58752900001127,150.23823740001535,150.23823740001535,150.73936190002132,45,315,150.73936190002132,150.73936190002132,150.73936190002132,150.73936190002132,150.73936190002132,150.73936190002132,150.73936190002132,150.73936190002132,150.73936190002132,151.10563600005116,151.10563600005116,151.10563600005116,151.10563600005116,151.10563600005116,151.10563600005116,151.10563600005116,151.10563600005116,151.10563600005116,17,4,"[0.08352659997763112, 0.23369179997825995, 0.26729260000865906, 0.3335390000138432]","[0.10023839998757467, 0.25040409999201074, 0.2835759000154212, 0.36722469999222085]",151.10563600005116,151.30765600001905,1000,151.30765600001905,1000,1000,1000,1000,0,num_3,1.299539800034836,,26,11,2026-03-05_11h10.13.114,2026A_exp2,2022.2.4,59.92301092229048,
1000,1,3.7,0.0,1,0,41,41,79,,,,,152.6237654000288,153.27454920002492,153.27454920002492,153.77568280004198,45,45,153.77568280004198,153.77568280004198,153.77568280004198,153.77568280004198,153.77568280004198,153.77568280004198,153.77568280004198,153.77568280004198,153.77568280004198,154.14212410000619,154.14212410000619,154.14212410000619,154.14212410000619,154.14212410000619,154.14212410000619,154.14212410000619,154.14212410000619,154.14212410000619,2,2,"[0.001199499994982034, 0.15025489998515695]","[0.11701819999143481, 0.36724140000296757]",154.14212410000619,154.34424760000547,1000,154.34424760000547,1000,1000,1000,1000,0,num_3,0.4472400999511592,,26,11,2026-03-05_11h10.13.114,2026A_exp2,2022.2.4,59.92301092229048,
1,0,0.0,0.0,0,0,42,42,9,,,,,154.80956750002224,155.46012030000566,155.46012030000566,155.96108390000882,315,45,155.96108390000882,155.96108390000882,155.96108390000882,155.96108390000882,155.96108390000882,155.96108390000882,155.96108390000882,155.96108390000882,155.96108390000882,156.32766040001297,156.32766040001297,156.32766040001297,156.32766040001297,156.32766040001297,156.32766040001297,156.32766040001297,156.32766040001297,156.32766040001297,1,1,[0.017120499978773296],[0.36729149997700006],156.32766040001297,156.5277502000099,0.0,156.5277502000099,1,0.0,0,0,1000,num_4,0.695300999970641,,26,11,2026-03-05_11h10.13.114,2026A_exp2,2022.2.4,59.92301092229048,
0,0,3.7,0.0,1,0,43,43,83,,,,,157.2450356000336,157.89587400003802,157.89587400003802,158.38030710001476,315,315,158.38030710001476,158.38030710001476,158.38030710001476,158.38030710001476,158.38030710001476,158.38030710001476,158.38030710001476,158.38030710001476,158.38030710001476,158.74660260003293,158.74660260003293,158.74660260003293,158.74660260003293,158.74660260003293,158.74660260003293,158.74660260003293,158.74660260003293,158.74660260003293,16,4,"[0.06692350003868341, 0.1503186000045389, 0.2837835000245832, 0.36723350000102073]","[0.08352540002670139, 0.16685450001386926, 0.35047330002998933, 0.3672383000375703]",158.74660260003293,158.94683520001126,3.7,158.94683520001126,1,3.7,1,1,1000,num_4,0.6286873999633826,,26,11,2026-03-05_11h10.13.114,2026A_exp2,2022.2.4,59.92301092229048,
1,0,4.9,6.1,0,0,44,44,15,,,,,159.59740800003055,160.2482844000333,160.2482844000333,160.73257260001265,315,315,160.73257260001265,160.73257260001265,160.73257260001265,160.73257260001265,160.73257260001265,160.73257260001265,160.73257260001265,160.73257260001265,160.73257260001265,161.0988878000062,161.0988878000062,161.0988878000062,161.0988878000062,161.0988878000062,161.0988878000062,161.0988878000062,161.0988878000062,161.0988878000062,17,4,"[0.017336899996735156, 0.06703110004309565, 0.25037390005309135, 0.33381360000930727]","[0.05025180004304275, 0.0837218000087887, 0.26721320004435256, 0.36730320000788197]",161.0988878000062,161.29929550003726,4.9,161.29929550003726,0,4.9,1,0,1000,num_1,0.7799197999411263,,26,11,2026-03-05_11h10.13.114,2026A_exp2,2022.2.4,59.92301092229048,
1000,1,6.1,3.7,1,0,45,45,24,,,,,162.09990170004312,162.75068140000803,162.75068140000803,163.23509160004323,315,315,163.23509160004323,163.23509160004323,163.23509160004323,163.23509160004323,163.23509160004323,163.23509160004323,163.23509160004323,163.23509160004323,163.23509160004323,163.6014810000197,163.6014810000197,163.6014810000197,163.6014810000197,163.6014810000197,163.6014810000197,163.6014810000197,163.6014810000197,163.6014810000197,20,3,"[0.050444900000002235, 0.08388019999256358, 0.31732700002612546]","[0.06710320001002401, 0.10056079999776557, 0.33419630001299083]",163.6014810000197,163.80251000000862,1000,163.80251000000862,1000,1000,1000,1000,1,num_2,0.5326233000378124,,26,11,2026-03-05_11h10.13.114,2026A_exp2,2022.2.4,59.92301092229048,
1000,1,6.1,3.7,1,0,46,46,0,,,,,164.35219000000507,165.0029878000496,165.0029878000496,165.50400940002874,45,315,165.50400940002874,165.50400940002874,165.50400940002874,165.50400940002874,165.50400940002874,165.50400940002874,165.50400940002874,165.50400940002874,165.50400940002874,165.85387750004884,165.85387750004884,165.85387750004884,165.85387750004884,165.85387750004884,165.85387750004884,165.85387750004884,165.85387750004884,165.85387750004884,9,4,"[0.0172871999675408, 0.1334688999922946, 0.16691819997504354, 0.2169387000030838]","[0.03336429997580126, 0.15031230001477525, 0.20022509997943416, 0.3503762999898754]",165.85387750004884,166.05574500001967,1000,166.07092920003925,1000,1000,1000,1000,0,num_3,1.2323751999647357,,26,11,2026-03-05_11h10.13.114,2026A_exp2,2022.2.4,59.92301092229048,
1000,1,4.9,0.0,1,0,47,47,72,,,,,167.3220627999981,167.97269550000783,167.97269550000783,168.45688180002617,45,45,168.45688180002617,168.45688180002617,168.45688180002617,168.45688180002617,168.45688180002617,168.45688180002617,168.45688180002617,168.45688180002617,168.45688180002617,168.8234855000046,168.8234855000046,168.8234855000046,168.8234855000046,168.8234855000046,168.8234855000046,168.8234855000046,168.8234855000046,168.8234855000046,23,0,,,168.8234855000046,169.02559309999924,1000,169.02559309999924,1000,1000,1000,1000,0,num_3,0.39006999996490777,,26,11,2026-03-05_11h10.13.114,2026A_exp2,2022.2.4,59.92301092229048,
1000,1,0.0,3.7,0,0,48,48,52,,,,,169.44061270001112,170.091259000008,170.091259000008,170.59238010004628,45,45,170.59238010004628,170.59238010004628,170.59238010004628,170.59238010004628,170.59238010004628,170.59238010004628,170.59238010004628,170.59238010004628,170.59238010004628,170.94223270000657,170.94223270000657,170.94223270000657,170.94223270000657,170.94223270000657,170.94223270000657,170.94223270000657,170.94223270000657,170.94223270000657,11,6,"[0.00120900000911206, 0.050231400004122406, 0.16709970001829788, 0.2338459999882616, 0.2838196000084281, 0.3505985999945551]","[0.03345340001396835, 0.1336940000182949, 0.20042370003648102, 0.2503146000090055, 0.3170992000377737, 0.3506032000295818]",170.94223270000657,171.14430630003335,1000,171.1592331000138,1000,1000,1000,1000,0,num_3,0.3610112000023946,,26,11,2026-03-05_11h10.13.114,2026A_exp2,2022.2.4,59.92301092229048,
1000,1,0.0,0.0,0,0,49,49,61,,,,,171.54266160004772,172.19382860005135,172.19382860005135,172.6944450000301,315,315,172.6944450000301,172.6944450000301,172.6944450000301,172.6944450000301,172.6944450000301,172.6944450000301,172.6944450000301,172.6944450000301,172.6944450000301,173.04438130004564,173.04438130004564,173.04438130004564,173.04438130004564,173.04438130004564,173.04438130004564,173.04438130004564,173.04438130004564,173.04438130004564,22,0,,,173.04438130004564,173.24642330000643,1000,173.24642330000643,1000,1000,1000,1000,0,num_3,0.5686499999719672,,26,11,2026-03-05_11h10.13.114,2026A_exp2,2022.2.4,59.92301092229048,
1,0,4.9,0.0,1,0,50,50,82,,,,,173.84530430001905,174.49565840000287,174.49565840000287,174.98013400001219,315,45,174.98013400001219,174.98013400001219,174.98013400001219,174.98013400001219,174.98013400001219,174.98013400001219,174.98013400001219,174.98013400001219,174.98013400001219,175.34660380001878,175.34660380001878,175.34660380001878,175.34660380001878,175.34660380001878,175.34660380001878,175.34660380001878,175.34660380001878,175.34660380001878,23,0,,,175.34660380001878,175.54668260004837,0.0,175.54668260004837,1,0.0,0,0,1000,num_4,0.8686762999859639,,26,11,2026-03-05_11h10.13.114,2026A_exp2,2022.2.4,59.92301092229048,
1000,1,0.0,0.0,0,0,51,51,75,,,,,176.4309612000361,177.08988160005538,177.08988160005538,177.58288630004972,45,315,177.58288630004972,177.58288630004972,177.58288630004972,177.58288630004972,177.58288630004972,177.58288630004972,177.58288630004972,177.58288630004972,177.58288630004972,177.93253990000812,177.93253990000812,177.93253990000812,177.93253990000812,177.93253990000812,177.93253990000812,177.93253990000812,177.93253990000812,177.93253990000812,22,0,,,177.93253990000812,178.134416600049,1000,178.134416600049,1000,1000,1000,1000,0,num_3,0.5216374999727122,,26,11,2026-03-05_11h10.13.114,2026A_exp2,2022.2.4,59.92301092229048,
0,0,0.0,4.9,1,0,52,52,56,,,,,178.68321580003249,179.33404600003269,179.33404600003269,179.83512210001936,315,315,179.83512210001936,179.83512210001936,179.83512210001936,179.83512210001936,179.83512210001936,179.83512210001936,179.83512210001936,179.83512210001936,179.83512210001936,180.18480090005323,180.18480090005323,180.18480090005323,180.18480090005323,180.18480090005323,180.18480090005323,180.18480090005323,180.18480090005323,180.18480090005323,22,0,,,180.18480090005323,180.3849043000373,0.0,180.3849043000373,0,0.0,0,1,1000,num_1,0.702445600007195,,26,11,2026-03-05_11h10.13.114,2026A_exp2,2022.2.4,59.92301092229048,
1000,1,0.0,0.0,0,0,53,53,20,,,,,181.1188959000283,181.7697129000444,181.7697129000444,182.25411800004076,315,45,182.25411800004076,182.25411800004076,182.25411800004076,182.25411800004076,182.25411800004076,182.25411800004076,182.25411800004076,182.25411800004076,182.25411800004076,182.62050610000733,182.62050610000733,182.62050610000733,182.62050610000733,182.62050610000733,182.62050610000733,182.62050610000733,182.62050610000733,182.62050610000733,23,0,,,182.62050610000733,182.82269630004885,1000,182.82269630004885,1000,1000,1000,1000,1,num_2,0.5609639999456704,,26,11,2026-03-05_11h10.13.114,2026A_exp2,2022.2.4,59.92301092229048,
0,0,0.0,6.1,1,0,54,54,76,,,,,183.40460250002798,184.05519350001123,184.05519350001123,184.5563423000276,315,315,184.5563423000276,184.5563423000276,184.5563423000276,184.5563423000276,184.5563423000276,184.5563423000276,184.5563423000276,184.5563423000276,184.5563423000276,184.90624710003613,184.90624710003613,184.90624710003613,184.90624710003613,184.90624710003613,184.90624710003613,184.90624710003613,184.90624710003613,184.90624710003613,22,0,,,184.90624710003613,185.10646210005507,0.0,185.10646210005507,0,0.0,0,1,1000,num_1,0.6285495000192896,,26,11,2026-03-05_11h10.13.114,2026A_exp2,2022.2.4,59.92301092229048,
1000,1,0.0,6.1,1,0,55,55,88,,,,,185.75701170001412,186.40776349999942,186.40776349999942,186.8922969000414,315,45,186.8922969000414,186.8922969000414,186.8922969000414,186.8922969000414,186.8922969000414,186.8922969000414,186.8922969000414,186.8922969000414,186.8922969000414,187.25846520002233,187.25846520002233,187.25846520002233,187.25846520002233,187.25846520002233,187.25846520002233,187.25846520002233,187.25846520002233,187.25846520002233,23,0,,,187.25846520002233,187.46089760004543,1000,187.46089760004543,1000,1000,1000,1000,1,num_2,0.41843489999882877,,26,11,2026-03-05_11h10.13.114,2026A_exp2,2022.2.4,59.92301092229048,
1,0,0.0,4.9,0,0,56,56,17,,,,,187.90905550000025,188.55985880002845,188.55985880002845,189.0610082000494,315,315,189.0610082000494,189.0610082000494,189.0610082000494,189.0610082000494,189.0610082000494,189.0610082000494,189.0610082000494,189.0610082000494,189.0610082000494,189.4106815000414,189.4106815000414,189.4106815000414,189.4106815000414,189.4106815000414,189.4106815000414,189.4106815000414,189.4106815000414,189.4106815000414,22,0,,,189.4106815000414,189.61093010002514,0.0,189.61093010002514,0,0.0,0,1,1000,num_1,0.57311060000211,,26,11,2026-03-05_11h10.13.114,2026A_exp2,2022.2.4,59.92301092229048,
1000,1,0.0,0.0,1,0,57,57,47,,,,,190.21145890001208,190.84560660005081,190.84560660005081,191.350288000016,45,315,191.350288000016,191.350288000016,191.350288000016,191.350288000016,191.350288000016,191.350288000016,191.350288000016,191.350288000016,191.350288000016,191.71273200004362,191.71273200004362,191.71273200004362,191.71273200004362,191.71273200004362,191.71273200004362,191.71273200004362,191.71273200004362,191.71273200004362,23,0,,,191.71273200004362,191.9170257000369,1000,191.9170257000369,1000,1000,1000,1000,1,num_2,0.4108964999904856,,26,11,2026-03-05_11h10.13.114,2026A_exp2,2022.2.4,59.92301092229048,
1000,1,0.0,0.0,1,0,58,58,29,,,,,192.34680180001305,192.99761550000403,192.99761550000403,193.49878000002354,315,315,193.49878000002354,193.49878000002354,193.49878000002354,193.49878000002354,193.49878000002354,193.49878000002354,193.49878000002354,193.49878000002354,193.49878000002354,193.8649612000445,193.8649612000445,193.8649612000445,193.8649612000445,193.8649612000445,193.8649612000445,193.8649612000445,193.8649612000445,193.8649612000445,23,0,,,193.8649612000445,194.07010720000835,1000,194.07010720000835,1000,1000,1000,1000,1,num_2,0.6019885999849066,,26,11,2026-03-05_11h10.13.114,2026A_exp2,2022.2.4,59.92301092229048,
1000,1,6.1,4.9,1,0,59,59,16,,,,,194.69923379999818,195.35002890002215,195.35002890002215,195.85113860003185,315,45,195.85113860003185,195.85113860003185,195.85113860003185,195.85113860003185,195.85113860003185,195.85113860003185,195.85113860003185,195.85113860003185,195.85113860003185,196.21751050004968,196.21751050004968,196.21751050004968,196.21751050004968,196.21751050004968,196.21751050004968,196.21751050004968,196.21751050004968,196.21751050004968,23,0,,,196.21751050004968,196.41947650001384,1000,196.41947650001384,1000,1000,1000,1000,0,num_3,0.6041628000093624,,26,11,2026-03-05_11h10.13.114,2026A_exp2,2022.2.4,59.92301092229048,
0,0,0.0,4.9,0,0,60,60,54,,,,,197.05196330003673,197.6970923000481,197.6970923000481,198.1866982000065,45,315,198.1866982000065,198.1866982000065,198.1866982000065,198.1866982000065,198.1866982000065,198.1866982000065,198.1866982000065,198.1866982000065,198.1866982000065,198.55302150000352,198.55302150000352,198.55302150000352,198.55302150000352,198.55302150000352,198.55302150000352,198.55302150000352,198.55302150000352,198.55302150000352,23,0,,,198.55302150000352,198.7534333000076,4.9,198.7534333000076,1,4.9,1,1,1000,num_4,0.7185710999765433,,26,11,2026-03-05_11h10.13.114,2026A_exp2,2022.2.4,59.92301092229048,
1000,1,3.7,0.0,1,0,61,61,55,,,,,199.50436820002506,200.1381601000321,200.1381601000321,200.63912550004898,315,45,200.63912550004898,200.63912550004898,200.63912550004898,200.63912550004898,200.63912550004898,200.63912550004898,200.63912550004898,200.63912550004898,200.63912550004898,201.00550740002654,201.00550740002654,201.00550740002654,201.00550740002654,201.00550740002654,201.00550740002654,201.00550740002654,201.00550740002654,201.00550740002654,23,0,,,201.00550740002654,201.2076292000129,1000,201.2076292000129,1000,1000,1000,1000,0,num_3,0.4955267999903299,,26,11,2026-03-05_11h10.13.114,2026A_exp2,2022.2.4,59.92301092229048,
1000,1,4.9,0.0,0,0,62,62,36,,,,,201.7230824000435,202.3775886000367,202.3775886000367,202.87468880001688,315,45,202.87468880001688,202.87468880001688,202.87468880001688,202.87468880001688,202.87468880001688,202.87468880001688,202.87468880001688,202.87468880001688,202.87468880001688,203.24104490003083,203.24104490003083,203.24104490003083,203.24104490003083,203.24104490003083,203.24104490003083,203.24104490003083,203.24104490003083,203.24104490003083,23,0,,,203.24104490003083,203.4433454000391,1000,203.4433454000391,1000,1000,1000,1000,0,num_3,0.48463070002617314,,26,11,2026-03-05_11h10.13.114,2026A_exp2,2022.2.4,59.92301092229048,
1,0,0.0,4.9,0,0,63,63,71,,,,,203.95866790000582,204.59257890004665,204.59257890004665,205.09375900001032,45,45,205.09375900001032,205.09375900001032,205.09375900001032,205.09375900001032,205.09375900001032,205.09375900001032,205.09375900001032,205.09375900001032,205.09375900001032,205.46012620005058,205.46012620005058,205.46012620005058,205.46012620005058,205.46012620005058,205.46012620005058,205.46012620005058,205.46012620005058,205.46012620005058,23,0,,,205.46012620005058,205.66021480003837,0.0,205.66021480003837,0,0.0,0,1,1000,num_1,1.506805799959693,,26,11,2026-03-05_11h10.13.114,2026A_exp2,2022.2.4,59.92301092229048,
1000,1,3.7,3.7,1,0,64,64,40,,,,,207.19518180005252,207.84577030001674,207.84577030001674,208.33024910005042,315,315,208.33024910005042,208.33024910005042,208.33024910005042,208.33024910005042,208.33024910005042,208.33024910005042,208.33024910005042,208.33024910005042,208.33024910005042,208.69661450001877,208.69661450001877,208.69661450001877,208.69661450001877,208.69661450001877,208.69661450001877,208.69661450001877,208.69661450001877,208.69661450001877,23,0,,,208.69661450001877,208.89853590005077,1000,208.89853590005077,1000,1000,1000,1000,1,num_2,0.388486199954059,,26,11,2026-03-05_11h10.13.114,2026A_exp2,2022.2.4,59.92301092229048,
1000,1,4.9,3.7,1,0,65,65,67,,,,,209.31388329999754,209.94790820003254,209.94790820003254,210.44904600002337,45,315,210.44904600002337,210.44904600002337,210.44904600002337,210.44904600002337,210.44904600002337,210.44904600002337,210.44904600002337,210.44904600002337,210.44904600002337,210.8154205000028,210.8154205000028,210.8154205000028,210.8154205000028,210.8154205000028,210.8154205000028,210.8154205000028,210.8154205000028,210.8154205000028,23,0,,,210.8154205000028,211.01755940000294,1000,211.01755940000294,1000,1000,1000,1000,1,num_2,0.5335473000304773,,26,11,2026-03-05_11h10.13.114,2026A_exp2,2022.2.4,59.92301092229048,
1,0,0.0,0.0,1,0,66,66,43,,,,,211.5665017000283,212.21682500001043,212.21682500001043,212.71788030001335,315,45,212.71788030001335,212.71788030001335,212.71788030001335,212.71788030001335,212.71788030001335,212.71788030001335,212.71788030001335,212.71788030001335,212.71788030001335,213.08422100002645,213.08422100002645,213.08422100002645,213.08422100002645,213.08422100002645,213.08422100002645,213.08422100002645,213.08422100002645,213.08422100002645,23,0,,,213.08422100002645,213.2846494000405,0.0,213.2846494000405,1,0.0,0,0,1000,num_4,0.9554164000437595,,26,11,2026-03-05_11h10.13.114,2026A_exp2,2022.2.4,59.92301092229048,
1,0,4.9,6.1,1,0,67,67,86,,,,,214.2687698000227,214.91940940002678,214.91940940002678,215.40401600004407,45,45,215.40401600004407,215.40401600004407,215.40401600004407,215.40401600004407,215.40401600004407,215.40401600004407,215.40401600004407,215.40401600004407,215.40401600004407,215.77041980001377,215.77041980001377,215.77041980001377,215.77041980001377,215.77041980001377,215.77041980001377,215.77041980001377,215.77041980001377,215.77041980001377,23,0,,,215.77041980001377,215.97043960000155,6.1,215.97043960000155,1,6.1,1,1,1000,num_4,0.8374270999920554,,26,11,2026-03-05_11h10.13.114,2026A_exp2,2022.2.4,59.92301092229048,
1,0,0.0,0.0,0,0,68,68,81,,,,,216.83802580001066,217.49634200002765,217.49634200002765,217.98650390002877,315,45,217.98650390002877,217.98650390002877,217.98650390002877,217.98650390002877,217.98650390002877,217.98650390002877,217.98650390002877,217.98650390002877,217.98650390002877,218.33973110001534,218.33973110001534,218.33973110001534,218.33973110001534,218.33973110001534,218.33973110001534,218.33973110001534,218.33973110001534,218.33973110001534,5,2,"[0.04049629997462034, 0.1144069999572821]","[0.06501309998566285, 0.3655002999585122]",218.33973110001534,218.54047240002546,0.0,218.54047240002546,1,0.0,0,0,1000,num_4,0.7717461999855004,,26,11,2026-03-05_11h10.13.114,2026A_exp2,2022.2.4,59.92301092229048,
1000,1,4.9,4.9,0,0,69,69,31,,,,,219.3404694000492,219.99127520003822,219.99127520003822,220.47562969999854,315,45,220.47562969999854,220.47562969999854,220.47562969999854,220.47562969999854,220.47562969999854,220.47562969999854,220.47562969999854,220.47562969999854,220.47562969999854,220.84214880003128,220.84214880003128,220.84214880003128,220.84214880003128,220.84214880003128,220.84214880003128,220.84214880003128,220.84214880003128,220.84214880003128,0,1,[0.0011987999896518886],[0.3672777999890968],220.84214880003128,221.0440112000215,1000,221.0440112000215,1000,1000,1000,1000,0,num_3,0.5879723000107333,,26,11,2026-03-05_11h10.13.114,2026A_exp2,2022.2.4,59.92301092229048,
1000,1,0.0,0.0,0,0,70,70,69,,,,,221.6594934000168,222.3104588999995,222.3104588999995,222.81139610003447,45,315,222.81139610003447,222.81139610003447,222.81139610003447,222.81139610003447,222.81139610003447,222.81139610003447,222.81139610003447,222.81139610003447,222.81139610003447,223.177588200022,223.177588200022,223.177588200022,223.177588200022,223.177588200022,223.177588200022,223.177588200022,223.177588200022,223.177588200022,7,1,[0.11681269999826327],[0.36706299998331815],223.177588200022,223.3798999999999,1000,223.3798999999999,1000,1000,1000,1000,0,num_3,0.43543620000127703,,26,11,2026-03-05_11h10.13.114,2026A_exp2,2022.2.4,59.92301092229048,
1,0,3.7,0.0,1,0,71,71,74,,,,,223.84512210002868,224.4957310000318,224.4957310000318,224.99686610000208,315,45,224.99686610000208,224.99686610000208,224.99686610000208,224.99686610000208,224.99686610000208,224.99686610000208,224.99686610000208,224.99686610000208,224.99686610000208,225.36318020004546,225.36318020004546,225.36318020004546,225.36318020004546,225.36318020004546,225.36318020004546,225.36318020004546,225.36318020004546,225.36318020004546,0,1,[0.0012122999760322273],[0.3671557999914512],225.36318020004546,225.56338649999816,0.0,225.56338649999816,1,0.0,0,0,1000,num_4,1.1325922000105493,,26,11,2026-03-05_11h10.13.114,2026A_exp2,2022.2.4,59.92301092229048,
1000,1,0.0,0.0,1,0,72,72,14,,,,,226.7144694000017,227.36538400000427,227.36538400000427,227.84971940005198,315,45,227.84971940005198,227.84971940005198,227.84971940005198,227.84971940005198,227.84971940005198,227.84971940005198,227.84971940005198,227.84971940005198,227.84971940005198,228.21604200004367,228.21604200004367,228.21604200004367,228.21604200004367,228.21604200004367,228.21604200004367,228.21604200004367,228.21604200004367,228.21604200004367,5,1,[0.0012138999882154167],[0.30041730002267286],228.21604200004367,228.41662150004413,1000,228.41662150004413,1000,1000,1000,1000,1,num_2,0.7026277999975719,,26,11,2026-03-05_11h10.13.114,2026A_exp2,2022.2.4,59.92301092229048,
1000,1,4.9,0.0,1,0,73,73,25,,,,,229.15030700003263,229.8011559000006,229.8011559000006,230.3021913000266,45,45,230.3021913000266,230.3021913000266,230.3021913000266,230.3021913000266,230.3021913000266,230.3021913000266,230.3021913000266,230.3021913000266,230.3021913000266,230.65199050004594,230.65199050004594,230.65199050004594,230.65199050004594,230.65199050004594,230.65199050004594,230.65199050004594,230.65199050004594,230.65199050004594,0,1,[0.0012645999668166041],[0.3503928999998607],230.65199050004594,230.85402080003405,1000,230.85402080003405,1000,1000,1000,1000,0,num_3,0.6900808999780566,,26,11,2026-03-05_11h10.13.114,2026A_exp2,2022.2.4,59.92301092229048,
1,0,6.1,3.7,0,0,74,74,26,,,,,231.56940290000057,232.22016490000533,232.22016490000533,232.7213362000184,45,315,232.7213362000184,232.7213362000184,232.7213362000184,232.7213362000184,232.7213362000184,232.7213362000184,232.7213362000184,232.7213362000184,232.7213362000184,233.08776810002746,233.08776810002746,233.08776810002746,233.08776810002746,233.08776810002746,233.08776810002746,233.08776810002746,233.08776810002746,233.08776810002746,0,1,[0.0012052999809384346],[0.3672771999845281],233.08776810002746,233.28783320001094,6.1,233.28783320001094,1,6.1,1,1,1000,num_4,0.608478499983903,,26,11,2026-03-05_11h10.13.114,2026A_exp2,2022.2.4,59.92301092229048,
1,0,0.0,3.7,1,0,75,75,57,,,,,233.92176360002486,234.5722713000141,234.5722713000141,235.05695280001964,315,315,235.05695280001964,235.05695280001964,235.05695280001964,235.05695280001964,235.05695280001964,235.05695280001964,235.05695280001964,235.05695280001964,235.05695280001964,235.42334930005018,235.42334930005018,235.42334930005018,235.42334930005018,235.42334930005018,235.42334930005018,235.42334930005018,235.42334930005018,235.42334930005018,18,3,"[0.05003969999961555, 0.1335315000033006, 0.1669168000225909]","[0.06693510001059622, 0.15005470003234223, 0.2171070000040345]",235.42334930005018,235.62349430000177,3.7,235.62349430000177,1,3.7,1,1,1000,num_4,0.6719112999853678,,26,11,2026-03-05_11h10.13.114,2026A_exp2,2022.2.4,59.92301092229048,
1000,1,0.0,4.9,0,0,76,76,11,,,,,236.32411390001653,236.9749429000076,236.9749429000076,237.4596017000149,315,315,237.4596017000149,237.4596017000149,237.4596017000149,237.4596017000149,237.4596017000149,237.4596017000149,237.4596017000149,237.4596017000149,237.4596017000149,237.82582060003188,237.82582060003188,237.82582060003188,237.82582060003188,237.82582060003188,237.82582060003188,237.82582060003188,237.82582060003188,237.82582060003188,23,0,,,237.82582060003188,238.027799100033,1000,238.027799100033,1000,1000,1000,1000,1,num_2,0.867602700018324,,26,11,2026-03-05_11h10.13.114,2026A_exp2,2022.2.4,59.92301092229048,
1000,1,6.1,4.9,1,0,77,77,53,,,,,238.92695940000704,239.57750040001702,239.57750040001702,240.07869460002985,45,315,240.07869460002985,240.07869460002985,240.07869460002985,240.07869460002985,240.07869460002985,240.07869460002985,240.07869460002985,240.07869460002985,240.07869460002985,240.42838720005238,240.42838720005238,240.42838720005238,240.42838720005238,240.42838720005238,240.42838720005238,240.42838720005238,240.42838720005238,240.42838720005238,11,3,"[0.0334652999881655, 0.2005055999616161, 0.26717129995813593]","[0.08368039998458698, 0.2339716000133194, 0.35071709996555]",240.42838720005238,240.63015910005197,1000,240.64553570002317,1000,1000,1000,1000,1,num_2,0.5224905000068247,,26,11,2026-03-05_11h10.13.114,2026A_exp2,2022.2.4,59.92301092229048,
1000,1,4.9,0.0,0,0,78,78,58,,,,,241.19747450004797,241.84811750001973,241.84811750001973,242.3528054000344,45,315,242.3528054000344,242.3528054000344,242.3528054000344,242.3528054000344,242.3528054000344,242.3528054000344,242.3528054000344,242.3528054000344,242.3528054000344,242.7139398000436,242.7139398000436,242.7139398000436,242.7139398000436,242.7139398000436,242.7139398000436,242.7139398000436,242.7139398000436,242.7139398000436,20,2,"[0.03548909997334704, 0.2506283999537118]","[0.05032709997612983, 0.28376989997923374]",242.7139398000436,242.91843180003343,1000,242.91843180003343,1000,1000,1000,1000,0,num_3,0.48907379998127,,26,11,2026-03-05_11h10.13.114,2026A_exp2,2022.2.4,59.92301092229048,
1000,1,0.0,6.1,0,0,79,79,34,,,,,243.43125520000467,244.08208469999954,244.08208469999954,244.5830962000182,45,315,244.5830962000182,244.5830962000182,244.5830962000182,244.5830962000182,244.5830962000182,244.5830962000182,244.5830962000182,244.5830962000182,244.5830962000182,244.94943110004533,244.94943110004533,244.94943110004533,244.94943110004533,244.94943110004533,244.94943110004533,244.94943110004533,244.94943110004533,244.94943110004533,22,1,[0.03369569999631494],[0.0505729999858886],244.94943110004533,245.17392260005,1000,245.17392260005,1000,1000,1000,1000,1,num_2,0.6250402999576181,,26,11,2026-03-05_11h10.13.114,2026A_exp2,2022.2.4,59.92301092229048,
1000,1,0.0,0.0,1,0,80,80,23,,,,,245.8170228000381,246.4677891000174,246.4677891000174,246.96876750001684,315,315,246.96876750001684,246.96876750001684,246.96876750001684,246.96876750001684,246.96876750001684,246.96876750001684,246.96876750001684,246.96876750001684,246.96876750001684,247.3353336,247.3353336,247.3353336,247.3353336,247.3353336,247.3353336,247.3353336,247.3353336,247.3353336,23,0,,,247.3353336,247.53566059999866,1000,247.53566059999866,1000,1000,1000,1000,0,num_3,0.903318099968601,,26,11,2026-03-05_11h10.13.114,2026A_exp2,2022.2.4,59.92301092229048,
1,0,6.1,4.9,1,0,81,81,35,,,,,248.4697016000282,249.1201572000282,249.1201572000282,249.62147260003258,315,45,249.62147260003258,249.62147260003258,249.62147260003258,249.62147260003258,249.62147260003258,249.62147260003258,249.62147260003258,249.62147260003258,249.62147260003258,249.9879434000468,249.9879434000468,249.9879434000468,249.9879434000468,249.9879434000468,249.9879434000468,249.9879434000468,249.9879434000468,249.9879434000468,23,0,,,249.9879434000468,250.18802530004177,4.9,250.18802530004177,1,4.9,1,1,1000,num_4,0.7149814000003971,,26,11,2026-03-05_11h10.13.114,2026A_exp2,2022.2.4,59.92301092229048,
1,0,0.0,0.0,1,0,82,82,66,,,,,250.92197560000932,251.57282570004463,251.57282570004463,252.05726180004422,45,315,252.05726180004422,252.05726180004422,252.05726180004422,252.05726180004422,252.05726180004422,252.05726180004422,252.05726180004422,252.05726180004422,252.05726180004422,252.42362750001485,252.42362750001485,252.42362750001485,252.42362750001485,252.42362750001485,252.42362750001485,252.42362750001485,252.42362750001485,252.42362750001485,21,1,[0.0012389000039547682],[0.0332973999902606],252.42362750001485,252.62396610004362,0.0,252.62396610004362,1,0.0,0,0,1000,num_4,0.7594805000117049,,26,11,2026-03-05_11h10.13.114,2026A_exp2,2022.2.4,59.92301092229048,
1000,1,0.0,4.9,1,0,83,83,27,,,,,253.40813029999845,254.0585855000536,254.0585855000536,254.5431501000421,45,45,254.5431501000421,254.5431501000421,254.5431501000421,254.5431501000421,254.5431501000421,254.5431501000421,254.5431501000421,254.5431501000421,254.5431501000421,254.90936600003624,254.90936600003624,254.90936600003624,254.90936600003624,254.90936600003624,254.90936600003624,254.90936600003624,254.90936600003624,254.90936600003624,23,0,,,254.90936600003624,255.1339364000014,1000,255.1339364000014,1000,1000,1000,1000,1,num_2,0.585806599992793,,26,11,2026-03-05_11h10.13.114,2026A_exp2,2022.2.4,59.92301092229048,
1,0,0.0,6.1,0,0,84,84,68,,,,,255.7438369000447,256.3943525000359,256.3943525000359,256.89564699999755,315,45,256.89564699999755,256.89564699999755,256.89564699999755,256.89564699999755,256.89564699999755,256.89564699999755,256.89564699999755,256.89564699999755,256.89564699999755,257.2450804000255,257.2450804000255,257.2450804000255,257.2450804000255,257.2450804000255,257.2450804000255,257.2450804000255,257.2450804000255,257.2450804000255,22,0,,,257.2450804000255,257.4452735000523,0.0,257.4618666000315,0,0.0,0,1,1000,num_1,1.0739363000029698,,26,11,2026-03-05_11h10.13.114,2026A_exp2,2022.2.4,59.92301092229048,
1,0,6.1,0.0,1,0,85,85,13,,,,,258.5630073000211,259.21388170000864,259.21388170000864,259.6983145000413,315,45,259.6983145000413,259.6983145000413,259.6983145000413,259.6983145000413,259.6983145000413,259.6983145000413,259.6983145000413,259.6983145000413,259.6983145000413,260.06455160002224,260.06455160002224,260.06455160002224,260.06455160002224,260.06455160002224,260.06455160002224,260.06455160002224,260.06455160002224,260.06455160002224,23,0,,,260.06455160002224,260.2648211000487,0.0,260.2648211000487,0,0.0,0,1,1000,num_1,0.7189014999894425,,26,11,2026-03-05_11h10.13.114,2026A_exp2,2022.2.4,59.92301092229048,
1000,1,4.9,4.9,0,0,86,86,42,,,,,261.01561380003113,261.6659362000064,261.6659362000064,262.1507697000052,315,45,262.1507697000052,262.1507697000052,262.1507697000052,262.1507697000052,262.1507697000052,262.1507697000052,262.1507697000052,262.1507697000052,262.1507697000052,262.51715420000255,262.51715420000255,262.51715420000255,262.51715420000255,262.51715420000255,262.51715420000255,262.51715420000255,262.51715420000255,262.51715420000255,23,0,,,262.51715420000255,262.71937080001226,1000,262.71937080001226,1000,1000,1000,1000,1,num_2,0.47955310001270846,,26,11,2026-03-05_11h10.13.114,2026A_exp2,2022.2.4,59.92301092229048,
1,0,0.0,0.0,0,0,87,87,38,,,,,263.2178277000203,263.86844240000937,263.86844240000937,264.3693407000392,315,315,264.3693407000392,264.3693407000392,264.3693407000392,264.3693407000392,264.3693407000392,264.3693407000392,264.3693407000392,264.3693407000392,264.3693407000392,264.73587710002903,264.73587710002903,264.73587710002903,264.73587710002903,264.73587710002903,264.73587710002903,264.73587710002903,264.73587710002903,264.73587710002903,23,0,,,264.73587710002903,264.93609550001565,0.0,264.93609550001565,1,0.0,0,0,1000,num_4,0.8390087999869138,,26,11,2026-03-05_11h10.13.114,2026A_exp2,2022.2.4,59.92301092229048,
1000,1,0.0,0.0,1,0,88,88,7,,,,,265.80367160000606,266.4376855000155,266.4376855000155,266.93889030005084,45,45,266.93889030005084,266.93889030005084,266.93889030005084,266.93889030005084,266.93889030005084,266.93889030005084,266.93889030005084,266.93889030005084,266.93889030005084,267.305223000003,267.305223000003,267.305223000003,267.305223000003,267.305223000003,267.305223000003,267.305223000003,267.305223000003,267.305223000003,15,4,"[0.017618500045500696, 0.11698070005513728, 0.20069730002433062, 0.25058610003907233]","[0.10043360001873225, 0.13378260005265474, 0.2166420000139624, 0.2672965000383556]",267.305223000003,267.50722480000695,1000,267.50722480000695,1000,1000,1000,1000,1,num_2,2.1477783000445925,,26,11,2026-03-05_11h10.13.114,2026A_exp2,2022.2.4,59.92301092229048,
1000,1,3.7,6.1,0,0,89,89,28,,,,,269.67437650001375,270.3250201000483,270.3250201000483,270.8261338000302,315,315,270.8261338000302,270.8261338000302,270.8261338000302,270.8261338000302,270.8261338000302,270.8261338000302,270.8261338000302,270.8261338000302,270.8261338000302,271.19256580004003,271.19256580004003,271.19256580004003,271.19256580004003,271.19256580004003,271.19256580004003,271.19256580004003,271.19256580004003,271.19256580004003,23,0,,,271.19256580004003,271.3942875000066,1000,271.3942875000066,1000,1000,1000,1000,1,num_2,0.6127524999901652,,26,11,2026-03-05_11h10.13.114,2026A_exp2,2022.2.4,59.92301092229048,
,,,,,,,,,,,,,,,,,,,,,,,,,,,,,,,,,,,,,,,,,,,,,,,,,,,,272.02864740003133,,,,,,,
