validity,detectorcomp,contrastCW,contrastCCW,precueCWorCCW,block_80trials.thisRepN,block_80trials.thisTrialN,block_80trials.thisN,block_80trials.thisIndex,etRecord.started,etRecord.stopped,text.started,text.stopped,text_4.started,text_4.stopped,text_6.started,text_6.stopped,oriCW,oriCCW,roi_2.started,grating_UR.started,grating_UL.started,grating_LR.started,grating_LL.started,noise_UR.started,noise_UL.started,noise_LR.started,noise_LL.started,roi_2.stopped,grating_UR.stopped,grating_UL.stopped,grating_LR.stopped,grating_LL.stopped,noise_UR.stopped,noise_UL.stopped,noise_LR.stopped,noise_LL.stopped,outframe,roi_2.numLooks,roi_2.timesOn,roi_2.timesOff,text_2.started,text_2.stopped,probedcontrast,key_resp.started,respdetect,relevantContrast,correctDetect,TorFdetect,respCWorCCW,key_resp.keys,key_resp.rt,feedback_display_.started,participantNo,blockNo,date,expName,psychopyVersion,frameRate,
1,0,4.9,0.0,1,0,0,0,65,3.6300159990787506e-05,3.6300159990787506e-05,56.05029239994474,58.06060960004106,58.06060960004106,58.69492259994149,58.69492259994149,59.20449999999255,45,315,59.20449999999255,59.20449999999255,59.20449999999255,59.20449999999255,59.20449999999255,59.20449999999255,59.20449999999255,59.20449999999255,59.20449999999255,59.553966499865055,59.553966499865055,59.553966499865055,59.553966499865055,59.553966499865055,59.553966499865055,59.553966499865055,59.553966499865055,59.553966499865055,0,1,[0.0011203999165445566],[0.36800319980829954],59.553966499865055,59.754293699981645,0.0,59.754293699981645,0,0.0,0,1,1000,num_1,0.947763100033626,,34,12,2026-03-13_11h07.43.947,2026A_exp2,2022.2.4,59.91224057922607,
1,0,6.1,0.0,0,0,1,1,21,,,,,60.72209160006605,61.372650699922815,61.372650699922815,61.873743099858984,45,45,61.873743099858984,61.873743099858984,61.873743099858984,61.873743099858984,61.873743099858984,61.873743099858984,61.873743099858984,61.873743099858984,61.873743099858984,62.24008890008554,62.24008890008554,62.24008890008554,62.24008890008554,62.24008890008554,62.24008890008554,62.24008890008554,62.24008890008554,62.24008890008554,0,1,[0.0012015001848340034],[0.36725320015102625],62.24008890008554,62.440238300012425,6.1,62.440238300012425,1,6.1,1,1,1000,num_4,0.43737550009973347,,34,12,2026-03-13_11h07.43.947,2026A_exp2,2022.2.4,59.91224057922607,
1,0,6.1,0.0,1,0,2,2,80,,,,,62.90760620008223,63.558730700053275,63.558730700053275,64.05924859992228,45,315,64.05924859992228,64.05924859992228,64.05924859992228,64.05924859992228,64.05924859992228,64.05924859992228,64.05924859992228,64.05924859992228,64.05924859992228,64.42581559997052,64.42581559997052,64.42581559997052,64.42581559997052,64.42581559997052,64.42581559997052,64.42581559997052,64.42581559997052,64.42581559997052,0,1,[0.0012085000053048134],[0.36672229995019734],64.42581559997052,64.6258352000732,0.0,64.6258352000732,0,0.0,0,1,1000,num_1,0.6602196001913399,,34,12,2026-03-13_11h07.43.947,2026A_exp2,2022.2.4,59.91224057922607,
1000,1,0.0,4.9,1,0,3,3,66,,,,,65.31023319996893,65.96051330002956,65.96051330002956,66.46158350002952,45,45,66.46158350002952,66.46158350002952,66.46158350002952,66.46158350002952,66.46158350002952,66.46158350002952,66.46158350002952,66.46158350002952,66.46158350002952,66.82774229999632,66.82774229999632,66.82774229999632,66.82774229999632,66.82774229999632,66.82774229999632,66.82774229999632,66.82774229999632,66.82774229999632,0,1,[0.0012970000971108675],[0.36680330010131],66.82774229999632,67.06668679998256,1000,67.06668679998256,1000,1000,1000,1000,1,num_2,0.5472757001407444,,34,12,2026-03-13_11h07.43.947,2026A_exp2,2022.2.4,59.91224057922607,
1000,1,3.7,6.1,1,0,4,4,58,,,,,67.64563119993545,68.29621329996735,68.29621329996735,68.79723690007813,315,315,68.79723690007813,68.79723690007813,68.79723690007813,68.79723690007813,68.79723690007813,68.79723690007813,68.79723690007813,68.79723690007813,68.79723690007813,69.1635360000655,69.1635360000655,69.1635360000655,69.1635360000655,69.1635360000655,69.1635360000655,69.1635360000655,69.1635360000655,69.1635360000655,0,1,[0.001304500037804246],[0.36692430009134114],69.1635360000655,69.36558349989355,1000,69.36558349989355,1000,1000,1000,1000,1,num_2,0.5681767999194562,,34,12,2026-03-13_11h07.43.947,2026A_exp2,2022.2.4,59.91224057922607,
1,0,0.0,6.1,0,0,5,5,0,,,,,69.96447720006108,70.61503059999086,70.61503059999086,71.11609499994665,315,315,71.11609499994665,71.11609499994665,71.11609499994665,71.11609499994665,71.11609499994665,71.11609499994665,71.11609499994665,71.11609499994665,71.11609499994665,71.4657902000472,71.4657902000472,71.4657902000472,71.4657902000472,71.4657902000472,71.4657902000472,71.4657902000472,71.4657902000472,71.4657902000472,0,1,[0.001520700054243207],[0.3502690000459552],71.4657902000472,71.66613609995693,0.0,71.68283549998887,0,0.0,0,1,1000,num_1,0.49880239996127784,,34,12,2026-03-13_11h07.43.947,2026A_exp2,2022.2.4,59.91224057922607,
1,0,0.0,0.0,0,0,6,6,79,,,,,72.19986189994961,72.85070419986732,72.85070419986732,73.33516959985718,315,45,73.33516959985718,73.33516959985718,73.33516959985718,73.33516959985718,73.33516959985718,73.33516959985718,73.33516959985718,73.33516959985718,73.33516959985718,73.70155390002765,73.70155390002765,73.70155390002765,73.70155390002765,73.70155390002765,73.70155390002765,73.70155390002765,73.70155390002765,73.70155390002765,0,1,[0.0012418001424521208],[0.36725959996692836],73.70155390002765,73.90184219996445,0.0,73.90184219996445,0,0.0,0,1,1000,num_1,0.5050133001059294,,34,12,2026-03-13_11h07.43.947,2026A_exp2,2022.2.4,59.91224057922607,
1000,1,0.0,4.9,0,0,7,7,6,,,,,74.4354558000341,75.08619419997558,75.08619419997558,75.5707377998624,315,315,75.5707377998624,75.5707377998624,75.5707377998624,75.5707377998624,75.5707377998624,75.5707377998624,75.5707377998624,75.5707377998624,75.5707377998624,75.93701429991052,75.93701429991052,75.93701429991052,75.93701429991052,75.93701429991052,75.93701429991052,75.93701429991052,75.93701429991052,75.93701429991052,0,1,[0.001230000052601099],[0.36723090009763837],75.93701429991052,76.13738049985841,1000,76.13738049985841,1000,1000,1000,1000,1,num_2,0.4364356999285519,,34,12,2026-03-13_11h07.43.947,2026A_exp2,2022.2.4,59.91224057922607,
1000,1,4.9,0.0,1,0,8,8,77,,,,,76.60431329999119,77.25503019988537,77.25503019988537,77.76443099998869,45,315,77.76443099998869,77.76443099998869,77.76443099998869,77.76443099998869,77.76443099998869,77.76443099998869,77.76443099998869,77.76443099998869,77.76443099998869,78.12232559989206,78.12232559989206,78.12232559989206,78.12232559989206,78.12232559989206,78.12232559989206,78.12232559989206,78.12232559989206,78.12232559989206,0,1,[0.003076300024986267],[0.3645772999152541],78.12232559989206,78.32266140007414,1000,78.32266140007414,1000,1000,1000,1000,0,num_3,0.563853699946776,,34,12,2026-03-13_11h07.43.947,2026A_exp2,2022.2.4,59.91224057922607,
1,0,3.7,3.7,1,0,9,9,30,,,,,78.90660310001113,79.55743849999271,79.55743849999271,80.05857610004023,45,315,80.05857610004023,80.05857610004023,80.05857610004023,80.05857610004023,80.05857610004023,80.05857610004023,80.05857610004023,80.05857610004023,80.05857610004023,80.42480579996482,80.42480579996482,80.42480579996482,80.42480579996482,80.42480579996482,80.42480579996482,80.42480579996482,80.42480579996482,80.42480579996482,0,1,[0.0012290000449866056],[0.36634170007891953],80.42480579996482,80.62521329987794,3.7,80.62521329987794,1,3.7,1,1,1000,num_4,0.6688758998643607,,34,12,2026-03-13_11h07.43.947,2026A_exp2,2022.2.4,59.91224057922607,
1,0,0.0,3.7,1,0,10,10,35,,,,,81.3259989998769,81.97652560006827,81.97652560006827,82.46097819996066,45,315,82.46097819996066,82.46097819996066,82.46097819996066,82.46097819996066,82.46097819996066,82.46097819996066,82.46097819996066,82.46097819996066,82.46097819996066,82.82719950005412,82.82719950005412,82.82719950005412,82.82719950005412,82.82719950005412,82.82719950005412,82.82719950005412,82.82719950005412,82.82719950005412,0,1,[0.0012211999855935574],[0.3671009000390768],82.82719950005412,83.02763319993392,3.7,83.02763319993392,1,3.7,1,1,1000,num_4,0.6103781999554485,,34,12,2026-03-13_11h07.43.947,2026A_exp2,2022.2.4,59.91224057922607,
1,0,4.9,3.7,0,0,11,11,44,,,,,83.66152040008456,84.29587320005521,84.29587320005521,84.79648680007085,45,315,84.79648680007085,84.79648680007085,84.79648680007085,84.79648680007085,84.79648680007085,84.79648680007085,84.79648680007085,84.79648680007085,84.79648680007085,85.16297629987821,85.16297629987821,85.16297629987821,85.16297629987821,85.16297629987821,85.16297629987821,85.16297629987821,85.16297629987821,85.16297629987821,0,1,[0.0013552999589592218],[0.36738789989612997],85.16297629987821,85.36330189998262,4.9,85.36330189998262,0,4.9,1,0,1000,num_1,0.5546337000560015,,34,12,2026-03-13_11h07.43.947,2026A_exp2,2022.2.4,59.91224057922607,
1000,1,6.1,0.0,1,0,12,12,25,,,,,85.94707360002212,86.60119850002229,86.60119850002229,87.10451680002734,45,45,87.10451680002734,87.10451680002734,87.10451680002734,87.10451680002734,87.10451680002734,87.10451680002734,87.10451680002734,87.10451680002734,87.10451680002734,87.46535829990171,87.46535829990171,87.46535829990171,87.46535829990171,87.46535829990171,87.46535829990171,87.46535829990171,87.46535829990171,87.46535829990171,0,1,[0.0029426999390125275],[0.36538089998066425],87.46535829990171,87.68236789992079,1000,87.68236789992079,1000,1000,1000,1000,0,num_3,0.5882993000559509,,34,12,2026-03-13_11h07.43.947,2026A_exp2,2022.2.4,59.91224057922607,
1000,1,0.0,0.0,0,0,13,13,7,,,,,88.29969340004027,88.95015350007452,88.95015350007452,89.45133009995334,315,315,89.45133009995334,89.45133009995334,89.45133009995334,89.45133009995334,89.45133009995334,89.45133009995334,89.45133009995334,89.45133009995334,89.45133009995334,89.80102799995802,89.80102799995802,89.80102799995802,89.80102799995802,89.80102799995802,89.80102799995802,89.80102799995802,89.80102799995802,89.80102799995802,0,1,[0.00123740010894835],[0.35044800001196563],89.80102799995802,90.00348159996793,1000,90.00348159996793,1000,1000,1000,1000,1,num_2,0.5384404000360519,,34,12,2026-03-13_11h07.43.947,2026A_exp2,2022.2.4,59.91224057922607,
1000,1,0.0,3.7,1,0,14,14,13,,,,,90.56845079991035,91.21926079993136,91.21926079993136,91.70345379994251,315,315,91.70345379994251,91.70345379994251,91.70345379994251,91.70345379994251,91.70345379994251,91.70345379994251,91.70345379994251,91.70345379994251,91.70345379994251,92.06988919992,92.06988919992,92.06988919992,92.06988919992,92.06988919992,92.06988919992,92.06988919992,92.06988919992,92.06988919992,0,1,[0.000710400054231286],[0.3674551001749933],92.06988919992,92.2723639998585,1000,92.2723639998585,1000,1000,1000,1000,1,num_2,0.4066130998544395,,34,12,2026-03-13_11h07.43.947,2026A_exp2,2022.2.4,59.91224057922607,
1000,1,0.0,4.9,0,0,15,15,26,,,,,92.70378550002351,93.35456479992718,93.35456479992718,93.8708230999764,45,45,93.8708230999764,93.8708230999764,93.8708230999764,93.8708230999764,93.8708230999764,93.8708230999764,93.8708230999764,93.8708230999764,93.8708230999764,94.22192079992965,94.22192079992965,94.22192079992965,94.22192079992965,94.22192079992965,94.22192079992965,94.22192079992965,94.22192079992965,94.22192079992965,0,1,[0.00447620009072125],[0.36429279996082187],94.22192079992965,94.4235032000579,1000,94.4235032000579,1000,1000,1000,1000,1,num_2,0.5031881998293102,,34,12,2026-03-13_11h07.43.947,2026A_exp2,2022.2.4,59.91224057922607,
0,0,3.7,0.0,0,0,16,16,62,,,,,94.95609829993919,95.6067573998589,95.6067573998589,96.10796539997682,315,315,96.10796539997682,96.10796539997682,96.10796539997682,96.10796539997682,96.10796539997682,96.10796539997682,96.10796539997682,96.10796539997682,96.10796539997682,96.47434329986572,96.47434329986572,96.47434329986572,96.47434329986572,96.47434329986572,96.47434329986572,96.47434329986572,96.47434329986572,96.47434329986572,0,1,[0.0012103000190109015],[0.36726319999434054],96.47434329986572,96.67452059988864,0.0,96.67452059988864,0,0.0,0,1,1000,num_1,0.611836199881509,,34,12,2026-03-13_11h07.43.947,2026A_exp2,2022.2.4,59.91224057922607,
1000,1,0.0,3.7,1,0,17,17,84,,,,,97.3083256999962,97.96613850002177,97.96613850002177,98.4434982999228,315,45,98.4434982999228,98.4434982999228,98.4434982999228,98.4434982999228,98.4434982999228,98.4434982999228,98.4434982999228,98.4434982999228,98.4434982999228,98.80992699996568,98.80992699996568,98.80992699996568,98.80992699996568,98.80992699996568,98.80992699996568,98.80992699996568,98.80992699996568,98.80992699996568,0,1,[0.0012245001271367073],[0.36746620014309883],98.80992699996568,99.01150809996761,1000,99.01150809996761,1000,1000,1000,1000,1,num_2,0.4588748998939991,,34,12,2026-03-13_11h07.43.947,2026A_exp2,2022.2.4,59.91224057922607,
1,0,0.0,0.0,0,0,18,18,88,,,,,99.49394479999319,100.14462019992061,100.14462019992061,100.64572350005619,315,315,100.64572350005619,100.64572350005619,100.64572350005619,100.64572350005619,100.64572350005619,100.64572350005619,100.64572350005619,100.64572350005619,100.64572350005619,101.01213090005331,101.01213090005331,101.01213090005331,101.01213090005331,101.01213090005331,101.01213090005331,101.01213090005331,101.01213090005331,101.01213090005331,0,1,[0.0007289999630302191],[0.3676265999674797],101.01213090005331,101.21226330008358,0.0,101.21226330008358,0,0.0,0,1,1000,num_1,0.6335046999156475,,34,12,2026-03-13_11h07.43.947,2026A_exp2,2022.2.4,59.91224057922607,
1,0,0.0,0.0,1,0,19,19,49,,,,,101.86306019988842,102.51377970003523,102.51377970003523,102.99805420008488,45,45,102.99805420008488,102.99805420008488,102.99805420008488,102.99805420008488,102.99805420008488,102.99805420008488,102.99805420008488,102.99805420008488,102.99805420008488,103.36460229987279,103.36460229987279,103.36460229987279,103.36460229987279,103.36460229987279,103.36460229987279,103.36460229987279,103.36460229987279,103.36460229987279,0,1,[0.001194800017401576],[0.36722439993172884],103.36460229987279,103.56479640002362,0.0,103.56479640002362,1,0.0,0,0,1000,num_4,0.737013699952513,,34,12,2026-03-13_11h07.43.947,2026A_exp2,2022.2.4,59.91224057922607,
0,0,6.1,4.9,0,0,20,20,22,,,,,104.33202329999767,104.9827757999301,104.9827757999301,105.46723819989711,315,45,105.46723819989711,105.46723819989711,105.46723819989711,105.46723819989711,105.46723819989711,105.46723819989711,105.46723819989711,105.46723819989711,105.46723819989711,105.83362529985607,105.83362529985607,105.83362529985607,105.83362529985607,105.83362529985607,105.83362529985607,105.83362529985607,105.83362529985607,105.83362529985607,22,1,[0.3170645998325199],[0.33390869991853833],105.83362529985607,106.03395120007917,4.9,106.03395120007917,1,4.9,1,1,1000,num_4,0.8759332001209259,,34,12,2026-03-13_11h07.43.947,2026A_exp2,2022.2.4,59.91224057922607,
1,0,3.7,6.1,0,0,21,21,52,,,,,106.93469720007852,107.58556669997051,107.58556669997051,108.08648100006394,45,315,108.08648100006394,108.08648100006394,108.08648100006394,108.08648100006394,108.08648100006394,108.08648100006394,108.08648100006394,108.08648100006394,108.08648100006394,108.45286239986308,108.45286239986308,108.45286239986308,108.45286239986308,108.45286239986308,108.45286239986308,108.45286239986308,108.45286239986308,108.45286239986308,0,1,[0.0012009998317807913],[0.3672310998663306],108.45286239986308,108.65305029996671,3.7,108.65305029996671,0,3.7,1,0,1000,num_1,0.5934179001487792,,34,12,2026-03-13_11h07.43.947,2026A_exp2,2022.2.4,59.91224057922607,
1,0,0.0,4.9,0,0,22,22,3,,,,,109.27053890004754,109.9044349999167,109.9044349999167,110.40555189992301,45,315,110.40555189992301,110.40555189992301,110.40555189992301,110.40555189992301,110.40555189992301,110.40555189992301,110.40555189992301,110.40555189992301,110.40555189992301,110.77198689989746,110.77198689989746,110.77198689989746,110.77198689989746,110.77198689989746,110.77198689989746,110.77198689989746,110.77198689989746,110.77198689989746,0,1,[0.0012527001090347767],[0.36717090010643005],110.77198689989746,110.97209689998999,0.0,110.97209689998999,0,0.0,0,1,1000,num_1,0.5229671001434326,,34,12,2026-03-13_11h07.43.947,2026A_exp2,2022.2.4,59.91224057922607,
0,0,4.9,3.7,0,0,23,23,28,,,,,111.522545899963,112.17342739994638,112.17342739994638,112.67115160007961,315,315,112.67115160007961,112.67115160007961,112.67115160007961,112.67115160007961,112.67115160007961,112.67115160007961,112.67115160007961,112.67115160007961,112.67115160007961,113.02415449987166,113.02415449987166,113.02415449987166,113.02415449987166,113.02415449987166,113.02415449987166,113.02415449987166,113.02415449987166,113.02415449987166,0,1,[0.004108299966901541],[0.36539830011315644],113.02415449987166,113.22511760005727,3.7,113.22511760005727,1,3.7,1,1,1000,num_4,0.7970521999523044,,34,12,2026-03-13_11h07.43.947,2026A_exp2,2022.2.4,59.91224057922607,
1000,1,3.7,3.7,0,0,24,24,63,,,,,114.04171069990844,114.67579540004954,114.67579540004954,115.177056199871,315,315,115.177056199871,115.177056199871,115.177056199871,115.177056199871,115.177056199871,115.177056199871,115.177056199871,115.177056199871,115.177056199871,115.5433131000027,115.5433131000027,115.5433131000027,115.5433131000027,115.5433131000027,115.5433131000027,115.5433131000027,115.5433131000027,115.5433131000027,0,1,[0.001088300021365285],[0.36723480001091957],115.5433131000027,115.7455035999883,1000,115.7455035999883,1000,1000,1000,1000,0,num_3,0.6044702001381665,,34,12,2026-03-13_11h07.43.947,2026A_exp2,2022.2.4,59.91224057922607,
1000,1,6.1,6.1,1,0,25,25,8,,,,,116.37757829995826,117.0282401998993,117.0282401998993,117.529257300077,45,45,117.529257300077,117.529257300077,117.529257300077,117.529257300077,117.529257300077,117.529257300077,117.529257300077,117.529257300077,117.529257300077,117.89562599989586,117.89562599989586,117.89562599989586,117.89562599989586,117.89562599989586,117.89562599989586,117.89562599989586,117.89562599989586,117.89562599989586,0,1,[0.0012574000284075737],[0.36730939988046885],117.89562599989586,118.09829670004547,1000,118.09829670004547,1000,1000,1000,1000,1,num_2,0.6437817998230457,,34,12,2026-03-13_11h07.43.947,2026A_exp2,2022.2.4,59.91224057922607,
1,0,4.9,3.7,1,0,26,26,27,,,,,118.76568429986946,119.41394739993848,119.41394739993848,119.9150048000738,45,315,119.9150048000738,119.9150048000738,119.9150048000738,119.9150048000738,119.9150048000738,119.9150048000738,119.9150048000738,119.9150048000738,119.9150048000738,120.28142579994164,120.28142579994164,120.28142579994164,120.28142579994164,120.28142579994164,120.28142579994164,120.28142579994164,120.28142579994164,120.28142579994164,0,1,[0.0014031999744474888],[0.3671893998980522],120.28142579994164,120.48147649993189,3.7,120.48147649993189,0,3.7,1,0,1000,num_1,0.8456500999163836,,34,12,2026-03-13_11h07.43.947,2026A_exp2,2022.2.4,59.91224057922607,
1000,1,6.1,3.7,0,0,27,27,75,,,,,121.3489486000035,121.99992679990828,121.99992679990828,122.50090029998682,315,315,122.50090029998682,122.50090029998682,122.50090029998682,122.50090029998682,122.50090029998682,122.50090029998682,122.50090029998682,122.50090029998682,122.50090029998682,122.85082289995626,122.85082289995626,122.85082289995626,122.85082289995626,122.85082289995626,122.85082289995626,122.85082289995626,122.85082289995626,122.85082289995626,0,1,[0.001219599973410368],[0.3503956999629736],122.85082289995626,123.05262980004773,1000,123.05262980004773,1000,1000,1000,1000,0,num_3,0.5773968000430614,,34,12,2026-03-13_11h07.43.947,2026A_exp2,2022.2.4,59.91224057922607,
1,0,3.7,0.0,0,0,28,28,87,,,,,123.65147989988327,124.30254240008071,124.30254240008071,124.80313499993645,315,315,124.80313499993645,124.80313499993645,124.80313499993645,124.80313499993645,124.80313499993645,124.80313499993645,124.80313499993645,124.80313499993645,124.80313499993645,125.1697471998632,125.1697471998632,125.1697471998632,125.1697471998632,125.1697471998632,125.1697471998632,125.1697471998632,125.1697471998632,125.1697471998632,0,1,[0.0007440000772476196],[0.3686778999399394],125.1697471998632,125.37364790006541,3.7,125.37364790006541,0,3.7,1,0,1000,num_1,0.7440606998279691,,34,12,2026-03-13_11h07.43.947,2026A_exp2,2022.2.4,59.91224057922607,
1000,1,3.7,3.7,0,0,29,29,72,,,,,126.13716729986481,126.78793450002559,126.78793450002559,127.28802799992263,315,45,127.28802799992263,127.28802799992263,127.28802799992263,127.28802799992263,127.28802799992263,127.28802799992263,127.28802799992263,127.28802799992263,127.28802799992263,127.63900760002434,127.63900760002434,127.63900760002434,127.63900760002434,127.63900760002434,127.63900760002434,127.63900760002434,127.63900760002434,127.63900760002434,0,1,[0.004190499894320965],[0.36556979990564287],127.63900760002434,127.84109789994545,1000,127.84109789994545,1000,1000,1000,1000,1,num_2,0.5808755001053214,,34,12,2026-03-13_11h07.43.947,2026A_exp2,2022.2.4,59.91224057922607,
1,0,0.0,6.1,1,0,30,30,50,,,,,128.43953690002672,129.09017139999196,129.09017139999196,129.59623289993033,45,315,129.59623289993033,129.59623289993033,129.59623289993033,129.59623289993033,129.59623289993033,129.59623289993033,129.59623289993033,129.59623289993033,129.59623289993033,129.95768900006078,129.95768900006078,129.95768900006078,129.95768900006078,129.95768900006078,129.95768900006078,129.95768900006078,129.95768900006078,129.95768900006078,0,1,[0.002605099929496646],[0.36573850014247],129.95768900006078,130.15799909993075,6.1,130.15799909993075,1,6.1,1,1,1000,num_4,0.40892640012316406,,34,12,2026-03-13_11h07.43.947,2026A_exp2,2022.2.4,59.91224057922607,
1000,1,0.0,6.1,1,0,31,31,71,,,,,130.59172739996575,131.25187529996037,131.25187529996037,131.7325466000475,45,45,131.7325466000475,131.7325466000475,131.7325466000475,131.7325466000475,131.7325466000475,131.7325466000475,131.7325466000475,131.7325466000475,131.7325466000475,132.09312970004976,132.09312970004976,132.09312970004976,132.09312970004976,132.09312970004976,132.09312970004976,132.09312970004976,132.09312970004976,132.09312970004976,0,1,[0.0026379998307675123],[0.3656354998238385],132.09312970004976,132.2955519000534,1000,132.2955519000534,1000,1000,1000,1000,1,num_2,0.6555265998467803,,34,12,2026-03-13_11h07.43.947,2026A_exp2,2022.2.4,59.91224057922607,
0,0,0.0,0.0,1,0,32,32,2,,,,,132.97732850001194,133.62935939989984,133.62935939989984,134.13430140004493,45,45,134.13430140004493,134.13430140004493,134.13430140004493,134.13430140004493,134.13430140004493,134.13430140004493,134.13430140004493,134.13430140004493,134.13430140004493,134.47893709992059,134.47893709992059,134.47893709992059,134.47893709992059,134.47893709992059,134.47893709992059,134.47893709992059,134.47893709992059,134.47893709992059,0,1,[0.0025106999091804028],[0.3511201001238078],134.47893709992059,134.68557520001195,0.0,134.68557520001195,0,0.0,0,1,1000,num_1,0.5689248000271618,,34,12,2026-03-13_11h07.43.947,2026A_exp2,2022.2.4,59.91224057922607,
1000,1,0.0,0.0,0,0,33,33,5,,,,,135.28051090007648,135.9303224000614,135.9303224000614,136.43147110007703,315,315,136.43147110007703,136.43147110007703,136.43147110007703,136.43147110007703,136.43147110007703,136.43147110007703,136.43147110007703,136.43147110007703,136.43147110007703,136.7979003000073,136.7979003000073,136.7979003000073,136.7979003000073,136.7979003000073,136.7979003000073,136.7979003000073,136.7979003000073,136.7979003000073,0,1,[0.0012308999430388212],[0.3672265000641346],136.7979003000073,136.99990900000557,1000,136.99990900000557,1000,1000,1000,1000,1,num_2,0.5179649000056088,,34,12,2026-03-13_11h07.43.947,2026A_exp2,2022.2.4,59.91224057922607,
1,0,0.0,4.9,0,0,34,34,73,,,,,137.5486177999992,138.1990686999634,138.1990686999634,138.7005062000826,45,45,138.7005062000826,138.7005062000826,138.7005062000826,138.7005062000826,138.7005062000826,138.7005062000826,138.7005062000826,138.7005062000826,138.7005062000826,139.06681429990567,139.06681429990567,139.06681429990567,139.06681429990567,139.06681429990567,139.06681429990567,139.06681429990567,139.06681429990567,139.06681429990567,0,1,[0.0012393000070005655],[0.3671329999342561],139.06681429990567,139.26704280008562,0.0,139.26704280008562,0,0.0,0,1,1000,num_1,0.5396922000218183,,34,12,2026-03-13_11h07.43.947,2026A_exp2,2022.2.4,59.91224057922607,
1,0,0.0,3.7,1,0,35,35,14,,,,,139.8341131999623,140.48521890002303,140.48521890002303,140.96939169988036,315,45,140.96939169988036,140.96939169988036,140.96939169988036,140.96939169988036,140.96939169988036,140.96939169988036,140.96939169988036,140.96939169988036,140.96939169988036,141.33571200002916,141.33571200002916,141.33571200002916,141.33571200002916,141.33571200002916,141.33571200002916,141.33571200002916,141.33571200002916,141.33571200002916,17,3,"[0.0007607000879943371, 0.050311800092458725, 0.18446680018678308]","[0.01748859998770058, 0.10091720009222627, 0.21764940000139177]",141.33571200002916,141.53612069995143,3.7,141.53612069995143,1,3.7,1,1,1000,num_4,0.6859089001081884,,34,12,2026-03-13_11h07.43.947,2026A_exp2,2022.2.4,59.91224057922607,
1000,1,6.1,0.0,1,0,36,36,57,,,,,142.2532645999454,142.90399640006945,142.90399640006945,143.388499799883,315,45,143.388499799883,143.388499799883,143.388499799883,143.388499799883,143.388499799883,143.388499799883,143.388499799883,143.388499799883,143.388499799883,143.75491590006277,143.75491590006277,143.75491590006277,143.75491590006277,143.75491590006277,143.75491590006277,143.75491590006277,143.75491590006277,143.75491590006277,18,1,[0.0012371998745948076],[0.08340159989893436],143.75491590006277,143.95563840004615,1000,143.95563840004615,1000,1000,1000,1000,0,num_3,0.40259950002655387,,34,12,2026-03-13_11h07.43.947,2026A_exp2,2022.2.4,59.91224057922607,
1000,1,4.9,0.0,1,0,37,37,10,,,,,144.39105720003136,145.03960669995286,145.03960669995286,145.54084270005114,45,45,145.54084270005114,145.54084270005114,145.54084270005114,145.54084270005114,145.54084270005114,145.54084270005114,145.54084270005114,145.54084270005114,145.54084270005114,145.90711100003682,145.90711100003682,145.90711100003682,145.90711100003682,145.90711100003682,145.90711100003682,145.90711100003682,145.90711100003682,145.90711100003682,0,1,[0.0007105001714080572],[0.3677977002225816],145.90711100003682,146.11121420003474,1000,146.11121420003474,1000,1000,1000,1000,1,num_2,0.6469091998878866,,34,12,2026-03-13_11h07.43.947,2026A_exp2,2022.2.4,59.91224057922607,
1000,1,6.1,0.0,1,0,38,38,29,,,,,146.77454690006562,147.4252784999553,147.4252784999553,147.9262669000309,45,315,147.9262669000309,147.9262669000309,147.9262669000309,147.9262669000309,147.9262669000309,147.9262669000309,147.9262669000309,147.9262669000309,147.9262669000309,148.29288189997897,148.29288189997897,148.29288189997897,148.29288189997897,148.29288189997897,148.29288189997897,148.29288189997897,148.29288189997897,148.29288189997897,20,3,"[0.03336950019001961, 0.3003168001305312, 0.3338432000018656]","[0.05011110007762909, 0.31718780007213354, 0.35060800006613135]",148.29288189997897,148.4946176998783,1000,148.4946176998783,1000,1000,1000,1000,1,num_2,0.7443268999923021,,34,12,2026-03-13_11h07.43.947,2026A_exp2,2022.2.4,59.91224057922607,
1000,1,0.0,3.7,0,0,39,39,46,,,,,149.26043060002849,149.91113379993476,149.91113379993476,150.41215460002422,45,45,150.41215460002422,150.41215460002422,150.41215460002422,150.41215460002422,150.41215460002422,150.41215460002422,150.41215460002422,150.41215460002422,150.41215460002422,150.76194579992443,150.76194579992443,150.76194579992443,150.76194579992443,150.76194579992443,150.76194579992443,150.76194579992443,150.76194579992443,150.76194579992443,20,2,"[0.3170002999249846, 0.35054130014032125]","[0.3338742000050843, 0.35054640006273985]",150.76194579992443,150.96194459986873,1000,150.9783894000575,1000,1000,1000,1000,1,num_2,0.5314305000938475,,34,12,2026-03-13_11h07.43.947,2026A_exp2,2022.2.4,59.91224057922607,
1,0,0.0,6.1,1,0,40,40,31,,,,,151.52926880004816,152.17996399989352,152.17996399989352,152.68100890005007,315,315,152.68100890005007,152.68100890005007,152.68100890005007,152.68100890005007,152.68100890005007,152.68100890005007,152.68100890005007,152.68100890005007,152.68100890005007,153.0308204998728,153.0308204998728,153.0308204998728,153.0308204998728,153.0308204998728,153.0308204998728,153.0308204998728,153.0308204998728,153.0308204998728,3,2,"[0.0011894002091139555, 0.31712360004894435]","[0.30047470005229115, 0.3339898001868278]",153.0308204998728,153.23099279985763,6.1,153.23099279985763,1,6.1,1,1,1000,num_4,0.5191369999665767,,34,12,2026-03-13_11h07.43.947,2026A_exp2,2022.2.4,59.91224057922607,
1000,1,3.7,0.0,0,0,41,41,76,,,,,153.7817937999498,154.43188169994392,154.43188169994392,154.91657050000504,45,45,154.91657050000504,154.91657050000504,154.91657050000504,154.91657050000504,154.91657050000504,154.91657050000504,154.91657050000504,154.91657050000504,154.91657050000504,155.28312789998017,155.28312789998017,155.28312789998017,155.28312789998017,155.28312789998017,155.28312789998017,155.28312789998017,155.28312789998017,155.28312789998017,2,2,"[0.0012415999080985785, 0.3337331998627633]","[0.30037149996496737, 0.3670748998411]",155.28312789998017,155.4849463000428,1000,155.4849463000428,1000,1000,1000,1000,1,num_2,0.48173010000027716,,34,12,2026-03-13_11h07.43.947,2026A_exp2,2022.2.4,59.91224057922607,
1000,1,0.0,0.0,1,0,42,42,9,,,,,155.9836265000049,156.63441190007143,156.63441190007143,157.135768200038,315,45,157.135768200038,157.135768200038,157.135768200038,157.135768200038,157.135768200038,157.135768200038,157.135768200038,157.135768200038,157.135768200038,157.5019441000186,157.5019441000186,157.5019441000186,157.5019441000186,157.5019441000186,157.5019441000186,157.5019441000186,157.5019441000186,157.5019441000186,12,4,"[0.06651939987204969, 0.11672009993344545, 0.18358720000833273, 0.23353949980810285]","[0.09984709997661412, 0.15029679983854294, 0.21684609982185066, 0.31703099980950356]",157.5019441000186,157.70408200006932,1000,157.70408200006932,1000,1000,1000,1000,1,num_2,0.5749843998346478,,34,12,2026-03-13_11h07.43.947,2026A_exp2,2022.2.4,59.91224057922607,
1,0,0.0,0.0,0,0,43,43,24,,,,,158.3026685998775,158.95340720005333,158.95340720005333,159.45463769999333,315,315,159.45463769999333,159.45463769999333,159.45463769999333,159.45463769999333,159.45463769999333,159.45463769999333,159.45463769999333,159.45463769999333,159.45463769999333,159.8210588998627,159.8210588998627,159.8210588998627,159.8210588998627,159.8210588998627,159.8210588998627,159.8210588998627,159.8210588998627,159.8210588998627,0,1,[0.0012307001743465662],[0.3672250001691282],159.8210588998627,160.0211064000614,0.0,160.0211064000614,0,0.0,0,1,1000,num_1,0.5525257000699639,,34,12,2026-03-13_11h07.43.947,2026A_exp2,2022.2.4,59.91224057922607,
1000,1,4.9,3.7,0,0,44,44,40,,,,,160.60498449997976,161.2557242999319,161.2557242999319,161.7401489999611,315,315,161.7401489999611,161.7401489999611,161.7401489999611,161.7401489999611,161.7401489999611,161.7401489999611,161.7401489999611,161.7401489999611,161.7401489999611,162.10674409987405,162.10674409987405,162.10674409987405,162.10674409987405,162.10674409987405,162.10674409987405,162.10674409987405,162.10674409987405,162.10674409987405,6,3,"[0.001217300072312355, 0.3175333999097347, 0.3500842999201268]","[0.250393700087443, 0.33302529994398355, 0.3665577999781817]",162.10674409987405,162.32571449992247,1000,162.32571449992247,1000,1000,1000,1000,0,num_3,0.3614399000070989,,34,12,2026-03-13_11h07.43.947,2026A_exp2,2022.2.4,59.91224057922607,
1000,1,6.1,6.1,1,0,45,45,4,,,,,162.7071553999558,163.35785660007969,163.35785660007969,163.8589182998985,315,45,163.8589182998985,163.8589182998985,163.8589182998985,163.8589182998985,163.8589182998985,163.8589182998985,163.8589182998985,163.8589182998985,163.8589182998985,164.22541729989462,164.22541729989462,164.22541729989462,164.22541729989462,164.22541729989462,164.22541729989462,164.22541729989462,164.22541729989462,164.22541729989462,0,1,[0.0012735000345855951],[0.36722379992716014],164.22541729989462,164.44898690003902,1000,164.44898690003902,1000,1000,1000,1000,1,num_2,0.4769578000996262,,34,12,2026-03-13_11h07.43.947,2026A_exp2,2022.2.4,59.91224057922607,
1,0,6.1,4.9,1,0,46,46,64,,,,,164.94270860007964,165.59351440006867,165.59351440006867,166.09443439985625,315,315,166.09443439985625,166.09443439985625,166.09443439985625,166.09443439985625,166.09443439985625,166.09443439985625,166.09443439985625,166.09443439985625,166.09443439985625,166.4442926000338,166.4442926000338,166.4442926000338,166.4442926000338,166.4442926000338,166.4442926000338,166.4442926000338,166.4442926000338,166.4442926000338,0,1,[0.0012474998366087675],[0.3518828998785466],166.4442926000338,166.64836229989305,4.9,166.64836229989305,1,4.9,1,1,1000,num_4,0.862092399969697,,34,12,2026-03-13_11h07.43.947,2026A_exp2,2022.2.4,59.91224057922607,
1,0,0.0,4.9,1,0,47,47,37,,,,,167.52852909988724,168.18013229989447,168.18013229989447,168.66381759988144,315,45,168.66381759988144,168.66381759988144,168.66381759988144,168.66381759988144,168.66381759988144,168.66381759988144,168.66381759988144,168.66381759988144,168.66381759988144,169.03011230006814,169.03011230006814,169.03011230006814,169.03011230006814,169.03011230006814,169.03011230006814,169.03011230006814,169.03011230006814,169.03011230006814,0,1,[0.0013333000242710114],[0.36686050007119775],169.03011230006814,169.23040149989538,4.9,169.23040149989538,1,4.9,1,1,1000,num_4,0.6312917999457568,,34,12,2026-03-13_11h07.43.947,2026A_exp2,2022.2.4,59.91224057922607,
1,0,6.1,0.0,0,0,48,48,47,,,,,169.88098570005968,170.52134529990144,170.52134529990144,171.01721319998614,45,315,171.01721319998614,171.01721319998614,171.01721319998614,171.01721319998614,171.01721319998614,171.01721319998614,171.01721319998614,171.01721319998614,171.01721319998614,171.3825818998739,171.3825818998739,171.3825818998739,171.3825818998739,171.3825818998739,171.3825818998739,171.3825818998739,171.3825818998739,171.3825818998739,0,1,[0.0019751000218093395],[0.36650969996117055],171.3825818998739,171.58278699987568,6.1,171.58278699987568,0,6.1,1,0,1000,num_1,0.6880284999497235,,34,12,2026-03-13_11h07.43.947,2026A_exp2,2022.2.4,59.91224057922607,
1,0,0.0,6.1,1,0,49,49,36,,,,,172.30042109987698,172.9525500999298,172.9525500999298,173.43519930006005,315,315,173.43519930006005,173.43519930006005,173.43519930006005,173.43519930006005,173.43519930006005,173.43519930006005,173.43519930006005,173.43519930006005,173.43519930006005,173.80183720006607,173.80183720006607,173.80183720006607,173.80183720006607,173.80183720006607,173.80183720006607,173.80183720006607,173.80183720006607,173.80183720006607,0,1,[0.0015177000313997269],[0.3668027000967413],173.80183720006607,174.00174700003117,6.1,174.00174700003117,1,6.1,1,1,1000,num_4,0.7164481000509113,,34,12,2026-03-13_11h07.43.947,2026A_exp2,2022.2.4,59.91224057922607,
1,0,0.0,0.0,1,0,50,50,69,,,,,174.73578260000795,175.38654879992828,175.38654879992828,175.87104050000198,315,45,175.87104050000198,175.87104050000198,175.87104050000198,175.87104050000198,175.87104050000198,175.87104050000198,175.87104050000198,175.87104050000198,175.87104050000198,176.23731469991617,176.23731469991617,176.23731469991617,176.23731469991617,176.23731469991617,176.23731469991617,176.23731469991617,176.23731469991617,176.23731469991617,0,1,[0.0012425000313669443],[0.36724189994856715],176.23731469991617,176.43764239992015,0.0,176.43764239992015,1,0.0,0,0,1000,num_4,0.6250593001022935,,34,12,2026-03-13_11h07.43.947,2026A_exp2,2022.2.4,59.91224057922607,
1,0,3.7,4.9,1,0,51,51,18,,,,,177.09021999989636,177.73895239992999,177.73895239992999,178.2440706999041,315,315,178.2440706999041,178.2440706999041,178.2440706999041,178.2440706999041,178.2440706999041,178.2440706999041,178.2440706999041,178.2440706999041,178.2440706999041,178.60618839995004,178.60618839995004,178.60618839995004,178.60618839995004,178.60618839995004,178.60618839995004,178.60618839995004,178.60618839995004,178.60618839995004,0,1,[0.002400000113993883],[0.36706070019863546],178.60618839995004,178.80671090004034,4.9,178.80671090004034,1,4.9,1,1,1000,num_4,0.5359061998315156,,34,12,2026-03-13_11h07.43.947,2026A_exp2,2022.2.4,59.91224057922607,
1000,1,0.0,4.9,0,0,52,52,60,,,,,179.37377800000831,180.0245614000596,180.0245614000596,180.50888659991324,315,45,180.50888659991324,180.50888659991324,180.50888659991324,180.50888659991324,180.50888659991324,180.50888659991324,180.50888659991324,180.50888659991324,180.50888659991324,180.8754137000069,180.8754137000069,180.8754137000069,180.8754137000069,180.8754137000069,180.8754137000069,180.8754137000069,180.8754137000069,180.8754137000069,0,1,[0.0012044000905007124],[0.36729470011778176],180.8754137000069,181.0774725000374,1000,181.0774725000374,1000,1000,1000,1000,1,num_2,0.584060600027442,,34,12,2026-03-13_11h07.43.947,2026A_exp2,2022.2.4,59.91224057922607,
1,0,6.1,3.7,1,0,53,53,51,,,,,181.69255899987184,182.34360240004025,182.34360240004025,182.82793769985437,45,45,182.82793769985437,182.82793769985437,182.82793769985437,182.82793769985437,182.82793769985437,182.82793769985437,182.82793769985437,182.82793769985437,182.82793769985437,183.19456800003536,183.19456800003536,183.19456800003536,183.19456800003536,183.19456800003536,183.19456800003536,183.19456800003536,183.19456800003536,183.19456800003536,2,2,"[0.0007194001227617264, 0.20065400004386902]","[0.16728739999234676, 0.36917600012384355]",183.19456800003536,183.3985067999456,3.7,183.3985067999456,1,3.7,1,1,1000,num_4,0.5839251999277622,,34,12,2026-03-13_11h07.43.947,2026A_exp2,2022.2.4,59.91224057922607,
1,0,0.0,6.1,1,0,54,54,33,,,,,184.01161739998497,184.66237909998745,184.66237909998745,185.16214650007896,315,315,185.16214650007896,185.16214650007896,185.16214650007896,185.16214650007896,185.16214650007896,185.16214650007896,185.16214650007896,185.16214650007896,185.16214650007896,185.51335230004042,185.51335230004042,185.51335230004042,185.51335230004042,185.51335230004042,185.51335230004042,185.51335230004042,185.51335230004042,185.51335230004042,0,1,[0.004317699931561947],[0.3638663999736309],185.51335230004042,185.71349269989878,6.1,185.71349269989878,1,6.1,1,1,1000,num_4,0.5488944000098854,,34,12,2026-03-13_11h07.43.947,2026A_exp2,2022.2.4,59.91224057922607,
1000,1,3.7,4.9,0,0,55,55,45,,,,,186.2805260999594,186.9312708999496,186.9312708999496,187.4157970000524,45,45,187.4157970000524,187.4157970000524,187.4157970000524,187.4157970000524,187.4157970000524,187.4157970000524,187.4157970000524,187.4157970000524,187.4157970000524,187.78227630001493,187.78227630001493,187.78227630001493,187.78227630001493,187.78227630001493,187.78227630001493,187.78227630001493,187.78227630001493,187.78227630001493,2,1,[0.0012274999171495438],[0.3504162000026554],187.78227630001493,187.98431229987182,1000,187.98431229987182,1000,1000,1000,1000,1,num_2,0.605463600018993,,34,12,2026-03-13_11h07.43.947,2026A_exp2,2022.2.4,59.91224057922607,
1,0,6.1,4.9,1,0,56,56,11,,,,,188.6167162999045,189.26717299991287,189.26717299991287,189.75135849998333,45,45,189.75135849998333,189.75135849998333,189.75135849998333,189.75135849998333,189.75135849998333,189.75135849998333,189.75135849998333,189.75135849998333,189.75135849998333,190.11809809994884,190.11809809994884,190.11809809994884,190.11809809994884,190.11809809994884,190.11809809994884,190.11809809994884,190.11809809994884,190.11809809994884,0,1,[0.0012336999643594027],[0.3669994999654591],190.11809809994884,190.31814250000753,4.9,190.31814250000753,1,4.9,1,1,1000,num_4,0.6000626999884844,,34,12,2026-03-13_11h07.43.947,2026A_exp2,2022.2.4,59.91224057922607,
1000,1,4.9,0.0,0,0,57,57,41,,,,,190.9352702999022,191.58598969993182,191.58598969993182,192.07042989996262,315,45,192.07042989996262,192.07042989996262,192.07042989996262,192.07042989996262,192.07042989996262,192.07042989996262,192.07042989996262,192.07042989996262,192.07042989996262,192.4368064000737,192.4368064000737,192.4368064000737,192.4368064000737,192.4368064000737,192.4368064000737,192.4368064000737,192.4368064000737,192.4368064000737,14,3,"[0.001227600034326315, 0.08356070006266236, 0.15024299989454448]","[0.03350199991837144, 0.11679530004039407, 0.23359049996361136]",192.4368064000737,192.63886060006917,1000,192.63886060006917,1000,1000,1000,1000,0,num_3,0.4548085001297295,,34,12,2026-03-13_11h07.43.947,2026A_exp2,2022.2.4,59.91224057922607,
1,0,6.1,6.1,1,0,58,58,23,,,,,193.121644299943,193.77737720008008,193.77737720008008,194.27265769988298,45,315,194.27265769988298,194.27265769988298,194.27265769988298,194.27265769988298,194.27265769988298,194.27265769988298,194.27265769988298,194.27265769988298,194.27265769988298,194.63912820001133,194.63912820001133,194.63912820001133,194.63912820001133,194.63912820001133,194.63912820001133,194.63912820001133,194.63912820001133,194.63912820001133,0,1,[0.001203400082886219],[0.3673994999844581],194.63912820001133,194.83932489994913,6.1,194.83932489994913,1,6.1,1,1,1000,num_4,0.5984486998058856,,34,12,2026-03-13_11h07.43.947,2026A_exp2,2022.2.4,59.91224057922607,
1000,1,4.9,0.0,0,0,59,59,54,,,,,195.45661429991014,196.10736440005712,196.10736440005712,196.60846289992332,315,315,196.60846289992332,196.60846289992332,196.60846289992332,196.60846289992332,196.60846289992332,196.60846289992332,196.60846289992332,196.60846289992332,196.60846289992332,196.97496580006555,196.97496580006555,196.97496580006555,196.97496580006555,196.97496580006555,196.97496580006555,196.97496580006555,196.97496580006555,196.97496580006555,4,4,"[0.017441000090911984, 0.05017719999887049, 0.11678360006771982, 0.33379360008984804]","[0.033491500187665224, 0.10023740003816783, 0.3171344001311809, 0.3670850000344217]",196.97496580006555,197.1768885999918,1000,197.1768885999918,1000,1000,1000,1000,0,num_3,0.4299871001858264,,34,12,2026-03-13_11h07.43.947,2026A_exp2,2022.2.4,59.91224057922607,
1000,1,0.0,0.0,0,0,60,60,15,,,,,197.62733739987016,198.27589470008388,198.27589470008388,198.77728200005367,45,45,198.77728200005367,198.77728200005367,198.77728200005367,198.77728200005367,198.77728200005367,198.77728200005367,198.77728200005367,198.77728200005367,198.77728200005367,199.14369919989258,199.14369919989258,199.14369919989258,199.14369919989258,199.14369919989258,199.14369919989258,199.14369919989258,199.14369919989258,199.14369919989258,15,3,"[0.017596499994397163, 0.26722829998470843, 0.3173869999591261]","[0.050376599887385964, 0.3005417000968009, 0.3672507998999208]",199.14369919989258,199.34364690002985,1000,199.34364690002985,1000,1000,1000,1000,0,num_3,0.5265639999415725,,34,12,2026-03-13_11h07.43.947,2026A_exp2,2022.2.4,59.91224057922607,
1,0,6.1,0.0,1,0,61,61,89,,,,,199.89445200003684,200.54507089988329,200.54507089988329,201.04628979996778,45,315,201.04628979996778,201.04628979996778,201.04628979996778,201.04628979996778,201.04628979996778,201.04628979996778,201.04628979996778,201.04628979996778,201.04628979996778,201.413816699991,201.413816699991,201.413816699991,201.413816699991,201.413816699991,201.413816699991,201.413816699991,201.413816699991,201.413816699991,0,1,[0.001191900111734867],[0.3676491000223905],201.413816699991,201.61288350005634,0.0,201.61288350005634,0,0.0,0,1,1000,num_1,0.697817699983716,,34,12,2026-03-13_11h07.43.947,2026A_exp2,2022.2.4,59.91224057922607,
0,0,0.0,3.7,0,0,62,62,34,,,,,202.33005809993483,202.9808624999132,202.9808624999132,203.46503670001402,315,45,203.46503670001402,203.46503670001402,203.46503670001402,203.46503670001402,203.46503670001402,203.46503670001402,203.46503670001402,203.46503670001402,203.46503670001402,203.8314833000768,203.8314833000768,203.8314833000768,203.8314833000768,203.8314833000768,203.8314833000768,203.8314833000768,203.8314833000768,203.8314833000768,7,3,"[0.05025600013323128, 0.08643810008652508, 0.3174865001346916]","[0.06704010022804141, 0.3007337001617998, 0.35074920020997524]",203.8314833000768,204.03180520003662,3.7,204.03180520003662,1,3.7,1,1,1000,num_4,0.517718099988997,,34,12,2026-03-13_11h07.43.947,2026A_exp2,2022.2.4,59.91224057922607,
1,0,0.0,3.7,1,0,63,63,32,,,,,204.56537760002539,205.2058216999285,205.2058216999285,205.70087489997968,45,45,205.70087489997968,205.70087489997968,205.70087489997968,205.70087489997968,205.70087489997968,205.70087489997968,205.70087489997968,205.70087489997968,205.70087489997968,206.0673012000043,206.0673012000043,206.0673012000043,206.0673012000043,206.0673012000043,206.0673012000043,206.0673012000043,206.0673012000043,206.0673012000043,17,1,[0.2350082998163998],[0.3340428997762501],206.0673012000043,206.26747040008195,3.7,206.26747040008195,1,3.7,1,1,1000,num_4,0.8188875999767333,,34,12,2026-03-13_11h07.43.947,2026A_exp2,2022.2.4,59.91224057922607,
1000,1,6.1,0.0,0,0,64,64,81,,,,,207.1182615000289,207.76886599999852,207.76886599999852,208.25340269994922,45,45,208.25340269994922,208.25340269994922,208.25340269994922,208.25340269994922,208.25340269994922,208.25340269994922,208.25340269994922,208.25340269994922,208.25340269994922,208.61987829999998,208.61987829999998,208.61987829999998,208.61987829999998,208.61987829999998,208.61987829999998,208.61987829999998,208.61987829999998,208.61987829999998,23,0,,,208.61987829999998,208.82188210007735,1000,208.82188210007735,1000,1000,1000,1000,0,num_3,0.46477179997600615,,34,12,2026-03-13_11h07.43.947,2026A_exp2,2022.2.4,59.91224057922607,
1,0,0.0,0.0,1,0,65,65,39,,,,,209.3037781000603,209.95437350007705,209.95437350007705,210.45535639999434,45,45,210.45535639999434,210.45535639999434,210.45535639999434,210.45535639999434,210.45535639999434,210.45535639999434,210.45535639999434,210.45535639999434,210.45535639999434,210.82201740005985,210.82201740005985,210.82201740005985,210.82201740005985,210.82201740005985,210.82201740005985,210.82201740005985,210.82201740005985,210.82201740005985,23,0,,,210.82201740005985,211.0220739999786,0.0,211.0220739999786,1,0.0,0,0,1000,num_4,0.8800323999021202,,34,12,2026-03-13_11h07.43.947,2026A_exp2,2022.2.4,59.91224057922607,
1,0,0.0,0.0,0,0,66,66,55,,,,,211.92295329994522,212.55712300003506,212.55712300003506,213.05809279996902,315,315,213.05809279996902,213.05809279996902,213.05809279996902,213.05809279996902,213.05809279996902,213.05809279996902,213.05809279996902,213.05809279996902,213.05809279996902,213.42460889997892,213.42460889997892,213.42460889997892,213.42460889997892,213.42460889997892,213.42460889997892,213.42460889997892,213.42460889997892,213.42460889997892,23,0,,,213.42460889997892,213.62485449993983,0.0,213.62485449993983,0,0.0,0,1,1000,num_1,0.7891677001025528,,34,12,2026-03-13_11h07.43.947,2026A_exp2,2022.2.4,59.91224057922607,
0,0,6.1,0.0,0,0,67,67,74,,,,,214.44188699987717,215.0928847999312,215.0928847999312,215.57727880007587,315,315,215.57727880007587,215.57727880007587,215.57727880007587,215.57727880007587,215.57727880007587,215.57727880007587,215.57727880007587,215.57727880007587,215.57727880007587,215.94379669986665,215.94379669986665,215.94379669986665,215.94379669986665,215.94379669986665,215.94379669986665,215.94379669986665,215.94379669986665,215.94379669986665,23,0,,,215.94379669986665,216.15453940001316,0.0,216.15453940001316,1,0.0,0,0,1000,num_4,0.7400912998709828,,34,12,2026-03-13_11h07.43.947,2026A_exp2,2022.2.4,59.91224057922607,
1,0,6.1,0.0,0,0,68,68,82,,,,,216.91127749998122,217.56206879997626,217.56206879997626,218.0630481999833,45,315,218.0630481999833,218.0630481999833,218.0630481999833,218.0630481999833,218.0630481999833,218.0630481999833,218.0630481999833,218.0630481999833,218.0630481999833,218.41315159993246,218.41315159993246,218.41315159993246,218.41315159993246,218.41315159993246,218.41315159993246,218.41315159993246,218.41315159993246,218.41315159993246,6,1,[0.0833961998578161],[0.35157659999094903],218.41315159993246,218.61598549992777,6.1,218.61598549992777,1,6.1,1,1,1000,num_4,0.7586791999638081,,34,12,2026-03-13_11h07.43.947,2026A_exp2,2022.2.4,59.91224057922607,
1,0,3.7,4.9,1,0,69,69,20,,,,,219.3971084000077,220.04784969985485,220.04784969985485,220.5322906000074,45,315,220.5322906000074,220.5322906000074,220.5322906000074,220.5322906000074,220.5322906000074,220.5322906000074,220.5322906000074,220.5322906000074,220.5322906000074,220.89872809988447,220.89872809988447,220.89872809988447,220.89872809988447,220.89872809988447,220.89872809988447,220.89872809988447,220.89872809988447,220.89872809988447,9,1,[0.15064179990440607],[0.36762229981832206],220.89872809988447,221.09890519990586,4.9,221.09890519990586,1,4.9,1,1,1000,num_4,0.6032827999442816,,34,12,2026-03-13_11h07.43.947,2026A_exp2,2022.2.4,59.91224057922607,
1000,1,3.7,0.0,0,0,70,70,56,,,,,221.73275569989346,222.37425939994864,222.37425939994864,222.86803440004587,45,315,222.86803440004587,222.86803440004587,222.86803440004587,222.86803440004587,222.86803440004587,222.86803440004587,222.86803440004587,222.86803440004587,222.86803440004587,223.23456300003454,223.23456300003454,223.23456300003454,223.23456300003454,223.23456300003454,223.23456300003454,223.23456300003454,223.23456300003454,223.23456300003454,0,1,[0.0014249999076128006],[0.36801229999400675],223.23456300003454,223.43847909988835,1000,223.43847909988835,1000,1000,1000,1000,1,num_2,1.119777200045064,,34,12,2026-03-13_11h07.43.947,2026A_exp2,2022.2.4,59.91224057922607,
1000,1,6.1,6.1,0,0,71,71,16,,,,,224.58812279999256,225.2363831999246,225.2363831999246,225.7374623999931,45,45,225.7374623999931,225.7374623999931,225.7374623999931,225.7374623999931,225.7374623999931,225.7374623999931,225.7374623999931,225.7374623999931,225.7374623999931,226.10386579995975,226.10386579995975,226.10386579995975,226.10386579995975,226.10386579995975,226.10386579995975,226.10386579995975,226.10386579995975,226.10386579995975,0,1,[0.0012550000101327896],[0.3669831999577582],226.10386579995975,226.3041900000535,1000,226.3041900000535,1000,1000,1000,1000,1,num_2,0.5094699000474066,,34,12,2026-03-13_11h07.43.947,2026A_exp2,2022.2.4,59.91224057922607,
1000,1,0.0,4.9,0,0,72,72,61,,,,,226.83787829987705,227.4983852999285,227.4983852999285,227.98958229995333,315,45,227.98958229995333,227.98958229995333,227.98958229995333,227.98958229995333,227.98958229995333,227.98958229995333,227.98958229995333,227.98958229995333,227.98958229995333,228.35626449994743,228.35626449994743,228.35626449994743,228.35626449994743,228.35626449994743,228.35626449994743,228.35626449994743,228.35626449994743,228.35626449994743,5,6,"[0.0016596999485045671, 0.04984649992547929, 0.08327249996364117, 0.18342599994502962, 0.2500267999712378, 0.2999670000281185]","[0.03317720000632107, 0.06647369987331331, 0.1667030998505652, 0.21657259995117784, 0.28340830001980066, 0.3668263000436127]",228.35626449994743,228.58373939990997,1000,228.58373939990997,1000,1000,1000,1000,1,num_2,0.5421214001253247,,34,12,2026-03-13_11h07.43.947,2026A_exp2,2022.2.4,59.91224057922607,
1000,1,0.0,0.0,1,0,73,73,78,,,,,229.1403739999514,229.79097569989972,229.79097569989972,230.29202759987675,315,315,230.29202759987675,230.29202759987675,230.29202759987675,230.29202759987675,230.29202759987675,230.29202759987675,230.29202759987675,230.29202759987675,230.29202759987675,230.65843189996667,230.65843189996667,230.65843189996667,230.65843189996667,230.65843189996667,230.65843189996667,230.65843189996667,230.65843189996667,230.65843189996667,21,2,"[0.10028469981625676, 0.18363559991121292]","[0.11695489985868335, 0.20028489991091192]",230.65843189996667,230.85911399987526,1000,230.85911399987526,1000,1000,1000,1000,1,num_2,0.4910321000497788,,34,12,2026-03-13_11h07.43.947,2026A_exp2,2022.2.4,59.91224057922607,
1000,1,0.0,0.0,1,0,74,74,85,,,,,231.37585929990746,232.02640879992396,232.02640879992396,232.52768579986878,45,45,232.52768579986878,232.52768579986878,232.52768579986878,232.52768579986878,232.52768579986878,232.52768579986878,232.52768579986878,232.52768579986878,232.52768579986878,232.89397269999608,232.89397269999608,232.89397269999608,232.89397269999608,232.89397269999608,232.89397269999608,232.89397269999608,232.89397269999608,232.89397269999608,0,1,[0.0012441999278962612],[0.36661259992979467],232.89397269999608,233.1093520000577,1000,233.1093520000577,1000,1000,1000,1000,1,num_2,0.5043003999162465,,34,12,2026-03-13_11h07.43.947,2026A_exp2,2022.2.4,59.91224057922607,
1000,1,0.0,0.0,0,0,75,75,86,,,,,233.62816479988396,234.27920909994282,234.27920909994282,234.77959989989176,45,315,234.77959989989176,234.77959989989176,234.77959989989176,234.77959989989176,234.77959989989176,234.77959989989176,234.77959989989176,234.77959989989176,234.77959989989176,235.1464004998561,235.1464004998561,235.1464004998561,235.1464004998561,235.1464004998561,235.1464004998561,235.1464004998561,235.1464004998561,235.1464004998561,14,3,"[0.0007424000650644302, 0.11754320003092289, 0.15053509990684688]","[0.10040239989757538, 0.1343199999537319, 0.18385979998856783]",235.1464004998561,235.3462225999683,1000,235.3462225999683,1000,1000,1000,1000,1,num_2,0.6123943999409676,,34,12,2026-03-13_11h07.43.947,2026A_exp2,2022.2.4,59.91224057922607,
1000,1,0.0,6.1,1,0,76,76,43,,,,,235.98025149991736,236.6235849999357,236.6235849999357,237.12363599985838,315,315,237.12363599985838,237.12363599985838,237.12363599985838,237.12363599985838,237.12363599985838,237.12363599985838,237.12363599985838,237.12363599985838,237.12363599985838,237.48190200002864,237.48190200002864,237.48190200002864,237.48190200002864,237.48190200002864,237.48190200002864,237.48190200002864,237.48190200002864,237.48190200002864,0,1,[0.0030227999668568373],[0.36537929996848106],237.48190200002864,237.6841710000299,1000,237.6841710000299,1000,1000,1000,1000,1,num_2,0.7134457000065595,,34,12,2026-03-13_11h07.43.947,2026A_exp2,2022.2.4,59.91224057922607,
1,0,0.0,0.0,1,0,77,77,42,,,,,238.41610340005718,239.0746102000121,239.0746102000121,239.58125629997812,45,315,239.58125629997812,239.58125629997812,239.58125629997812,239.58125629997812,239.58125629997812,239.58125629997812,239.58125629997812,239.58125629997812,239.58125629997812,239.93434259993955,239.93434259993955,239.93434259993955,239.93434259993955,239.93434259993955,239.93434259993955,239.93434259993955,239.93434259993955,239.93434259993955,23,0,,,239.93434259993955,240.134559399914,0.0,240.134559399914,0,0.0,0,1,1000,num_1,0.5999857001006603,,34,12,2026-03-13_11h07.43.947,2026A_exp2,2022.2.4,59.91224057922607,
1000,1,3.7,0.0,1,0,78,78,19,,,,,240.75169890001416,241.402571399929,241.402571399929,241.8869678999763,45,45,241.8869678999763,241.8869678999763,241.8869678999763,241.8869678999763,241.8869678999763,241.8869678999763,241.8869678999763,241.8869678999763,241.8869678999763,242.25338839995675,242.25338839995675,242.25338839995675,242.25338839995675,242.25338839995675,242.25338839995675,242.25338839995675,242.25338839995675,242.25338839995675,7,3,"[0.00121779995970428, 0.1005591000430286, 0.16709630005061626]","[0.050417999969795346, 0.11713559995405376, 0.3674188998993486]",242.25338839995675,242.4551661000587,1000,242.4551661000587,1000,1000,1000,1000,1,num_2,0.4384826999157667,,34,12,2026-03-13_11h07.43.947,2026A_exp2,2022.2.4,59.91224057922607,
1000,1,0.0,0.0,0,0,79,79,17,,,,,242.92058639996685,243.57138919993304,243.57138919993304,244.07257309998386,315,315,244.07257309998386,244.07257309998386,244.07257309998386,244.07257309998386,244.07257309998386,244.07257309998386,244.07257309998386,244.07257309998386,244.07257309998386,244.43898439989425,244.43898439989425,244.43898439989425,244.43898439989425,244.43898439989425,244.43898439989425,244.43898439989425,244.43898439989425,244.43898439989425,8,2,"[0.0012055998668074608, 0.2169989999383688]","[0.20043660001829267, 0.2671680999919772]",244.43898439989425,244.64142120000906,1000,244.64142120000906,1000,1000,1000,1000,1,num_2,0.49239610019139946,,34,12,2026-03-13_11h07.43.947,2026A_exp2,2022.2.4,59.91224057922607,
1000,1,0.0,0.0,1,0,80,80,1,,,,,245.15618719998747,245.80705489986576,245.80705489986576,246.29126770002767,45,45,246.29126770002767,246.29126770002767,246.29126770002767,246.29126770002767,246.29126770002767,246.29126770002767,246.29126770002767,246.29126770002767,246.29126770002767,246.6578229998704,246.6578229998704,246.6578229998704,246.6578229998704,246.6578229998704,246.6578229998704,246.6578229998704,246.6578229998704,246.6578229998704,13,3,"[0.18363820016384125, 0.21695809997618198, 0.2502518000546843]","[0.20016290014609694, 0.23368890001438558, 0.36704959999769926]",246.6578229998704,246.86384389991872,1000,246.86384389991872,1000,1000,1000,1000,1,num_2,0.9741217000409961,,34,12,2026-03-13_11h07.43.947,2026A_exp2,2022.2.4,59.91224057922607,
0,0,0.0,0.0,0,0,81,81,59,,,,,247.85900019994006,248.50966709991917,248.50966709991917,249.01081930007786,315,45,249.01081930007786,249.01081930007786,249.01081930007786,249.01081930007786,249.01081930007786,249.01081930007786,249.01081930007786,249.01081930007786,249.01081930007786,249.37716359994374,249.37716359994374,249.37716359994374,249.37716359994374,249.37716359994374,249.37716359994374,249.37716359994374,249.37716359994374,249.37716359994374,0,1,[0.0014909000601619482],[0.3671273998916149],249.37716359994374,249.57739929994568,0.0,249.57739929994568,1,0.0,0,0,1000,num_4,0.8121638998854905,,34,12,2026-03-13_11h07.43.947,2026A_exp2,2022.2.4,59.91224057922607,
1000,1,3.7,6.1,1,0,82,82,48,,,,,250.41137970006093,251.06232040002942,251.06232040002942,251.56204109988175,45,45,251.56204109988175,251.56204109988175,251.56204109988175,251.56204109988175,251.56204109988175,251.56204109988175,251.56204109988175,251.56204109988175,251.56204109988175,251.9129457999952,251.9129457999952,251.9129457999952,251.9129457999952,251.9129457999952,251.9129457999952,251.9129457999952,251.9129457999952,251.9129457999952,23,0,,,251.9129457999952,252.11536290007643,1000,252.11536290007643,1000,1000,1000,1000,1,num_2,0.5237052999436855,,34,12,2026-03-13_11h07.43.947,2026A_exp2,2022.2.4,59.91224057922607,
1000,1,4.9,4.9,1,0,83,83,68,,,,,252.66358370007947,253.31451179995202,253.31451179995202,253.83186640008353,45,315,253.83186640008353,253.83186640008353,253.83186640008353,253.83186640008353,253.83186640008353,253.83186640008353,253.83186640008353,253.83186640008353,253.83186640008353,254.18204510002397,254.18204510002397,254.18204510002397,254.18204510002397,254.18204510002397,254.18204510002397,254.18204510002397,254.18204510002397,254.18204510002397,17,2,"[0.19760060007683933, 0.2977332000155002]","[0.2141539000440389, 0.3643537999596447]",254.18204510002397,254.38545739999972,1000,254.38545739999972,1000,1000,1000,1000,1,num_2,0.46828549983911216,,34,12,2026-03-13_11h07.43.947,2026A_exp2,2022.2.4,59.91224057922607,
1,0,6.1,0.0,1,0,84,84,70,,,,,254.8828714999836,255.53344499995,255.53344499995,256.0386510998942,315,45,256.0386510998942,256.0386510998942,256.0386510998942,256.0386510998942,256.0386510998942,256.0386510998942,256.0386510998942,256.0386510998942,256.0386510998942,256.40085930004716,256.40085930004716,256.40085930004716,256.40085930004716,256.40085930004716,256.40085930004716,256.40085930004716,256.40085930004716,256.40085930004716,17,3,"[0.021311899879947305, 0.13278230000287294, 0.1828240999020636]","[0.06579849985428154, 0.14931089989840984, 0.2159998998977244]",256.40085930004716,256.60134529997595,0.0,256.60134529997595,0,0.0,0,1,1000,num_1,0.6770239998586476,,34,12,2026-03-13_11h07.43.947,2026A_exp2,2022.2.4,59.91224057922607,
1000,1,6.1,0.0,1,0,85,85,83,,,,,257.3017589999363,257.9525299000088,257.9525299000088,258.453312800033,45,315,258.453312800033,258.453312800033,258.453312800033,258.453312800033,258.453312800033,258.453312800033,258.453312800033,258.453312800033,258.453312800033,258.8033443999011,258.8033443999011,258.8033443999011,258.8033443999011,258.8033443999011,258.8033443999011,258.8033443999011,258.8033443999011,258.8033443999011,0,1,[0.0007449998520314693],[0.3511766998562962],258.8033443999011,259.00532580004074,1000,259.00532580004074,1000,1000,1000,1000,0,num_3,0.5616056998260319,,34,12,2026-03-13_11h07.43.947,2026A_exp2,2022.2.4,59.91224057922607,
1,0,4.9,0.0,0,0,86,86,53,,,,,259.5873738999944,260.2381370998919,260.2381370998919,260.72253159992397,315,315,260.72253159992397,260.72253159992397,260.72253159992397,260.72253159992397,260.72253159992397,260.72253159992397,260.72253159992397,260.72253159992397,260.72253159992397,261.0889449000824,261.0889449000824,261.0889449000824,261.0889449000824,261.0889449000824,261.0889449000824,261.0889449000824,261.0889449000824,261.0889449000824,23,0,,,261.0889449000824,261.2891907999292,4.9,261.2891907999292,1,4.9,1,1,1000,num_4,0.6770746000111103,,34,12,2026-03-13_11h07.43.947,2026A_exp2,2022.2.4,59.91224057922607,
1000,1,3.7,0.0,1,0,87,87,38,,,,,261.9897602000274,262.6237580999732,262.6237580999732,263.124933199957,45,45,263.124933199957,263.124933199957,263.124933199957,263.124933199957,263.124933199957,263.124933199957,263.124933199957,263.124933199957,263.124933199957,263.4911116999574,263.4911116999574,263.4911116999574,263.4911116999574,263.4911116999574,263.4911116999574,263.4911116999574,263.4911116999574,263.4911116999574,23,0,,,263.4911116999574,263.69280249997973,1000,263.69280249997973,1000,1000,1000,1000,1,num_2,0.5376112998928875,,34,12,2026-03-13_11h07.43.947,2026A_exp2,2022.2.4,59.91224057922607,
0,0,4.9,0.0,1,0,88,88,67,,,,,264.2588869999163,264.90910649998114,264.90910649998114,265.41012919996865,315,315,265.41012919996865,265.41012919996865,265.41012919996865,265.41012919996865,265.41012919996865,265.41012919996865,265.41012919996865,265.41012919996865,265.41012919996865,265.7766080999281,265.7766080999281,265.7766080999281,265.7766080999281,265.7766080999281,265.7766080999281,265.7766080999281,265.7766080999281,265.7766080999281,23,0,,,265.7766080999281,265.9768163000699,4.9,265.9768163000699,1,4.9,1,1,1000,num_4,0.5172296001110226,,34,12,2026-03-13_11h07.43.947,2026A_exp2,2022.2.4,59.91224057922607,
1,0,3.7,0.0,1,0,89,89,12,,,,,266.51150899985805,267.14467959990725,267.14467959990725,267.64585909992456,315,315,267.64585909992456,267.64585909992456,267.64585909992456,267.64585909992456,267.64585909992456,267.64585909992456,267.64585909992456,267.64585909992456,267.64585909992456,268.01212479989044,268.01212479989044,268.01212479989044,268.01212479989044,268.01212479989044,268.01212479989044,268.01212479989044,268.01212479989044,268.01212479989044,20,3,"[0.1513175000436604, 0.18359880009666085, 0.3504534000530839]","[0.16721230000257492, 0.20027779997326434, 0.3669223999604583]",268.01212479989044,268.2124987000134,0.0,268.2124987000134,0,0.0,0,1,1000,num_1,0.7533099001739174,,34,12,2026-03-13_11h07.43.947,2026A_exp2,2022.2.4,59.91224057922607,
,,,,,,,,,,,,,,,,,,,,,,,,,,,,,,,,,,,,,,,,,,,,,,,,,,,,268.9988315999508,,,,,,,
