validity,detectorcomp,contrastCW,contrastCCW,precueCWorCCW,block_80trials.thisRepN,block_80trials.thisTrialN,block_80trials.thisN,block_80trials.thisIndex,etRecord.started,etRecord.stopped,text.started,text.stopped,text_4.started,text_4.stopped,text_6.started,text_6.stopped,oriCW,oriCCW,roi_2.started,grating_UR.started,grating_UL.started,grating_LR.started,grating_LL.started,noise_UR.started,noise_UL.started,noise_LR.started,noise_LL.started,roi_2.stopped,grating_UR.stopped,grating_UL.stopped,grating_LR.stopped,grating_LL.stopped,noise_UR.stopped,noise_UL.stopped,noise_LR.stopped,noise_LL.stopped,outframe,roi_2.numLooks,roi_2.timesOn,roi_2.timesOff,text_2.started,text_2.stopped,probedcontrast,key_resp.started,respdetect,relevantContrast,correctDetect,TorFdetect,respCWorCCW,key_resp.keys,key_resp.rt,feedback_display_.started,participantNo,blockNo,date,expName,psychopyVersion,frameRate,
1000,1,6.1,0.0,1,0,0,0,61,5.450006574392319e-05,5.450006574392319e-05,52.09302189992741,54.096197800012305,54.096197800012305,54.7297325998079,54.7297325998079,55.25322619988583,315,45,55.25322619988583,55.25322619988583,55.25322619988583,55.25322619988583,55.25322619988583,55.25322619988583,55.25322619988583,55.25322619988583,55.25322619988583,55.59734989982098,55.59734989982098,55.59734989982098,55.59734989982098,55.59734989982098,55.59734989982098,55.59734989982098,55.59734989982098,55.59734989982098,23,0,,,55.59734989982098,55.79790919995867,1000,55.79790919995867,1000,1000,1000,1000,0,num_3,0.6218637998681515,,31,6,2026-03-12_13h51.55.393,2026A_exp2,2022.2.4,59.890854855913865,
1,0,0.0,6.1,0,0,1,1,3,,,,,56.44800679991022,57.082152099814266,57.082152099814266,57.58331099990755,45,45,57.58331099990755,57.58331099990755,57.58331099990755,57.58331099990755,57.58331099990755,57.58331099990755,57.58331099990755,57.58331099990755,57.58331099990755,57.94956889981404,57.94956889981404,57.94956889981404,57.94956889981404,57.94956889981404,57.94956889981404,57.94956889981404,57.94956889981404,57.94956889981404,23,0,,,57.94956889981404,58.149774299934506,0.0,58.149774299934506,0,0.0,0,1,1000,num_1,0.9183080000802875,,31,6,2026-03-12_13h51.55.393,2026A_exp2,2022.2.4,59.890854855913865,
1,0,0.0,4.9,0,0,2,2,9,,,,,59.101223999867216,59.75126399984583,59.75126399984583,60.235979799879715,315,315,60.235979799879715,60.235979799879715,60.235979799879715,60.235979799879715,60.235979799879715,60.235979799879715,60.235979799879715,60.235979799879715,60.235979799879715,60.60229489998892,60.60229489998892,60.60229489998892,60.60229489998892,60.60229489998892,60.60229489998892,60.60229489998892,60.60229489998892,60.60229489998892,23,0,,,60.60229489998892,60.80303659988567,0.0,60.80303659988567,0,0.0,0,1,1000,num_1,0.8490055999718606,,31,6,2026-03-12_13h51.55.393,2026A_exp2,2022.2.4,59.890854855913865,
1000,1,0.0,4.9,0,0,3,3,50,,,,,61.67050599982031,62.30399929988198,62.30399929988198,62.805081699974835,315,315,62.805081699974835,62.805081699974835,62.805081699974835,62.805081699974835,62.805081699974835,62.805081699974835,62.805081699974835,62.805081699974835,62.805081699974835,63.171752699883655,63.171752699883655,63.171752699883655,63.171752699883655,63.171752699883655,63.171752699883655,63.171752699883655,63.171752699883655,63.171752699883655,23,0,,,63.171752699883655,63.372098199790344,1000,63.372098199790344,1000,1000,1000,1000,1,num_2,0.5519366001244634,,31,6,2026-03-12_13h51.55.393,2026A_exp2,2022.2.4,59.890854855913865,
1000,1,3.7,3.7,0,0,4,4,76,,,,,63.955711199902,64.60642799991183,64.60642799991183,65.09076279983856,45,315,65.09076279983856,65.09076279983856,65.09076279983856,65.09076279983856,65.09076279983856,65.09076279983856,65.09076279983856,65.09076279983856,65.09076279983856,65.45718139992096,65.45718139992096,65.45718139992096,65.45718139992096,65.45718139992096,65.45718139992096,65.45718139992096,65.45718139992096,65.45718139992096,23,0,,,65.45718139992096,65.65771820000373,1000,65.65771820000373,1000,1000,1000,1000,1,num_2,0.6982696000486612,,31,6,2026-03-12_13h51.55.393,2026A_exp2,2022.2.4,59.890854855913865,
1000,1,4.9,3.7,0,0,5,5,26,,,,,66.37518599978648,67.02551859989762,67.02551859989762,67.52665999997407,45,315,67.52665999997407,67.52665999997407,67.52665999997407,67.52665999997407,67.52665999997407,67.52665999997407,67.52665999997407,67.52665999997407,67.52665999997407,67.8767116998788,67.8767116998788,67.8767116998788,67.8767116998788,67.8767116998788,67.8767116998788,67.8767116998788,67.8767116998788,67.8767116998788,22,0,,,67.8767116998788,68.07699139998294,1000,68.07699139998294,1000,1000,1000,1000,0,num_3,0.5424265000037849,,31,6,2026-03-12_13h51.55.393,2026A_exp2,2022.2.4,59.890854855913865,
0,0,0.0,6.1,1,0,6,6,84,,,,,68.64402329991572,69.29458929994144,69.29458929994144,69.79549509985372,315,45,69.79549509985372,69.79549509985372,69.79549509985372,69.79549509985372,69.79549509985372,69.79549509985372,69.79549509985372,69.79549509985372,69.79549509985372,70.14607359981164,70.14607359981164,70.14607359981164,70.14607359981164,70.14607359981164,70.14607359981164,70.14607359981164,70.14607359981164,70.14607359981164,22,0,,,70.14607359981164,70.34553329995833,0.0,70.34553329995833,0,0.0,0,1,1000,num_1,1.4417434001807123,,31,6,2026-03-12_13h51.55.393,2026A_exp2,2022.2.4,59.890854855913865,
0,0,4.9,6.1,0,0,7,7,1,,,,,71.8134908999782,72.46448819991201,72.46448819991201,72.94892499991693,45,45,72.94892499991693,72.94892499991693,72.94892499991693,72.94892499991693,72.94892499991693,72.94892499991693,72.94892499991693,72.94892499991693,72.94892499991693,73.31529459985904,73.31529459985904,73.31529459985904,73.31529459985904,73.31529459985904,73.31529459985904,73.31529459985904,73.31529459985904,73.31529459985904,23,0,,,73.31529459985904,73.51550369989127,6.1,73.51550369989127,1,6.1,1,1,1000,num_4,0.8726822999306023,,31,6,2026-03-12_13h51.55.393,2026A_exp2,2022.2.4,59.890854855913865,
1,0,0.0,4.9,1,0,8,8,44,,,,,74.41625289991498,75.06671549985185,75.06671549985185,75.5513907999266,315,45,75.5513907999266,75.5513907999266,75.5513907999266,75.5513907999266,75.5513907999266,75.5513907999266,75.5513907999266,75.5513907999266,75.5513907999266,75.91788319987245,75.91788319987245,75.91788319987245,75.91788319987245,75.91788319987245,75.91788319987245,75.91788319987245,75.91788319987245,75.91788319987245,23,0,,,75.91788319987245,76.11790709989145,4.9,76.11790709989145,1,4.9,1,1,1000,num_4,0.5015177999157459,,31,6,2026-03-12_13h51.55.393,2026A_exp2,2022.2.4,59.890854855913865,
1000,1,0.0,0.0,1,0,9,9,78,,,,,76.63506529992446,77.28607279993594,77.28607279993594,77.77023849985562,45,45,77.77023849985562,77.77023849985562,77.77023849985562,77.77023849985562,77.77023849985562,77.77023849985562,77.77023849985562,77.77023849985562,77.77023849985562,78.1366376997903,78.1366376997903,78.1366376997903,78.1366376997903,78.1366376997903,78.1366376997903,78.1366376997903,78.1366376997903,78.1366376997903,23,0,,,78.1366376997903,78.33715429995209,1000,78.33715429995209,1000,1000,1000,1000,0,num_3,0.7546959000173956,,31,6,2026-03-12_13h51.55.393,2026A_exp2,2022.2.4,59.890854855913865,
1,0,6.1,3.7,0,0,10,10,79,,,,,79.12092959997244,79.77178019983694,79.77178019983694,80.27270909980871,45,315,80.27270909980871,80.27270909980871,80.27270909980871,80.27270909980871,80.27270909980871,80.27270909980871,80.27270909980871,80.27270909980871,80.27270909980871,80.63929039984941,80.63929039984941,80.63929039984941,80.63929039984941,80.63929039984941,80.63929039984941,80.63929039984941,80.63929039984941,80.63929039984941,23,0,,,80.63929039984941,80.83936099987477,6.1,80.83936099987477,1,6.1,1,1,1000,num_4,0.9965556999668479,,31,6,2026-03-12_13h51.55.393,2026A_exp2,2022.2.4,59.890854855913865,
0,0,6.1,0.0,0,0,11,11,65,,,,,81.85704489983618,82.50772799993865,82.50772799993865,83.00898599997163,315,315,83.00898599997163,83.00898599997163,83.00898599997163,83.00898599997163,83.00898599997163,83.00898599997163,83.00898599997163,83.00898599997163,83.00898599997163,83.37520429980941,83.37520429980941,83.37520429980941,83.37520429980941,83.37520429980941,83.37520429980941,83.37520429980941,83.37520429980941,83.37520429980941,23,0,,,83.37520429980941,83.57546439999714,0.0,83.57546439999714,1,0.0,0,0,1000,num_4,0.9253656999208033,,31,6,2026-03-12_13h51.55.393,2026A_exp2,2022.2.4,59.890854855913865,
1000,1,0.0,3.7,1,0,12,12,86,,,,,84.52629329985939,85.17712969984859,85.17712969984859,85.67810589983128,315,315,85.67810589983128,85.67810589983128,85.67810589983128,85.67810589983128,85.67810589983128,85.67810589983128,85.67810589983128,85.67810589983128,85.67810589983128,86.0449013998732,86.0449013998732,86.0449013998732,86.0449013998732,86.0449013998732,86.0449013998732,86.0449013998732,86.0449013998732,86.0449013998732,23,0,,,86.0449013998732,86.24648400000297,1000,86.24648400000297,1000,1000,1000,1000,1,num_2,0.5815697000361979,,31,6,2026-03-12_13h51.55.393,2026A_exp2,2022.2.4,59.890854855913865,
1,0,4.9,0.0,1,0,13,13,52,,,,,86.8453904998023,87.4960941998288,87.4960941998288,87.99709259998053,45,315,87.99709259998053,87.99709259998053,87.99709259998053,87.99709259998053,87.99709259998053,87.99709259998053,87.99709259998053,87.99709259998053,87.99709259998053,88.36369979986921,88.36369979986921,88.36369979986921,88.36369979986921,88.36369979986921,88.36369979986921,88.36369979986921,88.36369979986921,88.36369979986921,23,0,,,88.36369979986921,88.56384289986454,0.0,88.56384289986454,0,0.0,0,1,1000,num_1,0.5918875997886062,,31,6,2026-03-12_13h51.55.393,2026A_exp2,2022.2.4,59.890854855913865,
1,0,4.9,0.0,0,0,14,14,47,,,,,89.18105369992554,89.83178819995373,89.83178819995373,90.33266309997998,315,315,90.33266309997998,90.33266309997998,90.33266309997998,90.33266309997998,90.33266309997998,90.33266309997998,90.33266309997998,90.33266309997998,90.33266309997998,90.69985409989022,90.69985409989022,90.69985409989022,90.69985409989022,90.69985409989022,90.69985409989022,90.69985409989022,90.69985409989022,90.69985409989022,23,0,,,90.69985409989022,90.89958399999887,4.9,90.89958399999887,1,4.9,1,1,1000,num_4,0.7037339000962675,,31,6,2026-03-12_13h51.55.393,2026A_exp2,2022.2.4,59.890854855913865,
1000,1,0.0,3.7,0,0,15,15,18,,,,,91.63349279994145,92.2842335999012,92.2842335999012,92.76850279979408,45,45,92.76850279979408,92.76850279979408,92.76850279979408,92.76850279979408,92.76850279979408,92.76850279979408,92.76850279979408,92.76850279979408,92.76850279979408,93.13497849996202,93.13497849996202,93.13497849996202,93.13497849996202,93.13497849996202,93.13497849996202,93.13497849996202,93.13497849996202,93.13497849996202,23,0,,,93.13497849996202,93.33722219988704,1000,93.33722219988704,1000,1000,1000,1000,1,num_2,1.1075743997935206,,31,6,2026-03-12_13h51.55.393,2026A_exp2,2022.2.4,59.890854855913865,
1000,1,0.0,3.7,1,0,16,16,7,,,,,94.46957569988444,95.12047749990597,95.12047749990597,95.62130839983001,315,45,95.62130839983001,95.62130839983001,95.62130839983001,95.62130839983001,95.62130839983001,95.62130839983001,95.62130839983001,95.62130839983001,95.62130839983001,95.98796379985288,95.98796379985288,95.98796379985288,95.98796379985288,95.98796379985288,95.98796379985288,95.98796379985288,95.98796379985288,95.98796379985288,21,1,[0.0013273998629301786],[0.033111799973994493],95.98796379985288,96.18986049992964,1000,96.18986049992964,1000,1000,1000,1000,1,num_2,0.8856446000281721,,31,6,2026-03-12_13h51.55.393,2026A_exp2,2022.2.4,59.890854855913865,
1,0,0.0,0.0,0,0,17,17,64,,,,,97.10582019994035,97.7564556999132,97.7564556999132,98.25746899982914,45,315,98.25746899982914,98.25746899982914,98.25746899982914,98.25746899982914,98.25746899982914,98.25746899982914,98.25746899982914,98.25746899982914,98.25746899982914,98.60718599986285,98.60718599986285,98.60718599986285,98.60718599986285,98.60718599986285,98.60718599986285,98.60718599986285,98.60718599986285,98.60718599986285,22,0,,,98.60718599986285,98.80793199990876,0.0,98.80793199990876,0,0.0,0,1,1000,num_1,0.46006710012443364,,31,6,2026-03-12_13h51.55.393,2026A_exp2,2022.2.4,59.890854855913865,
1000,1,6.1,0.0,1,0,18,18,71,,,,,99.29109509987757,99.94189799996093,99.94189799996093,100.42639589984901,315,45,100.42639589984901,100.42639589984901,100.42639589984901,100.42639589984901,100.42639589984901,100.42639589984901,100.42639589984901,100.42639589984901,100.42639589984901,100.79277539998293,100.79277539998293,100.79277539998293,100.79277539998293,100.79277539998293,100.79277539998293,100.79277539998293,100.79277539998293,100.79277539998293,23,0,,,100.79277539998293,101.00745759997517,1000,101.00745759997517,1000,1000,1000,1000,0,num_3,0.6773557001724839,,31,6,2026-03-12_13h51.55.393,2026A_exp2,2022.2.4,59.890854855913865,
1,0,4.9,3.7,0,0,19,19,89,,,,,101.71032719989307,102.36105319997296,102.36105319997296,102.86196109978482,45,45,102.86196109978482,102.86196109978482,102.86196109978482,102.86196109978482,102.86196109978482,102.86196109978482,102.86196109978482,102.86196109978482,102.86196109978482,103.22853119997308,103.22853119997308,103.22853119997308,103.22853119997308,103.22853119997308,103.22853119997308,103.22853119997308,103.22853119997308,103.22853119997308,23,0,,,103.22853119997308,103.42858659988269,4.9,103.42858659988269,1,4.9,1,1,1000,num_4,0.8788291998207569,,31,6,2026-03-12_13h51.55.393,2026A_exp2,2022.2.4,59.890854855913865,
1,0,0.0,0.0,1,0,20,20,66,,,,,104.32937829988077,104.96400129981339,104.96400129981339,105.46476569981314,315,315,105.46476569981314,105.46476569981314,105.46476569981314,105.46476569981314,105.46476569981314,105.46476569981314,105.46476569981314,105.46476569981314,105.46476569981314,105.83105939999223,105.83105939999223,105.83105939999223,105.83105939999223,105.83105939999223,105.83105939999223,105.83105939999223,105.83105939999223,105.83105939999223,23,0,,,105.83105939999223,106.03125769994222,0.0,106.03125769994222,1,0.0,0,0,1000,num_4,0.6770252999849617,,31,6,2026-03-12_13h51.55.393,2026A_exp2,2022.2.4,59.890854855913865,
1,0,3.7,0.0,1,0,21,21,55,,,,,106.73166699986905,107.38253519986756,107.38253519986756,107.86697679990903,315,45,107.86697679990903,107.86697679990903,107.86697679990903,107.86697679990903,107.86697679990903,107.86697679990903,107.86697679990903,107.86697679990903,107.86697679990903,108.2335208998993,108.2335208998993,108.2335208998993,108.2335208998993,108.2335208998993,108.2335208998993,108.2335208998993,108.2335208998993,108.2335208998993,23,0,,,108.2335208998993,108.43365769996308,0.0,108.43365769996308,0,0.0,0,1,1000,num_1,0.8025631001219153,,31,6,2026-03-12_13h51.55.393,2026A_exp2,2022.2.4,59.890854855913865,
1000,1,3.7,3.7,1,0,22,22,25,,,,,109.26784739992581,109.91854629991576,109.91854629991576,110.40299399988726,45,315,110.40299399988726,110.40299399988726,110.40299399988726,110.40299399988726,110.40299399988726,110.40299399988726,110.40299399988726,110.40299399988726,110.40299399988726,110.76942269993015,110.76942269993015,110.76942269993015,110.76942269993015,110.76942269993015,110.76942269993015,110.76942269993015,110.76942269993015,110.76942269993015,23,0,,,110.76942269993015,110.97136199986562,1000,110.97136199986562,1000,1000,1000,1000,1,num_2,0.8723630998283625,,31,6,2026-03-12_13h51.55.393,2026A_exp2,2022.2.4,59.890854855913865,
1,0,0.0,0.0,1,0,23,23,77,,,,,111.87038149987347,112.52112409984693,112.52112409984693,113.02226719981991,45,315,113.02226719981991,113.02226719981991,113.02226719981991,113.02226719981991,113.02226719981991,113.02226719981991,113.02226719981991,113.02226719981991,113.02226719981991,113.38870059978217,113.38870059978217,113.38870059978217,113.38870059978217,113.38870059978217,113.38870059978217,113.38870059978217,113.38870059978217,113.38870059978217,23,0,,,113.38870059978217,113.58897309983149,0.0,113.58897309983149,0,0.0,0,1,1000,num_1,1.5510340000037104,,31,6,2026-03-12_13h51.55.393,2026A_exp2,2022.2.4,59.890854855913865,
1000,1,0.0,6.1,0,0,24,24,5,,,,,115.1570066998247,115.80779129988514,115.80779129988514,116.30881199985743,315,45,116.30881199985743,116.30881199985743,116.30881199985743,116.30881199985743,116.30881199985743,116.30881199985743,116.30881199985743,116.30881199985743,116.30881199985743,116.65869289985858,116.65869289985858,116.65869289985858,116.65869289985858,116.65869289985858,116.65869289985858,116.65869289985858,116.65869289985858,116.65869289985858,22,0,,,116.65869289985858,116.86101719993167,1000,116.86101719993167,1000,1000,1000,1000,1,num_2,0.966313400072977,,31,6,2026-03-12_13h51.55.393,2026A_exp2,2022.2.4,59.890854855913865,
1,0,3.7,3.7,1,0,25,25,11,,,,,117.84300809982233,118.49383589997888,118.49383589997888,118.99495289986953,45,45,118.99495289986953,118.99495289986953,118.99495289986953,118.99495289986953,118.99495289986953,118.99495289986953,118.99495289986953,118.99495289986953,118.99495289986953,119.36125339986756,119.36125339986756,119.36125339986756,119.36125339986756,119.36125339986756,119.36125339986756,119.36125339986756,119.36125339986756,119.36125339986756,23,0,,,119.36125339986756,119.56134829996154,3.7,119.56134829996154,1,3.7,1,1,1000,num_4,0.7226979001425207,,31,6,2026-03-12_13h51.55.393,2026A_exp2,2022.2.4,59.890854855913865,
1000,1,6.1,3.7,0,0,26,26,43,,,,,120.31205899990164,120.96287749987096,120.96287749987096,121.44732279982418,315,315,121.44732279982418,121.44732279982418,121.44732279982418,121.44732279982418,121.44732279982418,121.44732279982418,121.44732279982418,121.44732279982418,121.44732279982418,121.8137819999829,121.8137819999829,121.8137819999829,121.8137819999829,121.8137819999829,121.8137819999829,121.8137819999829,121.8137819999829,121.8137819999829,23,0,,,121.8137819999829,122.01602309988812,1000,122.01602309988812,1000,1000,1000,1000,0,num_3,0.5804103999398649,,31,6,2026-03-12_13h51.55.393,2026A_exp2,2022.2.4,59.890854855913865,
1,0,6.1,0.0,0,0,27,27,58,,,,,122.61446009995416,123.26528279995546,123.26528279995546,123.76630739984103,45,315,123.76630739984103,123.76630739984103,123.76630739984103,123.76630739984103,123.76630739984103,123.76630739984103,123.76630739984103,123.76630739984103,123.76630739984103,124.11608229996637,124.11608229996637,124.11608229996637,124.11608229996637,124.11608229996637,124.11608229996637,124.11608229996637,124.11608229996637,124.11608229996637,22,0,,,124.11608229996637,124.31632819981314,6.1,124.31632819981314,1,6.1,1,1,1000,num_4,0.7680093999952078,,31,6,2026-03-12_13h51.55.393,2026A_exp2,2022.2.4,59.890854855913865,
1,0,3.7,0.0,0,0,28,28,15,,,,,125.10027309996076,125.75100129982457,125.75100129982457,126.25215479987673,315,315,126.25215479987673,126.25215479987673,126.25215479987673,126.25215479987673,126.25215479987673,126.25215479987673,126.25215479987673,126.25215479987673,126.25215479987673,126.6017067998182,126.6017067998182,126.6017067998182,126.6017067998182,126.6017067998182,126.6017067998182,126.6017067998182,126.6017067998182,126.6017067998182,22,0,,,126.6017067998182,126.80206669983454,3.7,126.80206669983454,1,3.7,1,1,1000,num_4,0.4412207000423223,,31,6,2026-03-12_13h51.55.393,2026A_exp2,2022.2.4,59.890854855913865,
0,0,0.0,0.0,0,0,29,29,10,,,,,127.26910729985684,127.91978509980254,127.91978509980254,128.40430769999512,315,45,128.40430769999512,128.40430769999512,128.40430769999512,128.40430769999512,128.40430769999512,128.40430769999512,128.40430769999512,128.40430769999512,128.40430769999512,128.77053959993646,128.77053959993646,128.77053959993646,128.77053959993646,128.77053959993646,128.77053959993646,128.77053959993646,128.77053959993646,128.77053959993646,23,0,,,128.77053959993646,128.97091439994983,0.0,128.97091439994983,0,0.0,0,1,1000,num_1,0.9618176999501884,,31,6,2026-03-12_13h51.55.393,2026A_exp2,2022.2.4,59.890854855913865,
0,0,4.9,3.7,1,0,30,30,13,,,,,129.95513699995354,130.60574519983493,130.60574519983493,131.09022129978985,45,45,131.09022129978985,131.09022129978985,131.09022129978985,131.09022129978985,131.09022129978985,131.09022129978985,131.09022129978985,131.09022129978985,131.09022129978985,131.45667249988765,131.45667249988765,131.45667249988765,131.45667249988765,131.45667249988765,131.45667249988765,131.45667249988765,131.45667249988765,131.45667249988765,23,0,,,131.45667249988765,131.6568840998225,4.9,131.6568840998225,1,4.9,1,1,1000,num_4,1.059815099928528,,31,6,2026-03-12_13h51.55.393,2026A_exp2,2022.2.4,59.890854855913865,
1000,1,0.0,0.0,0,0,31,31,33,,,,,132.74118819995783,133.39256259985268,133.39256259985268,133.8760542999953,315,45,133.8760542999953,133.8760542999953,133.8760542999953,133.8760542999953,133.8760542999953,133.8760542999953,133.8760542999953,133.8760542999953,133.8760542999953,134.2428826999385,134.2428826999385,134.2428826999385,134.2428826999385,134.2428826999385,134.2428826999385,134.2428826999385,134.2428826999385,134.2428826999385,23,0,,,134.2428826999385,134.44492009980604,1000,134.44492009980604,1000,1000,1000,1000,0,num_3,0.8386689000762999,,31,6,2026-03-12_13h51.55.393,2026A_exp2,2022.2.4,59.890854855913865,
1,0,0.0,0.0,1,0,32,32,60,,,,,135.31064609996974,135.96133849979378,135.96133849979378,136.46199729992077,315,45,136.46199729992077,136.46199729992077,136.46199729992077,136.46199729992077,136.46199729992077,136.46199729992077,136.46199729992077,136.46199729992077,136.46199729992077,136.8287127998192,136.8287127998192,136.8287127998192,136.8287127998192,136.8287127998192,136.8287127998192,136.8287127998192,136.8287127998192,136.8287127998192,23,0,,,136.8287127998192,137.02893919986673,0.0,137.02893919986673,1,0.0,0,0,1000,num_4,1.8064815998077393,,31,6,2026-03-12_13h51.55.393,2026A_exp2,2022.2.4,59.890854855913865,
1,0,3.7,4.9,0,0,33,33,70,,,,,138.86404519993812,139.5146259998437,139.5146259998437,139.99916199990548,315,315,139.99916199990548,139.99916199990548,139.99916199990548,139.99916199990548,139.99916199990548,139.99916199990548,139.99916199990548,139.99916199990548,139.99916199990548,140.36565189994872,140.36565189994872,140.36565189994872,140.36565189994872,140.36565189994872,140.36565189994872,140.36565189994872,140.36565189994872,140.36565189994872,23,0,,,140.36565189994872,140.56576289981604,3.7,140.56576289981604,1,3.7,1,1,1000,num_4,0.822387200081721,,31,6,2026-03-12_13h51.55.393,2026A_exp2,2022.2.4,59.890854855913865,
1000,1,4.9,6.1,0,0,34,34,59,,,,,141.4167498999741,142.05054179998115,142.05054179998115,142.55160309979692,315,45,142.55160309979692,142.55160309979692,142.55160309979692,142.55160309979692,142.55160309979692,142.55160309979692,142.55160309979692,142.55160309979692,142.55160309979692,142.91801429982297,142.91801429982297,142.91801429982297,142.91801429982297,142.91801429982297,142.91801429982297,142.91801429982297,142.91801429982297,142.91801429982297,23,0,,,142.91801429982297,143.1204305998981,1000,143.1204305998981,1000,1000,1000,1000,0,num_3,0.6359729000832886,,31,6,2026-03-12_13h51.55.393,2026A_exp2,2022.2.4,59.890854855913865,
1000,1,4.9,4.9,1,0,35,35,67,,,,,143.78567919996567,144.43646180001087,144.43646180001087,144.93754409998655,45,315,144.93754409998655,144.93754409998655,144.93754409998655,144.93754409998655,144.93754409998655,144.93754409998655,144.93754409998655,144.93754409998655,144.93754409998655,145.30388609995134,145.30388609995134,145.30388609995134,145.30388609995134,145.30388609995134,145.30388609995134,145.30388609995134,145.30388609995134,145.30388609995134,23,0,,,145.30388609995134,145.50582739990205,1000,145.50582739990205,1000,1000,1000,1000,1,num_2,1.3067404998000711,,31,6,2026-03-12_13h51.55.393,2026A_exp2,2022.2.4,59.890854855913865,
1,0,0.0,0.0,0,0,36,36,75,,,,,146.8385914999526,147.48942259978503,147.48942259978503,147.9903825998772,315,315,147.9903825998772,147.9903825998772,147.9903825998772,147.9903825998772,147.9903825998772,147.9903825998772,147.9903825998772,147.9903825998772,147.9903825998772,148.35705639980733,148.35705639980733,148.35705639980733,148.35705639980733,148.35705639980733,148.35705639980733,148.35705639980733,148.35705639980733,148.35705639980733,23,0,,,148.35705639980733,148.5572265998926,0.0,148.5572265998926,0,0.0,0,1,1000,num_1,0.4632977000437677,,31,6,2026-03-12_13h51.55.393,2026A_exp2,2022.2.4,59.890854855913865,
1000,1,0.0,0.0,1,0,37,37,37,,,,,149.04079269990325,149.69210569979623,149.69210569979623,150.17808179999702,45,45,150.17808179999702,150.17808179999702,150.17808179999702,150.17808179999702,150.17808179999702,150.17808179999702,150.17808179999702,150.17808179999702,150.17808179999702,150.54211329994723,150.54211329994723,150.54211329994723,150.54211329994723,150.54211329994723,150.54211329994723,150.54211329994723,150.54211329994723,150.54211329994723,23,0,,,150.54211329994723,150.7424153999891,1000,150.7424153999891,1000,1000,1000,1000,1,num_2,1.0297371000051498,,31,6,2026-03-12_13h51.55.393,2026A_exp2,2022.2.4,59.890854855913865,
1,0,3.7,3.7,0,0,38,38,69,,,,,151.7937052999623,152.4442588998936,152.4442588998936,152.92883119988255,315,315,152.92883119988255,152.92883119988255,152.92883119988255,152.92883119988255,152.92883119988255,152.92883119988255,152.92883119988255,152.92883119988255,152.92883119988255,153.29538169992156,153.29538169992156,153.29538169992156,153.29538169992156,153.29538169992156,153.29538169992156,153.29538169992156,153.29538169992156,153.29538169992156,23,0,,,153.29538169992156,153.4953893998172,3.7,153.4953893998172,1,3.7,1,1,1000,num_4,0.9167271999176592,,31,6,2026-03-12_13h51.55.393,2026A_exp2,2022.2.4,59.890854855913865,
1000,1,0.0,6.1,0,0,39,39,85,,,,,154.42972439993173,155.0804094998166,155.0804094998166,155.56477999989875,315,315,155.56477999989875,155.56477999989875,155.56477999989875,155.56477999989875,155.56477999989875,155.56477999989875,155.56477999989875,155.56477999989875,155.56477999989875,155.93114179978147,155.93114179978147,155.93114179978147,155.93114179978147,155.93114179978147,155.93114179978147,155.93114179978147,155.93114179978147,155.93114179978147,23,0,,,155.93114179978147,156.13319029984996,1000,156.13319029984996,1000,1000,1000,1000,1,num_2,0.9104008998256177,,31,6,2026-03-12_13h51.55.393,2026A_exp2,2022.2.4,59.890854855913865,
1000,1,4.9,4.9,0,0,40,40,36,,,,,157.06557639990933,157.7163577999454,157.7163577999454,158.21747459983453,45,45,158.21747459983453,158.21747459983453,158.21747459983453,158.21747459983453,158.21747459983453,158.21747459983453,158.21747459983453,158.21747459983453,158.21747459983453,158.5838541998528,158.5838541998528,158.5838541998528,158.5838541998528,158.5838541998528,158.5838541998528,158.5838541998528,158.5838541998528,158.5838541998528,23,0,,,158.5838541998528,158.7842001998797,1000,158.7842001998797,1000,1000,1000,1000,0,num_3,0.595220600022003,,31,6,2026-03-12_13h51.55.393,2026A_exp2,2022.2.4,59.890854855913865,
1,0,6.1,0.0,0,0,41,41,22,,,,,159.4014640999958,160.05199379986152,160.05199379986152,160.53645539982244,45,45,160.53645539982244,160.53645539982244,160.53645539982244,160.53645539982244,160.53645539982244,160.53645539982244,160.53645539982244,160.53645539982244,160.53645539982244,160.90283299982548,160.90283299982548,160.90283299982548,160.90283299982548,160.90283299982548,160.90283299982548,160.90283299982548,160.90283299982548,160.90283299982548,23,0,,,160.90283299982548,161.10311889997683,6.1,161.10311889997683,1,6.1,1,1,1000,num_4,0.7650843998417258,,31,6,2026-03-12_13h51.55.393,2026A_exp2,2022.2.4,59.890854855913865,
1,0,3.7,0.0,1,0,42,42,73,,,,,161.88716569985263,162.53786569996737,162.53786569996737,163.02220789995044,315,45,163.02220789995044,163.02220789995044,163.02220789995044,163.02220789995044,163.02220789995044,163.02220789995044,163.02220789995044,163.02220789995044,163.02220789995044,163.38866609986871,163.38866609986871,163.38866609986871,163.38866609986871,163.38866609986871,163.38866609986871,163.38866609986871,163.38866609986871,163.38866609986871,23,0,,,163.38866609986871,163.5888201999478,0.0,163.5888201999478,0,0.0,0,1,1000,num_1,0.4717616999987513,,31,6,2026-03-12_13h51.55.393,2026A_exp2,2022.2.4,59.890854855913865,
1,0,4.9,4.9,1,0,43,43,32,,,,,164.0892113998998,164.7400236998219,164.7400236998219,165.2244799998589,45,315,165.2244799998589,165.2244799998589,165.2244799998589,165.2244799998589,165.2244799998589,165.2244799998589,165.2244799998589,165.2244799998589,165.2244799998589,165.59092659992166,165.59092659992166,165.59092659992166,165.59092659992166,165.59092659992166,165.59092659992166,165.59092659992166,165.59092659992166,165.59092659992166,23,0,,,165.59092659992166,165.79089949978516,4.9,165.79089949978516,1,4.9,1,1,1000,num_4,0.7087121000513434,,31,6,2026-03-12_13h51.55.393,2026A_exp2,2022.2.4,59.890854855913865,
0,0,3.7,0.0,1,0,44,44,0,,,,,166.52513259998523,167.15900919982232,167.15900919982232,167.66018609981984,315,315,167.66018609981984,167.66018609981984,167.66018609981984,167.66018609981984,167.66018609981984,167.66018609981984,167.66018609981984,167.66018609981984,167.66018609981984,168.02668869984336,168.02668869984336,168.02668869984336,168.02668869984336,168.02668869984336,168.02668869984336,168.02668869984336,168.02668869984336,168.02668869984336,23,0,,,168.02668869984336,168.2267911999952,3.7,168.2267911999952,1,3.7,1,1,1000,num_4,0.968994100112468,,31,6,2026-03-12_13h51.55.393,2026A_exp2,2022.2.4,59.890854855913865,
1,0,6.1,0.0,1,0,45,45,53,,,,,169.21106439991854,169.86181719996966,169.86181719996966,170.36279109981842,315,45,170.36279109981842,170.36279109981842,170.36279109981842,170.36279109981842,170.36279109981842,170.36279109981842,170.36279109981842,170.36279109981842,170.36279109981842,170.7293685998302,170.7293685998302,170.7293685998302,170.7293685998302,170.7293685998302,170.7293685998302,170.7293685998302,170.7293685998302,170.7293685998302,23,0,,,170.7293685998302,170.92946639982983,0.0,170.92946639982983,0,0.0,0,1,1000,num_1,0.8100741000380367,,31,6,2026-03-12_13h51.55.393,2026A_exp2,2022.2.4,59.890854855913865,
1,0,0.0,3.7,0,0,46,46,34,,,,,171.76359509979375,172.41435549990274,172.41435549990274,172.89882029988803,45,315,172.89882029988803,172.89882029988803,172.89882029988803,172.89882029988803,172.89882029988803,172.89882029988803,172.89882029988803,172.89882029988803,172.89882029988803,173.26503939996473,173.26503939996473,173.26503939996473,173.26503939996473,173.26503939996473,173.26503939996473,173.26503939996473,173.26503939996473,173.26503939996473,23,0,,,173.26503939996473,173.46549269999377,0.0,173.46549269999377,0,0.0,0,1,1000,num_1,0.6342645999975502,,31,6,2026-03-12_13h51.55.393,2026A_exp2,2022.2.4,59.890854855913865,
1000,1,0.0,6.1,1,0,47,47,40,,,,,174.11612259992398,174.76669259998016,174.76669259998016,175.2510508999694,45,45,175.2510508999694,175.2510508999694,175.2510508999694,175.2510508999694,175.2510508999694,175.2510508999694,175.2510508999694,175.2510508999694,175.2510508999694,175.6175597999245,175.6175597999245,175.6175597999245,175.6175597999245,175.6175597999245,175.6175597999245,175.6175597999245,175.6175597999245,175.6175597999245,23,0,,,175.6175597999245,175.8195892998483,1000,175.8195892998483,1000,1000,1000,1000,1,num_2,0.6637538000941277,,31,6,2026-03-12_13h51.55.393,2026A_exp2,2022.2.4,59.890854855913865,
1,0,0.0,0.0,1,0,48,48,56,,,,,176.50162249989808,177.15235809981823,177.15235809981823,177.65345219988376,45,315,177.65345219988376,177.65345219988376,177.65345219988376,177.65345219988376,177.65345219988376,177.65345219988376,177.65345219988376,177.65345219988376,177.65345219988376,178.0198211998213,178.0198211998213,178.0198211998213,178.0198211998213,178.0198211998213,178.0198211998213,178.0198211998213,178.0198211998213,178.0198211998213,23,0,,,178.0198211998213,178.2200790999923,0.0,178.2200790999923,0,0.0,0,1,1000,num_1,0.5839363997802138,,31,6,2026-03-12_13h51.55.393,2026A_exp2,2022.2.4,59.890854855913865,
1,0,0.0,6.1,1,0,49,49,17,,,,,178.82055939990096,179.4717710998375,179.4717710998375,179.9723547999747,315,45,179.9723547999747,179.9723547999747,179.9723547999747,179.9723547999747,179.9723547999747,179.9723547999747,179.9723547999747,179.9723547999747,179.9723547999747,180.32227559993044,180.32227559993044,180.32227559993044,180.32227559993044,180.32227559993044,180.32227559993044,180.32227559993044,180.32227559993044,180.32227559993044,22,0,,,180.32227559993044,180.5225058000069,6.1,180.5225058000069,1,6.1,1,1,1000,num_4,0.545151200145483,,31,6,2026-03-12_13h51.55.393,2026A_exp2,2022.2.4,59.890854855913865,
1,0,0.0,0.0,1,0,50,50,68,,,,,181.0896188998595,181.7403558997903,181.7403558997903,182.2245847999584,315,315,182.2245847999584,182.2245847999584,182.2245847999584,182.2245847999584,182.2245847999584,182.2245847999584,182.2245847999584,182.2245847999584,182.2245847999584,182.59117089980282,182.59117089980282,182.59117089980282,182.59117089980282,182.59117089980282,182.59117089980282,182.59117089980282,182.59117089980282,182.59117089980282,23,0,,,182.59117089980282,182.79135979991406,0.0,182.79135979991406,1,0.0,0,0,1000,num_4,0.7327101000119001,,31,6,2026-03-12_13h51.55.393,2026A_exp2,2022.2.4,59.890854855913865,
1,0,6.1,0.0,1,0,51,51,41,,,,,183.54193549999036,184.19278769986704,184.19278769986704,184.6772125000134,45,45,184.6772125000134,184.6772125000134,184.6772125000134,184.6772125000134,184.6772125000134,184.6772125000134,184.6772125000134,184.6772125000134,184.6772125000134,185.04368779994547,185.04368779994547,185.04368779994547,185.04368779994547,185.04368779994547,185.04368779994547,185.04368779994547,185.04368779994547,185.04368779994547,23,0,,,185.04368779994547,185.24392269994132,0.0,185.24392269994132,0,0.0,0,1,1000,num_1,0.4560326999053359,,31,6,2026-03-12_13h51.55.393,2026A_exp2,2022.2.4,59.890854855913865,
1,0,4.9,0.0,0,0,52,52,19,,,,,185.72783229989,186.36155379982665,186.36155379982665,186.8626121999696,45,315,186.8626121999696,186.8626121999696,186.8626121999696,186.8626121999696,186.8626121999696,186.8626121999696,186.8626121999696,186.8626121999696,186.8626121999696,187.22915239981376,187.22915239981376,187.22915239981376,187.22915239981376,187.22915239981376,187.22915239981376,187.22915239981376,187.22915239981376,187.22915239981376,23,0,,,187.22915239981376,187.42944079986773,4.9,187.42944079986773,1,4.9,1,1,1000,num_4,0.7511974000371993,,31,6,2026-03-12_13h51.55.393,2026A_exp2,2022.2.4,59.890854855913865,
0,0,4.9,4.9,0,0,53,53,88,,,,,188.1969647000078,188.84748889994808,188.84748889994808,189.34854529984295,45,315,189.34854529984295,189.34854529984295,189.34854529984295,189.34854529984295,189.34854529984295,189.34854529984295,189.34854529984295,189.34854529984295,189.34854529984295,189.71513729984872,189.71513729984872,189.71513729984872,189.71513729984872,189.71513729984872,189.71513729984872,189.71513729984872,189.71513729984872,189.71513729984872,23,0,,,189.71513729984872,189.91521929996088,4.9,189.91521929996088,1,4.9,1,1,1000,num_4,1.2170132000464946,,31,6,2026-03-12_13h51.55.393,2026A_exp2,2022.2.4,59.890854855913865,
1000,1,4.9,3.7,1,0,54,54,46,,,,,191.14959169994108,191.8004279998131,191.8004279998131,192.30153959989548,315,45,192.30153959989548,192.30153959989548,192.30153959989548,192.30153959989548,192.30153959989548,192.30153959989548,192.30153959989548,192.30153959989548,192.30153959989548,192.65126989991404,192.65126989991404,192.65126989991404,192.65126989991404,192.65126989991404,192.65126989991404,192.65126989991404,192.65126989991404,192.65126989991404,22,0,,,192.65126989991404,192.85345709999092,1000,192.85345709999092,1000,1000,1000,1000,1,num_2,0.7754203998483717,,31,6,2026-03-12_13h51.55.393,2026A_exp2,2022.2.4,59.890854855913865,
1000,1,0.0,0.0,1,0,55,55,72,,,,,193.65229209978133,194.3028392000124,194.3028392000124,194.8038871998433,315,315,194.8038871998433,194.8038871998433,194.8038871998433,194.8038871998433,194.8038871998433,194.8038871998433,194.8038871998433,194.8038871998433,194.8038871998433,195.17042059986852,195.17042059986852,195.17042059986852,195.17042059986852,195.17042059986852,195.17042059986852,195.17042059986852,195.17042059986852,195.17042059986852,23,0,,,195.17042059986852,195.3725311998278,1000,195.3725311998278,1000,1000,1000,1000,1,num_2,0.6387379001826048,,31,6,2026-03-12_13h51.55.393,2026A_exp2,2022.2.4,59.890854855913865,
1,0,0.0,0.0,0,0,56,56,31,,,,,196.03840979980305,196.6887738998048,196.6887738998048,197.192126999842,45,45,197.192126999842,197.192126999842,197.192126999842,197.192126999842,197.192126999842,197.192126999842,197.192126999842,197.192126999842,197.192126999842,197.55602319980972,197.55602319980972,197.55602319980972,197.55602319980972,197.55602319980972,197.55602319980972,197.55602319980972,197.55602319980972,197.55602319980972,23,0,,,197.55602319980972,,0.0,197.7575293998234,0,0.0,0,1,1000,num_1,0.7822245999705046,,31,6,2026-03-12_13h51.55.393,2026A_exp2,2022.2.4,59.890854855913865,
1,0,4.9,0.0,0,0,57,57,57,,,,,198.55694859987125,199.20780500001274,199.20780500001274,199.6924317998346,45,45,199.6924317998346,199.6924317998346,199.6924317998346,199.6924317998346,199.6924317998346,199.6924317998346,199.6924317998346,199.6924317998346,199.6924317998346,200.0586868999526,200.0586868999526,200.0586868999526,200.0586868999526,200.0586868999526,200.0586868999526,200.0586868999526,200.0586868999526,200.0586868999526,23,0,,,200.0586868999526,200.25880409986712,4.9,200.25880409986712,1,4.9,1,1,1000,num_4,0.6730889999307692,,31,6,2026-03-12_13h51.55.393,2026A_exp2,2022.2.4,59.890854855913865,
1,0,0.0,4.9,0,0,58,58,48,,,,,200.9592404998839,201.61022379994392,201.61022379994392,202.0946068998892,315,315,202.0946068998892,202.0946068998892,202.0946068998892,202.0946068998892,202.0946068998892,202.0946068998892,202.0946068998892,202.0946068998892,202.0946068998892,202.4610476999078,202.4610476999078,202.4610476999078,202.4610476999078,202.4610476999078,202.4610476999078,202.4610476999078,202.4610476999078,202.4610476999078,23,0,,,202.4610476999078,202.6614490998909,0.0,202.6614490998909,0,0.0,0,1,1000,num_1,1.27076410013251,,31,6,2026-03-12_13h51.55.393,2026A_exp2,2022.2.4,59.890854855913865,
1,0,3.7,6.1,0,0,59,59,74,,,,,203.96237909980118,204.61284429999068,204.61284429999068,205.09720789990388,45,315,205.09720789990388,205.09720789990388,205.09720789990388,205.09720789990388,205.09720789990388,205.09720789990388,205.09720789990388,205.09720789990388,205.09720789990388,205.4635870999191,205.4635870999191,205.4635870999191,205.4635870999191,205.4635870999191,205.4635870999191,205.4635870999191,205.4635870999191,205.4635870999191,23,0,,,205.4635870999191,205.66413209983148,3.7,205.66413209983148,0,3.7,1,0,1000,num_1,1.5643561000470072,,31,6,2026-03-12_13h51.55.393,2026A_exp2,2022.2.4,59.890854855913865,
0,0,0.0,6.1,0,0,60,60,30,,,,,207.24903139984235,207.89988759998232,207.89988759998232,208.38430329994299,315,315,208.38430329994299,208.38430329994299,208.38430329994299,208.38430329994299,208.38430329994299,208.38430329994299,208.38430329994299,208.38430329994299,208.38430329994299,208.750776699977,208.750776699977,208.750776699977,208.750776699977,208.750776699977,208.750776699977,208.750776699977,208.750776699977,208.750776699977,23,0,,,208.750776699977,208.9507619999349,6.1,208.9507619999349,1,6.1,1,1,1000,num_4,0.7491142000071704,,31,6,2026-03-12_13h51.55.393,2026A_exp2,2022.2.4,59.890854855913865,
1000,1,0.0,4.9,1,0,61,61,51,,,,,209.7190518998541,210.36910299980082,210.36910299980082,210.85341009986587,45,315,210.85341009986587,210.85341009986587,210.85341009986587,210.85341009986587,210.85341009986587,210.85341009986587,210.85341009986587,210.85341009986587,210.85341009986587,211.21981919999234,211.21981919999234,211.21981919999234,211.21981919999234,211.21981919999234,211.21981919999234,211.21981919999234,211.21981919999234,211.21981919999234,23,0,,,211.21981919999234,211.42178849992342,1000,211.42178849992342,1000,1000,1000,1000,1,num_2,0.49397270008921623,,31,6,2026-03-12_13h51.55.393,2026A_exp2,2022.2.4,59.890854855913865,
1,0,0.0,0.0,0,0,62,62,87,,,,,211.93709929985926,212.58779439982027,212.58779439982027,213.08893029997125,315,45,213.08893029997125,213.08893029997125,213.08893029997125,213.08893029997125,213.08893029997125,213.08893029997125,213.08893029997125,213.08893029997125,213.08893029997125,213.43864799989387,213.43864799989387,213.43864799989387,213.43864799989387,213.43864799989387,213.43864799989387,213.43864799989387,213.43864799989387,213.43864799989387,22,0,,,213.43864799989387,213.63891239999793,0.0,213.63891239999793,0,0.0,0,1,1000,num_1,1.0775521998293698,,31,6,2026-03-12_13h51.55.393,2026A_exp2,2022.2.4,59.890854855913865,
1,0,0.0,0.0,1,0,63,63,42,,,,,214.73975949990563,215.3906461999286,215.3906461999286,215.87513149995357,315,315,215.87513149995357,215.87513149995357,215.87513149995357,215.87513149995357,215.87513149995357,215.87513149995357,215.87513149995357,215.87513149995357,215.87513149995357,216.2415372999385,216.2415372999385,216.2415372999385,216.2415372999385,216.2415372999385,216.2415372999385,216.2415372999385,216.2415372999385,216.2415372999385,23,0,,,216.2415372999385,216.44160599983297,0.0,216.44160599983297,1,0.0,0,0,1000,num_4,0.7706593000330031,,31,6,2026-03-12_13h51.55.393,2026A_exp2,2022.2.4,59.890854855913865,
1,0,4.9,0.0,0,0,64,64,14,,,,,217.24249549978413,217.89309089980088,217.89309089980088,218.3774912999943,45,315,218.3774912999943,218.3774912999943,218.3774912999943,218.3774912999943,218.3774912999943,218.3774912999943,218.3774912999943,218.3774912999943,218.3774912999943,218.74364969995804,218.74364969995804,218.74364969995804,218.74364969995804,218.74364969995804,218.74364969995804,218.74364969995804,218.74364969995804,218.74364969995804,23,0,,,218.74364969995804,218.94423789996654,4.9,218.94423789996654,1,4.9,1,1,1000,num_4,0.7398129999637604,,31,6,2026-03-12_13h51.55.393,2026A_exp2,2022.2.4,59.890854855913865,
1000,1,0.0,3.7,1,0,65,65,81,,,,,219.7116233999841,220.36230829986744,220.36230829986744,220.86327459989116,315,315,220.86327459989116,220.86327459989116,220.86327459989116,220.86327459989116,220.86327459989116,220.86327459989116,220.86327459989116,220.86327459989116,220.86327459989116,221.2129738999065,221.2129738999065,221.2129738999065,221.2129738999065,221.2129738999065,221.2129738999065,221.2129738999065,221.2129738999065,221.2129738999065,22,0,,,221.2129738999065,221.41579429991543,1000,221.41579429991543,1000,1000,1000,1000,1,num_2,0.5878830999135971,,31,6,2026-03-12_13h51.55.393,2026A_exp2,2022.2.4,59.890854855913865,
1000,1,4.9,6.1,0,0,66,66,49,,,,,222.03054249985144,222.68125499994494,222.68125499994494,223.18236169987358,45,315,223.18236169987358,223.18236169987358,223.18236169987358,223.18236169987358,223.18236169987358,223.18236169987358,223.18236169987358,223.18236169987358,223.18236169987358,223.54877929994836,223.54877929994836,223.54877929994836,223.54877929994836,223.54877929994836,223.54877929994836,223.54877929994836,223.54877929994836,223.54877929994836,23,0,,,223.54877929994836,223.74930439982563,1000,223.74930439982563,1000,1000,1000,1000,1,num_2,0.774338300107047,,31,6,2026-03-12_13h51.55.393,2026A_exp2,2022.2.4,59.890854855913865,
1000,1,0.0,0.0,1,0,67,67,63,,,,,224.54968849988654,225.20052769989707,225.20052769989707,225.70164310000837,315,315,225.70164310000837,225.70164310000837,225.70164310000837,225.70164310000837,225.70164310000837,225.70164310000837,225.70164310000837,225.70164310000837,225.70164310000837,226.06770459981635,226.06770459981635,226.06770459981635,226.06770459981635,226.06770459981635,226.06770459981635,226.06770459981635,226.06770459981635,226.06770459981635,23,0,,,226.06770459981635,226.2679842999205,1000,226.2679842999205,1000,1000,1000,1000,1,num_2,0.8154840001370758,,31,6,2026-03-12_13h51.55.393,2026A_exp2,2022.2.4,59.890854855913865,
1,0,0.0,3.7,1,0,68,68,83,,,,,227.10224299994297,227.75299259996973,227.75299259996973,228.23744129994884,315,45,228.23744129994884,228.23744129994884,228.23744129994884,228.23744129994884,228.23744129994884,228.23744129994884,228.23744129994884,228.23744129994884,228.23744129994884,228.60381839983165,228.60381839983165,228.60381839983165,228.60381839983165,228.60381839983165,228.60381839983165,228.60381839983165,228.60381839983165,228.60381839983165,23,0,,,228.60381839983165,228.8040941997897,3.7,228.8040941997897,1,3.7,1,1,1000,num_4,0.8159849001094699,,31,6,2026-03-12_13h51.55.393,2026A_exp2,2022.2.4,59.890854855913865,
1000,1,3.7,0.0,1,0,69,69,54,,,,,229.63810769980773,230.2888946000021,230.2888946000021,230.77322470000945,45,45,230.77322470000945,230.77322470000945,230.77322470000945,230.77322470000945,230.77322470000945,230.77322470000945,230.77322470000945,230.77322470000945,230.77322470000945,231.13951409980655,231.13951409980655,231.13951409980655,231.13951409980655,231.13951409980655,231.13951409980655,231.13951409980655,231.13951409980655,231.13951409980655,23,0,,,231.13951409980655,231.34474439988844,1000,231.34474439988844,1000,1000,1000,1000,0,num_3,0.7549083000048995,,31,6,2026-03-12_13h51.55.393,2026A_exp2,2022.2.4,59.890854855913865,
1,0,6.1,0.0,1,0,70,70,23,,,,,232.1238296998199,232.77474179980345,232.77474179980345,233.275776399998,315,315,233.275776399998,233.275776399998,233.275776399998,233.275776399998,233.275776399998,233.275776399998,233.275776399998,233.275776399998,233.275776399998,233.64224119996652,233.64224119996652,233.64224119996652,233.64224119996652,233.64224119996652,233.64224119996652,233.64224119996652,233.64224119996652,233.64224119996652,23,0,,,233.64224119996652,233.84244499984197,0.0,233.84244499984197,0,0.0,0,1,1000,num_1,0.8740189999807626,,31,6,2026-03-12_13h51.55.393,2026A_exp2,2022.2.4,59.890854855913865,
1000,1,3.7,0.0,0,0,71,71,28,,,,,234.7433237999212,235.39405069989152,235.39405069989152,235.87826849985868,315,315,235.87826849985868,235.87826849985868,235.87826849985868,235.87826849985868,235.87826849985868,235.87826849985868,235.87826849985868,235.87826849985868,235.87826849985868,236.24482609983534,236.24482609983534,236.24482609983534,236.24482609983534,236.24482609983534,236.24482609983534,236.24482609983534,236.24482609983534,236.24482609983534,23,0,,,236.24482609983534,236.4473203998059,1000,236.4473203998059,1000,1000,1000,1000,0,num_3,0.8280736000742763,,31,6,2026-03-12_13h51.55.393,2026A_exp2,2022.2.4,59.890854855913865,
0,0,3.7,0.0,0,0,72,72,16,,,,,237.29583189985715,237.94654079992324,237.94654079992324,238.4477118998766,45,315,238.4477118998766,238.4477118998766,238.4477118998766,238.4477118998766,238.4477118998766,238.4477118998766,238.4477118998766,238.4477118998766,238.4477118998766,238.81425959989429,238.81425959989429,238.81425959989429,238.81425959989429,238.81425959989429,238.81425959989429,238.81425959989429,238.81425959989429,238.81425959989429,23,0,,,238.81425959989429,239.01427029981278,0.0,239.01427029981278,0,0.0,0,1,1000,num_1,1.8786427001468837,,31,6,2026-03-12_13h51.55.393,2026A_exp2,2022.2.4,59.890854855913865,
1,0,6.1,3.7,1,0,73,73,45,,,,,240.91601029993035,241.56709929998033,241.56709929998033,242.06797839980572,315,315,242.06797839980572,242.06797839980572,242.06797839980572,242.06797839980572,242.06797839980572,242.06797839980572,242.06797839980572,242.06797839980572,242.06797839980572,242.4343796998728,242.4343796998728,242.4343796998728,242.4343796998728,242.4343796998728,242.4343796998728,242.4343796998728,242.4343796998728,242.4343796998728,23,0,,,242.4343796998728,242.63442169991322,3.7,242.63442169991322,1,3.7,1,1,1000,num_4,1.001104800030589,,31,6,2026-03-12_13h51.55.393,2026A_exp2,2022.2.4,59.890854855913865,
1,0,0.0,0.0,1,0,74,74,24,,,,,243.65213369997218,244.30288119986653,244.30288119986653,244.80407650000416,45,45,244.80407650000416,244.80407650000416,244.80407650000416,244.80407650000416,244.80407650000416,244.80407650000416,244.80407650000416,244.80407650000416,244.80407650000416,245.170459699817,245.170459699817,245.170459699817,245.170459699817,245.170459699817,245.170459699817,245.170459699817,245.170459699817,245.170459699817,23,0,,,245.170459699817,245.37051059980877,0.0,245.37051059980877,0,0.0,0,1,1000,num_1,0.79418950015679,,31,6,2026-03-12_13h51.55.393,2026A_exp2,2022.2.4,59.890854855913865,
1000,1,4.9,4.9,0,0,75,75,6,,,,,246.18796329991892,246.83881699992344,246.83881699992344,247.32943809987046,45,315,247.32943809987046,247.32943809987046,247.32943809987046,247.32943809987046,247.32943809987046,247.32943809987046,247.32943809987046,247.32943809987046,247.32943809987046,247.68947679991834,247.68947679991834,247.68947679991834,247.68947679991834,247.68947679991834,247.68947679991834,247.68947679991834,247.68947679991834,247.68947679991834,23,0,,,247.68947679991834,247.89149849978276,1000,247.89149849978276,1000,1000,1000,1000,0,num_3,0.737152999965474,,31,6,2026-03-12_13h51.55.393,2026A_exp2,2022.2.4,59.890854855913865,
1000,1,4.9,6.1,1,0,76,76,4,,,,,248.65737599995919,249.30800399999134,249.30800399999134,249.79233959992416,315,45,249.79233959992416,249.79233959992416,249.79233959992416,249.79233959992416,249.79233959992416,249.79233959992416,249.79233959992416,249.79233959992416,249.79233959992416,250.15882749995217,250.15882749995217,250.15882749995217,250.15882749995217,250.15882749995217,250.15882749995217,250.15882749995217,250.15882749995217,250.15882749995217,23,0,,,250.15882749995217,250.38738440000452,1000,250.38738440000452,1000,1000,1000,1000,1,num_2,1.329049900174141,,31,6,2026-03-12_13h51.55.393,2026A_exp2,2022.2.4,59.890854855913865,
1000,1,4.9,6.1,0,0,77,77,35,,,,,251.74352859985083,252.39432600000873,252.39432600000873,252.89537759986706,315,315,252.89537759986706,252.89537759986706,252.89537759986706,252.89537759986706,252.89537759986706,252.89537759986706,252.89537759986706,252.89537759986706,252.89537759986706,253.2618793998845,253.2618793998845,253.2618793998845,253.2618793998845,253.2618793998845,253.2618793998845,253.2618793998845,253.2618793998845,253.2618793998845,23,0,,,253.2618793998845,253.46358169987798,1000,253.46358169987798,1000,1000,1000,1000,1,num_2,1.1808241999242455,,31,6,2026-03-12_13h51.55.393,2026A_exp2,2022.2.4,59.890854855913865,
1000,1,0.0,0.0,1,0,78,78,8,,,,,254.66316609992646,255.31374709983356,255.31374709983356,255.81525119999424,45,315,255.81525119999424,255.81525119999424,255.81525119999424,255.81525119999424,255.81525119999424,255.81525119999424,255.81525119999424,255.81525119999424,255.81525119999424,256.1647852999158,256.1647852999158,256.1647852999158,256.1647852999158,256.1647852999158,256.1647852999158,256.1647852999158,256.1647852999158,256.1647852999158,22,0,,,256.1647852999158,256.3651013998315,1000,256.381440699799,1000,1000,1000,1000,0,num_3,1.5265605999156833,,31,6,2026-03-12_13h51.55.393,2026A_exp2,2022.2.4,59.890854855913865,
1000,1,0.0,0.0,1,0,79,79,80,,,,,257.93303909990937,258.5837741999421,258.5837741999421,259.08493209979497,315,315,259.08493209979497,259.08493209979497,259.08493209979497,259.08493209979497,259.08493209979497,259.08493209979497,259.08493209979497,259.08493209979497,259.08493209979497,259.45138929993846,259.45138929993846,259.45138929993846,259.45138929993846,259.45138929993846,259.45138929993846,259.45138929993846,259.45138929993846,259.45138929993846,23,0,,,259.45138929993846,259.65255160001107,1000,259.65255160001107,1000,1000,1000,1000,1,num_2,1.0708448998630047,,31,6,2026-03-12_13h51.55.393,2026A_exp2,2022.2.4,59.890854855913865,
0,0,0.0,0.0,0,0,80,80,20,,,,,260.7526479999069,261.4032735999208,261.4032735999208,261.90433079982176,315,45,261.90433079982176,261.90433079982176,261.90433079982176,261.90433079982176,261.90433079982176,261.90433079982176,261.90433079982176,261.90433079982176,261.90433079982176,262.2705441999715,262.2705441999715,262.2705441999715,262.2705441999715,262.2705441999715,262.2705441999715,262.2705441999715,262.2705441999715,262.2705441999715,23,0,,,262.2705441999715,262.4710344998166,0.0,262.4710344998166,1,0.0,0,0,1000,num_4,1.4363581000361592,,31,6,2026-03-12_13h51.55.393,2026A_exp2,2022.2.4,59.890854855913865,
1,0,0.0,4.9,1,0,81,81,2,,,,,263.93924699979834,264.5897262999788,264.5897262999788,265.07394899986684,315,315,265.07394899986684,265.07394899986684,265.07394899986684,265.07394899986684,265.07394899986684,265.07394899986684,265.07394899986684,265.07394899986684,265.07394899986684,265.44064149982296,265.44064149982296,265.44064149982296,265.44064149982296,265.44064149982296,265.44064149982296,265.44064149982296,265.44064149982296,265.44064149982296,23,0,,,265.44064149982296,265.6408826999832,4.9,265.6408826999832,1,4.9,1,1,1000,num_4,0.5397568000480533,,31,6,2026-03-12_13h51.55.393,2026A_exp2,2022.2.4,59.890854855913865,
0,0,0.0,6.1,0,0,82,82,12,,,,,266.2080833998043,266.858842499787,266.858842499787,267.343173999805,315,315,267.343173999805,267.343173999805,267.343173999805,267.343173999805,267.343173999805,267.343173999805,267.343173999805,267.343173999805,267.343173999805,267.7096703997813,267.7096703997813,267.7096703997813,267.7096703997813,267.7096703997813,267.7096703997813,267.7096703997813,267.7096703997813,267.7096703997813,23,0,,,267.7096703997813,267.909756799927,6.1,267.909756799927,1,6.1,1,1,1000,num_4,0.7428620001301169,,31,6,2026-03-12_13h51.55.393,2026A_exp2,2022.2.4,59.890854855913865,
1,0,6.1,4.9,1,0,83,83,38,,,,,268.6771831999067,269.3278685999103,269.3278685999103,269.81217199983075,45,45,269.81217199983075,269.81217199983075,269.81217199983075,269.81217199983075,269.81217199983075,269.81217199983075,269.81217199983075,269.81217199983075,269.81217199983075,270.1786387998145,270.1786387998145,270.1786387998145,270.1786387998145,270.1786387998145,270.1786387998145,270.1786387998145,270.1786387998145,270.1786387998145,23,0,,,270.1786387998145,270.37893039989285,4.9,270.37893039989285,1,4.9,1,1,1000,num_4,0.816346500068903,,31,6,2026-03-12_13h51.55.393,2026A_exp2,2022.2.4,59.890854855913865,
1,0,0.0,6.1,1,0,84,84,39,,,,,271.2130918998737,271.8638396000024,271.8638396000024,272.34814449981786,45,315,272.34814449981786,272.34814449981786,272.34814449981786,272.34814449981786,272.34814449981786,272.34814449981786,272.34814449981786,272.34814449981786,272.34814449981786,272.7146901998203,272.7146901998203,272.7146901998203,272.7146901998203,272.7146901998203,272.7146901998203,272.7146901998203,272.7146901998203,272.7146901998203,23,0,,,272.7146901998203,272.9234410999343,6.1,272.9234410999343,1,6.1,1,1,1000,num_4,0.5360349998809397,,31,6,2026-03-12_13h51.55.393,2026A_exp2,2022.2.4,59.890854855913865,
1000,1,4.9,0.0,0,0,85,85,82,,,,,273.48199299979024,274.13267959980294,274.13267959980294,274.61708149989136,315,315,274.61708149989136,274.61708149989136,274.61708149989136,274.61708149989136,274.61708149989136,274.61708149989136,274.61708149989136,274.61708149989136,274.61708149989136,274.9837904998567,274.9837904998567,274.9837904998567,274.9837904998567,274.9837904998567,274.9837904998567,274.9837904998567,274.9837904998567,274.9837904998567,23,0,,,274.9837904998567,275.2072583998088,1000,275.2072583998088,1000,1000,1000,1000,0,num_3,0.7330243999604136,,31,6,2026-03-12_13h51.55.393,2026A_exp2,2022.2.4,59.890854855913865,
1,0,6.1,0.0,1,0,86,86,29,,,,,275.96780220000073,276.6185223998036,276.6185223998036,277.11971020000055,315,315,277.11971020000055,277.11971020000055,277.11971020000055,277.11971020000055,277.11971020000055,277.11971020000055,277.11971020000055,277.11971020000055,277.11971020000055,277.4860652999487,277.4860652999487,277.4860652999487,277.4860652999487,277.4860652999487,277.4860652999487,277.4860652999487,277.4860652999487,277.4860652999487,23,0,,,277.4860652999487,277.68631019978784,0.0,277.68631019978784,0,0.0,0,1,1000,num_1,1.7573762000538409,,31,6,2026-03-12_13h51.55.393,2026A_exp2,2022.2.4,59.890854855913865,
1000,1,0.0,0.0,1,0,87,87,27,,,,,279.47145670000464,280.1220834997948,280.1220834997948,280.60643159993924,45,45,280.60643159993924,280.60643159993924,280.60643159993924,280.60643159993924,280.60643159993924,280.60643159993924,280.60643159993924,280.60643159993924,280.60643159993924,280.9727400999982,280.9727400999982,280.9727400999982,280.9727400999982,280.9727400999982,280.9727400999982,280.9727400999982,280.9727400999982,280.9727400999982,23,0,,,280.9727400999982,281.17543469998054,1000,281.17543469998054,1000,1000,1000,1000,0,num_3,0.7722078000660986,,31,6,2026-03-12_13h51.55.393,2026A_exp2,2022.2.4,59.890854855913865,
1,0,4.9,6.1,1,0,88,88,62,,,,,281.97373709990643,282.6245499998331,282.6245499998331,283.1257158999797,45,315,283.1257158999797,283.1257158999797,283.1257158999797,283.1257158999797,283.1257158999797,283.1257158999797,283.1257158999797,283.1257158999797,283.1257158999797,283.4921095999889,283.4921095999889,283.4921095999889,283.4921095999889,283.4921095999889,283.4921095999889,283.4921095999889,283.4921095999889,283.4921095999889,23,0,,,283.4921095999889,283.6926553999074,6.1,283.6926553999074,1,6.1,1,1,1000,num_4,0.7353486998472363,,31,6,2026-03-12_13h51.55.393,2026A_exp2,2022.2.4,59.890854855913865,
1000,1,0.0,3.7,0,0,89,89,21,,,,,284.45974229997955,285.11037739994936,285.11037739994936,285.5946688998956,315,45,285.5946688998956,285.5946688998956,285.5946688998956,285.5946688998956,285.5946688998956,285.5946688998956,285.5946688998956,285.5946688998956,285.5946688998956,285.9609509999864,285.9609509999864,285.9609509999864,285.9609509999864,285.9609509999864,285.9609509999864,285.9609509999864,285.9609509999864,285.9609509999864,23,0,,,285.9609509999864,286.1615613999311,1000,286.1615613999311,1000,1000,1000,1000,1,num_2,0.7785040000453591,,31,6,2026-03-12_13h51.55.393,2026A_exp2,2022.2.4,59.890854855913865,
,,,,,,,,,,,,,,,,,,,,,,,,,,,,,,,,,,,,,,,,,,,,,,,,,,,,286.9780144998804,,,,,,,
