validity,detectorcomp,contrastCW,contrastCCW,precueCWorCCW,block_80trials.thisRepN,block_80trials.thisTrialN,block_80trials.thisN,block_80trials.thisIndex,etRecord.started,etRecord.stopped,text.started,text.stopped,text_4.started,text_4.stopped,text_6.started,text_6.stopped,oriCW,oriCCW,roi_2.started,grating_UR.started,grating_UL.started,grating_LR.started,grating_LL.started,noise_UR.started,noise_UL.started,noise_LR.started,noise_LL.started,roi_2.stopped,grating_UR.stopped,grating_UL.stopped,grating_LR.stopped,grating_LL.stopped,noise_UR.stopped,noise_UL.stopped,noise_LR.stopped,noise_LL.stopped,outframe,roi_2.numLooks,roi_2.timesOn,roi_2.timesOff,text_2.started,text_2.stopped,probedcontrast,key_resp.started,respdetect,relevantContrast,correctDetect,TorFdetect,respCWorCCW,key_resp.keys,key_resp.rt,feedback_display_.started,participantNo,blockNo,date,expName,psychopyVersion,frameRate,
1,0,4.9,4.9,0,0,0,0,63,5.719996988773346e-05,5.719996988773346e-05,52.189012499991804,54.193292700045276,54.193292700045276,54.825596300011966,54.825596300011966,55.34436069999356,45,315,55.34436069999356,55.34436069999356,55.34436069999356,55.34436069999356,55.34436069999356,55.34436069999356,55.34436069999356,55.34436069999356,55.34436069999356,55.69337789999554,55.69337789999554,55.69337789999554,55.69337789999554,55.69337789999554,55.69337789999554,55.69337789999554,55.69337789999554,55.69337789999554,0,1,[0.0009458999847993255],[0.3667011999641545],55.69337789999554,55.8935419000336,4.9,55.8935419000336,1,4.9,1,1,1000,num_4,0.8961195999872871,,27,11,2026-03-05_14h00.03.497,2026A_exp2,2022.2.4,59.91019461097872,
1000,1,4.9,3.7,1,0,1,1,67,,,,,56.81116020004265,57.46168450004188,57.46168450004188,57.96282230003271,45,315,57.96282230003271,57.96282230003271,57.96282230003271,57.96282230003271,57.96282230003271,57.96282230003271,57.96282230003271,57.96282230003271,57.96282230003271,58.32925270003034,58.32925270003034,58.32925270003034,58.32925270003034,58.32925270003034,58.32925270003034,58.32925270003034,58.32925270003034,58.32925270003034,23,0,,,58.32925270003034,58.53448820003541,1000,58.53448820003541,1000,1000,1000,1000,1,num_2,0.5275842000264674,,27,11,2026-03-05_14h00.03.497,2026A_exp2,2022.2.4,59.91019461097872,
1,0,0.0,6.1,0,0,2,2,5,,,,,59.08008790004533,59.73067890002858,59.73067890002858,60.231841600034386,45,315,60.231841600034386,60.231841600034386,60.231841600034386,60.231841600034386,60.231841600034386,60.231841600034386,60.231841600034386,60.231841600034386,60.231841600034386,60.59821440000087,60.59821440000087,60.59821440000087,60.59821440000087,60.59821440000087,60.59821440000087,60.59821440000087,60.59821440000087,60.59821440000087,23,0,,,60.59821440000087,60.79829330003122,0.0,60.79829330003122,0,0.0,0,1,1000,num_1,0.576090499991551,,27,11,2026-03-05_14h00.03.497,2026A_exp2,2022.2.4,59.91019461097872,
1000,1,0.0,0.0,1,0,3,3,47,,,,,61.39902790001361,62.049685000034515,62.049685000034515,62.53413990000263,45,45,62.53413990000263,62.53413990000263,62.53413990000263,62.53413990000263,62.53413990000263,62.53413990000263,62.53413990000263,62.53413990000263,62.53413990000263,62.90048370003933,62.90048370003933,62.90048370003933,62.90048370003933,62.90048370003933,62.90048370003933,62.90048370003933,62.90048370003933,62.90048370003933,23,0,,,62.90048370003933,63.10229549999349,1000,63.10229549999349,1000,1000,1000,1000,0,num_3,0.4317443000036292,,27,11,2026-03-05_14h00.03.497,2026A_exp2,2022.2.4,59.91019461097872,
1000,1,4.9,4.9,0,0,4,4,42,,,,,63.55134490004275,64.20164340001065,64.20164340001065,64.703047899995,45,315,64.703047899995,64.703047899995,64.703047899995,64.703047899995,64.703047899995,64.703047899995,64.703047899995,64.703047899995,64.703047899995,65.06944560003467,65.06944560003467,65.06944560003467,65.06944560003467,65.06944560003467,65.06944560003467,65.06944560003467,65.06944560003467,65.06944560003467,23,0,,,65.06944560003467,65.27130140003283,1000,65.27130140003283,1000,1000,1000,1000,0,num_3,0.477626700012479,,27,11,2026-03-05_14h00.03.497,2026A_exp2,2022.2.4,59.91019461097872,
1,0,0.0,4.9,0,0,5,5,71,,,,,65.77000170003157,66.42060630000196,66.42060630000196,66.92187230003765,45,45,66.92187230003765,66.92187230003765,66.92187230003765,66.92187230003765,66.92187230003765,66.92187230003765,66.92187230003765,66.92187230003765,66.92187230003765,67.2715562999947,67.2715562999947,67.2715562999947,67.2715562999947,67.2715562999947,67.2715562999947,67.2715562999947,67.2715562999947,67.2715562999947,22,0,,,67.2715562999947,67.47183510003379,0.0,67.48844590003137,0,0.0,0,1,1000,num_1,0.5324951999937184,,27,11,2026-03-05_14h00.03.497,2026A_exp2,2022.2.4,59.91019461097872,
1000,1,3.7,6.1,0,0,6,6,28,,,,,68.03882150002755,68.6896953000105,68.6896953000105,69.17403260001447,315,45,69.17403260001447,69.17403260001447,69.17403260001447,69.17403260001447,69.17403260001447,69.17403260001447,69.17403260001447,69.17403260001447,69.17403260001447,69.5405141999945,69.5405141999945,69.5405141999945,69.5405141999945,69.5405141999945,69.5405141999945,69.5405141999945,69.5405141999945,69.5405141999945,23,0,,,69.5405141999945,69.74256620003143,1000,69.74256620003143,1000,1000,1000,1000,1,num_2,0.4230333000305109,,27,11,2026-03-05_14h00.03.497,2026A_exp2,2022.2.4,59.91019461097872,
1,0,4.9,6.1,0,0,7,7,15,,,,,70.19105459999992,70.84374610002851,70.84374610002851,71.34293360001175,45,315,71.34293360001175,71.34293360001175,71.34293360001175,71.34293360001175,71.34293360001175,71.34293360001175,71.34293360001175,71.34293360001175,71.34293360001175,71.69266840000637,71.69266840000637,71.69266840000637,71.69266840000637,71.69266840000637,71.69266840000637,71.69266840000637,71.69266840000637,71.69266840000637,22,0,,,71.69266840000637,71.89272840000922,4.9,71.90943200001493,0,4.9,1,0,1000,num_1,0.552216199983377,,27,11,2026-03-05_14h00.03.497,2026A_exp2,2022.2.4,59.91019461097872,
1,0,4.9,0.0,1,0,8,8,6,,,,,72.49339040002087,73.14380800002255,73.14380800002255,73.62866170000052,315,315,73.62866170000052,73.62866170000052,73.62866170000052,73.62866170000052,73.62866170000052,73.62866170000052,73.62866170000052,73.62866170000052,73.62866170000052,73.99464640003862,73.99464640003862,73.99464640003862,73.99464640003862,73.99464640003862,73.99464640003862,73.99464640003862,73.99464640003862,73.99464640003862,23,0,,,73.99464640003862,74.19603819999611,0.0,74.19603819999611,0,0.0,0,1,1000,num_1,0.5051436999929138,,27,11,2026-03-05_14h00.03.497,2026A_exp2,2022.2.4,59.91019461097872,
1000,1,0.0,3.7,1,0,9,9,80,,,,,74.72881950001465,75.36334400001215,75.36334400001215,75.86397960002068,315,45,75.86397960002068,75.86397960002068,75.86397960002068,75.86397960002068,75.86397960002068,75.86397960002068,75.86397960002068,75.86397960002068,75.86397960002068,76.2313492000103,76.2313492000103,76.2313492000103,76.2313492000103,76.2313492000103,76.2313492000103,76.2313492000103,76.2313492000103,76.2313492000103,21,1,[0.06786319997627288],[0.10039219999453053],76.2313492000103,76.43105740001192,1000,76.43105740001192,1000,1000,1000,1000,1,num_2,0.5181236999924295,,27,11,2026-03-05_14h00.03.497,2026A_exp2,2022.2.4,59.91019461097872,
1,0,3.7,4.9,1,0,10,10,39,,,,,76.98103290004656,77.63148320000619,77.63148320000619,78.11596800002735,45,315,78.11596800002735,78.11596800002735,78.11596800002735,78.11596800002735,78.11596800002735,78.11596800002735,78.11596800002735,78.11596800002735,78.11596800002735,78.48258390004048,78.48258390004048,78.48258390004048,78.48258390004048,78.48258390004048,78.48258390004048,78.48258390004048,78.48258390004048,78.48258390004048,23,0,,,78.48258390004048,78.68311670003459,4.9,78.68311670003459,1,4.9,1,1,1000,num_4,0.530072099994868,,27,11,2026-03-05_14h00.03.497,2026A_exp2,2022.2.4,59.91019461097872,
1000,1,6.1,3.7,1,0,11,11,10,,,,,79.23339090001537,79.88409120001597,79.88409120001597,80.3685435000225,315,315,80.3685435000225,80.3685435000225,80.3685435000225,80.3685435000225,80.3685435000225,80.3685435000225,80.3685435000225,80.3685435000225,80.3685435000225,80.7349336000043,80.7349336000043,80.7349336000043,80.7349336000043,80.7349336000043,80.7349336000043,80.7349336000043,80.7349336000043,80.7349336000043,23,0,,,80.7349336000043,80.93713989999378,1000,80.93713989999378,1000,1000,1000,1000,0,num_3,0.38811609998811036,,27,11,2026-03-05_14h00.03.497,2026A_exp2,2022.2.4,59.91019461097872,
1000,1,4.9,0.0,1,0,12,12,25,,,,,81.35226170002716,82.00313200004166,82.00313200004166,82.50407590001123,315,45,82.50407590001123,82.50407590001123,82.50407590001123,82.50407590001123,82.50407590001123,82.50407590001123,82.50407590001123,82.50407590001123,82.50407590001123,82.87041520001367,82.87041520001367,82.87041520001367,82.87041520001367,82.87041520001367,82.87041520001367,82.87041520001367,82.87041520001367,82.87041520001367,23,0,,,82.87041520001367,83.0723730000318,1000,83.0723730000318,1000,1000,1000,1000,0,num_3,0.534132500004489,,27,11,2026-03-05_14h00.03.497,2026A_exp2,2022.2.4,59.91019461097872,
1,0,4.9,0.0,1,0,13,13,4,,,,,83.6379221000243,84.28863530000672,84.28863530000672,84.78961370000616,45,315,84.78961370000616,84.78961370000616,84.78961370000616,84.78961370000616,84.78961370000616,84.78961370000616,84.78961370000616,84.78961370000616,84.78961370000616,85.13941410003463,85.13941410003463,85.13941410003463,85.13941410003463,85.13941410003463,85.13941410003463,85.13941410003463,85.13941410003463,85.13941410003463,22,0,,,85.13941410003463,85.33963070000755,0.0,85.33963070000755,0,0.0,0,1,1000,num_1,0.5143376999767497,,27,11,2026-03-05_14h00.03.497,2026A_exp2,2022.2.4,59.91019461097872,
1000,1,4.9,0.0,0,0,14,14,58,,,,,85.87330350000411,86.52413900004467,86.52413900004467,87.00864130002446,45,45,87.00864130002446,87.00864130002446,87.00864130002446,87.00864130002446,87.00864130002446,87.00864130002446,87.00864130002446,87.00864130002446,87.00864130002446,87.37505570001667,87.37505570001667,87.37505570001667,87.37505570001667,87.37505570001667,87.37505570001667,87.37505570001667,87.37505570001667,87.37505570001667,23,0,,,87.37505570001667,87.577090100036,1000,87.577090100036,1000,1000,1000,1000,0,num_3,0.3733615000382997,,27,11,2026-03-05_14h00.03.497,2026A_exp2,2022.2.4,59.91019461097872,
1000,1,0.0,3.7,0,0,15,15,44,,,,,87.97549610002898,88.62628990004305,88.62628990004305,89.1274781000102,315,45,89.1274781000102,89.1274781000102,89.1274781000102,89.1274781000102,89.1274781000102,89.1274781000102,89.1274781000102,89.1274781000102,89.1274781000102,89.49356490001082,89.49356490001082,89.49356490001082,89.49356490001082,89.49356490001082,89.49356490001082,89.49356490001082,89.49356490001082,89.49356490001082,4,5,"[0.0008490000036545098, 0.05070619995240122, 0.08400829997844994, 0.11745089996838942, 0.23422789998585358]","[0.03399219998391345, 0.0672649999614805, 0.1007306999526918, 0.21739359997445717, 0.36685389996273443]",89.49356490001082,89.69373780000024,1000,89.69373780000024,1000,1000,1000,1000,1,num_2,0.44012199994176626,,27,11,2026-03-05_14h00.03.497,2026A_exp2,2022.2.4,59.91019461097872,
1000,1,6.1,0.0,1,0,16,16,60,,,,,90.16120420000516,90.81184070004383,90.81184070004383,91.29615490004653,45,45,91.29615490004653,91.29615490004653,91.29615490004653,91.29615490004653,91.29615490004653,91.29615490004653,91.29615490004653,91.29615490004653,91.29615490004653,91.6625430000131,91.6625430000131,91.6625430000131,91.6625430000131,91.6625430000131,91.6625430000131,91.6625430000131,91.6625430000131,91.6625430000131,0,1,[0.0013398000155575573],[0.3672908000298776],91.6625430000131,91.86448520002887,1000,91.86448520002887,1000,1000,1000,1000,0,num_3,0.5099272000370547,,27,11,2026-03-05_14h00.03.497,2026A_exp2,2022.2.4,59.91019461097872,
1000,1,0.0,3.7,0,0,17,17,52,,,,,92.39669470000081,93.04733520001173,93.04733520001173,93.54837790003512,315,315,93.54837790003512,93.54837790003512,93.54837790003512,93.54837790003512,93.54837790003512,93.54837790003512,93.54837790003512,93.54837790003512,93.54837790003512,93.91506010002922,93.91506010002922,93.91506010002922,93.91506010002922,93.91506010002922,93.91506010002922,93.91506010002922,93.91506010002922,93.91506010002922,23,0,,,93.91506010002922,94.11662149999756,1000,94.11662149999756,1000,1000,1000,1000,1,num_2,0.42531740001868457,,27,11,2026-03-05_14h00.03.497,2026A_exp2,2022.2.4,59.91019461097872,
1,0,0.0,0.0,0,0,18,18,64,,,,,94.56537880003452,95.21624909999082,95.21624909999082,95.71726910001598,315,45,95.71726910001598,95.71726910001598,95.71726910001598,95.71726910001598,95.71726910001598,95.71726910001598,95.71726910001598,95.71726910001598,95.71726910001598,96.08381420001388,96.08381420001388,96.08381420001388,96.08381420001388,96.08381420001388,96.08381420001388,96.08381420001388,96.08381420001388,96.08381420001388,23,0,,,96.08381420001388,96.28384859999642,0.0,96.28384859999642,1,0.0,0,0,1000,num_4,0.6016200999729335,,27,11,2026-03-05_14h00.03.497,2026A_exp2,2022.2.4,59.91019461097872,
1,0,0.0,0.0,1,0,19,19,18,,,,,96.90147989999969,97.55986320000375,97.55986320000375,98.04117510002106,315,45,98.04117510002106,98.04117510002106,98.04117510002106,98.04117510002106,98.04117510002106,98.04117510002106,98.04117510002106,98.04117510002106,98.04117510002106,98.4027400999912,98.4027400999912,98.4027400999912,98.4027400999912,98.4027400999912,98.4027400999912,98.4027400999912,98.4027400999912,98.4027400999912,7,4,"[0.002532400016207248, 0.08358239999506623, 0.16706880001584068, 0.26723329996457323]","[0.022110299963969737, 0.13350469997385517, 0.25040249997982755, 0.3652711999602616]",98.4027400999912,98.60291910002707,0.0,98.60291910002707,0,0.0,0,1,1000,num_1,0.5464230999932624,,27,11,2026-03-05_14h00.03.497,2026A_exp2,2022.2.4,59.91019461097872,
1,0,3.7,0.0,1,0,20,20,74,,,,,99.1699656000128,99.82077140000183,99.82077140000183,100.30529690004187,45,315,100.30529690004187,100.30529690004187,100.30529690004187,100.30529690004187,100.30529690004187,100.30529690004187,100.30529690004187,100.30529690004187,100.30529690004187,100.67169660003856,100.67169660003856,100.67169660003856,100.67169660003856,100.67169660003856,100.67169660003856,100.67169660003856,100.67169660003856,100.67169660003856,0,1,[0.00102530000731349],[0.36741990002337843],100.67169660003856,100.87148890004028,0.0,100.87148890004028,0,0.0,0,1,1000,num_1,0.5658725000103004,,27,11,2026-03-05_14h00.03.497,2026A_exp2,2022.2.4,59.91019461097872,
1000,1,0.0,4.9,1,0,21,21,27,,,,,101.45562960003735,102.10642560000997,102.10642560000997,102.59074479999254,45,45,102.59074479999254,102.59074479999254,102.59074479999254,102.59074479999254,102.59074479999254,102.59074479999254,102.59074479999254,102.59074479999254,102.59074479999254,102.95726370002376,102.95726370002376,102.95726370002376,102.95726370002376,102.95726370002376,102.95726370002376,102.95726370002376,102.95726370002376,102.95726370002376,1,3,"[0.0013614000054076314, 0.03342009999323636, 0.06685800000559539]","[0.017403199977707118, 0.05031079996842891, 0.36712959996657446]",102.95726370002376,103.15936350001721,1000,103.15936350001721,1000,1000,1000,1000,1,num_2,0.43869089998770505,,27,11,2026-03-05_14h00.03.497,2026A_exp2,2022.2.4,59.91019461097872,
1000,1,6.1,0.0,0,0,22,22,19,,,,,103.62448090000544,104.2752879000036,104.2752879000036,104.77638719999231,45,45,104.77638719999231,104.77638719999231,104.77638719999231,104.77638719999231,104.77638719999231,104.77638719999231,104.77638719999231,104.77638719999231,104.77638719999231,105.12591090000933,105.12591090000933,105.12591090000933,105.12591090000933,105.12591090000933,105.12591090000933,105.12591090000933,105.12591090000933,105.12591090000933,10,3,"[0.017323900014162064, 0.06684179999865592, 0.2500891000381671]","[0.05022929998813197, 0.21653299999888986, 0.26712450000923127]",105.12591090000933,105.32733610004652,1000,105.34296540002106,1000,1000,1000,1000,0,num_3,0.4309002000372857,,27,11,2026-03-05_14h00.03.497,2026A_exp2,2022.2.4,59.91019461097872,
1,0,0.0,6.1,0,0,23,23,68,,,,,105.79331880004611,106.44402580003953,106.44402580003953,106.94527690001996,315,315,106.94527690001996,106.94527690001996,106.94527690001996,106.94527690001996,106.94527690001996,106.94527690001996,106.94527690001996,106.94527690001996,106.94527690001996,107.31153440003982,107.31153440003982,107.31153440003982,107.31153440003982,107.31153440003982,107.31153440003982,107.31153440003982,107.31153440003982,107.31153440003982,15,4,"[0.0012091999524272978, 0.10032399999909103, 0.19996469997568056, 0.26700009999331087]","[0.05024259997298941, 0.133805499994196, 0.23319429997354746, 0.2838509999564849]",107.31153440003982,107.51268280000659,0.0,107.51268280000659,0,0.0,0,1,1000,num_1,1.3968774999957532,,27,11,2026-03-05_14h00.03.497,2026A_exp2,2022.2.4,59.91019461097872,
0,0,0.0,0.0,1,0,24,24,62,,,,,108.9297169999918,109.58060139999725,109.58060139999725,110.06491360004293,45,315,110.06491360004293,110.06491360004293,110.06491360004293,110.06491360004293,110.06491360004293,110.06491360004293,110.06491360004293,110.06491360004293,110.06491360004293,110.43144150002627,110.43144150002627,110.43144150002627,110.43144150002627,110.43144150002627,110.43144150002627,110.43144150002627,110.43144150002627,110.43144150002627,19,4,"[0.13362909998977557, 0.2665522000170313, 0.33343980001518503, 0.36708029999863356]","[0.15029930003220215, 0.2834325000294484, 0.35029109998140484, 0.36708470003213733]",110.43144150002627,110.63180329999886,0.0,110.63180329999886,1,0.0,0,0,1000,num_4,0.6056180000305176,,27,11,2026-03-05_14h00.03.497,2026A_exp2,2022.2.4,59.91019461097872,
1,0,0.0,0.0,0,0,25,25,59,,,,,111.26569140003994,111.91703820001567,111.91703820001567,112.40058990003308,45,315,112.40058990003308,112.40058990003308,112.40058990003308,112.40058990003308,112.40058990003308,112.40058990003308,112.40058990003308,112.40058990003308,112.40058990003308,112.76720689999638,112.76720689999638,112.76720689999638,112.76720689999638,112.76720689999638,112.76720689999638,112.76720689999638,112.76720689999638,112.76720689999638,5,3,"[0.0014101999695412815, 0.10012419999111444, 0.2835075999610126]","[0.08351470000343397, 0.2168750999844633, 0.3670128000085242]",112.76720689999638,112.96734989999095,0.0,112.96734989999095,1,0.0,0,0,1000,num_4,0.5342987999902107,,27,11,2026-03-05_14h00.03.497,2026A_exp2,2022.2.4,59.91019461097872,
1000,1,4.9,0.0,1,0,26,26,72,,,,,113.51775400002953,114.16833870002301,114.16833870002301,114.66946659999667,45,45,114.66946659999667,114.66946659999667,114.66946659999667,114.66946659999667,114.66946659999667,114.66946659999667,114.66946659999667,114.66946659999667,114.66946659999667,115.019440700009,115.019440700009,115.019440700009,115.019440700009,115.019440700009,115.019440700009,115.019440700009,115.019440700009,115.019440700009,5,4,"[0.0007314999820664525, 0.11739410000154749, 0.20108229998731986, 0.2677792999893427]","[0.08436939999228343, 0.18426750000799075, 0.23429390002274886, 0.35095940000610426]",115.019440700009,115.22117890004301,1000,115.22117890004301,1000,1000,1000,1000,0,num_3,0.5440670000389218,,27,11,2026-03-05_14h00.03.497,2026A_exp2,2022.2.4,59.91019461097872,
1,0,0.0,3.7,0,0,27,27,78,,,,,115.78663200000301,116.4374369000434,116.4374369000434,116.93853420001687,315,315,116.93853420001687,116.93853420001687,116.93853420001687,116.93853420001687,116.93853420001687,116.93853420001687,116.93853420001687,116.93853420001687,116.93853420001687,117.3049558000057,117.3049558000057,117.3049558000057,117.3049558000057,117.3049558000057,117.3049558000057,117.3049558000057,117.3049558000057,117.3049558000057,23,0,,,117.3049558000057,117.50492030003807,0.0,117.50492030003807,0,0.0,0,1,1000,num_1,0.6368666999624111,,27,11,2026-03-05_14h00.03.497,2026A_exp2,2022.2.4,59.91019461097872,
1,0,4.9,0.0,1,0,28,28,82,,,,,118.1722781000426,118.82307849999052,118.82307849999052,119.30762159998994,45,315,119.30762159998994,119.30762159998994,119.30762159998994,119.30762159998994,119.30762159998994,119.30762159998994,119.30762159998994,119.30762159998994,119.30762159998994,119.67394470004365,119.67394470004365,119.67394470004365,119.67394470004365,119.67394470004365,119.67394470004365,119.67394470004365,119.67394470004365,119.67394470004365,6,6,"[0.001233199960552156, 0.050369200005661696, 0.08360710000852123, 0.13361459999578074, 0.18381449999287724, 0.35033270000712946]","[0.033640299981925637, 0.06693309999536723, 0.11693199997534975, 0.16698549996363, 0.316813999961596, 0.36736309999832883]",119.67394470004365,119.87424580001971,0.0,119.87424580001971,0,0.0,0,1,1000,num_1,0.59496300003957,,27,11,2026-03-05_14h00.03.497,2026A_exp2,2022.2.4,59.91019461097872,
1000,1,3.7,3.7,1,0,29,29,40,,,,,120.49124070000835,121.14214529999299,121.14214529999299,121.64299790002406,45,45,121.64299790002406,121.64299790002406,121.64299790002406,121.64299790002406,121.64299790002406,121.64299790002406,121.64299790002406,121.64299790002406,121.64299790002406,121.99281010002596,121.99281010002596,121.99281010002596,121.99281010002596,121.99281010002596,121.99281010002596,121.99281010002596,121.99281010002596,121.99281010002596,22,0,,,121.99281010002596,122.19373630004702,1000,122.19373630004702,1000,1000,1000,1000,0,num_3,0.515972800028976,,27,11,2026-03-05_14h00.03.497,2026A_exp2,2022.2.4,59.91019461097872,
1,0,0.0,4.9,0,0,30,30,17,,,,,122.72705030004727,123.37752520001959,123.37752520001959,123.87870560004376,315,45,123.87870560004376,123.87870560004376,123.87870560004376,123.87870560004376,123.87870560004376,123.87870560004376,123.87870560004376,123.87870560004376,123.87870560004376,124.2452022000216,124.2452022000216,124.2452022000216,124.2452022000216,124.2452022000216,124.2452022000216,124.2452022000216,124.2452022000216,124.2452022000216,8,5,"[0.017260399996303022, 0.06685020000441, 0.10023589996853843, 0.21700319997034967, 0.3168158999760635]","[0.033493599970825016, 0.08350279997102916, 0.20042179996380582, 0.2838307999772951, 0.3669594000093639]",124.2452022000216,124.44537390000187,0.0,124.44537390000187,0,0.0,0,1,1000,num_1,0.5285296000074595,,27,11,2026-03-05_14h00.03.497,2026A_exp2,2022.2.4,59.91019461097872,
1000,1,6.1,3.7,1,0,31,31,24,,,,,124.99578550003935,125.6498988000094,125.6498988000094,126.1310233999975,45,45,126.1310233999975,126.1310233999975,126.1310233999975,126.1310233999975,126.1310233999975,126.1310233999975,126.1310233999975,126.1310233999975,126.1310233999975,126.49745510000503,126.49745510000503,126.49745510000503,126.49745510000503,126.49745510000503,126.49745510000503,126.49745510000503,126.49745510000503,126.49745510000503,7,5,"[0.0012116999714635313, 0.06700749997980893, 0.19970369996735826, 0.2998677999712527, 0.3504852000041865]","[0.0502693000016734, 0.1670416999841109, 0.2663784999749623, 0.3167455999646336, 0.36719580000499263]",126.49745510000503,126.69960819999687,1000,126.69960819999687,1000,1000,1000,1000,0,num_3,0.44280220003565773,,27,11,2026-03-05_14h00.03.497,2026A_exp2,2022.2.4,59.91019461097872,
1000,1,0.0,0.0,1,0,32,32,7,,,,,127.16463840001961,127.81535500002792,127.81535500002792,128.31647240003804,45,45,128.31647240003804,128.31647240003804,128.31647240003804,128.31647240003804,128.31647240003804,128.31647240003804,128.31647240003804,128.31647240003804,128.31647240003804,128.68297870003153,128.68297870003153,128.68297870003153,128.68297870003153,128.68297870003153,128.68297870003153,128.68297870003153,128.68297870003153,128.68297870003153,15,2,"[0.06683209998300299, 0.21700330002931878]","[0.1668063999968581, 0.2502201999886893]",128.68297870003153,128.88462030002847,1000,128.88462030002847,1000,1000,1000,1000,0,num_3,0.4643690999946557,,27,11,2026-03-05_14h00.03.497,2026A_exp2,2022.2.4,59.91019461097872,
0,0,0.0,0.0,1,0,33,33,8,,,,,129.36687140003778,130.01765920000616,130.01765920000616,130.5195124000311,45,315,130.5195124000311,130.5195124000311,130.5195124000311,130.5195124000311,130.5195124000311,130.5195124000311,130.5195124000311,130.5195124000311,130.5195124000311,130.86848330002977,130.86848330002977,130.86848330002977,130.86848330002977,130.86848330002977,130.86848330002977,130.86848330002977,130.86848330002977,130.86848330002977,22,0,,,130.86848330002977,131.06876719999127,0.0,131.06876719999127,1,0.0,0,0,1000,num_4,0.6802792000235058,,27,11,2026-03-05_14h00.03.497,2026A_exp2,2022.2.4,59.91019461097872,
1,0,0.0,0.0,1,0,34,34,66,,,,,131.76919950003503,132.42002520000096,132.42002520000096,132.90439229999902,315,45,132.90439229999902,132.90439229999902,132.90439229999902,132.90439229999902,132.90439229999902,132.90439229999902,132.90439229999902,132.90439229999902,132.90439229999902,133.2705809000181,133.2705809000181,133.2705809000181,133.2705809000181,133.2705809000181,133.2705809000181,133.2705809000181,133.2705809000181,133.2705809000181,14,6,"[0.017255299957469106, 0.04972369997994974, 0.11692869995022193, 0.20035289996303618, 0.25031459995079786, 0.2837978999596089]","[0.03330199996707961, 0.08351239998592064, 0.13362709997454658, 0.23374949995195493, 0.2671128999791108, 0.3170619999873452]",133.2705809000181,133.47118340001907,0.0,133.47118340001907,0,0.0,0,1,1000,num_1,0.5188217000104487,,27,11,2026-03-05_14h00.03.497,2026A_exp2,2022.2.4,59.91019461097872,
1,0,4.9,4.9,1,0,35,35,89,,,,,134.0217498000129,134.67219210002804,134.67219210002804,135.15664360002847,315,315,135.15664360002847,135.15664360002847,135.15664360002847,135.15664360002847,135.15664360002847,135.15664360002847,135.15664360002847,135.15664360002847,135.15664360002847,135.52313819999108,135.52313819999108,135.52313819999108,135.52313819999108,135.52313819999108,135.52313819999108,135.52313819999108,135.52313819999108,135.52313819999108,14,5,"[0.11693369998829439, 0.16695039998739958, 0.2002772999694571, 0.30049190000863746, 0.36716009996598586]","[0.133631200005766, 0.18365720001747832, 0.2837043000035919, 0.3170817000209354, 0.36716660001548007]",135.52313819999108,135.72332849999657,4.9,135.72332849999657,1,4.9,1,1,1000,num_4,0.52180300001055,,27,11,2026-03-05_14h00.03.497,2026A_exp2,2022.2.4,59.91019461097872,
1000,1,0.0,6.1,0,0,36,36,34,,,,,136.27392970002256,136.90795080002863,136.90795080002863,137.40903560002334,315,45,137.40903560002334,137.40903560002334,137.40903560002334,137.40903560002334,137.40903560002334,137.40903560002334,137.40903560002334,137.40903560002334,137.40903560002334,137.7753953000065,137.7753953000065,137.7753953000065,137.7753953000065,137.7753953000065,137.7753953000065,137.7753953000065,137.7753953000065,137.7753953000065,5,2,"[0.001206899993121624, 0.35064999997848645]","[0.2838808000087738, 0.36738599999807775]",137.7753953000065,137.97731159999967,1000,137.97731159999967,1000,1000,1000,1000,1,num_2,0.5161768000107259,,27,11,2026-03-05_14h00.03.497,2026A_exp2,2022.2.4,59.91019461097872,
1000,1,4.9,4.9,0,0,37,37,31,,,,,138.50952070002677,139.16008190001594,139.16008190001594,139.64448590000393,315,45,139.64448590000393,139.64448590000393,139.64448590000393,139.64448590000393,139.64448590000393,139.64448590000393,139.64448590000393,139.64448590000393,139.64448590000393,140.01098030002322,140.01098030002322,140.01098030002322,140.01098030002322,140.01098030002322,140.01098030002322,140.01098030002322,140.01098030002322,140.01098030002322,23,0,,,140.01098030002322,140.21343750000233,1000,140.21343750000233,1000,1000,1000,1000,0,num_3,0.4567338000051677,,27,11,2026-03-05_14h00.03.497,2026A_exp2,2022.2.4,59.91019461097872,
1,0,4.9,0.0,0,0,38,38,48,,,,,140.6949500000337,141.34565620002104,141.34565620002104,141.84686019999208,315,315,141.84686019999208,141.84686019999208,141.84686019999208,141.84686019999208,141.84686019999208,141.84686019999208,141.84686019999208,141.84686019999208,141.84686019999208,142.21322969999164,142.21322969999164,142.21322969999164,142.21322969999164,142.21322969999164,142.21322969999164,142.21322969999164,142.21322969999164,142.21322969999164,3,4,"[0.001274599984753877, 0.0502381999976933, 0.16701129998546094, 0.3671362000168301]","[0.03368689998751506, 0.15031850000377744, 0.3504769999999553, 0.3671420000027865]",142.21322969999164,142.41314000001876,4.9,142.41314000001876,0,4.9,1,0,1000,num_1,0.5765739000053145,,27,11,2026-03-05_14h00.03.497,2026A_exp2,2022.2.4,59.91019461097872,
0,0,0.0,6.1,1,0,39,39,76,,,,,143.0139741000021,143.64796100003878,143.64796100003878,144.14897370000836,315,45,144.14897370000836,144.14897370000836,144.14897370000836,144.14897370000836,144.14897370000836,144.14897370000836,144.14897370000836,144.14897370000836,144.14897370000836,144.51551520003704,144.51551520003704,144.51551520003704,144.51551520003704,144.51551520003704,144.51551520003704,144.51551520003704,144.51551520003704,144.51551520003704,23,0,,,144.51551520003704,144.7156753000454,0.0,144.7156753000454,0,0.0,0,1,1000,num_1,0.6427139000152238,,27,11,2026-03-05_14h00.03.497,2026A_exp2,2022.2.4,59.91019461097872,
1000,1,6.1,4.9,1,0,40,40,53,,,,,145.38283330004197,146.03359930001898,146.03359930001898,146.51837150001666,45,315,146.51837150001666,146.51837150001666,146.51837150001666,146.51837150001666,146.51837150001666,146.51837150001666,146.51837150001666,146.51837150001666,146.51837150001666,146.88442320004106,146.88442320004106,146.88442320004106,146.88442320004106,146.88442320004106,146.88442320004106,146.88442320004106,146.88442320004106,146.88442320004106,23,0,,,146.88442320004106,147.08661050000228,1000,147.08661050000228,1000,1000,1000,1000,1,num_2,0.6785453999764286,,27,11,2026-03-05_14h00.03.497,2026A_exp2,2022.2.4,59.91019461097872,
1000,1,0.0,6.1,1,0,41,41,88,,,,,147.78525730001274,148.43607230001362,148.43607230001362,148.93712449999293,45,315,148.93712449999293,148.93712449999293,148.93712449999293,148.93712449999293,148.93712449999293,148.93712449999293,148.93712449999293,148.93712449999293,148.93712449999293,149.30361390003236,149.30361390003236,149.30361390003236,149.30361390003236,149.30361390003236,149.30361390003236,149.30361390003236,149.30361390003236,149.30361390003236,23,0,,,149.30361390003236,149.50359199999366,1000,149.50359199999366,1000,1000,1000,1000,1,num_2,0.4537049999926239,,27,11,2026-03-05_14h00.03.497,2026A_exp2,2022.2.4,59.91019461097872,
1000,1,6.1,3.7,1,0,42,42,0,,,,,149.98753520002356,150.63811940001324,150.63811940001324,151.13937310001347,45,315,151.13937310001347,151.13937310001347,151.13937310001347,151.13937310001347,151.13937310001347,151.13937310001347,151.13937310001347,151.13937310001347,151.13937310001347,151.48906230001012,151.48906230001012,151.48906230001012,151.48906230001012,151.48906230001012,151.48906230001012,151.48906230001012,151.48906230001012,151.48906230001012,22,0,,,151.48906230001012,151.69110110000474,1000,151.69110110000474,1000,1000,1000,1000,0,num_3,0.4107318000169471,,27,11,2026-03-05_14h00.03.497,2026A_exp2,2022.2.4,59.91019461097872,
1000,1,0.0,4.9,1,0,43,43,51,,,,,152.1229408000363,152.77360820001923,152.77360820001923,153.27473920001648,315,45,153.27473920001648,153.27473920001648,153.27473920001648,153.27473920001648,153.27473920001648,153.27473920001648,153.27473920001648,153.27473920001648,153.27473920001648,153.64113060000818,153.64113060000818,153.64113060000818,153.64113060000818,153.64113060000818,153.64113060000818,153.64113060000818,153.64113060000818,153.64113060000818,23,0,,,153.64113060000818,153.84313250001287,1000,153.84313250001287,1000,1000,1000,1000,1,num_2,0.41866520000621676,,27,11,2026-03-05_14h00.03.497,2026A_exp2,2022.2.4,59.91019461097872,
1000,1,0.0,0.0,0,0,44,44,61,,,,,154.29182189999847,154.94260820001364,154.94260820001364,155.44362500001444,45,45,155.44362500001444,155.44362500001444,155.44362500001444,155.44362500001444,155.44362500001444,155.44362500001444,155.44362500001444,155.44362500001444,155.44362500001444,155.81009710003855,155.81009710003855,155.81009710003855,155.81009710003855,155.81009710003855,155.81009710003855,155.81009710003855,155.81009710003855,155.81009710003855,23,0,,,155.81009710003855,156.01226370001677,1000,156.01226370001677,1000,1000,1000,1000,0,num_3,0.9456612999783829,,27,11,2026-03-05_14h00.03.497,2026A_exp2,2022.2.4,59.91019461097872,
1000,1,0.0,0.0,1,0,45,45,29,,,,,156.97797830001218,157.63840880000498,157.63840880000498,158.118022700015,315,45,158.118022700015,158.118022700015,158.118022700015,158.118022700015,158.118022700015,158.118022700015,158.118022700015,158.118022700015,158.118022700015,158.4794816999929,158.4794816999929,158.4794816999929,158.4794816999929,158.4794816999929,158.4794816999929,158.4794816999929,158.4794816999929,158.4794816999929,7,5,"[0.0025350000360049307, 0.1667740999837406, 0.20024859998375177, 0.28359140001703054, 0.3337824000045657]","[0.14979470003163442, 0.1830138000077568, 0.23306940001202747, 0.3167144000180997, 0.36665859998902306]",158.4794816999929,158.69542200001888,1000,158.69542200001888,1000,1000,1000,1000,1,num_2,0.46249549998901784,,27,11,2026-03-05_14h00.03.497,2026A_exp2,2022.2.4,59.91019461097872,
1,0,0.0,0.0,1,0,46,46,37,,,,,159.18002349999733,159.8304670000216,159.8304670000216,160.33181020000484,45,315,160.33181020000484,160.33181020000484,160.33181020000484,160.33181020000484,160.33181020000484,160.33181020000484,160.33181020000484,160.33181020000484,160.33181020000484,160.69830640003784,160.69830640003784,160.69830640003784,160.69830640003784,160.69830640003784,160.69830640003784,160.69830640003784,160.69830640003784,160.69830640003784,23,0,,,160.69830640003784,160.8984150000033,0.0,160.8984150000033,0,0.0,0,1,1000,num_1,0.6589267000090331,,27,11,2026-03-05_14h00.03.497,2026A_exp2,2022.2.4,59.91019461097872,
1,0,0.0,4.9,0,0,47,47,85,,,,,161.58237910002936,162.23311950004427,162.23311950004427,162.73437210003613,315,315,162.73437210003613,162.73437210003613,162.73437210003613,162.73437210003613,162.73437210003613,162.73437210003613,162.73437210003613,162.73437210003613,162.73437210003613,163.10068650002358,163.10068650002358,163.10068650002358,163.10068650002358,163.10068650002358,163.10068650002358,163.10068650002358,163.10068650002358,163.10068650002358,23,0,,,163.10068650002358,163.30089340003906,0.0,163.30089340003906,0,0.0,0,1,1000,num_1,0.7294509999919683,,27,11,2026-03-05_14h00.03.497,2026A_exp2,2022.2.4,59.91019461097872,
0,0,3.7,4.9,1,0,48,48,3,,,,,164.05142050003633,164.70234449999407,164.70234449999407,165.1866612000158,315,315,165.1866612000158,165.1866612000158,165.1866612000158,165.1866612000158,165.1866612000158,165.1866612000158,165.1866612000158,165.1866612000158,165.1866612000158,165.5528362999903,165.5528362999903,165.5528362999903,165.5528362999903,165.5528362999903,165.5528362999903,165.5528362999903,165.5528362999903,165.5528362999903,23,0,,,165.5528362999903,165.75331639999058,3.7,165.75331639999058,0,3.7,1,0,1000,num_1,0.5410844999714755,,27,11,2026-03-05_14h00.03.497,2026A_exp2,2022.2.4,59.91019461097872,
0,0,3.7,0.0,1,0,49,49,83,,,,,166.3205684000277,166.9711220000172,166.9711220000172,167.455653800047,315,45,167.455653800047,167.455653800047,167.455653800047,167.455653800047,167.455653800047,167.455653800047,167.455653800047,167.455653800047,167.455653800047,167.82208150002407,167.82208150002407,167.82208150002407,167.82208150002407,167.82208150002407,167.82208150002407,167.82208150002407,167.82208150002407,167.82208150002407,23,0,,,167.82208150002407,168.02238179999404,3.7,168.02238179999404,1,3.7,1,1,1000,num_4,1.406651499972213,,27,11,2026-03-05_14h00.03.497,2026A_exp2,2022.2.4,59.91019461097872,
1,0,0.0,0.0,0,0,50,50,49,,,,,169.4568833000376,170.1076809000224,170.1076809000224,170.59199200000148,315,45,170.59199200000148,170.59199200000148,170.59199200000148,170.59199200000148,170.59199200000148,170.59199200000148,170.59199200000148,170.59199200000148,170.59199200000148,170.95849109999835,170.95849109999835,170.95849109999835,170.95849109999835,170.95849109999835,170.95849109999835,170.95849109999835,170.95849109999835,170.95849109999835,23,0,,,170.95849109999835,171.15885140001774,0.0,171.15885140001774,1,0.0,0,0,1000,num_4,0.5669959000078961,,27,11,2026-03-05_14h00.03.497,2026A_exp2,2022.2.4,59.91019461097872,
1,0,4.9,0.0,1,0,51,51,84,,,,,171.7427297999966,172.37670950003667,172.37670950003667,172.87782250001328,45,315,172.87782250001328,172.87782250001328,172.87782250001328,172.87782250001328,172.87782250001328,172.87782250001328,172.87782250001328,172.87782250001328,172.87782250001328,173.2442374000093,173.2442374000093,173.2442374000093,173.2442374000093,173.2442374000093,173.2442374000093,173.2442374000093,173.2442374000093,173.2442374000093,23,0,,,173.2442374000093,173.444698300038,0.0,173.444698300038,0,0.0,0,1,1000,num_1,0.5534548999858089,,27,11,2026-03-05_14h00.03.497,2026A_exp2,2022.2.4,59.91019461097872,
1,0,0.0,0.0,1,0,52,52,73,,,,,174.02832470001886,174.67905560001964,174.67905560001964,175.16333690000465,45,45,175.16333690000465,175.16333690000465,175.16333690000465,175.16333690000465,175.16333690000465,175.16333690000465,175.16333690000465,175.16333690000465,175.16333690000465,175.52979590004543,175.52979590004543,175.52979590004543,175.52979590004543,175.52979590004543,175.52979590004543,175.52979590004543,175.52979590004543,175.52979590004543,23,0,,,175.52979590004543,175.73001360002672,0.0,175.73001360002672,0,0.0,0,1,1000,num_1,0.5397820000071079,,27,11,2026-03-05_14h00.03.497,2026A_exp2,2022.2.4,59.91019461097872,
1000,1,4.9,0.0,0,0,53,53,22,,,,,176.29727800004184,176.9319031999912,176.9319031999912,177.43226060003508,45,45,177.43226060003508,177.43226060003508,177.43226060003508,177.43226060003508,177.43226060003508,177.43226060003508,177.43226060003508,177.43226060003508,177.43226060003508,177.79866520001087,177.79866520001087,177.79866520001087,177.79866520001087,177.79866520001087,177.79866520001087,177.79866520001087,177.79866520001087,177.79866520001087,23,0,,,177.79866520001087,178.0007550000446,1000,178.0007550000446,1000,1000,1000,1000,0,num_3,0.5568729999940842,,27,11,2026-03-05_14h00.03.497,2026A_exp2,2022.2.4,59.91019461097872,
1,0,0.0,4.9,1,0,54,54,45,,,,,178.5828848000383,179.2335626000422,179.2335626000422,179.73446490004426,315,45,179.73446490004426,179.73446490004426,179.73446490004426,179.73446490004426,179.73446490004426,179.73446490004426,179.73446490004426,179.73446490004426,179.73446490004426,180.0842990000383,180.0842990000383,180.0842990000383,180.0842990000383,180.0842990000383,180.0842990000383,180.0842990000383,180.0842990000383,180.0842990000383,22,0,,,180.0842990000383,180.28450940002222,4.9,180.30125409999164,1,4.9,1,1,1000,num_4,0.6807697000331245,,27,11,2026-03-05_14h00.03.497,2026A_exp2,2022.2.4,59.91019461097872,
1,0,0.0,0.0,0,0,55,55,38,,,,,181.0020855999901,181.63602130004438,181.63602130004438,182.137005400029,45,45,182.137005400029,182.137005400029,182.137005400029,182.137005400029,182.137005400029,182.137005400029,182.137005400029,182.137005400029,182.137005400029,182.5033417000086,182.5033417000086,182.5033417000086,182.5033417000086,182.5033417000086,182.5033417000086,182.5033417000086,182.5033417000086,182.5033417000086,0,1,[0.0012522999895736575],[0.36715569999068975],182.5033417000086,182.70371950004483,0.0,182.70371950004483,1,0.0,0,0,1000,num_4,0.4461144999950193,,27,11,2026-03-05_14h00.03.497,2026A_exp2,2022.2.4,59.91019461097872,
1000,1,3.7,0.0,1,0,56,56,79,,,,,183.17066040000645,183.82141380000394,183.82141380000394,184.30573290004395,45,315,184.30573290004395,184.30573290004395,184.30573290004395,184.30573290004395,184.30573290004395,184.30573290004395,184.30573290004395,184.30573290004395,184.30573290004395,184.6723441000213,184.6723441000213,184.6723441000213,184.6723441000213,184.6723441000213,184.6723441000213,184.6723441000213,184.6723441000213,184.6723441000213,23,0,,,184.6723441000213,184.87416790000862,1000,184.87416790000862,1000,1000,1000,1000,0,num_3,0.5715553999762051,,27,11,2026-03-05_14h00.03.497,2026A_exp2,2022.2.4,59.91019461097872,
1000,1,4.9,6.1,1,0,57,57,1,,,,,185.47298399999272,186.12373859999934,186.12373859999934,186.624854099995,315,45,186.624854099995,186.624854099995,186.624854099995,186.624854099995,186.624854099995,186.624854099995,186.624854099995,186.624854099995,186.624854099995,186.9744402000215,186.9744402000215,186.9744402000215,186.9744402000215,186.9744402000215,186.9744402000215,186.9744402000215,186.9744402000215,186.9744402000215,22,0,,,186.9744402000215,187.17670370003907,1000,187.19153340003686,1000,1000,1000,1000,1,num_2,0.42269080004189163,,27,11,2026-03-05_14h00.03.497,2026A_exp2,2022.2.4,59.91019461097872,
1,0,6.1,0.0,0,0,58,58,50,,,,,187.64182479999727,188.29255020001438,188.29255020001438,188.7935407999903,45,315,188.7935407999903,188.7935407999903,188.7935407999903,188.7935407999903,188.7935407999903,188.7935407999903,188.7935407999903,188.7935407999903,188.7935407999903,189.16018390003592,189.16018390003592,189.16018390003592,189.16018390003592,189.16018390003592,189.16018390003592,189.16018390003592,189.16018390003592,189.16018390003592,16,2,"[0.11661500000627711, 0.28342870000051335]","[0.13323189999209717, 0.36676010000519454]",189.16018390003592,189.36036330001662,6.1,189.36036330001662,1,6.1,1,1,1000,num_4,0.6207919000298716,,27,11,2026-03-05_14h00.03.497,2026A_exp2,2022.2.4,59.91019461097872,
1000,1,0.0,0.0,1,0,59,59,14,,,,,190.01087980001466,190.66159650002373,190.66159650002373,191.15938900003675,315,315,191.15938900003675,191.15938900003675,191.15938900003675,191.15938900003675,191.15938900003675,191.15938900003675,191.15938900003675,191.15938900003675,191.15938900003675,191.51254890003474,191.51254890003474,191.51254890003474,191.51254890003474,191.51254890003474,191.51254890003474,191.51254890003474,191.51254890003474,191.51254890003474,23,0,,,191.51254890003474,191.72655349998968,1000,191.72655349998968,1000,1000,1000,1000,0,num_3,0.5910767000168562,,27,11,2026-03-05_14h00.03.497,2026A_exp2,2022.2.4,59.91019461097872,
1,0,0.0,0.0,1,0,60,60,43,,,,,192.34653300000355,192.99727809999604,192.99727809999604,193.49833880004007,315,45,193.49833880004007,193.49833880004007,193.49833880004007,193.49833880004007,193.49833880004007,193.49833880004007,193.49833880004007,193.49833880004007,193.49833880004007,193.86483959999168,193.86483959999168,193.86483959999168,193.86483959999168,193.86483959999168,193.86483959999168,193.86483959999168,193.86483959999168,193.86483959999168,20,2,"[0.0012883000308647752, 0.06676600000355393]","[0.01722239999799058, 0.1003158999956213]",193.86483959999168,194.06510130001698,0.0,194.06510130001698,1,0.0,0,0,1000,num_4,0.9885635999962687,,27,11,2026-03-05_14h00.03.497,2026A_exp2,2022.2.4,59.91019461097872,
0,0,0.0,3.7,1,0,61,61,21,,,,,195.0826147000189,195.73343060002662,195.73343060002662,196.23455769999418,315,45,196.23455769999418,196.23455769999418,196.23455769999418,196.23455769999418,196.23455769999418,196.23455769999418,196.23455769999418,196.23455769999418,196.23455769999418,196.6008068000083,196.6008068000083,196.6008068000083,196.6008068000083,196.6008068000083,196.6008068000083,196.6008068000083,196.6008068000083,196.6008068000083,23,0,,,196.6008068000083,196.80102270003408,0.0,196.80102270003408,1,0.0,0,0,1000,num_4,0.9561260000336915,,27,11,2026-03-05_14h00.03.497,2026A_exp2,2022.2.4,59.91019461097872,
1000,1,0.0,0.0,0,0,62,62,20,,,,,197.78538970003137,198.4359376000357,198.4359376000357,198.92504550004378,315,45,198.92504550004378,198.92504550004378,198.92504550004378,198.92504550004378,198.92504550004378,198.92504550004378,198.92504550004378,198.92504550004378,198.92504550004378,199.2871049999958,199.2871049999958,199.2871049999958,199.2871049999958,199.2871049999958,199.2871049999958,199.2871049999958,199.2871049999958,199.2871049999958,8,4,"[0.002522700000554323, 0.1003958000219427, 0.16714989999309182, 0.21716580004431307]","[0.050486300024203956, 0.11698440002510324, 0.18384240003069863, 0.3672844000393525]",199.2871049999958,199.4995245000464,1000,199.4995245000464,1000,1000,1000,1000,0,num_3,0.5616650999872945,,27,11,2026-03-05_14h00.03.497,2026A_exp2,2022.2.4,59.91019461097872,
1,0,4.9,6.1,1,0,63,63,46,,,,,200.08760610001627,200.7383250000421,200.7383250000421,201.23943200003123,315,315,201.23943200003123,201.23943200003123,201.23943200003123,201.23943200003123,201.23943200003123,201.23943200003123,201.23943200003123,201.23943200003123,201.23943200003123,201.60608820000198,201.60608820000198,201.60608820000198,201.60608820000198,201.60608820000198,201.60608820000198,201.60608820000198,201.60608820000198,201.60608820000198,23,0,,,201.60608820000198,201.80601960001513,6.1,201.80601960001513,1,6.1,1,1,1000,num_4,0.6232345000025816,,27,11,2026-03-05_14h00.03.497,2026A_exp2,2022.2.4,59.91019461097872,
1,0,0.0,3.7,1,0,64,64,57,,,,,202.45665770000778,203.10738910001237,203.10738910001237,203.59172710002167,45,315,203.59172710002167,203.59172710002167,203.59172710002167,203.59172710002167,203.59172710002167,203.59172710002167,203.59172710002167,203.59172710002167,203.59172710002167,203.95825740002329,203.95825740002329,203.95825740002329,203.95825740002329,203.95825740002329,203.95825740002329,203.95825740002329,203.95825740002329,203.95825740002329,23,0,,,203.95825740002329,204.15849120001076,3.7,204.15849120001076,1,3.7,1,1,1000,num_4,0.415041999949608,,27,11,2026-03-05_14h00.03.497,2026A_exp2,2022.2.4,59.91019461097872,
1,0,6.1,3.7,0,0,65,65,26,,,,,204.59211130003678,205.22632070002146,205.22632070002146,205.72731700004078,315,315,205.72731700004078,205.72731700004078,205.72731700004078,205.72731700004078,205.72731700004078,205.72731700004078,205.72731700004078,205.72731700004078,205.72731700004078,206.0937332000467,206.0937332000467,206.0937332000467,206.0937332000467,206.0937332000467,206.0937332000467,206.0937332000467,206.0937332000467,206.0937332000467,23,0,,,206.0937332000467,206.2938425000175,6.1,206.2938425000175,1,6.1,1,1,1000,num_4,0.4795259000384249,,27,11,2026-03-05_14h00.03.497,2026A_exp2,2022.2.4,59.91019461097872,
1,0,0.0,0.0,0,0,66,66,81,,,,,206.79416180000408,207.44494930002838,207.44494930002838,207.92951410001842,315,45,207.92951410001842,207.92951410001842,207.92951410001842,207.92951410001842,207.92951410001842,207.92951410001842,207.92951410001842,207.92951410001842,207.92951410001842,208.295908900036,208.295908900036,208.295908900036,208.295908900036,208.295908900036,208.295908900036,208.295908900036,208.295908900036,208.295908900036,23,0,,,208.295908900036,208.49617100000614,0.0,208.49617100000614,1,0.0,0,0,1000,num_4,0.39794409996829927,,27,11,2026-03-05_14h00.03.497,2026A_exp2,2022.2.4,59.91019461097872,
1,0,0.0,0.0,0,0,67,67,2,,,,,208.91299099999014,209.56351490004454,209.56351490004454,210.0482323000324,45,315,210.0482323000324,210.0482323000324,210.0482323000324,210.0482323000324,210.0482323000324,210.0482323000324,210.0482323000324,210.0482323000324,210.0482323000324,210.4143435000442,210.4143435000442,210.4143435000442,210.4143435000442,210.4143435000442,210.4143435000442,210.4143435000442,210.4143435000442,210.4143435000442,23,0,,,210.4143435000442,210.61489349999465,0.0,210.61489349999465,1,0.0,0,0,1000,num_4,0.4062199000036344,,27,11,2026-03-05_14h00.03.497,2026A_exp2,2022.2.4,59.91019461097872,
1000,1,6.1,3.7,0,0,68,68,87,,,,,211.04869510000572,211.69928770000115,211.69928770000115,212.18369450001046,315,45,212.18369450001046,212.18369450001046,212.18369450001046,212.18369450001046,212.18369450001046,212.18369450001046,212.18369450001046,212.18369450001046,212.18369450001046,212.5501875000191,212.5501875000191,212.5501875000191,212.5501875000191,212.5501875000191,212.5501875000191,212.5501875000191,212.5501875000191,212.5501875000191,23,0,,,212.5501875000191,212.75245150004048,1000,212.75245150004048,1000,1000,1000,1000,0,num_3,1.1806565000442788,,27,11,2026-03-05_14h00.03.497,2026A_exp2,2022.2.4,59.91019461097872,
1,0,0.0,0.0,0,0,69,69,9,,,,,213.95137930003693,214.60212820000015,214.60212820000015,215.1032323000254,315,45,215.1032323000254,215.1032323000254,215.1032323000254,215.1032323000254,215.1032323000254,215.1032323000254,215.1032323000254,215.1032323000254,215.1032323000254,215.46975650003878,215.46975650003878,215.46975650003878,215.46975650003878,215.46975650003878,215.46975650003878,215.46975650003878,215.46975650003878,215.46975650003878,23,0,,,215.46975650003878,215.66995970002608,0.0,215.66995970002608,1,0.0,0,0,1000,num_4,0.5510949000017717,,27,11,2026-03-05_14h00.03.497,2026A_exp2,2022.2.4,59.91019461097872,
1000,1,6.1,0.0,0,0,70,70,33,,,,,216.23721930000465,216.88786400004756,216.88786400004756,217.37233270000434,315,45,217.37233270000434,217.37233270000434,217.37233270000434,217.37233270000434,217.37233270000434,217.37233270000434,217.37233270000434,217.37233270000434,217.37233270000434,217.73871569999028,217.73871569999028,217.73871569999028,217.73871569999028,217.73871569999028,217.73871569999028,217.73871569999028,217.73871569999028,217.73871569999028,23,0,,,217.73871569999028,217.940588700003,1000,217.940588700003,1000,1000,1000,1000,0,num_3,0.5525808000238612,,27,11,2026-03-05_14h00.03.497,2026A_exp2,2022.2.4,59.91019461097872,
0,0,0.0,4.9,0,0,71,71,54,,,,,218.5227268000017,219.1733882999979,219.1733882999979,219.67449780000607,45,315,219.67449780000607,219.67449780000607,219.67449780000607,219.67449780000607,219.67449780000607,219.67449780000607,219.67449780000607,219.67449780000607,219.67449780000607,220.04104560002452,220.04104560002452,220.04104560002452,220.04104560002452,220.04104560002452,220.04104560002452,220.04104560002452,220.04104560002452,220.04104560002452,23,0,,,220.04104560002452,220.2412349000224,4.9,220.2412349000224,1,4.9,1,1,1000,num_4,0.6767730000428855,,27,11,2026-03-05_14h00.03.497,2026A_exp2,2022.2.4,59.91019461097872,
1000,1,0.0,0.0,0,0,72,72,65,,,,,220.94182220002403,221.59252950001974,221.59252950001974,222.0771081999992,315,45,222.0771081999992,222.0771081999992,222.0771081999992,222.0771081999992,222.0771081999992,222.0771081999992,222.0771081999992,222.0771081999992,222.0771081999992,222.44342660001712,222.44342660001712,222.44342660001712,222.44342660001712,222.44342660001712,222.44342660001712,222.44342660001712,222.44342660001712,222.44342660001712,23,0,,,222.44342660001712,222.64459500001976,1000,222.64459500001976,1000,1000,1000,1000,0,num_3,0.441120499977842,,27,11,2026-03-05_14h00.03.497,2026A_exp2,2022.2.4,59.91019461097872,
1,0,6.1,4.9,1,0,73,73,35,,,,,223.1106249000295,223.7614031000412,223.7614031000412,224.26254890003474,315,45,224.26254890003474,224.26254890003474,224.26254890003474,224.26254890003474,224.26254890003474,224.26254890003474,224.26254890003474,224.26254890003474,224.26254890003474,224.62888259999454,224.62888259999454,224.62888259999454,224.62888259999454,224.62888259999454,224.62888259999454,224.62888259999454,224.62888259999454,224.62888259999454,23,0,,,224.62888259999454,224.82959139999002,4.9,224.82959139999002,0,4.9,1,0,1000,num_1,0.6246212999685667,,27,11,2026-03-05_14h00.03.497,2026A_exp2,2022.2.4,59.91019461097872,
1,0,4.9,6.1,1,0,74,74,86,,,,,225.4796328000375,226.1137327000033,226.1137327000033,226.61489319999237,315,45,226.61489319999237,226.61489319999237,226.61489319999237,226.61489319999237,226.61489319999237,226.61489319999237,226.61489319999237,226.61489319999237,226.61489319999237,226.98124019999523,226.98124019999523,226.98124019999523,226.98124019999523,226.98124019999523,226.98124019999523,226.98124019999523,226.98124019999523,226.98124019999523,23,0,,,226.98124019999523,227.18159410002409,6.1,227.18159410002409,1,6.1,1,1,1000,num_4,0.6243038999964483,,27,11,2026-03-05_14h00.03.497,2026A_exp2,2022.2.4,59.91019461097872,
0,0,0.0,4.9,1,0,75,75,56,,,,,227.83386610000161,228.48601340001915,228.48601340001915,228.98377420002362,315,45,228.98377420002362,228.98377420002362,228.98377420002362,228.98377420002362,228.98377420002362,228.98377420002362,228.98377420002362,228.98377420002362,228.98377420002362,229.3503341000178,229.3503341000178,229.3503341000178,229.3503341000178,229.3503341000178,229.3503341000178,229.3503341000178,229.3503341000178,229.3503341000178,10,2,"[0.11690900003304705, 0.2838270000065677]","[0.23368440003832802, 0.3671667000162415]",229.3503341000178,229.5503629000159,0.0,229.5503629000159,0,0.0,0,1,1000,num_1,1.0466143999947235,,27,11,2026-03-05_14h00.03.497,2026A_exp2,2022.2.4,59.91019461097872,
1000,1,0.0,4.9,0,0,76,76,11,,,,,230.61803880002117,231.2688780000317,231.2688780000317,231.75336309999693,45,315,231.75336309999693,231.75336309999693,231.75336309999693,231.75336309999693,231.75336309999693,231.75336309999693,231.75336309999693,231.75336309999693,231.75336309999693,232.1197965000174,232.1197965000174,232.1197965000174,232.1197965000174,232.1197965000174,232.1197965000174,232.1197965000174,232.1197965000174,232.1197965000174,23,0,,,232.1197965000174,232.32195090001915,1000,232.32195090001915,1000,1000,1000,1000,1,num_2,0.5720258000073954,,27,11,2026-03-05_14h00.03.497,2026A_exp2,2022.2.4,59.91019461097872,
1000,1,4.9,3.7,1,0,77,77,32,,,,,232.9205281000468,233.57124620000832,233.57124620000832,234.05552700004773,45,45,234.05552700004773,234.05552700004773,234.05552700004773,234.05552700004773,234.05552700004773,234.05552700004773,234.05552700004773,234.05552700004773,234.05552700004773,234.42211260000477,234.42211260000477,234.42211260000477,234.42211260000477,234.42211260000477,234.42211260000477,234.42211260000477,234.42211260000477,234.42211260000477,23,0,,,234.42211260000477,234.62393400003202,1000,234.62393400003202,1000,1000,1000,1000,0,num_3,0.5020283000194468,,27,11,2026-03-05_14h00.03.497,2026A_exp2,2022.2.4,59.91019461097872,
1,0,6.1,0.0,1,0,78,78,13,,,,,235.15603430004558,235.80667780002113,235.80667780002113,236.30791500001214,45,315,236.30791500001214,236.30791500001214,236.30791500001214,236.30791500001214,236.30791500001214,236.30791500001214,236.30791500001214,236.30791500001214,236.30791500001214,236.6741790000233,236.6741790000233,236.6741790000233,236.6741790000233,236.6741790000233,236.6741790000233,236.6741790000233,236.6741790000233,236.6741790000233,18,4,"[0.0012384000001475215, 0.03367129998514429, 0.06687730003613979, 0.33395240001846105]","[0.017492600018158555, 0.0502441999851726, 0.08362240000860766, 0.3672186000039801]",236.6741790000233,236.87438930000644,0.0,236.87438930000644,0,0.0,0,1,1000,num_1,0.5080271000042558,,27,11,2026-03-05_14h00.03.497,2026A_exp2,2022.2.4,59.91019461097872,
1000,1,0.0,4.9,0,0,79,79,77,,,,,237.4082297999994,238.0590085000149,238.0590085000149,238.5436250999919,315,315,238.5436250999919,238.5436250999919,238.5436250999919,238.5436250999919,238.5436250999919,238.5436250999919,238.5436250999919,238.5436250999919,238.5436250999919,238.909811599995,238.909811599995,238.909811599995,238.909811599995,238.909811599995,238.909811599995,238.909811599995,238.909811599995,238.909811599995,23,0,,,238.909811599995,239.11176610004622,1000,239.11176610004622,1000,1000,1000,1000,1,num_2,0.4463376000057906,,27,11,2026-03-05_14h00.03.497,2026A_exp2,2022.2.4,59.91019461097872,
1000,1,4.9,0.0,0,0,80,80,36,,,,,239.57710230001248,240.22784700000193,240.22784700000193,240.72901579999598,45,315,240.72901579999598,240.72901579999598,240.72901579999598,240.72901579999598,240.72901579999598,240.72901579999598,240.72901579999598,240.72901579999598,240.72901579999598,241.0954012000002,241.0954012000002,241.0954012000002,241.0954012000002,241.0954012000002,241.0954012000002,241.0954012000002,241.0954012000002,241.0954012000002,23,0,,,241.0954012000002,241.2974496000097,1000,241.2974496000097,1000,1000,1000,1000,0,num_3,0.42789759999141097,,27,11,2026-03-05_14h00.03.497,2026A_exp2,2022.2.4,59.91019461097872,
1,0,0.0,0.0,1,0,81,81,70,,,,,241.74590780003928,242.40040000004228,242.40040000004228,242.90613000001758,45,45,242.90613000001758,242.90613000001758,242.90613000001758,242.90613000001758,242.90613000001758,242.90613000001758,242.90613000001758,242.90613000001758,242.90613000001758,243.26409640000202,243.26409640000202,243.26409640000202,243.26409640000202,243.26409640000202,243.26409640000202,243.26409640000202,243.26409640000202,243.26409640000202,0,1,[0.0029943999834358692],[0.36571600002935156],243.26409640000202,243.46439320000354,0.0,243.46439320000354,0,0.0,0,1,1000,num_1,0.629301699984353,,27,11,2026-03-05_14h00.03.497,2026A_exp2,2022.2.4,59.91019461097872,
1000,1,6.1,4.9,1,0,82,82,16,,,,,244.11484220001148,244.76570480002556,244.76570480002556,245.25011240004096,315,315,245.25011240004096,245.25011240004096,245.25011240004096,245.25011240004096,245.25011240004096,245.25011240004096,245.25011240004096,245.25011240004096,245.25011240004096,245.61662380001508,245.61662380001508,245.61662380001508,245.61662380001508,245.61662380001508,245.61662380001508,245.61662380001508,245.61662380001508,245.61662380001508,23,0,,,245.61662380001508,245.81869760004338,1000,245.81869760004338,1000,1000,1000,1000,0,num_3,0.586362200032454,,27,11,2026-03-05_14h00.03.497,2026A_exp2,2022.2.4,59.91019461097872,
1000,1,0.0,0.0,0,0,83,83,69,,,,,246.43378000002122,247.08454640000127,247.08454640000127,247.58589620003477,45,45,247.58589620003477,247.58589620003477,247.58589620003477,247.58589620003477,247.58589620003477,247.58589620003477,247.58589620003477,247.58589620003477,247.58589620003477,247.95217709999997,247.95217709999997,247.95217709999997,247.95217709999997,247.95217709999997,247.95217709999997,247.95217709999997,247.95217709999997,247.95217709999997,23,0,,,247.95217709999997,248.15402710001217,1000,248.15402710001217,1000,1000,1000,1000,0,num_3,0.5243758999858983,,27,11,2026-03-05_14h00.03.497,2026A_exp2,2022.2.4,59.91019461097872,
0,0,4.9,0.0,0,0,84,84,30,,,,,248.70283770002425,249.35365100001218,249.35365100001218,249.85480120003922,315,45,249.85480120003922,249.85480120003922,249.85480120003922,249.85480120003922,249.85480120003922,249.85480120003922,249.85480120003922,249.85480120003922,249.85480120003922,250.20439830003306,250.20439830003306,250.20439830003306,250.20439830003306,250.20439830003306,250.20439830003306,250.20439830003306,250.20439830003306,250.20439830003306,0,1,[0.001207799999974668],[0.3503306000493467],250.20439830003306,250.4047789000324,0.0,250.4047789000324,0,0.0,0,1,1000,num_1,0.5045262000057846,,27,11,2026-03-05_14h00.03.497,2026A_exp2,2022.2.4,59.91019461097872,
1,0,0.0,3.7,0,0,85,85,12,,,,,250.9384076000424,251.58912910002982,251.58912910002982,252.0735510000377,315,315,252.0735510000377,252.0735510000377,252.0735510000377,252.0735510000377,252.0735510000377,252.0735510000377,252.0735510000377,252.0735510000377,252.0735510000377,252.44003620004514,252.44003620004514,252.44003620004514,252.44003620004514,252.44003620004514,252.44003620004514,252.44003620004514,252.44003620004514,252.44003620004514,23,0,,,252.44003620004514,252.64015779999318,0.0,252.64015779999318,0,0.0,0,1,1000,num_1,0.6527319999877363,,27,11,2026-03-05_14h00.03.497,2026A_exp2,2022.2.4,59.91019461097872,
1,0,0.0,0.0,1,0,86,86,41,,,,,253.3241378000239,253.97494740004186,253.97494740004186,254.45933280000463,45,315,254.45933280000463,254.45933280000463,254.45933280000463,254.45933280000463,254.45933280000463,254.45933280000463,254.45933280000463,254.45933280000463,254.45933280000463,254.8256283000228,254.8256283000228,254.8256283000228,254.8256283000228,254.8256283000228,254.8256283000228,254.8256283000228,254.8256283000228,254.8256283000228,23,0,,,254.8256283000228,255.03439129999606,0.0,255.03439129999606,1,0.0,0,0,1000,num_4,0.4838507999666035,,27,11,2026-03-05_14h00.03.497,2026A_exp2,2022.2.4,59.91019461097872,
1000,1,0.0,0.0,1,0,87,87,23,,,,,255.5431620000163,256.19388710003113,256.19388710003113,256.6948975000414,315,315,256.6948975000414,256.6948975000414,256.6948975000414,256.6948975000414,256.6948975000414,256.6948975000414,256.6948975000414,256.6948975000414,256.6948975000414,257.0612015000079,257.0612015000079,257.0612015000079,257.0612015000079,257.0612015000079,257.0612015000079,257.0612015000079,257.0612015000079,257.0612015000079,0,1,[0.0012333999620750546],[0.3667950999806635],257.0612015000079,257.2614120999933,1000,257.2614120999933,1000,1000,1000,1000,0,num_3,0.48754770000232384,,27,11,2026-03-05_14h00.03.497,2026A_exp2,2022.2.4,59.91019461097872,
1000,1,0.0,0.0,0,0,88,88,75,,,,,257.7786705000326,258.44009650003863,258.44009650003863,258.9304117000429,45,315,258.9304117000429,258.9304117000429,258.9304117000429,258.9304117000429,258.9304117000429,258.9304117000429,258.9304117000429,258.9304117000429,258.9304117000429,259.28025950002484,259.28025950002484,259.28025950002484,259.28025950002484,259.28025950002484,259.28025950002484,259.28025950002484,259.28025950002484,259.28025950002484,22,0,,,259.28025950002484,259.48199560004286,1000,259.49727079999866,1000,1000,1000,1000,0,num_3,0.460311200004071,,27,11,2026-03-05_14h00.03.497,2026A_exp2,2022.2.4,59.91019461097872,
1000,1,3.7,0.0,1,0,89,89,55,,,,,259.9807873000391,260.63144420000026,260.63144420000026,261.1327947000391,45,45,261.1327947000391,261.1327947000391,261.1327947000391,261.1327947000391,261.1327947000391,261.1327947000391,261.1327947000391,261.1327947000391,261.1327947000391,261.48244250001153,261.48244250001153,261.48244250001153,261.48244250001153,261.48244250001153,261.48244250001153,261.48244250001153,261.48244250001153,261.48244250001153,21,1,[0.31717749999370426],[0.3336805000435561],261.48244250001153,261.682644799992,1000,261.6994410000043,1000,1000,1000,1000,0,num_3,0.5857630999526009,,27,11,2026-03-05_14h00.03.497,2026A_exp2,2022.2.4,59.91019461097872,
,,,,,,,,,,,,,,,,,,,,,,,,,,,,,,,,,,,,,,,,,,,,,,,,,,,,262.32538340002066,,,,,,,
