validity,detectorcomp,contrastCW,contrastCCW,precueCWorCCW,block_80trials.thisRepN,block_80trials.thisTrialN,block_80trials.thisN,block_80trials.thisIndex,etRecord.started,etRecord.stopped,text.started,text.stopped,text_4.started,text_4.stopped,text_6.started,text_6.stopped,oriCW,oriCCW,roi_2.started,grating_UR.started,grating_UL.started,grating_LR.started,grating_LL.started,noise_UR.started,noise_UL.started,noise_LR.started,noise_LL.started,roi_2.stopped,grating_UR.stopped,grating_UL.stopped,grating_LR.stopped,grating_LL.stopped,noise_UR.stopped,noise_UL.stopped,noise_LR.stopped,noise_LL.stopped,outframe,roi_2.numLooks,roi_2.timesOn,roi_2.timesOff,text_2.started,text_2.stopped,probedcontrast,key_resp.started,respdetect,relevantContrast,correctDetect,TorFdetect,respCWorCCW,key_resp.keys,key_resp.rt,feedback_display_.started,participantNo,blockNo,date,expName,psychopyVersion,frameRate,
1,0,0.0,4.9,0,0,0,0,17,3.349996404722333e-05,3.349996404722333e-05,56.92496889998438,58.92865209997399,58.92865209997399,59.561875199957285,59.561875199957285,60.079918699979316,315,315,60.079918699979316,60.079918699979316,60.079918699979316,60.079918699979316,60.079918699979316,60.079918699979316,60.079918699979316,60.079918699979316,60.079918699979316,60.42907979997108,60.42907979997108,60.42907979997108,60.42907979997108,60.42907979997108,60.42907979997108,60.42907979997108,60.42907979997108,60.42907979997108,0,1,[0.0010088999988511205],[0.36763969995081425],60.42907979997108,60.62928439996904,0.0,60.62928439996904,0,0.0,0,1,1000,num_1,0.8157656999537721,,27,3,2026-03-05_13h20.53.067,2026A_exp2,2022.2.4,59.93507831723639,
0,0,0.0,0.0,1,0,1,1,8,,,,,61.46352679998381,62.11404889996629,62.11404889996629,62.59855359996436,315,45,62.59855359996436,62.59855359996436,62.59855359996436,62.59855359996436,62.59855359996436,62.59855359996436,62.59855359996436,62.59855359996436,62.59855359996436,62.96500849997392,62.96500849997392,62.96500849997392,62.96500849997392,62.96500849997392,62.96500849997392,62.96500849997392,62.96500849997392,62.96500849997392,23,0,,,62.96500849997392,63.16515419998905,0.0,63.16515419998905,0,0.0,0,1,1000,num_1,1.063264700002037,,27,3,2026-03-05_13h20.53.067,2026A_exp2,2022.2.4,59.93507831723639,
1000,1,4.9,3.7,1,0,2,2,32,,,,,64.24970599997323,64.90032989997417,64.90032989997417,65.38941339997109,315,315,65.38941339997109,65.38941339997109,65.38941339997109,65.38941339997109,65.38941339997109,65.38941339997109,65.38941339997109,65.38941339997109,65.38941339997109,65.75103479996324,65.75103479996324,65.75103479996324,65.75103479996324,65.75103479996324,65.75103479996324,65.75103479996324,65.75103479996324,65.75103479996324,0,1,[0.002618699974846095],[0.3658624999807216],65.75103479996324,65.95782949996646,1000,65.95782949996646,1000,1000,1000,1000,0,num_3,0.7034945999621414,,27,3,2026-03-05_13h20.53.067,2026A_exp2,2022.2.4,59.93507831723639,
1,0,0.0,3.7,1,0,3,3,57,,,,,66.68550539994612,67.33619799994631,67.33619799994631,67.83736009994755,45,45,67.83736009994755,67.83736009994755,67.83736009994755,67.83736009994755,67.83736009994755,67.83736009994755,67.83736009994755,67.83736009994755,67.83736009994755,68.20366639998974,68.20366639998974,68.20366639998974,68.20366639998974,68.20366639998974,68.20366639998974,68.20366639998974,68.20366639998974,68.20366639998974,23,0,,,68.20366639998974,68.40380209998693,3.7,68.40380209998693,1,3.7,1,1,1000,num_4,0.9456416000030003,,27,3,2026-03-05_13h20.53.067,2026A_exp2,2022.2.4,59.93507831723639,
1000,1,0.0,4.9,1,0,4,4,51,,,,,69.3715283999918,70.02211459999671,70.02211459999671,70.50645929999882,45,45,70.50645929999882,70.50645929999882,70.50645929999882,70.50645929999882,70.50645929999882,70.50645929999882,70.50645929999882,70.50645929999882,70.50645929999882,70.87299319996964,70.87299319996964,70.87299319996964,70.87299319996964,70.87299319996964,70.87299319996964,70.87299319996964,70.87299319996964,70.87299319996964,23,0,,,70.87299319996964,71.0749992999481,1000,71.0749992999481,1000,1000,1000,1000,1,num_2,0.5387797000003047,,27,3,2026-03-05_13h20.53.067,2026A_exp2,2022.2.4,59.93507831723639,
1000,1,0.0,0.0,0,0,5,5,65,,,,,71.64036039996427,72.29108369996538,72.29108369996538,72.79220299998997,45,45,72.79220299998997,72.79220299998997,72.79220299998997,72.79220299998997,72.79220299998997,72.79220299998997,72.79220299998997,72.79220299998997,72.79220299998997,73.15856489998987,73.15856489998987,73.15856489998987,73.15856489998987,73.15856489998987,73.15856489998987,73.15856489998987,73.15856489998987,73.15856489998987,23,0,,,73.15856489998987,73.36098999995738,1000,73.36098999995738,1000,1000,1000,1000,0,num_3,0.5724472000147216,,27,3,2026-03-05_13h20.53.067,2026A_exp2,2022.2.4,59.93507831723639,
1000,1,4.9,0.0,0,0,6,6,36,,,,,73.95930629997747,74.61009739997098,74.61009739997098,75.11114929994801,45,45,75.11114929994801,75.11114929994801,75.11114929994801,75.11114929994801,75.11114929994801,75.11114929994801,75.11114929994801,75.11114929994801,75.11114929994801,75.47771619999548,75.47771619999548,75.47771619999548,75.47771619999548,75.47771619999548,75.47771619999548,75.47771619999548,75.47771619999548,75.47771619999548,23,0,,,75.47771619999548,75.67977609997615,1000,75.67977609997615,1000,1000,1000,1000,0,num_3,0.42934809997677803,,27,3,2026-03-05_13h20.53.067,2026A_exp2,2022.2.4,59.93507831723639,
1,0,0.0,0.0,0,0,7,7,38,,,,,76.12807129998691,76.77888669999084,76.77888669999084,77.28000529995188,45,45,77.28000529995188,77.28000529995188,77.28000529995188,77.28000529995188,77.28000529995188,77.28000529995188,77.28000529995188,77.28000529995188,77.28000529995188,77.62977279996267,77.62977279996267,77.62977279996267,77.62977279996267,77.62977279996267,77.62977279996267,77.62977279996267,77.62977279996267,77.62977279996267,0,1,[0.0012379999971017241],[0.3505398000124842],77.62977279996267,77.82992989994818,0.0,77.84656989999348,0,0.0,0,1,1000,num_1,0.99005359999137,,27,3,2026-03-05_13h20.53.067,2026A_exp2,2022.2.4,59.93507831723639,
1000,1,4.9,6.1,1,0,8,8,1,,,,,78.8641246999614,79.51497819996439,79.51497819996439,79.99964929994894,315,45,79.99964929994894,79.99964929994894,79.99964929994894,79.99964929994894,79.99964929994894,79.99964929994894,79.99964929994894,79.99964929994894,79.99964929994894,80.36590749997413,80.36590749997413,80.36590749997413,80.36590749997413,80.36590749997413,80.36590749997413,80.36590749997413,80.36590749997413,80.36590749997413,23,0,,,80.36590749997413,80.56601019995287,1000,80.56601019995287,1000,1000,1000,1000,0,num_3,0.5428843999980018,,27,3,2026-03-05_13h20.53.067,2026A_exp2,2022.2.4,59.93507831723639,
1,0,4.9,0.0,0,0,9,9,48,,,,,81.13303909997921,81.7837268000003,81.7837268000003,82.28482800000347,45,315,82.28482800000347,82.28482800000347,82.28482800000347,82.28482800000347,82.28482800000347,82.28482800000347,82.28482800000347,82.28482800000347,82.28482800000347,82.63458469999023,82.63458469999023,82.63458469999023,82.63458469999023,82.63458469999023,82.63458469999023,82.63458469999023,82.63458469999023,82.63458469999023,22,0,,,82.63458469999023,82.83500179997645,4.9,82.83500179997645,1,4.9,1,1,1000,num_4,0.7620571000152268,,27,3,2026-03-05_13h20.53.067,2026A_exp2,2022.2.4,59.93507831723639,
1000,1,4.9,4.9,0,0,10,10,31,,,,,83.61890399997355,84.26973959995667,84.26973959995667,84.75418239994906,45,45,84.75418239994906,84.75418239994906,84.75418239994906,84.75418239994906,84.75418239994906,84.75418239994906,84.75418239994906,84.75418239994906,84.75418239994906,85.12049469997874,85.12049469997874,85.12049469997874,85.12049469997874,85.12049469997874,85.12049469997874,85.12049469997874,85.12049469997874,85.12049469997874,11,7,"[0.0012036999687552452, 0.050300899951253086, 0.10040090000256896, 0.15043869998771697, 0.20042349997675046, 0.26716489996761084, 0.33385319996159524]","[0.017551500000990927, 0.08363749994896352, 0.11702629999490455, 0.18390269996598363, 0.2338173000025563, 0.31735119997756556, 0.3507275999872945]",85.12049469997874,85.32062729995232,1000,85.32062729995232,1000,1000,1000,1000,0,num_3,0.5885015000239946,,27,3,2026-03-05_13h20.53.067,2026A_exp2,2022.2.4,59.93507831723639,
0,0,3.7,0.0,1,0,11,11,83,,,,,85.93790419999277,86.5886015999713,86.5886015999713,87.08977809996577,45,315,87.08977809996577,87.08977809996577,87.08977809996577,87.08977809996577,87.08977809996577,87.08977809996577,87.08977809996577,87.08977809996577,87.08977809996577,87.4562679999508,87.4562679999508,87.4562679999508,87.4562679999508,87.4562679999508,87.4562679999508,87.4562679999508,87.4562679999508,87.4562679999508,23,0,,,87.4562679999508,87.65638889995171,3.7,87.65638889995171,1,3.7,1,1,1000,num_4,0.7171347999828868,,27,3,2026-03-05_13h20.53.067,2026A_exp2,2022.2.4,59.93507831723639,
1000,1,0.0,3.7,0,0,12,12,44,,,,,88.39036520000082,89.04124079999747,89.04124079999747,89.52598239999497,315,45,89.52598239999497,89.52598239999497,89.52598239999497,89.52598239999497,89.52598239999497,89.52598239999497,89.52598239999497,89.52598239999497,89.52598239999497,89.89206260000356,89.89206260000356,89.89206260000356,89.89206260000356,89.89206260000356,89.89206260000356,89.89206260000356,89.89206260000356,89.89206260000356,6,4,"[0.0020675999694503844, 0.11697649996494874, 0.26711139996768907, 0.31738709995988756]","[0.10027830000035465, 0.23370270000305027, 0.3004298000014387, 0.35039679997134954]",89.89206260000356,90.09205549996113,1000,90.09205549996113,1000,1000,1000,1000,1,num_2,0.5292417000164278,,27,3,2026-03-05_13h20.53.067,2026A_exp2,2022.2.4,59.93507831723639,
1000,1,6.1,3.7,1,0,13,13,24,,,,,90.64247649995377,91.29336999997031,91.29336999997031,91.79454169998644,315,45,91.79454169998644,91.79454169998644,91.79454169998644,91.79454169998644,91.79454169998644,91.79454169998644,91.79454169998644,91.79454169998644,91.79454169998644,92.16052789997775,92.16052789997775,92.16052789997775,92.16052789997775,92.16052789997775,92.16052789997775,92.16052789997775,92.16052789997775,92.16052789997775,23,0,,,92.16052789997775,92.36288789997343,1000,92.36288789997343,1000,1000,1000,1000,0,num_3,0.4750552999903448,,27,3,2026-03-05_13h20.53.067,2026A_exp2,2022.2.4,59.93507831723639,
1000,1,3.7,6.1,0,0,14,14,28,,,,,92.86170939996373,93.51230849995045,93.51230849995045,94.01341019995743,315,315,94.01341019995743,94.01341019995743,94.01341019995743,94.01341019995743,94.01341019995743,94.01341019995743,94.01341019995743,94.01341019995743,94.01341019995743,94.37984319997486,94.37984319997486,94.37984319997486,94.37984319997486,94.37984319997486,94.37984319997486,94.37984319997486,94.37984319997486,94.37984319997486,5,3,"[0.0012882999726571143, 0.1835860999999568, 0.26693319994956255]","[0.15033959998982027, 0.23357169999508187, 0.3671376999700442]",94.37984319997486,94.58196719997795,1000,94.58196719997795,1000,1000,1000,1000,1,num_2,0.4395679999724962,,27,3,2026-03-05_13h20.53.067,2026A_exp2,2022.2.4,59.93507831723639,
1000,1,0.0,4.9,0,0,15,15,77,,,,,95.04708170000231,95.69774009997491,95.69774009997491,96.19878239999525,315,45,96.19878239999525,96.19878239999525,96.19878239999525,96.19878239999525,96.19878239999525,96.19878239999525,96.19878239999525,96.19878239999525,96.19878239999525,96.56535599997733,96.56535599997733,96.56535599997733,96.56535599997733,96.56535599997733,96.56535599997733,96.56535599997733,96.56535599997733,96.56535599997733,11,5,"[0.0012265000259503722, 0.0663788000238128, 0.11663210002006963, 0.20018260000506416, 0.26687910000327975]","[0.033430300012696534, 0.08321740000974387, 0.18340530002024025, 0.23356070002773777, 0.28369710000697523]",96.56535599997733,96.76762800000142,1000,96.76762800000142,1000,1000,1000,1000,1,num_2,0.48588150000432506,,27,3,2026-03-05_13h20.53.067,2026A_exp2,2022.2.4,59.93507831723639,
1,0,4.9,0.0,1,0,16,16,4,,,,,97.28264079999644,97.93334729998605,97.93334729998605,98.43445699999575,45,315,98.43445699999575,98.43445699999575,98.43445699999575,98.43445699999575,98.43445699999575,98.43445699999575,98.43445699999575,98.43445699999575,98.43445699999575,98.7841472,98.7841472,98.7841472,98.7841472,98.7841472,98.7841472,98.7841472,98.7841472,98.7841472,22,0,,,98.7841472,98.98437569994712,0.0,99.00113309995504,0,0.0,0,1,1000,num_1,0.7081040000193752,,27,3,2026-03-05_13h20.53.067,2026A_exp2,2022.2.4,59.93507831723639,
1000,1,6.1,3.7,1,0,17,17,0,,,,,99.7350895999698,100.36913239996647,100.36913239996647,100.87027600000147,45,315,100.87027600000147,100.87027600000147,100.87027600000147,100.87027600000147,100.87027600000147,100.87027600000147,100.87027600000147,100.87027600000147,100.87027600000147,101.23652729997411,101.23652729997411,101.23652729997411,101.23652729997411,101.23652729997411,101.23652729997411,101.23652729997411,101.23652729997411,101.23652729997411,11,3,"[0.13370099995518103, 0.1998116999748163, 0.3000066999811679]","[0.18331920000491664, 0.26650749996770173, 0.3671356999548152]",101.23652729997411,101.46939459996065,1000,101.46939459996065,1000,1000,1000,1000,0,num_3,0.5278136999695562,,27,3,2026-03-05_13h20.53.067,2026A_exp2,2022.2.4,59.93507831723639,
1,0,0.0,6.1,0,0,18,18,68,,,,,102.02066229999764,102.67156569997314,102.67156569997314,103.17252969997935,315,315,103.17252969997935,103.17252969997935,103.17252969997935,103.17252969997935,103.17252969997935,103.17252969997935,103.17252969997935,103.17252969997935,103.17252969997935,103.53896069998154,103.53896069998154,103.53896069998154,103.53896069998154,103.53896069998154,103.53896069998154,103.53896069998154,103.53896069998154,103.53896069998154,8,6,"[0.017423199955374002, 0.08365929999854416, 0.13303199998335913, 0.18325319996802136, 0.25025539996568114, 0.28380739997373894]","[0.06700300000375137, 0.11639859998831525, 0.14973889995599166, 0.2333989999606274, 0.26716719998512417, 0.3672929999884218]",103.53896069998154,103.73913809994701,0.0,103.73913809994701,0,0.0,0,1,1000,num_1,0.7301921999896877,,27,3,2026-03-05_13h20.53.067,2026A_exp2,2022.2.4,59.93507831723639,
0,0,3.7,4.9,1,0,19,19,3,,,,,104.48971409996739,105.12392409995664,105.12392409995664,105.62516189995222,315,45,105.62516189995222,105.62516189995222,105.62516189995222,105.62516189995222,105.62516189995222,105.62516189995222,105.62516189995222,105.62516189995222,105.62516189995222,105.99135649995878,105.99135649995878,105.99135649995878,105.99135649995878,105.99135649995878,105.99135649995878,105.99135649995878,105.99135649995878,105.99135649995878,23,0,,,105.99135649995878,106.19163689995185,3.7,106.19163689995185,0,3.7,1,0,1000,num_1,0.7337635000003502,,27,3,2026-03-05_13h20.53.067,2026A_exp2,2022.2.4,59.93507831723639,
1,0,0.0,0.0,0,0,20,20,81,,,,,106.94224069995107,107.59305729996413,107.59305729996413,108.0774928999599,45,315,108.0774928999599,108.0774928999599,108.0774928999599,108.0774928999599,108.0774928999599,108.0774928999599,108.0774928999599,108.0774928999599,108.0774928999599,108.44398349995026,108.44398349995026,108.44398349995026,108.44398349995026,108.44398349995026,108.44398349995026,108.44398349995026,108.44398349995026,108.44398349995026,9,8,"[0.0012756999931298196, 0.03392019995953888, 0.08407339995028451, 0.11715309997089207, 0.1673363999580033, 0.21732949995202944, 0.3006814999971539, 0.3673904999741353]","[0.01765779999550432, 0.05057199997827411, 0.1005870999651961, 0.15080449997913092, 0.18398479995084926, 0.2840311999898404, 0.35068829997908324, 0.3673952999524772]",108.44398349995026,108.64394349994836,0.0,108.64394349994836,1,0.0,0,0,1000,num_4,0.9295604000217281,,27,3,2026-03-05_13h20.53.067,2026A_exp2,2022.2.4,59.93507831723639,
1,0,6.1,4.9,1,0,21,21,35,,,,,109.59485329996096,110.24576369998977,110.24576369998977,110.73011909995694,315,45,110.73011909995694,110.73011909995694,110.73011909995694,110.73011909995694,110.73011909995694,110.73011909995694,110.73011909995694,110.73011909995694,110.73011909995694,111.09633449994726,111.09633449994726,111.09633449994726,111.09633449994726,111.09633449994726,111.09633449994726,111.09633449994726,111.09633449994726,111.09633449994726,21,2,"[0.20026690000668168, 0.350523000000976]","[0.21699380001518875, 0.3672002000384964]",111.09633449994726,111.29664699995192,4.9,111.29664699995192,0,4.9,1,0,1000,num_1,0.7400005999952555,,27,3,2026-03-05_13h20.53.067,2026A_exp2,2022.2.4,59.93507831723639,
1,0,0.0,3.7,0,0,22,22,12,,,,,112.06405069999164,112.7148258999805,112.7148258999805,113.19913579995045,315,315,113.19913579995045,113.19913579995045,113.19913579995045,113.19913579995045,113.19913579995045,113.19913579995045,113.19913579995045,113.19913579995045,113.19913579995045,113.56546009995509,113.56546009995509,113.56546009995509,113.56546009995509,113.56546009995509,113.56546009995509,113.56546009995509,113.56546009995509,113.56546009995509,23,0,,,113.56546009995509,113.76573879999341,0.0,113.76573879999341,0,0.0,0,1,1000,num_1,0.7190624999930151,,27,3,2026-03-05_13h20.53.067,2026A_exp2,2022.2.4,59.93507831723639,
1000,1,4.9,0.0,0,0,23,23,58,,,,,114.51646089996211,115.16735649999464,115.16735649999464,115.65259869996225,315,315,115.65259869996225,115.65259869996225,115.65259869996225,115.65259869996225,115.65259869996225,115.65259869996225,115.65259869996225,115.65259869996225,115.65259869996225,116.0181361999712,116.0181361999712,116.0181361999712,116.0181361999712,116.0181361999712,116.0181361999712,116.0181361999712,116.0181361999712,116.0181361999712,10,5,"[0.017458500049542636, 0.1159231000347063, 0.19955650001065806, 0.23289530002512038, 0.29974750004475936]","[0.09913330001290888, 0.13273569999728352, 0.21638180001173168, 0.26629360002698377, 0.36641070002224296]",116.0181361999712,116.22018569998909,1000,116.22018569998909,1000,1000,1000,1000,0,num_3,0.5930621000006795,,27,3,2026-03-05_13h20.53.067,2026A_exp2,2022.2.4,59.93507831723639,
1,0,0.0,0.0,1,0,24,24,41,,,,,116.8354828999727,117.48628149996512,117.48628149996512,117.98729079996701,315,315,117.98729079996701,117.98729079996701,117.98729079996701,117.98729079996701,117.98729079996701,117.98729079996701,117.98729079996701,117.98729079996701,117.98729079996701,118.35380179999629,118.35380179999629,118.35380179999629,118.35380179999629,118.35380179999629,118.35380179999629,118.35380179999629,118.35380179999629,118.35380179999629,23,0,,,118.35380179999629,118.55396299995482,0.0,118.55396299995482,0,0.0,0,1,1000,num_1,0.9237465999904089,,27,3,2026-03-05_13h20.53.067,2026A_exp2,2022.2.4,59.93507831723639,
0,0,4.9,0.0,0,0,25,25,30,,,,,119.5048642999609,120.15534349996597,120.15534349996597,120.64004719996592,45,315,120.64004719996592,120.64004719996592,120.64004719996592,120.64004719996592,120.64004719996592,120.64004719996592,120.64004719996592,120.64004719996592,120.64004719996592,121.00650089996634,121.00650089996634,121.00650089996634,121.00650089996634,121.00650089996634,121.00650089996634,121.00650089996634,121.00650089996634,121.00650089996634,5,5,"[0.0012326000141911209, 0.11688699998194352, 0.20042489998741075, 0.28365180001128465, 0.33382349996827543]","[0.10031219996744767, 0.1836831999826245, 0.26701529999263585, 0.30048079998232424, 0.3671296999673359]",121.00650089996634,121.20660709997173,0.0,121.20660709997173,0,0.0,0,1,1000,num_1,0.5747177999583073,,27,3,2026-03-05_13h20.53.067,2026A_exp2,2022.2.4,59.93507831723639,
1000,1,0.0,0.0,0,0,26,26,61,,,,,121.80714129999978,122.45790449995548,122.45790449995548,122.94235629995819,45,45,122.94235629995819,122.94235629995819,122.94235629995819,122.94235629995819,122.94235629995819,122.94235629995819,122.94235629995819,122.94235629995819,122.94235629995819,123.30874979996588,123.30874979996588,123.30874979996588,123.30874979996588,123.30874979996588,123.30874979996588,123.30874979996588,123.30874979996588,123.30874979996588,6,6,"[0.0012543000048026443, 0.08356840000487864, 0.1670719000394456, 0.2338088999968022, 0.26711410004645586, 0.31710849999217317]","[0.06695270002819598, 0.15043880004668608, 0.21709570003440604, 0.25048660003812984, 0.30043600004864857, 0.3671984000247903]",123.30874979996588,123.51096889999462,1000,123.51096889999462,1000,1000,1000,1000,1,num_2,0.5581000999663956,,27,3,2026-03-05_13h20.53.067,2026A_exp2,2022.2.4,59.93507831723639,
1000,1,6.1,0.0,0,0,27,27,19,,,,,124.09301359998062,124.74329809995834,124.74329809995834,125.22784119995777,315,315,125.22784119995777,125.22784119995777,125.22784119995777,125.22784119995777,125.22784119995777,125.22784119995777,125.22784119995777,125.22784119995777,125.22784119995777,125.59422089997679,125.59422089997679,125.59422089997679,125.59422089997679,125.59422089997679,125.59422089997679,125.59422089997679,125.59422089997679,125.59422089997679,9,4,"[0.0012067999923601747, 0.1501000999705866, 0.2003275000024587, 0.28373219998320565]","[0.06683829997200519, 0.16696409997530282, 0.2671176999574527, 0.36711449996801093]",125.59422089997679,125.79620260000229,1000,125.79620260000229,1000,1000,1000,1000,0,num_3,0.5606230000266805,,27,3,2026-03-05_13h20.53.067,2026A_exp2,2022.2.4,59.93507831723639,
1,0,4.9,4.9,0,0,28,28,63,,,,,126.37827879999531,127.02917689998867,127.02917689998867,127.5303023000015,45,45,127.5303023000015,127.5303023000015,127.5303023000015,127.5303023000015,127.5303023000015,127.5303023000015,127.5303023000015,127.5303023000015,127.5303023000015,127.87991349998629,127.87991349998629,127.87991349998629,127.87991349998629,127.87991349998629,127.87991349998629,127.87991349998629,127.87991349998629,127.87991349998629,0,1,[0.001206599990837276],[0.3505792999640107],127.87991349998629,128.08007049997104,4.9,128.08007049997104,0,4.9,1,0,1000,num_1,0.9732949999743141,,27,3,2026-03-05_13h20.53.067,2026A_exp2,2022.2.4,59.93507831723639,
0,0,0.0,0.0,1,0,29,29,62,,,,,129.08108729997184,129.73181599995587,129.73181599995587,130.21620209998218,45,45,130.21620209998218,130.21620209998218,130.21620209998218,130.21620209998218,130.21620209998218,130.21620209998218,130.21620209998218,130.21620209998218,130.21620209998218,130.58258819999173,130.58258819999173,130.58258819999173,130.58258819999173,130.58258819999173,130.58258819999173,130.58258819999173,130.58258819999173,130.58258819999173,17,3,"[0.0007290999637916684, 0.21730089996708557, 0.3174033999675885]","[0.033597500005271286, 0.26749529998051, 0.35063249996164814]",130.58258819999173,130.78289439994842,0.0,130.78289439994842,1,0.0,0,0,1000,num_4,0.8227599000092596,,27,3,2026-03-05_13h20.53.067,2026A_exp2,2022.2.4,59.93507831723639,
1,0,3.7,4.9,1,0,30,30,39,,,,,131.63387189997593,132.28426639997633,132.28426639997633,132.76885329996003,315,45,132.76885329996003,132.76885329996003,132.76885329996003,132.76885329996003,132.76885329996003,132.76885329996003,132.76885329996003,132.76885329996003,132.76885329996003,133.13507979997667,133.13507979997667,133.13507979997667,133.13507979997667,133.13507979997667,133.13507979997667,133.13507979997667,133.13507979997667,133.13507979997667,22,1,[0.15054089995101094],[0.16716119996272027],133.13507979997667,133.33535680000205,4.9,133.33535680000205,0,4.9,1,0,1000,num_1,0.8053468000143766,,27,3,2026-03-05_13h20.53.067,2026A_exp2,2022.2.4,59.93507831723639,
1000,1,0.0,0.0,1,0,31,31,47,,,,,134.1694338999805,134.82024499995168,134.82024499995168,135.3046281999559,45,45,135.3046281999559,135.3046281999559,135.3046281999559,135.3046281999559,135.3046281999559,135.3046281999559,135.3046281999559,135.3046281999559,135.3046281999559,135.67112069996074,135.67112069996074,135.67112069996074,135.67112069996074,135.67112069996074,135.67112069996074,135.67112069996074,135.67112069996074,135.67112069996074,23,0,,,135.67112069996074,135.87293759995373,1000,135.87293759995373,1000,1000,1000,1000,1,num_2,0.6441530000302009,,27,3,2026-03-05_13h20.53.067,2026A_exp2,2022.2.4,59.93507831723639,
1,0,0.0,0.0,0,0,32,32,64,,,,,136.53866449999623,137.18930659996113,137.18930659996113,137.69029389997013,315,45,137.69029389997013,137.69029389997013,137.69029389997013,137.69029389997013,137.69029389997013,137.69029389997013,137.69029389997013,137.69029389997013,137.69029389997013,138.03999759996077,138.03999759996077,138.03999759996077,138.03999759996077,138.03999759996077,138.03999759996077,138.03999759996077,138.03999759996077,138.03999759996077,5,5,"[0.0012126999790780246, 0.06692200002726167, 0.1336569000268355, 0.21710429998347536, 0.30042889999458566]","[0.033652400015853345, 0.1169891000026837, 0.20056780002778396, 0.2837854999816045, 0.35055740003008395]",138.03999759996077,138.24020699999528,0.0,138.24020699999528,0,0.0,0,1,1000,num_1,0.5813636000384577,,27,3,2026-03-05_13h20.53.067,2026A_exp2,2022.2.4,59.93507831723639,
1,0,4.9,0.0,1,0,33,33,82,,,,,138.8408335999702,139.49146170000313,139.49146170000313,139.97600219998276,315,315,139.97600219998276,139.97600219998276,139.97600219998276,139.97600219998276,139.97600219998276,139.97600219998276,139.97600219998276,139.97600219998276,139.97600219998276,140.34234339999966,140.34234339999966,140.34234339999966,140.34234339999966,140.34234339999966,140.34234339999966,140.34234339999966,140.34234339999966,140.34234339999966,6,6,"[0.017480999988038093, 0.0835603000014089, 0.15041349997045472, 0.20033959997817874, 0.23372029996244237, 0.33319909998681396]","[0.06699659995501861, 0.13395649997983128, 0.18378500000108033, 0.21718919998966157, 0.31666589999804273, 0.3665332999662496]",140.34234339999966,140.54238319996512,0.0,140.54238319996512,0,0.0,0,1,1000,num_1,0.670695099979639,,27,3,2026-03-05_13h20.53.067,2026A_exp2,2022.2.4,59.93507831723639,
1000,1,0.0,6.1,1,0,34,34,88,,,,,141.24331349995919,141.89405139995506,141.89405139995506,142.3784531999845,45,315,142.3784531999845,142.3784531999845,142.3784531999845,142.3784531999845,142.3784531999845,142.3784531999845,142.3784531999845,142.3784531999845,142.3784531999845,142.7448091999977,142.7448091999977,142.7448091999977,142.7448091999977,142.7448091999977,142.7448091999977,142.7448091999977,142.7448091999977,142.7448091999977,7,6,"[0.0011702000047080219, 0.0503819000441581, 0.10027360002277419, 0.2335768000339158, 0.26687829999718815, 0.3168538000318222]","[0.03362390003167093, 0.08336180000333115, 0.20040990004781634, 0.2503112000413239, 0.3004025000263937, 0.3670914000249468]",142.7448091999977,142.94710849999683,1000,142.94710849999683,1000,1000,1000,1000,1,num_2,0.6178547999588773,,27,3,2026-03-05_13h20.53.067,2026A_exp2,2022.2.4,59.93507831723639,
1,0,0.0,0.0,1,0,35,35,66,,,,,143.59552649996476,144.2462960999692,144.2462960999692,144.7474098999519,315,315,144.7474098999519,144.7474098999519,144.7474098999519,144.7474098999519,144.7474098999519,144.7474098999519,144.7474098999519,144.7474098999519,144.7474098999519,145.113750599965,145.113750599965,145.113750599965,145.113750599965,145.113750599965,145.113750599965,145.113750599965,145.113750599965,145.113750599965,7,4,"[0.0012615000014193356, 0.10023310000542551, 0.15023889997974038, 0.31700029998319224]","[0.08346059999894351, 0.11688659997889772, 0.26704820001032203, 0.36682250001467764]",145.113750599965,145.31410709995544,0.0,145.31410709995544,0,0.0,0,1,1000,num_1,0.6347690999973565,,27,3,2026-03-05_13h20.53.067,2026A_exp2,2022.2.4,59.93507831723639,
1000,1,4.9,4.9,0,0,36,36,42,,,,,145.9646848999546,146.6153142999974,146.6153142999974,147.09977069997694,315,315,147.09977069997694,147.09977069997694,147.09977069997694,147.09977069997694,147.09977069997694,147.09977069997694,147.09977069997694,147.09977069997694,147.09977069997694,147.46607609995408,147.46607609995408,147.46607609995408,147.46607609995408,147.46607609995408,147.46607609995408,147.46607609995408,147.46607609995408,147.46607609995408,6,3,"[0.017365200037602335, 0.25275630003307015, 0.3335996000096202]","[0.21671140001853928, 0.28629720001481473, 0.367124899988994]",147.46607609995408,147.66859749995638,1000,147.66859749995638,1000,1000,1000,1000,0,num_3,0.8008297000196762,,27,3,2026-03-05_13h20.53.067,2026A_exp2,2022.2.4,59.93507831723639,
1,0,6.1,0.0,0,0,37,37,50,,,,,148.500516399974,149.1508635999635,149.1508635999635,149.65235779999057,45,45,149.65235779999057,149.65235779999057,149.65235779999057,149.65235779999057,149.65235779999057,149.65235779999057,149.65235779999057,149.65235779999057,149.65235779999057,150.01862319995416,150.01862319995416,150.01862319995416,150.01862319995416,150.01862319995416,150.01862319995416,150.01862319995416,150.01862319995416,150.01862319995416,10,5,"[0.01741610001772642, 0.08356619998812675, 0.20045320002827793, 0.2669562000082806, 0.35050860000774264]","[0.05015409999759868, 0.16714380000485107, 0.2337303000385873, 0.2839045000146143, 0.3672742000198923]",150.01862319995416,150.21895839995705,6.1,150.21895839995705,1,6.1,1,1,1000,num_4,0.705826600024011,,27,3,2026-03-05_13h20.53.067,2026A_exp2,2022.2.4,59.93507831723639,
1,0,0.0,0.0,0,0,38,38,9,,,,,150.9530778999906,151.58708269998897,151.58708269998897,152.0879927999922,45,45,152.0879927999922,152.0879927999922,152.0879927999922,152.0879927999922,152.0879927999922,152.0879927999922,152.0879927999922,152.0879927999922,152.0879927999922,152.45456459996058,152.45456459996058,152.45456459996058,152.45456459996058,152.45456459996058,152.45456459996058,152.45456459996058,152.45456459996058,152.45456459996058,14,8,"[0.017274899990297854, 0.050219799974001944, 0.08365889999549836, 0.11701389995869249, 0.2004931999836117, 0.233648199995514, 0.2839003999833949, 0.3336140000028536]","[0.03351969999494031, 0.06685669999569654, 0.10025719995610416, 0.13367119996109977, 0.21718769997823983, 0.2672757999971509, 0.3004471999593079, 0.3506520999944769]",152.45456459996058,152.65460670000175,0.0,152.65460670000175,0,0.0,0,1,1000,num_1,1.2865594000322744,,27,3,2026-03-05_13h20.53.067,2026A_exp2,2022.2.4,59.93507831723639,
1000,1,0.0,6.1,0,0,39,39,34,,,,,153.97273609996773,154.60658329998842,154.60658329998842,155.10842799994862,315,315,155.10842799994862,155.10842799994862,155.10842799994862,155.10842799994862,155.10842799994862,155.10842799994862,155.10842799994862,155.10842799994862,155.10842799994862,155.47433579998324,155.47433579998324,155.47433579998324,155.47433579998324,155.47433579998324,155.47433579998324,155.47433579998324,155.47433579998324,155.47433579998324,14,7,"[0.0008843999821692705, 0.08231179998256266, 0.1324328999617137, 0.18272479996085167, 0.24917959998128936, 0.28249299997696653, 0.33390420000068843]","[0.032440299983136356, 0.09899609995773062, 0.1490312999812886, 0.19933859998127446, 0.2658275999710895, 0.29916319996118546, 0.36658299999544397]",155.47433579998324,155.67490289994748,1000,155.67490289994748,1000,1000,1000,1000,1,num_2,0.5456926999613643,,27,3,2026-03-05_13h20.53.067,2026A_exp2,2022.2.4,59.93507831723639,
0,0,0.0,6.1,1,0,40,40,76,,,,,156.24151749996236,156.89233479998074,156.89233479998074,157.39352199999848,45,315,157.39352199999848,157.39352199999848,157.39352199999848,157.39352199999848,157.39352199999848,157.39352199999848,157.39352199999848,157.39352199999848,157.39352199999848,157.75989769998705,157.75989769998705,157.75989769998705,157.75989769998705,157.75989769998705,157.75989769998705,157.75989769998705,157.75989769998705,157.75989769998705,0,1,[0.0012251000152900815],[0.3670740000088699],157.75989769998705,157.9599987999536,0.0,157.9599987999536,0,0.0,0,1,1000,num_1,0.9817220999975689,,27,3,2026-03-05_13h20.53.067,2026A_exp2,2022.2.4,59.93507831723639,
1,0,0.0,0.0,1,0,41,41,70,,,,,158.9608978999895,159.61171279998962,159.61171279998962,160.0961641999893,315,315,160.0961641999893,160.0961641999893,160.0961641999893,160.0961641999893,160.0961641999893,160.0961641999893,160.0961641999893,160.0961641999893,160.0961641999893,160.4621565999696,160.4621565999696,160.4621565999696,160.4621565999696,160.4621565999696,160.4621565999696,160.4621565999696,160.4621565999696,160.4621565999696,13,5,"[0.01731989998370409, 0.10019409999949858, 0.16687349998392165, 0.23364399996353313, 0.3337734999950044]","[0.05004419997567311, 0.13346719997934997, 0.21700869995402172, 0.2670364999794401, 0.34996969997882843]",160.4621565999696,160.6626717999461,0.0,160.6626717999461,0,0.0,0,1,1000,num_1,0.7508595999679528,,27,3,2026-03-05_13h20.53.067,2026A_exp2,2022.2.4,59.93507831723639,
1,0,0.0,0.0,1,0,42,42,73,,,,,161.43012659996748,162.0808123999741,162.0808123999741,162.56534049997572,315,315,162.56534049997572,162.56534049997572,162.56534049997572,162.56534049997572,162.56534049997572,162.56534049997572,162.56534049997572,162.56534049997572,162.56534049997572,162.93164779996732,162.93164779996732,162.93164779996732,162.93164779996732,162.93164779996732,162.93164779996732,162.93164779996732,162.93164779996732,162.93164779996732,7,2,"[0.08344100002432242, 0.16679570003179833]","[0.13342979998560622, 0.36703020002460107]",162.93164779996732,163.13186249998398,0.0,163.13186249998398,1,0.0,0,0,1000,num_4,0.6326303000096232,,27,3,2026-03-05_13h20.53.067,2026A_exp2,2022.2.4,59.93507831723639,
1000,1,4.9,3.7,1,0,43,43,67,,,,,163.78236439998727,164.4332045999472,164.4332045999472,164.91751109994948,45,315,164.91751109994948,164.91751109994948,164.91751109994948,164.91751109994948,164.91751109994948,164.91751109994948,164.91751109994948,164.91751109994948,164.91751109994948,165.28406409994932,165.28406409994932,165.28406409994932,165.28406409994932,165.28406409994932,165.28406409994932,165.28406409994932,165.28406409994932,165.28406409994932,14,4,"[0.03342190000694245, 0.10023760003969073, 0.15019630000460893, 0.20028040005126968]","[0.0669126000138931, 0.11706550000235438, 0.16695159999653697, 0.25049080001190305]",165.28406409994932,165.48443259997293,1000,165.48443259997293,1000,1000,1000,1000,0,num_3,0.6894787999917753,,27,3,2026-03-05_13h20.53.067,2026A_exp2,2022.2.4,59.93507831723639,
1000,1,6.1,4.9,1,0,44,44,16,,,,,166.20153969997773,166.85228890000144,166.85228890000144,167.35334309999598,45,45,167.35334309999598,167.35334309999598,167.35334309999598,167.35334309999598,167.35334309999598,167.35334309999598,167.35334309999598,167.35334309999598,167.35334309999598,167.7197760999552,167.7197760999552,167.7197760999552,167.7197760999552,167.7197760999552,167.7197760999552,167.7197760999552,167.7197760999552,167.7197760999552,12,8,"[0.0012472000089474022, 0.03333639999618754, 0.08352630003355443, 0.11649089999264106, 0.18376189999980852, 0.21692390000680462, 0.2669445000356063, 0.3503121000248939]","[0.017243499984033406, 0.0666874999878928, 0.10005529999034479, 0.1674870999995619, 0.20020190003560856, 0.23359509999863803, 0.28366640000604093, 0.36706600000616163]",167.7197760999552,167.9222951999982,1000,167.9222951999982,1000,1000,1000,1000,0,num_3,0.5703253999818116,,27,3,2026-03-05_13h20.53.067,2026A_exp2,2022.2.4,59.93507831723639,
1,0,0.0,4.9,0,0,45,45,85,,,,,168.52049919997808,169.17135509999935,169.17135509999935,169.6722568999976,315,315,169.6722568999976,169.6722568999976,169.6722568999976,169.6722568999976,169.6722568999976,169.6722568999976,169.6722568999976,169.6722568999976,169.6722568999976,170.02208699996118,170.02208699996118,170.02208699996118,170.02208699996118,170.02208699996118,170.02208699996118,170.02208699996118,170.02208699996118,170.02208699996118,3,4,"[0.0012120999745093286, 0.15026419999776408, 0.20038960000965744, 0.23370679997606203]","[0.13355819997377694, 0.183744799986016, 0.21702360000927, 0.3505734999780543]",170.02208699996118,170.22219919995405,0.0,170.23886449995916,0,0.0,0,1,1000,num_1,0.6862363999825902,,27,3,2026-03-05_13h20.53.067,2026A_exp2,2022.2.4,59.93507831723639,
1,0,0.0,3.7,0,0,46,46,78,,,,,170.95624489994952,171.60722659999738,171.60722659999738,172.09147459996166,45,315,172.09147459996166,172.09147459996166,172.09147459996166,172.09147459996166,172.09147459996166,172.09147459996166,172.09147459996166,172.09147459996166,172.09147459996166,172.45786889997544,172.45786889997544,172.45786889997544,172.45786889997544,172.45786889997544,172.45786889997544,172.45786889997544,172.45786889997544,172.45786889997544,7,5,"[0.01736320002237335, 0.050181300030089915, 0.11691250000149012, 0.21703170001273975, 0.2670592000358738]","[0.03335069998865947, 0.08364329999312758, 0.20024420000845566, 0.25034800003049895, 0.3671362000168301]",172.45786889997544,172.6581187999691,0.0,172.6581187999691,0,0.0,0,1,1000,num_1,0.6434614000027068,,27,3,2026-03-05_13h20.53.067,2026A_exp2,2022.2.4,59.93507831723639,
1000,1,0.0,0.0,0,0,47,47,20,,,,,173.3252586000017,173.97614629997406,173.97614629997406,174.46036899997853,45,315,174.46036899997853,174.46036899997853,174.46036899997853,174.46036899997853,174.46036899997853,174.46036899997853,174.46036899997853,174.46036899997853,174.46036899997853,174.82681929995306,174.82681929995306,174.82681929995306,174.82681929995306,174.82681929995306,174.82681929995306,174.82681929995306,174.82681929995306,174.82681929995306,20,3,"[0.11697600001934916, 0.28369920002296567, 0.3503535999916494]","[0.1334719000151381, 0.31704270001500845, 0.36715030000777915]",174.82681929995306,175.02892079995945,1000,175.02892079995945,1000,1000,1000,1000,0,num_3,0.6410169000155292,,27,3,2026-03-05_13h20.53.067,2026A_exp2,2022.2.4,59.93507831723639,
1000,1,6.1,3.7,1,0,48,48,10,,,,,175.69438800000353,176.3450743999565,176.3450743999565,176.82939109997824,315,315,176.82939109997824,176.82939109997824,176.82939109997824,176.82939109997824,176.82939109997824,176.82939109997824,176.82939109997824,176.82939109997824,176.82939109997824,177.19597289996454,177.19597289996454,177.19597289996454,177.19597289996454,177.19597289996454,177.19597289996454,177.19597289996454,177.19597289996454,177.19597289996454,5,2,"[0.033444800006691366, 0.18348290002904832]","[0.1503175000543706, 0.36719020002055913]",177.19597289996454,177.39736199995968,1000,177.39736199995968,1000,1000,1000,1000,0,num_3,0.5840099999913946,,27,3,2026-03-05_13h20.53.067,2026A_exp2,2022.2.4,59.93507831723639,
1000,1,0.0,3.7,1,0,49,49,80,,,,,177.9969878999982,178.6473590999958,178.6473590999958,179.14854349999223,45,45,179.14854349999223,179.14854349999223,179.14854349999223,179.14854349999223,179.14854349999223,179.14854349999223,179.14854349999223,179.14854349999223,179.14854349999223,179.51499139994849,179.51499139994849,179.51499139994849,179.51499139994849,179.51499139994849,179.51499139994849,179.51499139994849,179.51499139994849,179.51499139994849,9,4,"[0.0012340000248514116, 0.06674249999923632, 0.23318789998302236, 0.3503814999712631]","[0.03343790001235902, 0.19963230000576004, 0.2665874999947846, 0.3671099999919534]",179.51499139994849,179.7169132999843,1000,179.7169132999843,1000,1000,1000,1000,1,num_2,0.4795787000330165,,27,3,2026-03-05_13h20.53.067,2026A_exp2,2022.2.4,59.93507831723639,
1000,1,4.9,0.0,0,0,50,50,22,,,,,180.2155086999992,180.86625179997645,180.86625179997645,181.36727069999324,45,45,181.36727069999324,181.36727069999324,181.36727069999324,181.36727069999324,181.36727069999324,181.36727069999324,181.36727069999324,181.36727069999324,181.36727069999324,181.71734339999966,181.71734339999966,181.71734339999966,181.71734339999966,181.71734339999966,181.71734339999966,181.71734339999966,181.71734339999966,181.71734339999966,0,1,[0.0012110999668948352],[0.350431099999696],181.71734339999966,181.91890549997333,1000,181.93386499996996,1000,1000,1000,1000,0,num_3,0.4707706000190228,,27,3,2026-03-05_13h20.53.067,2026A_exp2,2022.2.4,59.93507831723639,
0,0,0.0,4.9,1,0,51,51,56,,,,,182.41896239999915,183.0684246000019,183.0684246000019,183.5695008999901,45,315,183.5695008999901,183.5695008999901,183.5695008999901,183.5695008999901,183.5695008999901,183.5695008999901,183.5695008999901,183.5695008999901,183.5695008999901,183.93588229996385,183.93588229996385,183.93588229996385,183.93588229996385,183.93588229996385,183.93588229996385,183.93588229996385,183.93588229996385,183.93588229996385,17,4,"[0.050188600027468055, 0.23340450000250712, 0.283343099988997, 0.36730069998884574]","[0.10023979999823496, 0.24998989998130128, 0.30016710003837943, 0.3673057000269182]",183.93588229996385,184.13624739996158,0.0,184.13624739996158,0,0.0,0,1,1000,num_1,0.9809683000203222,,27,3,2026-03-05_13h20.53.067,2026A_exp2,2022.2.4,59.93507831723639,
1000,1,6.1,3.7,0,0,52,52,87,,,,,185.13714139995864,185.78747689997545,185.78747689997545,186.27234729996417,45,45,186.27234729996417,186.27234729996417,186.27234729996417,186.27234729996417,186.27234729996417,186.27234729996417,186.27234729996417,186.27234729996417,186.27234729996417,186.6386260999716,186.6386260999716,186.6386260999716,186.6386260999716,186.6386260999716,186.6386260999716,186.6386260999716,186.6386260999716,186.6386260999716,13,7,"[0.10029139998368919, 0.16698829998495057, 0.20026559999678284, 0.250414100009948, 0.2836826999555342, 0.33373849996132776, 0.3671559999929741]","[0.1336693000048399, 0.1837156999972649, 0.23367499996675178, 0.2670368999824859, 0.31718059995910153, 0.3506243999581784, 0.36716089997207746]",186.6386260999716,186.84126109996578,1000,186.84126109996578,1000,1000,1000,1000,0,num_3,0.5477320000063628,,27,3,2026-03-05_13h20.53.067,2026A_exp2,2022.2.4,59.93507831723639,
1000,1,6.1,4.9,1,0,53,53,53,,,,,187.40622399997665,188.05684149998706,188.05684149998706,188.5578881999827,45,315,188.5578881999827,188.5578881999827,188.5578881999827,188.5578881999827,188.5578881999827,188.5578881999827,188.5578881999827,188.5578881999827,188.5578881999827,188.9243944999762,188.9243944999762,188.9243944999762,188.9243944999762,188.9243944999762,188.9243944999762,188.9243944999762,188.9243944999762,188.9243944999762,13,7,"[0.01729200000409037, 0.08363200002349913, 0.16704540001228452, 0.21701650001341477, 0.26699910004390404, 0.33369120000861585, 0.3670630000415258]","[0.05010450002737343, 0.11688540002796799, 0.1835645000101067, 0.2337058000266552, 0.30036290001589805, 0.3503867000108585, 0.36706790002062917]",188.9243944999762,189.12693420000141,1000,189.12693420000141,1000,1000,1000,1000,1,num_2,0.6549930999753997,,27,3,2026-03-05_13h20.53.067,2026A_exp2,2022.2.4,59.93507831723639,
1000,1,0.0,4.9,0,0,54,54,11,,,,,189.80838809994748,190.45926579996012,190.45926579996012,190.9602681999677,315,45,190.9602681999677,190.9602681999677,190.9602681999677,190.9602681999677,190.9602681999677,190.9602681999677,190.9602681999677,190.9602681999677,190.9602681999677,191.32673339999747,191.32673339999747,191.32673339999747,191.32673339999747,191.32673339999747,191.32673339999747,191.32673339999747,191.32673339999747,191.32673339999747,18,3,"[0.03348630003165454, 0.15018950001103804, 0.3504899999825284]","[0.06685330002801493, 0.18353879998903722, 0.3672361000208184]",191.32673339999747,191.52877919998718,1000,191.52877919998718,1000,1000,1000,1000,1,num_2,0.3967854999937117,,27,3,2026-03-05_13h20.53.067,2026A_exp2,2022.2.4,59.93507831723639,
1,0,4.9,0.0,1,0,55,55,6,,,,,191.94412499997998,192.59469969995553,192.59469969995553,193.09584349999204,315,315,193.09584349999204,193.09584349999204,193.09584349999204,193.09584349999204,193.09584349999204,193.09584349999204,193.09584349999204,193.09584349999204,193.09584349999204,193.46219059999567,193.46219059999567,193.46219059999567,193.46219059999567,193.46219059999567,193.46219059999567,193.46219059999567,193.46219059999567,193.46219059999567,2,2,"[0.0012848000042140484, 0.1169880999950692]","[0.08357620000606403, 0.3671262999996543]",193.46219059999567,193.66246520000277,0.0,193.66246520000277,0,0.0,0,1,1000,num_1,0.574180299998261,,27,3,2026-03-05_13h20.53.067,2026A_exp2,2022.2.4,59.93507831723639,
1000,1,0.0,3.7,0,0,56,56,52,,,,,194.26297389995307,194.91360390000045,194.91360390000045,195.39799679996213,45,45,195.39799679996213,195.39799679996213,195.39799679996213,195.39799679996213,195.39799679996213,195.39799679996213,195.39799679996213,195.39799679996213,195.39799679996213,195.7644151999848,195.7644151999848,195.7644151999848,195.7644151999848,195.7644151999848,195.7644151999848,195.7644151999848,195.7644151999848,195.7644151999848,3,2,"[0.001234999974258244, 0.3171580000198446]","[0.28374250000342727, 0.3671045000082813]",195.7644151999848,195.96659669996006,1000,195.96659669996006,1000,1000,1000,1000,0,num_3,0.5426826999755576,,27,3,2026-03-05_13h20.53.067,2026A_exp2,2022.2.4,59.93507831723639,
1000,1,6.1,0.0,0,0,57,57,33,,,,,196.5319981999928,197.18251109996345,197.18251109996345,197.6669164999621,45,315,197.6669164999621,197.6669164999621,197.6669164999621,197.6669164999621,197.6669164999621,197.6669164999621,197.6669164999621,197.6669164999621,197.6669164999621,198.03315429994836,198.03315429994836,198.03315429994836,198.03315429994836,198.03315429994836,198.03315429994836,198.03315429994836,198.03315429994836,198.03315429994836,14,6,"[0.0012149999965913594, 0.0503803999745287, 0.13365689996862784, 0.21696629998041317, 0.3005015999660827, 0.36709289997816086]","[0.01724899996770546, 0.06695790000958368, 0.1502059999620542, 0.26704820001032203, 0.3338825000100769, 0.3670979999587871]",198.03315429994836,198.23623529996257,1000,198.23623529996257,1000,1000,1000,1000,0,num_3,0.5691979000112042,,27,3,2026-03-05_13h20.53.067,2026A_exp2,2022.2.4,59.93507831723639,
1,0,0.0,0.0,0,0,58,58,49,,,,,198.83417649997864,199.48493139998754,199.48493139998754,199.99395549995825,45,45,199.99395549995825,199.99395549995825,199.99395549995825,199.99395549995825,199.99395549995825,199.99395549995825,199.99395549995825,199.99395549995825,199.99395549995825,200.3525365999667,200.3525365999667,200.3525365999667,200.3525365999667,200.3525365999667,200.3525365999667,200.3525365999667,200.3525365999667,200.3525365999667,14,5,"[0.003059700015000999, 0.08363900001859292, 0.20020439999643713, 0.25042200001189485, 0.3339628999819979]","[0.0536640000063926, 0.10010420001344755, 0.21689199999673292, 0.30044949997682124, 0.3504209999809973]",200.3525365999667,200.55927749996772,0.0,200.55927749996772,0,0.0,0,1,1000,num_1,0.7581483999965712,,27,3,2026-03-05_13h20.53.067,2026A_exp2,2022.2.4,59.93507831723639,
1,0,6.1,3.7,0,0,59,59,26,,,,,201.33668039995246,201.98746869998286,201.98746869998286,202.47189210000215,315,315,202.47189210000215,202.47189210000215,202.47189210000215,202.47189210000215,202.47189210000215,202.47189210000215,202.47189210000215,202.47189210000215,202.47189210000215,202.83810679998714,202.83810679998714,202.83810679998714,202.83810679998714,202.83810679998714,202.83810679998714,202.83810679998714,202.83810679998714,202.83810679998714,4,4,"[0.0012029000208713114, 0.03351929999189451, 0.10024469997733831, 0.3171682999818586]","[0.017457199981436133, 0.06702770001720637, 0.30035779997706413, 0.36729429999832064]",202.83810679998714,203.04955389996758,6.1,203.04955389996758,1,6.1,1,1,1000,num_4,0.7711453000083566,,27,3,2026-03-05_13h20.53.067,2026A_exp2,2022.2.4,59.93507831723639,
1000,1,4.9,0.0,1,0,60,60,25,,,,,203.8391671999707,204.48980239999946,204.48980239999946,204.99108569999225,315,315,204.99108569999225,204.99108569999225,204.99108569999225,204.99108569999225,204.99108569999225,204.99108569999225,204.99108569999225,204.99108569999225,204.99108569999225,205.3574903999688,205.3574903999688,205.3574903999688,205.3574903999688,205.3574903999688,205.3574903999688,205.3574903999688,205.3574903999688,205.3574903999688,15,6,"[0.01725639996584505, 0.04994210001314059, 0.08329749997938052, 0.16669629997340962, 0.2501678999979049, 0.36701970000285655]","[0.03334779996657744, 0.06660789996385574, 0.11665129999164492, 0.20008089998736978, 0.2668131999671459, 0.36702429997967556]",205.3574903999688,205.5597018999979,1000,205.5597018999979,1000,1000,1000,1000,0,num_3,0.6128396999556571,,27,3,2026-03-05_13h20.53.067,2026A_exp2,2022.2.4,59.93507831723639,
1,0,4.9,6.1,1,0,61,61,46,,,,,206.1915099999751,206.84222439996665,206.84222439996665,207.3434053999954,315,45,207.3434053999954,207.3434053999954,207.3434053999954,207.3434053999954,207.3434053999954,207.3434053999954,207.3434053999954,207.3434053999954,207.3434053999954,207.69312919996446,207.69312919996446,207.69312919996446,207.69312919996446,207.69312919996446,207.69312919996446,207.69312919996446,207.69312919996446,207.69312919996446,12,7,"[0.0503376999986358, 0.10035900003276765, 0.13378390000434592, 0.18377679999684915, 0.25060040003154427, 0.3172088999999687, 0.35073410003678873]","[0.06701100000645965, 0.11701019998872653, 0.1503379000350833, 0.21715939999558032, 0.3006138000055216, 0.3337764000170864, 0.3507390000158921]",207.69312919996446,207.8932657999685,6.1,207.8932657999685,0,6.1,1,0,1000,num_1,0.7439201999804936,,27,3,2026-03-05_13h20.53.067,2026A_exp2,2022.2.4,59.93507831723639,
1000,1,3.7,0.0,1,0,62,62,55,,,,,208.66060219996143,209.32146649999777,209.32146649999777,209.8011951999506,315,45,209.8011951999506,209.8011951999506,209.8011951999506,209.8011951999506,209.8011951999506,209.8011951999506,209.8011951999506,209.8011951999506,209.8011951999506,210.16239219997078,210.16239219997078,210.16239219997078,210.16239219997078,210.16239219997078,210.16239219997078,210.16239219997078,210.16239219997078,210.16239219997078,23,0,,,210.16239219997078,210.37351109995507,1000,210.37351109995507,1000,1000,1000,1000,0,num_3,0.5273011999670416,,27,3,2026-03-05_13h20.53.067,2026A_exp2,2022.2.4,59.93507831723639,
1000,1,0.0,0.0,1,0,63,63,23,,,,,210.92983669997193,211.59086559998104,211.59086559998104,212.06990039994707,315,315,212.06990039994707,212.06990039994707,212.06990039994707,212.06990039994707,212.06990039994707,212.06990039994707,212.06990039994707,212.06990039994707,212.06990039994707,212.43129769997904,212.43129769997904,212.43129769997904,212.43129769997904,212.43129769997904,212.43129769997904,212.43129769997904,212.43129769997904,212.43129769997904,14,5,"[0.0025610000011511147, 0.0321183999767527, 0.11553880001883954, 0.23219219996826723, 0.31520830001682043]","[0.021708899992518127, 0.04891939996741712, 0.13217810000060126, 0.282073299982585, 0.34886339999502525]",212.43129769997904,212.63348949997453,1000,212.63348949997453,1000,1000,1000,1000,1,num_2,0.49977900000521913,,27,3,2026-03-05_13h20.53.067,2026A_exp2,2022.2.4,59.93507831723639,
1,0,0.0,6.1,0,0,64,64,5,,,,,213.14862179994816,213.799220099987,213.799220099987,214.3002205999801,45,315,214.3002205999801,214.3002205999801,214.3002205999801,214.3002205999801,214.3002205999801,214.3002205999801,214.3002205999801,214.3002205999801,214.3002205999801,214.6501049999497,214.6501049999497,214.6501049999497,214.6501049999497,214.6501049999497,214.6501049999497,214.6501049999497,214.6501049999497,214.6501049999497,10,4,"[0.033688000054098666, 0.20056399999884889, 0.2504917000187561, 0.30051800003275275]","[0.11640310002258047, 0.217144200054463, 0.2837982000201009, 0.3506791000254452]",214.6501049999497,214.85021179995965,0.0,214.85021179995965,0,0.0,0,1,1000,num_1,0.7144871999626048,,27,3,2026-03-05_13h20.53.067,2026A_exp2,2022.2.4,59.93507831723639,
1,0,4.9,4.9,1,0,65,65,89,,,,,215.58432339999126,216.23497170000337,216.23497170000337,216.71946399996523,45,45,216.71946399996523,216.71946399996523,216.71946399996523,216.71946399996523,216.71946399996523,216.71946399996523,216.71946399996523,216.71946399996523,216.71946399996523,217.0856939999503,217.0856939999503,217.0856939999503,217.0856939999503,217.0856939999503,217.0856939999503,217.0856939999503,217.0856939999503,217.0856939999503,7,5,"[0.017417200026102364, 0.08366760000353679, 0.13363810000009835, 0.1670115000451915, 0.21710750000784174]","[0.033579700044356287, 0.10023140005068853, 0.15035310003440827, 0.20044320001034066, 0.3671718999976292]",217.0856939999503,217.2980755000026,4.9,217.2980755000026,0,4.9,1,0,1000,num_1,0.6746244999812916,,27,3,2026-03-05_13h20.53.067,2026A_exp2,2022.2.4,59.93507831723639,
1000,1,6.1,0.0,1,0,66,66,60,,,,,217.98863789997995,218.6374035999761,218.6374035999761,219.13836079998873,45,315,219.13836079998873,219.13836079998873,219.13836079998873,219.13836079998873,219.13836079998873,219.13836079998873,219.13836079998873,219.13836079998873,219.13836079998873,219.50477999995928,219.50477999995928,219.50477999995928,219.50477999995928,219.50477999995928,219.50477999995928,219.50477999995928,219.50477999995928,219.50477999995928,11,8,"[0.017275599995628, 0.06672250002156943, 0.09988360002171248, 0.13285230001201853, 0.16609339998103678, 0.2833061999990605, 0.31672689999686554, 0.34995709999930114]","[0.03332580003188923, 0.08362360001774505, 0.1163673999835737, 0.1498268999857828, 0.24971709999954328, 0.2998809000127949, 0.3333870000205934, 0.3667751000029966]",219.50477999995928,219.70702469995013,1000,219.70702469995013,1000,1000,1000,1000,0,num_3,0.44963270000880584,,27,3,2026-03-05_13h20.53.067,2026A_exp2,2022.2.4,59.93507831723639,
0,0,0.0,3.7,1,0,67,67,21,,,,,220.17224439996062,220.8228815999464,220.8228815999464,221.32419769995613,45,315,221.32419769995613,221.32419769995613,221.32419769995613,221.32419769995613,221.32419769995613,221.32419769995613,221.32419769995613,221.32419769995613,221.32419769995613,221.67379439994693,221.67379439994693,221.67379439994693,221.67379439994693,221.67379439994693,221.67379439994693,221.67379439994693,221.67379439994693,221.67379439994693,21,1,[0.3515406000078656],[0.3515453999862075],221.67379439994693,221.87402789999032,0.0,221.87402789999032,0,0.0,0,1,1000,num_1,0.8912942000315525,,27,3,2026-03-05_13h20.53.067,2026A_exp2,2022.2.4,59.93507831723639,
1000,1,0.0,4.9,1,0,68,68,27,,,,,222.79141809995053,223.44213389995275,223.44213389995275,223.92659629997797,45,315,223.92659629997797,223.92659629997797,223.92659629997797,223.92659629997797,223.92659629997797,223.92659629997797,223.92659629997797,223.92659629997797,223.92659629997797,224.2931376999477,224.2931376999477,224.2931376999477,224.2931376999477,224.2931376999477,224.2931376999477,224.2931376999477,224.2931376999477,224.2931376999477,7,6,"[0.0013404999626800418, 0.08349119999911636, 0.15015040000434965, 0.2168507999740541, 0.30036959995049983, 0.3501292999717407]","[0.06652389996452257, 0.13345510000362992, 0.2001956999883987, 0.28350530000170693, 0.31695799995213747, 0.36704469996038824]",224.2931376999477,224.49469979997957,1000,224.49469979997957,1000,1000,1000,1000,1,num_2,0.6071181999868713,,27,3,2026-03-05_13h20.53.067,2026A_exp2,2022.2.4,59.93507831723639,
1,0,3.7,0.0,1,0,69,69,74,,,,,225.12724529998377,225.77782119996846,225.77782119996846,226.28449089999776,315,315,226.28449089999776,226.28449089999776,226.28449089999776,226.28449089999776,226.28449089999776,226.28449089999776,226.28449089999776,226.28449089999776,226.28449089999776,226.6453976999619,226.6453976999619,226.6453976999619,226.6453976999619,226.6453976999619,226.6453976999619,226.6453976999619,226.6453976999619,226.6453976999619,23,0,,,226.6453976999619,226.85944579995703,0.0,226.85944579995703,0,0.0,0,1,1000,num_1,0.6258987999754027,,27,3,2026-03-05_13h20.53.067,2026A_exp2,2022.2.4,59.93507831723639,
1000,1,4.9,0.0,1,0,70,70,72,,,,,227.51276079996023,228.16347529995255,228.16347529995255,228.64806539996061,45,45,228.64806539996061,228.64806539996061,228.64806539996061,228.64806539996061,228.64806539996061,228.64806539996061,228.64806539996061,228.64806539996061,228.64806539996061,229.0144552999991,229.0144552999991,229.0144552999991,229.0144552999991,229.0144552999991,229.0144552999991,229.0144552999991,229.0144552999991,229.0144552999991,0,1,[0.0012532000546343625],[0.3670363000128418],229.0144552999991,229.21635619999142,1000,229.21635619999142,1000,1000,1000,1000,0,num_3,0.5329993000486866,,27,3,2026-03-05_13h20.53.067,2026A_exp2,2022.2.4,59.93507831723639,
1,0,4.9,0.0,1,0,71,71,84,,,,,229.7650945999776,230.41583979997085,230.41583979997085,230.91746229998535,315,315,230.91746229998535,230.91746229998535,230.91746229998535,230.91746229998535,230.91746229998535,230.91746229998535,230.91746229998535,230.91746229998535,230.91746229998535,231.28321159997722,231.28321159997722,231.28321159997722,231.28321159997722,231.28321159997722,231.28321159997722,231.28321159997722,231.28321159997722,231.28321159997722,0,1,[0.001945100026205182],[0.3665387000073679],231.28321159997722,231.4836551999906,0.0,231.4836551999906,0,0.0,0,1,1000,num_1,0.6422822999884374,,27,3,2026-03-05_13h20.53.067,2026A_exp2,2022.2.4,59.93507831723639,
1000,1,0.0,0.0,1,0,72,72,7,,,,,232.1507962999749,232.80145410000114,232.80145410000114,233.30269489996135,315,45,233.30269489996135,233.30269489996135,233.30269489996135,233.30269489996135,233.30269489996135,233.30269489996135,233.30269489996135,233.30269489996135,233.30269489996135,233.66905909997877,233.66905909997877,233.66905909997877,233.66905909997877,233.66905909997877,233.66905909997877,233.66905909997877,233.66905909997877,233.66905909997877,0,1,[0.0012531999964267015],[0.36708510003518313],233.66905909997877,233.8693322999752,1000,233.8693322999752,1000,1000,1000,1000,1,num_2,0.5594970000092871,,27,3,2026-03-05_13h20.53.067,2026A_exp2,2022.2.4,59.93507831723639,
1,0,0.0,4.9,1,0,73,73,45,,,,,234.45315019995905,235.1141564999707,235.1141564999707,235.6050565999467,45,315,235.6050565999467,235.6050565999467,235.6050565999467,235.6050565999467,235.6050565999467,235.6050565999467,235.6050565999467,235.6050565999467,235.6050565999467,235.9712321999832,235.9712321999832,235.9712321999832,235.9712321999832,235.9712321999832,235.9712321999832,235.9712321999832,235.9712321999832,235.9712321999832,23,0,,,235.9712321999832,236.1715784999542,4.9,236.1715784999542,1,4.9,1,1,1000,num_4,0.8337511999998242,,27,3,2026-03-05_13h20.53.067,2026A_exp2,2022.2.4,59.93507831723639,
1,0,0.0,0.0,1,0,74,74,37,,,,,237.02230129996315,237.67312599997967,237.67312599997967,238.15735689998837,315,315,238.15735689998837,238.15735689998837,238.15735689998837,238.15735689998837,238.15735689998837,238.15735689998837,238.15735689998837,238.15735689998837,238.15735689998837,238.52394829998957,238.52394829998957,238.52394829998957,238.52394829998957,238.52394829998957,238.52394829998957,238.52394829998957,238.52394829998957,238.52394829998957,23,0,,,238.52394829998957,238.72411969996756,0.0,238.72411969996756,0,0.0,0,1,1000,num_1,0.5614858999615535,,27,3,2026-03-05_13h20.53.067,2026A_exp2,2022.2.4,59.93507831723639,
1,0,6.1,0.0,1,0,75,75,13,,,,,239.30788079998456,239.95872429996962,239.95872429996962,240.44820909999544,315,45,240.44820909999544,240.44820909999544,240.44820909999544,240.44820909999544,240.44820909999544,240.44820909999544,240.44820909999544,240.44820909999544,240.44820909999544,240.80958409997402,240.80958409997402,240.80958409997402,240.80958409997402,240.80958409997402,240.80958409997402,240.80958409997402,240.80958409997402,240.80958409997402,8,5,"[0.022094400017522275, 0.09865030000219122, 0.1487220000126399, 0.19886320002842695, 0.34896390000358224]","[0.03210930002387613, 0.13205730001209304, 0.18209760001627728, 0.33218000002671033, 0.36562769999727607]",240.80958409997402,241.00972769997315,0.0,241.00972769997315,0,0.0,0,1,1000,num_1,0.6519459999981336,,27,3,2026-03-05_13h20.53.067,2026A_exp2,2022.2.4,59.93507831723639,
1,0,0.0,0.0,0,0,76,76,2,,,,,241.6938193999813,242.3278012999799,242.3278012999799,242.82875039998908,315,315,242.82875039998908,242.82875039998908,242.82875039998908,242.82875039998908,242.82875039998908,242.82875039998908,242.82875039998908,242.82875039998908,242.82875039998908,243.19513609999558,243.19513609999558,243.19513609999558,243.19513609999558,243.19513609999558,243.19513609999558,243.19513609999558,243.19513609999558,243.19513609999558,7,3,"[0.033443499996792525, 0.2503098000306636, 0.3169826000230387]","[0.21690330002456903, 0.28372220002347603, 0.3673605000367388]",243.19513609999558,243.3955730999587,0.0,243.3955730999587,1,0.0,0,0,1000,num_4,0.7218327000155114,,27,3,2026-03-05_13h20.53.067,2026A_exp2,2022.2.4,59.93507831723639,
1000,1,3.7,3.7,1,0,77,77,40,,,,,244.14636969997082,244.78850789996795,244.78850789996795,245.28120349999517,45,315,245.28120349999517,245.28120349999517,245.28120349999517,245.28120349999517,245.28120349999517,245.28120349999517,245.28120349999517,245.28120349999517,245.28120349999517,245.6476488999906,245.6476488999906,245.6476488999906,245.6476488999906,245.6476488999906,245.6476488999906,245.6476488999906,245.6476488999906,245.6476488999906,1,2,"[0.0012903999886475503, 0.2001913000131026]","[0.16703990002861246, 0.3671160999801941]",245.6476488999906,245.8503368999809,1000,245.8503368999809,1000,1000,1000,1000,1,num_2,0.5703976000077091,,27,3,2026-03-05_13h20.53.067,2026A_exp2,2022.2.4,59.93507831723639,
1000,1,0.0,0.0,1,0,78,78,14,,,,,246.44848129997263,247.099196199968,247.099196199968,247.60030879999977,315,315,247.60030879999977,247.60030879999977,247.60030879999977,247.60030879999977,247.60030879999977,247.60030879999977,247.60030879999977,247.60030879999977,247.60030879999977,247.9500274999882,247.9500274999882,247.9500274999882,247.9500274999882,247.9500274999882,247.9500274999882,247.9500274999882,247.9500274999882,247.9500274999882,0,1,[0.0013002000050619245],[0.3505019000149332],247.9500274999882,248.17535989999305,1000,248.17535989999305,1000,1000,1000,1000,1,num_2,0.5660672999802046,,27,3,2026-03-05_13h20.53.067,2026A_exp2,2022.2.4,59.93507831723639,
1000,1,0.0,0.0,0,0,79,79,69,,,,,248.76763459999347,249.4179099999601,249.4179099999601,249.91936569998506,45,45,249.91936569998506,249.91936569998506,249.91936569998506,249.91936569998506,249.91936569998506,249.91936569998506,249.91936569998506,249.91936569998506,249.91936569998506,250.28556729998672,250.28556729998672,250.28556729998672,250.28556729998672,250.28556729998672,250.28556729998672,250.28556729998672,250.28556729998672,250.28556729998672,23,0,,,250.28556729998672,250.48583479999797,1000,250.48583479999797,1000,1000,1000,1000,0,num_3,0.4796319999732077,,27,3,2026-03-05_13h20.53.067,2026A_exp2,2022.2.4,59.93507831723639,
1,0,4.9,6.1,0,0,80,80,15,,,,,250.98639609996462,251.63698199996725,251.63698199996725,252.1381921999855,315,45,252.1381921999855,252.1381921999855,252.1381921999855,252.1381921999855,252.1381921999855,252.1381921999855,252.1381921999855,252.1381921999855,252.1381921999855,252.4878493999713,252.4878493999713,252.4878493999713,252.4878493999713,252.4878493999713,252.4878493999713,252.4878493999713,252.4878493999713,252.4878493999713,17,5,"[0.0334900000016205, 0.2337722000083886, 0.2837643999955617, 0.31686600000830367, 0.35020869999425486]","[0.050398799998220056, 0.2505692000268027, 0.30051520001143217, 0.3331894000293687, 0.350211400014814]",252.4878493999713,252.68816689995583,4.9,252.7048555999645,1,4.9,1,1,1000,num_4,0.8118419999955222,,27,3,2026-03-05_13h20.53.067,2026A_exp2,2022.2.4,59.93507831723639,
1,0,0.0,4.9,0,0,81,81,71,,,,,253.53876269998727,254.18953029997647,254.18953029997647,254.6753488999675,315,315,254.6753488999675,254.6753488999675,254.6753488999675,254.6753488999675,254.6753488999675,254.6753488999675,254.6753488999675,254.6753488999675,254.6753488999675,255.04045869997935,255.04045869997935,255.04045869997935,255.04045869997935,255.04045869997935,255.04045869997935,255.04045869997935,255.04045869997935,255.04045869997935,20,3,"[0.0020521999686025083, 0.2497218999778852, 0.3164922999567352]","[0.018059599970001727, 0.2663408999796957, 0.33319619996473193]",255.04045869997935,255.24069969996344,0.0,255.24069969996344,0,0.0,0,1,1000,num_1,0.7157661999808624,,27,3,2026-03-05_13h20.53.067,2026A_exp2,2022.2.4,59.93507831723639,
1,0,0.0,0.0,1,0,82,82,43,,,,,255.97452249994967,256.62956069997745,256.62956069997745,257.1253836999531,45,315,257.1253836999531,257.1253836999531,257.1253836999531,257.1253836999531,257.1253836999531,257.1253836999531,257.1253836999531,257.1253836999531,257.1253836999531,257.47605009999825,257.47605009999825,257.47605009999825,257.47605009999825,257.47605009999825,257.47605009999825,257.47605009999825,257.47605009999825,257.47605009999825,20,3,"[0.19701280002482235, 0.28051730000879616, 0.3306070999824442]","[0.2136443000053987, 0.297281600011047, 0.3473991000209935]",257.47605009999825,257.67642659996636,0.0,257.67642659996636,0,0.0,0,1,1000,num_1,0.7122321999631822,,27,3,2026-03-05_13h20.53.067,2026A_exp2,2022.2.4,59.93507831723639,
1,0,0.0,0.0,0,0,83,83,59,,,,,258.4102837999817,259.05488139996305,259.05488139996305,259.54762209998444,45,315,259.54762209998444,259.54762209998444,259.54762209998444,259.54762209998444,259.54762209998444,259.54762209998444,259.54762209998444,259.54762209998444,259.54762209998444,259.9119989000028,259.9119989000028,259.9119989000028,259.9119989000028,259.9119989000028,259.9119989000028,259.9119989000028,259.9119989000028,259.9119989000028,10,5,"[0.0022454000427387655, 0.0993789000203833, 0.18277440004749224, 0.2995039999950677, 0.33282500004861504]","[0.03353430004790425, 0.13272450002841651, 0.23295930004678667, 0.3163806000375189, 0.3663137000403367]",259.9119989000028,260.1121979999589,0.0,260.1121979999589,1,0.0,0,0,1000,num_4,0.6443437999696471,,27,3,2026-03-05_13h20.53.067,2026A_exp2,2022.2.4,59.93507831723639,
1,0,4.9,6.1,1,0,84,84,86,,,,,260.7796895999927,261.43014119996224,261.43014119996224,261.9146650999901,45,315,261.9146650999901,261.9146650999901,261.9146650999901,261.9146650999901,261.9146650999901,261.9146650999901,261.9146650999901,261.9146650999901,261.9146650999901,262.2809891999932,262.2809891999932,262.2809891999932,262.2809891999932,262.2809891999932,262.2809891999932,262.2809891999932,262.2809891999932,262.2809891999932,10,3,"[0.0012024000170640647, 0.15024580003228039, 0.35040789999766275]","[0.06680969998706132, 0.2670481000095606, 0.36729510000441223]",262.2809891999932,262.481192199979,6.1,262.481192199979,1,6.1,1,1,1000,num_4,0.6993907000287436,,27,3,2026-03-05_13h20.53.067,2026A_exp2,2022.2.4,59.93507831723639,
1000,1,0.0,0.0,0,0,85,85,75,,,,,263.1987941999687,263.8492263999651,263.8492263999651,264.350241899956,315,45,264.350241899956,264.350241899956,264.350241899956,264.350241899956,264.350241899956,264.350241899956,264.350241899956,264.350241899956,264.350241899956,264.71640809997916,264.71640809997916,264.71640809997916,264.71640809997916,264.71640809997916,264.71640809997916,264.71640809997916,264.71640809997916,264.71640809997916,0,1,[0.0012678999919444323],[0.3671224999707192],264.71640809997916,264.91888189996826,1000,264.91888189996826,1000,1000,1000,1000,0,num_3,0.9178189999656752,,27,3,2026-03-05_13h20.53.067,2026A_exp2,2022.2.4,59.93507831723639,
0,0,0.0,4.9,0,0,86,86,54,,,,,265.8680725999875,266.5189625999774,266.5189625999774,267.01953859999776,45,45,267.01953859999776,267.01953859999776,267.01953859999776,267.01953859999776,267.01953859999776,267.01953859999776,267.01953859999776,267.01953859999776,267.01953859999776,267.3862027999712,267.3862027999712,267.3862027999712,267.3862027999712,267.3862027999712,267.3862027999712,267.3862027999712,267.3862027999712,267.3862027999712,23,0,,,267.3862027999712,267.5889793999959,4.9,267.5889793999959,1,4.9,1,1,1000,num_4,0.6479922999860719,,27,3,2026-03-05_13h20.53.067,2026A_exp2,2022.2.4,59.93507831723639,
1000,1,0.0,0.0,1,0,87,87,29,,,,,268.25367659999756,268.9043798999628,268.9043798999628,269.3938980999519,315,315,269.3938980999519,269.3938980999519,269.3938980999519,269.3938980999519,269.3938980999519,269.3938980999519,269.3938980999519,269.3938980999519,269.3938980999519,269.7551581999869,269.7551581999869,269.7551581999869,269.7551581999869,269.7551581999869,269.7551581999869,269.7551581999869,269.7551581999869,269.7551581999869,22,1,[0.34898740000789985],[0.3659895000164397],269.7551581999869,269.95706729998346,1000,269.95706729998346,1000,1000,1000,1000,0,num_3,0.5760432999813929,,27,3,2026-03-05_13h20.53.067,2026A_exp2,2022.2.4,59.93507831723639,
1,0,0.0,0.0,1,0,88,88,18,,,,,270.55571190000046,271.2067096999963,271.2067096999963,271.7077272000024,45,45,271.7077272000024,271.7077272000024,271.7077272000024,271.7077272000024,271.7077272000024,271.7077272000024,271.7077272000024,271.7077272000024,271.7077272000024,272.05747770000016,272.05747770000016,272.05747770000016,272.05747770000016,272.05747770000016,272.05747770000016,272.05747770000016,272.05747770000016,272.05747770000016,22,0,,,272.05747770000016,272.2576496999827,0.0,272.2576496999827,1,0.0,0,0,1000,num_4,0.8594723000423983,,27,3,2026-03-05_13h20.53.067,2026A_exp2,2022.2.4,59.93507831723639,
1000,1,3.7,0.0,1,0,89,89,79,,,,,273.14175079995766,273.7926019000006,273.7926019000006,274.27702119998867,315,45,274.27702119998867,274.27702119998867,274.27702119998867,274.27702119998867,274.27702119998867,274.27702119998867,274.27702119998867,274.27702119998867,274.27702119998867,274.64332799997646,274.64332799997646,274.64332799997646,274.64332799997646,274.64332799997646,274.64332799997646,274.64332799997646,274.64332799997646,274.64332799997646,16,6,"[0.0012982000480405986, 0.11686460004420951, 0.15032480005174875, 0.2336990000330843, 0.2670547000016086, 0.3671771000372246]","[0.03348740004003048, 0.13358360005076975, 0.18375369999557734, 0.25035940000088885, 0.3004633000236936, 0.36718160001328215]",274.64332799997646,274.8434712999733,1000,274.8434712999733,1000,1000,1000,1000,0,num_3,0.5855103000067174,,27,3,2026-03-05_13h20.53.067,2026A_exp2,2022.2.4,59.93507831723639,
,,,,,,,,,,,,,,,,,,,,,,,,,,,,,,,,,,,,,,,,,,,,,,,,,,,,275.4533620000002,,,,,,,
