validity,detectorcomp,contrastCW,contrastCCW,precueCWorCCW,block_80trials.thisRepN,block_80trials.thisTrialN,block_80trials.thisN,block_80trials.thisIndex,etRecord.started,etRecord.stopped,text.started,text.stopped,text_4.started,text_4.stopped,text_6.started,text_6.stopped,oriCW,oriCCW,roi_2.started,grating_UR.started,grating_UL.started,grating_LR.started,grating_LL.started,noise_UR.started,noise_UL.started,noise_LR.started,noise_LL.started,roi_2.stopped,grating_UR.stopped,grating_UL.stopped,grating_LR.stopped,grating_LL.stopped,noise_UR.stopped,noise_UL.stopped,noise_LR.stopped,noise_LL.stopped,outframe,roi_2.numLooks,roi_2.timesOn,roi_2.timesOff,text_2.started,text_2.stopped,probedcontrast,key_resp.started,respdetect,relevantContrast,correctDetect,TorFdetect,respCWorCCW,key_resp.keys,key_resp.rt,feedback_display_.started,participantNo,blockNo,date,expName,psychopyVersion,frameRate,
1000,1,0.0,3.7,1,0,0,0,75,3.530003596097231e-05,3.530003596097231e-05,51.204982900002506,53.208787799987476,53.208787799987476,53.843857800005935,53.843857800005935,54.35942849999992,315,45,54.35942849999992,54.35942849999992,54.35942849999992,54.35942849999992,54.35942849999992,54.35942849999992,54.35942849999992,54.35942849999992,54.35942849999992,54.7084117999766,54.7084117999766,54.7084117999766,54.7084117999766,54.7084117999766,54.7084117999766,54.7084117999766,54.7084117999766,54.7084117999766,23,0,,,54.7084117999766,54.91542879998451,1000,54.91542879998451,1000,1000,1000,1000,1,num_2,0.40340150002157316,,25,8,2026-03-04_17h51.07.365,2026A_exp2,2022.2.4,60.068285629591884,
1,0,0.0,3.7,1,0,1,1,25,,,,,55.34219459997257,55.97623540001223,55.97623540001223,56.47732619999442,45,45,56.47732619999442,56.47732619999442,56.47732619999442,56.47732619999442,56.47732619999442,56.47732619999442,56.47732619999442,56.47732619999442,56.47732619999442,56.84374520002166,56.84374520002166,56.84374520002166,56.84374520002166,56.84374520002166,56.84374520002166,56.84374520002166,56.84374520002166,56.84374520002166,23,0,,,56.84374520002166,57.044060299987905,3.7,57.044060299987905,1,3.7,1,1,1000,num_4,0.07516830001259223,,25,8,2026-03-04_17h51.07.365,2026A_exp2,2022.2.4,60.068285629591884,
1000,1,0.0,6.1,1,0,2,2,3,,,,,57.14403029996902,57.796298899978865,57.796298899978865,58.28470189997461,45,315,58.28470189997461,58.28470189997461,58.28470189997461,58.28470189997461,58.28470189997461,58.28470189997461,58.28470189997461,58.28470189997461,58.28470189997461,58.64557260001311,58.64557260001311,58.64557260001311,58.64557260001311,58.64557260001311,58.64557260001311,58.64557260001311,58.64557260001311,58.64557260001311,23,0,,,58.64557260001311,58.84792899998138,1000,58.84792899998138,1000,1000,1000,1000,0,num_3,0.007694300031289458,,25,8,2026-03-04_17h51.07.365,2026A_exp2,2022.2.4,60.068285629591884,
1000,1,0.0,3.7,1,0,3,3,43,,,,,58.87921450001886,59.52977429999737,59.52977429999737,60.03094399999827,315,315,60.03094399999827,60.03094399999827,60.03094399999827,60.03094399999827,60.03094399999827,60.03094399999827,60.03094399999827,60.03094399999827,60.03094399999827,60.380785099987406,60.380785099987406,60.380785099987406,60.380785099987406,60.380785099987406,60.380785099987406,60.380785099987406,60.380785099987406,60.380785099987406,21,1,[0.08357680001063272],[0.10035670001525432],60.380785099987406,60.58260959998006,1000,60.59771080000792,1000,1000,1000,1000,1,num_2,0.15359879995230585,,25,8,2026-03-04_17h51.07.365,2026A_exp2,2022.2.4,60.068285629591884,
1000,1,4.9,0.0,0,0,4,4,20,,,,,60.78131150000263,61.43153359997086,61.43153359997086,61.93286760000046,45,315,61.93286760000046,61.93286760000046,61.93286760000046,61.93286760000046,61.93286760000046,61.93286760000046,61.93286760000046,61.93286760000046,61.93286760000046,62.28271990001667,62.28271990001667,62.28271990001667,62.28271990001667,62.28271990001667,62.28271990001667,62.28271990001667,62.28271990001667,62.28271990001667,0,1,[0.0012092999531887472],[0.3503583999699913],62.28271990001667,62.482801000005566,1000,62.482801000005566,1000,1000,1000,1000,0,num_3,0.41240380000090227,,25,8,2026-03-04_17h51.07.365,2026A_exp2,2022.2.4,60.068285629591884,
1,0,3.7,6.1,0,0,5,5,55,,,,,62.91673569998238,63.567250000021886,63.567250000021886,64.0684537999914,45,45,64.0684537999914,64.0684537999914,64.0684537999914,64.0684537999914,64.0684537999914,64.0684537999914,64.0684537999914,64.0684537999914,64.0684537999914,64.43488070002059,64.43488070002059,64.43488070002059,64.43488070002059,64.43488070002059,64.43488070002059,64.43488070002059,64.43488070002059,64.43488070002059,23,0,,,64.43488070002059,64.63489430001937,3.7,64.63489430001937,0,3.7,1,0,1000,num_1,0.7394558999803849,,25,8,2026-03-04_17h51.07.365,2026A_exp2,2022.2.4,60.068285629591884,
1000,1,0.0,4.9,0,0,6,6,27,,,,,65.4023359999992,66.05307620001258,66.05307620001258,66.53736299998127,45,45,66.53736299998127,66.53736299998127,66.53736299998127,66.53736299998127,66.53736299998127,66.53736299998127,66.53736299998127,66.53736299998127,66.53736299998127,66.90398389997426,66.90398389997426,66.90398389997426,66.90398389997426,66.90398389997426,66.90398389997426,66.90398389997426,66.90398389997426,66.90398389997426,23,0,,,66.90398389997426,67.10540100000799,1000,67.10540100000799,1000,1000,1000,1000,1,num_2,0.19723099999828264,,25,8,2026-03-04_17h51.07.365,2026A_exp2,2022.2.4,60.068285629591884,
1000,1,6.1,0.0,0,0,7,7,80,,,,,67.32089590001851,67.97171640000306,67.97171640000306,68.47269680001773,45,45,68.47269680001773,68.47269680001773,68.47269680001773,68.47269680001773,68.47269680001773,68.47269680001773,68.47269680001773,68.47269680001773,68.47269680001773,68.8391606999794,68.8391606999794,68.8391606999794,68.8391606999794,68.8391606999794,68.8391606999794,68.8391606999794,68.8391606999794,68.8391606999794,23,0,,,68.8391606999794,69.04159009997966,1000,69.04159009997966,1000,1000,1000,1000,0,num_3,0.6779680000036024,,25,8,2026-03-04_17h51.07.365,2026A_exp2,2022.2.4,60.068285629591884,
1000,1,0.0,0.0,1,0,8,8,40,,,,,69.74024209997151,70.39076400001068,70.39076400001068,70.87496129999636,315,315,70.87496129999636,70.87496129999636,70.87496129999636,70.87496129999636,70.87496129999636,70.87496129999636,70.87496129999636,70.87496129999636,70.87496129999636,71.24172769999132,71.24172769999132,71.24172769999132,71.24172769999132,71.24172769999132,71.24172769999132,71.24172769999132,71.24172769999132,71.24172769999132,23,0,,,71.24172769999132,71.44347190001281,1000,71.44347190001281,1000,1000,1000,1000,1,num_2,0.570850900025107,,25,8,2026-03-04_17h51.07.365,2026A_exp2,2022.2.4,60.068285629591884,
1000,1,3.7,3.7,1,0,9,9,88,,,,,72.04232369997771,72.69305910001276,72.69305910001276,73.19410550000612,45,315,73.19410550000612,73.19410550000612,73.19410550000612,73.19410550000612,73.19410550000612,73.19410550000612,73.19410550000612,73.19410550000612,73.19410550000612,73.560608699976,73.560608699976,73.560608699976,73.560608699976,73.560608699976,73.560608699976,73.560608699976,73.560608699976,73.560608699976,23,0,,,73.560608699976,73.76258360000793,1000,73.76258360000793,1000,1000,1000,1000,1,num_2,0.2682895000325516,,25,8,2026-03-04_17h51.07.365,2026A_exp2,2022.2.4,60.068285629591884,
0,0,3.7,6.1,1,0,10,10,17,,,,,74.04852479998954,74.69616639998276,74.69616639998276,75.20117979997303,45,45,75.20117979997303,75.20117979997303,75.20117979997303,75.20117979997303,75.20117979997303,75.20117979997303,75.20117979997303,75.20117979997303,75.20117979997303,75.56276810000418,75.56276810000418,75.56276810000418,75.56276810000418,75.56276810000418,75.56276810000418,75.56276810000418,75.56276810000418,75.56276810000418,23,0,,,75.56276810000418,75.76278639998054,3.7,75.76278639998054,1,3.7,1,1,1000,num_4,0.06791449995944276,,25,8,2026-03-04_17h51.07.365,2026A_exp2,2022.2.4,60.068285629591884,
1000,1,0.0,4.9,0,0,11,11,9,,,,,75.84608390001813,76.49686389998533,76.49686389998533,76.99797460000264,315,45,76.99797460000264,76.99797460000264,76.99797460000264,76.99797460000264,76.99797460000264,76.99797460000264,76.99797460000264,76.99797460000264,76.99797460000264,77.34779680002248,77.34779680002248,77.34779680002248,77.34779680002248,77.34779680002248,77.34779680002248,77.34779680002248,77.34779680002248,77.34779680002248,22,0,,,77.34779680002248,77.54969690000871,1000,77.54969690000871,1000,1000,1000,1000,1,num_2,0.5528597999946214,,25,8,2026-03-04_17h51.07.365,2026A_exp2,2022.2.4,60.068285629591884,
1000,1,0.0,0.0,1,0,12,12,39,,,,,78.13167590001831,78.78278880001744,78.78278880001744,79.2835832000128,45,315,79.2835832000128,79.2835832000128,79.2835832000128,79.2835832000128,79.2835832000128,79.2835832000128,79.2835832000128,79.2835832000128,79.2835832000128,79.64981440000702,79.64981440000702,79.64981440000702,79.64981440000702,79.64981440000702,79.64981440000702,79.64981440000702,79.64981440000702,79.64981440000702,23,0,,,79.64981440000702,79.85217540001031,1000,79.85217540001031,1000,1000,1000,1000,1,num_2,0.12268289999337867,,25,8,2026-03-04_17h51.07.365,2026A_exp2,2022.2.4,60.068285629591884,
1000,1,3.7,0.0,1,0,13,13,33,,,,,80.00057679996826,80.65109739999752,80.65109739999752,81.15206870000111,315,45,81.15206870000111,81.15206870000111,81.15206870000111,81.15206870000111,81.15206870000111,81.15206870000111,81.15206870000111,81.15206870000111,81.15206870000111,81.51849829999264,81.51849829999264,81.51849829999264,81.51849829999264,81.51849829999264,81.51849829999264,81.51849829999264,81.51849829999264,81.51849829999264,23,0,,,81.51849829999264,81.72074610000709,1000,81.72074610000709,1000,1000,1000,1000,1,num_2,0.21342799998819828,,25,8,2026-03-04_17h51.07.365,2026A_exp2,2022.2.4,60.068285629591884,
1,0,6.1,0.0,1,0,14,14,54,,,,,81.95211680000648,82.6029340000241,82.6029340000241,83.10411740001291,45,45,83.10411740001291,83.10411740001291,83.10411740001291,83.10411740001291,83.10411740001291,83.10411740001291,83.10411740001291,83.10411740001291,83.10411740001291,83.47052959998837,83.47052959998837,83.47052959998837,83.47052959998837,83.47052959998837,83.47052959998837,83.47052959998837,83.47052959998837,83.47052959998837,23,0,,,83.47052959998837,83.67065260000527,0.0,83.67065260000527,0,0.0,0,1,1000,num_1,0.6887295999913476,,25,8,2026-03-04_17h51.07.365,2026A_exp2,2022.2.4,60.068285629591884,
1000,1,0.0,6.1,0,0,15,15,83,,,,,84.38799850002397,85.03863829997135,85.03863829997135,85.52324180002324,315,45,85.52324180002324,85.52324180002324,85.52324180002324,85.52324180002324,85.52324180002324,85.52324180002324,85.52324180002324,85.52324180002324,85.52324180002324,85.88973619998433,85.88973619998433,85.88973619998433,85.88973619998433,85.88973619998433,85.88973619998433,85.88973619998433,85.88973619998433,85.88973619998433,23,0,,,85.88973619998433,86.09199759998592,1000,86.09199759998592,1000,1000,1000,1000,0,num_3,0.1701562000089325,,25,8,2026-03-04_17h51.07.365,2026A_exp2,2022.2.4,60.068285629591884,
1,0,4.9,0.0,0,0,16,16,87,,,,,86.28981960000237,86.9406085999799,86.9406085999799,87.42513180000242,315,315,87.42513180000242,87.42513180000242,87.42513180000242,87.42513180000242,87.42513180000242,87.42513180000242,87.42513180000242,87.42513180000242,87.42513180000242,87.79160840000259,87.79160840000259,87.79160840000259,87.79160840000259,87.79160840000259,87.79160840000259,87.79160840000259,87.79160840000259,87.79160840000259,23,0,,,87.79160840000259,87.99163990002126,4.9,87.99163990002126,0,4.9,1,0,1000,num_1,0.6548167999717407,,25,8,2026-03-04_17h51.07.365,2026A_exp2,2022.2.4,60.068285629591884,
1000,1,3.7,0.0,1,0,17,17,21,,,,,88.67592000000877,89.32639299996663,89.32639299996663,89.81097559997579,45,45,89.81097559997579,89.81097559997579,89.81097559997579,89.81097559997579,89.81097559997579,89.81097559997579,89.81097559997579,89.81097559997579,89.81097559997579,90.17716500000097,90.17716500000097,90.17716500000097,90.17716500000097,90.17716500000097,90.17716500000097,90.17716500000097,90.17716500000097,90.17716500000097,23,0,,,90.17716500000097,90.3789729999844,1000,90.3789729999844,1000,1000,1000,1000,0,num_3,0.22810359997674823,,25,8,2026-03-04_17h51.07.365,2026A_exp2,2022.2.4,60.068285629591884,
1000,1,4.9,0.0,0,0,18,18,78,,,,,90.62758949998533,91.27823840000201,91.27823840000201,91.77931700000772,315,315,91.77931700000772,91.77931700000772,91.77931700000772,91.77931700000772,91.77931700000772,91.77931700000772,91.77931700000772,91.77931700000772,91.77931700000772,92.14585610001814,92.14585610001814,92.14585610001814,92.14585610001814,92.14585610001814,92.14585610001814,92.14585610001814,92.14585610001814,92.14585610001814,23,0,,,92.14585610001814,92.34795650001615,1000,92.34795650001615,1000,1000,1000,1000,0,num_3,0.18713360000401735,,25,8,2026-03-04_17h51.07.365,2026A_exp2,2022.2.4,60.068285629591884,
1000,1,0.0,0.0,1,0,19,19,71,,,,,92.56291069998406,93.21364490000997,93.21364490000997,93.71463190001668,45,315,93.71463190001668,93.71463190001668,93.71463190001668,93.71463190001668,93.71463190001668,93.71463190001668,93.71463190001668,93.71463190001668,93.71463190001668,94.08109160000458,94.08109160000458,94.08109160000458,94.08109160000458,94.08109160000458,94.08109160000458,94.08109160000458,94.08109160000458,94.08109160000458,23,0,,,94.08109160000458,94.28321909997612,1000,94.28321909997612,1000,1000,1000,1000,1,num_2,0.2755689999903552,,25,8,2026-03-04_17h51.07.365,2026A_exp2,2022.2.4,60.068285629591884,
1000,1,6.1,0.0,0,0,20,20,58,,,,,94.58178730000509,95.23229060001904,95.23229060001904,95.71677419997286,45,45,95.71677419997286,95.71677419997286,95.71677419997286,95.71677419997286,95.71677419997286,95.71677419997286,95.71677419997286,95.71677419997286,95.71677419997286,96.08319839998148,96.08319839998148,96.08319839998148,96.08319839998148,96.08319839998148,96.08319839998148,96.08319839998148,96.08319839998148,96.08319839998148,23,0,,,96.08319839998148,96.28518609999446,1000,96.28518609999446,1000,1000,1000,1000,0,num_3,0.15396309999050573,,25,8,2026-03-04_17h51.07.365,2026A_exp2,2022.2.4,60.068285629591884,
1000,1,4.9,0.0,1,0,21,21,7,,,,,96.46679259999655,97.12841339997249,97.12841339997249,97.61840370000573,45,315,97.61840370000573,97.61840370000573,97.61840370000573,97.61840370000573,97.61840370000573,97.61840370000573,97.61840370000573,97.61840370000573,97.61840370000573,97.98498960002325,97.98498960002325,97.98498960002325,97.98498960002325,97.98498960002325,97.98498960002325,97.98498960002325,97.98498960002325,97.98498960002325,23,0,,,97.98498960002325,98.18703999998979,1000,98.18703999998979,1000,1000,1000,1000,1,num_2,0.10737400001380593,,25,8,2026-03-04_17h51.07.365,2026A_exp2,2022.2.4,60.068285629591884,
1,0,0.0,4.9,0,0,22,22,35,,,,,98.31861179997213,98.969318700023,98.969318700023,99.47035780001897,45,315,99.47035780001897,99.47035780001897,99.47035780001897,99.47035780001897,99.47035780001897,99.47035780001897,99.47035780001897,99.47035780001897,99.47035780001897,99.83647490001749,99.83647490001749,99.83647490001749,99.83647490001749,99.83647490001749,99.83647490001749,99.83647490001749,99.83647490001749,99.83647490001749,23,0,,,99.83647490001749,100.037073399988,0.0,100.037073399988,1,0.0,0,0,1000,num_4,0.6501195000018924,,25,8,2026-03-04_17h51.07.365,2026A_exp2,2022.2.4,60.068285629591884,
1,0,6.1,0.0,1,0,23,23,38,,,,,100.70421599998372,101.3550785999978,101.3550785999978,101.83943549997639,45,45,101.83943549997639,101.83943549997639,101.83943549997639,101.83943549997639,101.83943549997639,101.83943549997639,101.83943549997639,101.83943549997639,101.83943549997639,102.20591489999788,102.20591489999788,102.20591489999788,102.20591489999788,102.20591489999788,102.20591489999788,102.20591489999788,102.20591489999788,102.20591489999788,23,0,,,102.20591489999788,102.40600830002222,0.0,102.40600830002222,0,0.0,0,1,1000,num_1,0.44091439998010173,,25,8,2026-03-04_17h51.07.365,2026A_exp2,2022.2.4,60.068285629591884,
1,0,0.0,0.0,1,0,24,24,53,,,,,102.87340500002028,103.50711140001658,103.50711140001658,104.00824340002146,315,45,104.00824340002146,104.00824340002146,104.00824340002146,104.00824340002146,104.00824340002146,104.00824340002146,104.00824340002146,104.00824340002146,104.00824340002146,104.37475179997273,104.37475179997273,104.37475179997273,104.37475179997273,104.37475179997273,104.37475179997273,104.37475179997273,104.37475179997273,104.37475179997273,23,0,,,104.37475179997273,104.57481780002126,0.0,104.57481780002126,0,0.0,0,1,1000,num_1,0.28008160000899807,,25,8,2026-03-04_17h51.07.365,2026A_exp2,2022.2.4,60.068285629591884,
1000,1,3.7,0.0,1,0,25,25,44,,,,,104.87510439998005,105.5257865000167,105.5257865000167,106.01037079998059,45,315,106.01037079998059,106.01037079998059,106.01037079998059,106.01037079998059,106.01037079998059,106.01037079998059,106.01037079998059,106.01037079998059,106.01037079998059,106.37674989999505,106.37674989999505,106.37674989999505,106.37674989999505,106.37674989999505,106.37674989999505,106.37674989999505,106.37674989999505,106.37674989999505,23,0,,,106.37674989999505,106.57893760001753,1000,106.57893760001753,1000,1000,1000,1000,0,num_3,0.23526019998826087,,25,8,2026-03-04_17h51.07.365,2026A_exp2,2022.2.4,60.068285629591884,
0,0,0.0,0.0,0,0,26,26,69,,,,,106.84396839997498,107.49453769996762,107.49453769996762,107.97898279997753,45,315,107.97898279997753,107.97898279997753,107.97898279997753,107.97898279997753,107.97898279997753,107.97898279997753,107.97898279997753,107.97898279997753,107.97898279997753,108.34540449996712,108.34540449996712,108.34540449996712,108.34540449996712,108.34540449996712,108.34540449996712,108.34540449996712,108.34540449996712,108.34540449996712,23,0,,,108.34540449996712,108.54544800001895,0.0,108.54544800001895,1,0.0,0,0,1000,num_4,0.4935496000107378,,25,8,2026-03-04_17h51.07.365,2026A_exp2,2022.2.4,60.068285629591884,
1000,1,6.1,0.0,1,0,27,27,79,,,,,109.06261700001778,109.71333579998463,109.71333579998463,110.19788809999591,45,45,110.19788809999591,110.19788809999591,110.19788809999591,110.19788809999591,110.19788809999591,110.19788809999591,110.19788809999591,110.19788809999591,110.19788809999591,110.56428039999446,110.56428039999446,110.56428039999446,110.56428039999446,110.56428039999446,110.56428039999446,110.56428039999446,110.56428039999446,110.56428039999446,23,0,,,110.56428039999446,110.7662192999851,1000,110.7662192999851,1000,1000,1000,1000,1,num_2,0.20017769996775314,,25,8,2026-03-04_17h51.07.365,2026A_exp2,2022.2.4,60.068285629591884,
1,0,6.1,0.0,0,0,28,28,24,,,,,110.9981139000156,111.64835099998163,111.64835099998163,112.13303339999402,45,315,112.13303339999402,112.13303339999402,112.13303339999402,112.13303339999402,112.13303339999402,112.13303339999402,112.13303339999402,112.13303339999402,112.13303339999402,112.49949359998573,112.49949359998573,112.49949359998573,112.49949359998573,112.49949359998573,112.49949359998573,112.49949359998573,112.49949359998573,112.49949359998573,23,0,,,112.49949359998573,112.69975829997566,6.1,112.69975829997566,0,6.1,1,0,1000,num_1,0.2757702000089921,,25,8,2026-03-04_17h51.07.365,2026A_exp2,2022.2.4,60.068285629591884,
1000,1,6.1,4.9,1,0,29,29,76,,,,,112.99993749998976,113.65066639997531,113.65066639997531,114.13505859998986,45,315,114.13505859998986,114.13505859998986,114.13505859998986,114.13505859998986,114.13505859998986,114.13505859998986,114.13505859998986,114.13505859998986,114.13505859998986,114.50151540001389,114.50151540001389,114.50151540001389,114.50151540001389,114.50151540001389,114.50151540001389,114.50151540001389,114.50151540001389,114.50151540001389,23,0,,,114.50151540001389,114.70423590001883,1000,114.70423590001883,1000,1000,1000,1000,1,num_2,0.07022819999838248,,25,8,2026-03-04_17h51.07.365,2026A_exp2,2022.2.4,60.068285629591884,
1000,1,0.0,0.0,0,0,30,30,5,,,,,114.80170120002003,115.45247060002293,115.45247060002293,115.95358169998508,45,45,115.95358169998508,115.95358169998508,115.95358169998508,115.95358169998508,115.95358169998508,115.95358169998508,115.95358169998508,115.95358169998508,115.95358169998508,116.30328200000804,116.30328200000804,116.30328200000804,116.30328200000804,116.30328200000804,116.30328200000804,116.30328200000804,116.30328200000804,116.30328200000804,22,0,,,116.30328200000804,116.50524520000909,1000,116.50524520000909,1000,1000,1000,1000,0,num_3,0.13392860000021756,,25,8,2026-03-04_17h51.07.365,2026A_exp2,2022.2.4,60.068285629591884,
1000,1,6.1,0.0,0,0,31,31,8,,,,,116.6702506999718,117.32085840002401,117.32085840002401,117.82232679997105,45,315,117.82232679997105,117.82232679997105,117.82232679997105,117.82232679997105,117.82232679997105,117.82232679997105,117.82232679997105,117.82232679997105,117.82232679997105,118.17180949996691,118.17180949996691,118.17180949996691,118.17180949996691,118.17180949996691,118.17180949996691,118.17180949996691,118.17180949996691,118.17180949996691,22,0,,,118.17180949996691,118.37411550001707,1000,118.37411550001707,1000,1000,1000,1000,0,num_3,0.04819899995345622,,25,8,2026-03-04_17h51.07.365,2026A_exp2,2022.2.4,60.068285629591884,
1000,1,0.0,0.0,1,0,32,32,42,,,,,118.43860090000089,119.0893730999669,119.0893730999669,119.59054579999065,315,315,119.59054579999065,119.59054579999065,119.59054579999065,119.59054579999065,119.59054579999065,119.59054579999065,119.59054579999065,119.59054579999065,119.59054579999065,119.94028470001649,119.94028470001649,119.94028470001649,119.94028470001649,119.94028470001649,119.94028470001649,119.94028470001649,119.94028470001649,119.94028470001649,22,0,,,119.94028470001649,120.14061329996912,1000,120.14061329996912,1000,1000,1000,1000,0,num_3,0.15440480003599077,,25,8,2026-03-04_17h51.07.365,2026A_exp2,2022.2.4,60.068285629591884,
1000,1,4.9,4.9,1,0,33,33,85,,,,,120.32409229996847,120.97451550001279,120.97451550001279,121.47561279998627,45,45,121.47561279998627,121.47561279998627,121.47561279998627,121.47561279998627,121.47561279998627,121.47561279998627,121.47561279998627,121.47561279998627,121.47561279998627,121.82544079999207,121.82544079999207,121.82544079999207,121.82544079999207,121.82544079999207,121.82544079999207,121.82544079999207,121.82544079999207,121.82544079999207,22,0,,,121.82544079999207,122.02766109997174,1000,122.02766109997174,1000,1000,1000,1000,0,num_3,0.0826680000172928,,25,8,2026-03-04_17h51.07.365,2026A_exp2,2022.2.4,60.068285629591884,
1000,1,4.9,4.9,1,0,34,34,26,,,,,122.12581350002438,122.7764188000001,122.7764188000001,123.2775973000098,45,315,123.2775973000098,123.2775973000098,123.2775973000098,123.2775973000098,123.2775973000098,123.2775973000098,123.2775973000098,123.2775973000098,123.2775973000098,123.62724329996854,123.62724329996854,123.62724329996854,123.62724329996854,123.62724329996854,123.62724329996854,123.62724329996854,123.62724329996854,123.62724329996854,22,0,,,123.62724329996854,123.82888320001075,1000,123.8443077999982,1000,1000,1000,1000,1,num_2,0.05867860000580549,,25,8,2026-03-04_17h51.07.365,2026A_exp2,2022.2.4,60.068285629591884,
1,0,0.0,0.0,0,0,35,35,29,,,,,123.92731840000488,124.5783078999957,124.5783078999957,125.07946119998815,45,45,125.07946119998815,125.07946119998815,125.07946119998815,125.07946119998815,125.07946119998815,125.07946119998815,125.07946119998815,125.07946119998815,125.07946119998815,125.44579169998178,125.44579169998178,125.44579169998178,125.44579169998178,125.44579169998178,125.44579169998178,125.44579169998178,125.44579169998178,125.44579169998178,23,0,,,125.44579169998178,125.64601630001562,0.0,125.64601630001562,1,0.0,0,0,1000,num_4,0.16838380001718178,,25,8,2026-03-04_17h51.07.365,2026A_exp2,2022.2.4,60.068285629591884,
1,0,3.7,0.0,1,0,36,36,59,,,,,125.84616289997939,126.49695080000674,126.49695080000674,126.9813460999867,315,45,126.9813460999867,126.9813460999867,126.9813460999867,126.9813460999867,126.9813460999867,126.9813460999867,126.9813460999867,126.9813460999867,126.9813460999867,127.34778790001292,127.34778790001292,127.34778790001292,127.34778790001292,127.34778790001292,127.34778790001292,127.34778790001292,127.34778790001292,127.34778790001292,23,0,,,127.34778790001292,127.5476503999671,0.0,127.5476503999671,1,0.0,0,0,1000,num_4,0.0748044999781996,,25,8,2026-03-04_17h51.07.365,2026A_exp2,2022.2.4,60.068285629591884,
1000,1,3.7,4.9,0,0,37,37,13,,,,,127.64787649997743,128.29875289998017,128.29875289998017,128.78310210001655,315,45,128.78310210001655,128.78310210001655,128.78310210001655,128.78310210001655,128.78310210001655,128.78310210001655,128.78310210001655,128.78310210001655,128.78310210001655,129.1494731999701,129.1494731999701,129.1494731999701,129.1494731999701,129.1494731999701,129.1494731999701,129.1494731999701,129.1494731999701,129.1494731999701,23,0,,,129.1494731999701,129.35142489999998,1000,129.35142489999998,1000,1000,1000,1000,0,num_3,0.05492269998649135,,25,8,2026-03-04_17h51.07.365,2026A_exp2,2022.2.4,60.068285629591884,
1000,1,4.9,0.0,1,0,38,38,28,,,,,129.43288490001578,130.0838832000154,130.0838832000154,130.58485280000605,315,315,130.58485280000605,130.58485280000605,130.58485280000605,130.58485280000605,130.58485280000605,130.58485280000605,130.58485280000605,130.58485280000605,130.58485280000605,130.93452449998586,130.93452449998586,130.93452449998586,130.93452449998586,130.93452449998586,130.93452449998586,130.93452449998586,130.93452449998586,130.93452449998586,22,0,,,130.93452449998586,131.1366882000002,1000,131.1366882000002,1000,1000,1000,1000,1,num_2,0.17450750002171844,,25,8,2026-03-04_17h51.07.365,2026A_exp2,2022.2.4,60.068285629591884,
1,0,0.0,3.7,0,0,39,39,1,,,,,131.33501249999972,131.98572160000913,131.98572160000913,132.4868512999965,45,315,132.4868512999965,132.4868512999965,132.4868512999965,132.4868512999965,132.4868512999965,132.4868512999965,132.4868512999965,132.4868512999965,132.4868512999965,132.83652989997063,132.83652989997063,132.83652989997063,132.83652989997063,132.83652989997063,132.83652989997063,132.83652989997063,132.83652989997063,132.83652989997063,22,0,,,132.83652989997063,133.03662550001172,0.0,133.03662550001172,0,0.0,0,1,1000,num_1,0.15459290001308545,,25,8,2026-03-04_17h51.07.365,2026A_exp2,2022.2.4,60.068285629591884,
1000,1,6.1,4.9,0,0,40,40,77,,,,,133.2200752000208,133.8706151000224,133.8706151000224,134.355315599998,315,315,134.355315599998,134.355315599998,134.355315599998,134.355315599998,134.355315599998,134.355315599998,134.355315599998,134.355315599998,134.355315599998,134.72169229999417,134.72169229999417,134.72169229999417,134.72169229999417,134.72169229999417,134.72169229999417,134.72169229999417,134.72169229999417,134.72169229999417,15,5,"[0.0016409000381827354, 0.09984169999370351, 0.18333790003089234, 0.23344270000234246, 0.2668402999988757]","[0.06646960001671687, 0.11664570000721142, 0.2167718000127934, 0.249962100002449, 0.28335470001911744]",134.72169229999417,134.94269820000045,1000,134.94269820000045,1000,1000,1000,1000,1,num_2,0.31195690005552024,,25,8,2026-03-04_17h51.07.365,2026A_exp2,2022.2.4,60.068285629591884,
1000,1,6.1,3.7,0,0,41,41,61,,,,,135.27223329996923,135.92287800001213,135.92287800001213,136.42397399997571,315,45,136.42397399997571,136.42397399997571,136.42397399997571,136.42397399997571,136.42397399997571,136.42397399997571,136.42397399997571,136.42397399997571,136.42397399997571,136.790531000006,136.790531000006,136.790531000006,136.790531000006,136.790531000006,136.790531000006,136.790531000006,136.790531000006,136.790531000006,23,0,,,136.790531000006,136.99252560001332,1000,136.99252560001332,1000,1000,1000,1000,1,num_2,0.12690859998110682,,25,8,2026-03-04_17h51.07.365,2026A_exp2,2022.2.4,60.068285629591884,
1000,1,0.0,0.0,1,0,42,42,62,,,,,137.1409341999679,137.7914881000179,137.7914881000179,138.29266099998495,45,45,138.29266099998495,138.29266099998495,138.29266099998495,138.29266099998495,138.29266099998495,138.29266099998495,138.29266099998495,138.29266099998495,138.29266099998495,138.6590974999708,138.6590974999708,138.6590974999708,138.6590974999708,138.6590974999708,138.6590974999708,138.6590974999708,138.6590974999708,138.6590974999708,13,3,"[0.05022540001664311, 0.21698929998092353, 0.350605399988126]","[0.06682860001455992, 0.3337438000016846, 0.36723640002310276]",138.6590974999708,138.8611962000141,1000,138.8611962000141,1000,1000,1000,1000,1,num_2,0.13840909994905815,,25,8,2026-03-04_17h51.07.365,2026A_exp2,2022.2.4,60.068285629591884,
1000,1,4.9,4.9,0,0,43,43,34,,,,,139.0261732999934,139.6767713999725,139.6767713999725,140.17790710000554,315,315,140.17790710000554,140.17790710000554,140.17790710000554,140.17790710000554,140.17790710000554,140.17790710000554,140.17790710000554,140.17790710000554,140.17790710000554,140.5442086000112,140.5442086000112,140.5442086000112,140.5442086000112,140.5442086000112,140.5442086000112,140.5442086000112,140.5442086000112,140.5442086000112,23,0,,,140.5442086000112,140.7460736000212,1000,140.7460736000212,1000,1000,1000,1000,1,num_2,0.28549429995473474,,25,8,2026-03-04_17h51.07.365,2026A_exp2,2022.2.4,60.068285629591884,
1,0,6.1,3.7,0,0,44,44,86,,,,,141.0614598999964,141.7121185999713,141.7121185999713,142.21325580001576,315,45,142.21325580001576,142.21325580001576,142.21325580001576,142.21325580001576,142.21325580001576,142.21325580001576,142.21325580001576,142.21325580001576,142.21325580001576,142.56295390002197,142.56295390002197,142.56295390002197,142.56295390002197,142.56295390002197,142.56295390002197,142.56295390002197,142.56295390002197,142.56295390002197,22,0,,,142.56295390002197,142.7630863999948,6.1,142.77986650000094,0,6.1,1,0,1000,num_1,0.586917899956461,,25,8,2026-03-04_17h51.07.365,2026A_exp2,2022.2.4,60.068285629591884,
1,0,4.9,0.0,0,0,45,45,23,,,,,143.39702089998173,144.04768289998174,144.04768289998174,144.53210539999418,45,45,144.53210539999418,144.53210539999418,144.53210539999418,144.53210539999418,144.53210539999418,144.53210539999418,144.53210539999418,144.53210539999418,144.53210539999418,144.8986085000215,144.8986085000215,144.8986085000215,144.8986085000215,144.8986085000215,144.8986085000215,144.8986085000215,144.8986085000215,144.8986085000215,23,0,,,144.8986085000215,145.09886909998022,4.9,145.09886909998022,0,4.9,1,0,1000,num_1,0.5634545999928378,,25,8,2026-03-04_17h51.07.365,2026A_exp2,2022.2.4,60.068285629591884,
1,0,0.0,6.1,0,0,46,46,57,,,,,145.68278279999504,146.31713550002314,146.31713550002314,146.8177752000047,45,315,146.8177752000047,146.8177752000047,146.8177752000047,146.8177752000047,146.8177752000047,146.8177752000047,146.8177752000047,146.8177752000047,146.8177752000047,147.18412170000374,147.18412170000374,147.18412170000374,147.18412170000374,147.18412170000374,147.18412170000374,147.18412170000374,147.18412170000374,147.18412170000374,23,0,,,147.18412170000374,147.38474190002307,0.0,147.38474190002307,1,0.0,0,0,1000,num_4,0.1976254999754019,,25,8,2026-03-04_17h51.07.365,2026A_exp2,2022.2.4,60.068285629591884,
1,0,0.0,3.7,1,0,47,47,10,,,,,147.60119650000706,148.2352627000073,148.2352627000073,148.73626719997264,45,315,148.73626719997264,148.73626719997264,148.73626719997264,148.73626719997264,148.73626719997264,148.73626719997264,148.73626719997264,148.73626719997264,148.73626719997264,149.10267069999827,149.10267069999827,149.10267069999827,149.10267069999827,149.10267069999827,149.10267069999827,149.10267069999827,149.10267069999827,149.10267069999827,23,0,,,149.10267069999827,149.30303519999143,3.7,149.30303519999143,0,3.7,1,0,1000,num_1,0.2641138000180945,,25,8,2026-03-04_17h51.07.365,2026A_exp2,2022.2.4,60.068285629591884,
1,0,6.1,6.1,0,0,48,48,51,,,,,149.58663669996895,150.23726379999425,150.23726379999425,150.72647589998087,315,315,150.72647589998087,150.72647589998087,150.72647589998087,150.72647589998087,150.72647589998087,150.72647589998087,150.72647589998087,150.72647589998087,150.72647589998087,151.08828460000223,151.08828460000223,151.08828460000223,151.08828460000223,151.08828460000223,151.08828460000223,151.08828460000223,151.08828460000223,151.08828460000223,23,0,,,151.08828460000223,151.2883911000099,6.1,151.2883911000099,1,6.1,1,1,1000,num_4,0.07877069996902719,,25,8,2026-03-04_17h51.07.365,2026A_exp2,2022.2.4,60.068285629591884,
0,0,0.0,0.0,0,0,49,49,67,,,,,151.38849939999636,152.03911670000525,152.03911670000525,152.540247500001,45,315,152.540247500001,152.540247500001,152.540247500001,152.540247500001,152.540247500001,152.540247500001,152.540247500001,152.540247500001,152.540247500001,152.8898845000076,152.8898845000076,152.8898845000076,152.8898845000076,152.8898845000076,152.8898845000076,152.8898845000076,152.8898845000076,152.8898845000076,22,0,,,152.8898845000076,153.09003069996834,0.0,153.09003069996834,0,0.0,0,1,1000,num_1,0.10881180001888424,,25,8,2026-03-04_17h51.07.365,2026A_exp2,2022.2.4,60.068285629591884,
0,0,3.7,3.7,0,0,50,50,63,,,,,153.2235142000136,153.8742282000021,153.8742282000021,154.3585665000137,45,315,154.3585665000137,154.3585665000137,154.3585665000137,154.3585665000137,154.3585665000137,154.3585665000137,154.3585665000137,154.3585665000137,154.3585665000137,154.72505760000786,154.72505760000786,154.72505760000786,154.72505760000786,154.72505760000786,154.72505760000786,154.72505760000786,154.72505760000786,154.72505760000786,23,0,,,154.72505760000786,154.9252943000174,3.7,154.9252943000174,1,3.7,1,1,1000,num_4,0.06526489998213947,,25,8,2026-03-04_17h51.07.365,2026A_exp2,2022.2.4,60.068285629591884,
1000,1,6.1,0.0,1,0,51,51,52,,,,,155.00874610000756,155.6426479999791,155.6426479999791,156.14372469997033,315,315,156.14372469997033,156.14372469997033,156.14372469997033,156.14372469997033,156.14372469997033,156.14372469997033,156.14372469997033,156.14372469997033,156.14372469997033,156.50998650002293,156.50998650002293,156.50998650002293,156.50998650002293,156.50998650002293,156.50998650002293,156.50998650002293,156.50998650002293,156.50998650002293,0,1,[0.0008508000173605978],[0.3677560000214726],156.50998650002293,156.7352487000171,1000,156.7352487000171,1000,1000,1000,1000,0,num_3,0.6637024999945424,,25,8,2026-03-04_17h51.07.365,2026A_exp2,2022.2.4,60.068285629591884,
1,0,0.0,4.9,1,0,52,52,65,,,,,157.42776009999216,158.07833160000155,158.07833160000155,158.5795568000176,315,315,158.5795568000176,158.5795568000176,158.5795568000176,158.5795568000176,158.5795568000176,158.5795568000176,158.5795568000176,158.5795568000176,158.5795568000176,158.9460270999698,158.9460270999698,158.9460270999698,158.9460270999698,158.9460270999698,158.9460270999698,158.9460270999698,158.9460270999698,158.9460270999698,22,1,[0.25027960003353655],[0.2668728000135161],158.9460270999698,159.14602240000386,4.9,159.14602240000386,1,4.9,1,1,1000,num_4,0.6133550000376999,,25,8,2026-03-04_17h51.07.365,2026A_exp2,2022.2.4,60.068285629591884,
1000,1,0.0,0.0,1,0,53,53,70,,,,,159.78017230000114,160.43050650000805,160.43050650000805,160.91520519996993,315,315,160.91520519996993,160.91520519996993,160.91520519996993,160.91520519996993,160.91520519996993,160.91520519996993,160.91520519996993,160.91520519996993,160.91520519996993,161.28162480000174,161.28162480000174,161.28162480000174,161.28162480000174,161.28162480000174,161.28162480000174,161.28162480000174,161.28162480000174,161.28162480000174,12,3,"[0.11680329998489469, 0.18358650000300258, 0.2999642000067979]","[0.1502117000054568, 0.23313270002836362, 0.36706130002858117]",161.28162480000174,161.48348230001284,1000,161.48348230001284,1000,1000,1000,1000,0,num_3,0.03591000003507361,,25,8,2026-03-04_17h51.07.365,2026A_exp2,2022.2.4,60.068285629591884,
0,0,0.0,0.0,0,0,54,54,4,,,,,161.5487297999789,162.19926929997746,162.19926929997746,162.700367500016,45,315,162.700367500016,162.700367500016,162.700367500016,162.700367500016,162.700367500016,162.700367500016,162.700367500016,162.700367500016,162.700367500016,163.06670710002072,163.06670710002072,163.06670710002072,163.06670710002072,163.06670710002072,163.06670710002072,163.06670710002072,163.06670710002072,163.06670710002072,23,0,,,163.06670710002072,163.26685169996927,0.0,163.26685169996927,1,0.0,0,0,1000,num_4,0.05142789997626096,,25,8,2026-03-04_17h51.07.365,2026A_exp2,2022.2.4,60.068285629591884,
1,0,0.0,4.9,1,0,55,55,36,,,,,163.3504187000217,164.00093520001974,164.00093520001974,164.48537720000604,45,315,164.48537720000604,164.48537720000604,164.48537720000604,164.48537720000604,164.48537720000604,164.48537720000604,164.48537720000604,164.48537720000604,164.48537720000604,164.8518766000052,164.8518766000052,164.8518766000052,164.8518766000052,164.8518766000052,164.8518766000052,164.8518766000052,164.8518766000052,164.8518766000052,23,0,,,164.8518766000052,165.05201440001838,4.9,165.05201440001838,0,4.9,1,0,1000,num_1,0.0828722000005655,,25,8,2026-03-04_17h51.07.365,2026A_exp2,2022.2.4,60.068285629591884,
1,0,0.0,0.0,0,0,56,56,0,,,,,165.15204690000974,165.80284730001586,165.80284730001586,166.28726790001383,45,45,166.28726790001383,166.28726790001383,166.28726790001383,166.28726790001383,166.28726790001383,166.28726790001383,166.28726790001383,166.28726790001383,166.28726790001383,166.6536061000079,166.6536061000079,166.6536061000079,166.6536061000079,166.6536061000079,166.6536061000079,166.6536061000079,166.6536061000079,166.6536061000079,23,0,,,166.6536061000079,166.85387429996626,0.0,166.85387429996626,1,0.0,0,0,1000,num_4,0.4653935999958776,,25,8,2026-03-04_17h51.07.365,2026A_exp2,2022.2.4,60.068285629591884,
1000,1,6.1,6.1,0,0,57,57,74,,,,,167.3375190999941,167.9721177999745,167.9721177999745,168.47279660002096,45,315,168.47279660002096,168.47279660002096,168.47279660002096,168.47279660002096,168.47279660002096,168.47279660002096,168.47279660002096,168.47279660002096,168.47279660002096,168.8391373999766,168.8391373999766,168.8391373999766,168.8391373999766,168.8391373999766,168.8391373999766,168.8391373999766,168.8391373999766,168.8391373999766,23,0,,,168.8391373999766,169.03954430000158,1000,169.03954430000158,1000,1000,1000,1000,0,num_3,0.22337289998540655,,25,8,2026-03-04_17h51.07.365,2026A_exp2,2022.2.4,60.068285629591884,
1,0,3.7,6.1,1,0,58,58,6,,,,,169.28973010001937,169.94010539999,169.94010539999,170.44146739999996,45,315,170.44146739999996,170.44146739999996,170.44146739999996,170.44146739999996,170.44146739999996,170.44146739999996,170.44146739999996,170.44146739999996,170.44146739999996,170.79120289999992,170.79120289999992,170.79120289999992,170.79120289999992,170.79120289999992,170.79120289999992,170.79120289999992,170.79120289999992,170.79120289999992,22,0,,,170.79120289999992,170.99133970000548,6.1,170.99133970000548,1,6.1,1,1,1000,num_4,0.1190368999959901,,25,8,2026-03-04_17h51.07.365,2026A_exp2,2022.2.4,60.068285629591884,
1,0,0.0,3.7,1,0,59,59,12,,,,,171.14168310002424,171.79238509997958,171.79238509997958,172.27663109998684,315,45,172.27663109998684,172.27663109998684,172.27663109998684,172.27663109998684,172.27663109998684,172.27663109998684,172.27663109998684,172.27663109998684,172.27663109998684,172.6429167999886,172.6429167999886,172.6429167999886,172.6429167999886,172.6429167999886,172.6429167999886,172.6429167999886,172.6429167999886,172.6429167999886,23,0,,,172.6429167999886,172.84303990000626,3.7,172.84303990000626,0,3.7,1,0,1000,num_1,0.2678815000108443,,25,8,2026-03-04_17h51.07.365,2026A_exp2,2022.2.4,60.068285629591884,
1000,1,6.1,6.1,0,0,60,60,56,,,,,173.12688549997984,173.7775152999675,173.7775152999675,174.26183149998542,45,315,174.26183149998542,174.26183149998542,174.26183149998542,174.26183149998542,174.26183149998542,174.26183149998542,174.26183149998542,174.26183149998542,174.26183149998542,174.62828110001283,174.62828110001283,174.62828110001283,174.62828110001283,174.62828110001283,174.62828110001283,174.62828110001283,174.62828110001283,174.62828110001283,23,0,,,174.62828110001283,174.8302177999867,1000,174.8302177999867,1000,1000,1000,1000,1,num_2,0.10517320001963526,,25,8,2026-03-04_17h51.07.365,2026A_exp2,2022.2.4,60.068285629591884,
1000,1,4.9,3.7,1,0,61,61,14,,,,,174.96211610001046,175.61260419996688,175.61260419996688,176.11379909998504,315,315,176.11379909998504,176.11379909998504,176.11379909998504,176.11379909998504,176.11379909998504,176.11379909998504,176.11379909998504,176.11379909998504,176.11379909998504,176.48017970001092,176.48017970001092,176.48017970001092,176.48017970001092,176.48017970001092,176.48017970001092,176.48017970001092,176.48017970001092,176.48017970001092,23,0,,,176.48017970001092,176.68051689997083,1000,176.68051689997083,1000,1000,1000,1000,0,num_3,0.17487699998309836,,25,8,2026-03-04_17h51.07.365,2026A_exp2,2022.2.4,60.068285629591884,
1000,1,4.9,6.1,1,0,62,62,18,,,,,176.88064470002428,177.5311798999901,177.5311798999901,178.03238310001325,315,45,178.03238310001325,178.03238310001325,178.03238310001325,178.03238310001325,178.03238310001325,178.03238310001325,178.03238310001325,178.03238310001325,178.03238310001325,178.3987211000058,178.3987211000058,178.3987211000058,178.3987211000058,178.3987211000058,178.3987211000058,178.3987211000058,178.3987211000058,178.3987211000058,23,0,,,178.3987211000058,178.60089200001676,1000,178.60089200001676,1000,1000,1000,1000,0,num_3,0.03832190000684932,,25,8,2026-03-04_17h51.07.365,2026A_exp2,2022.2.4,60.068285629591884,
1,0,4.9,0.0,1,0,63,63,15,,,,,178.66582409996772,179.3163120999816,179.3163120999816,179.81763459998183,45,45,179.81763459998183,179.81763459998183,179.81763459998183,179.81763459998183,179.81763459998183,179.81763459998183,179.81763459998183,179.81763459998183,179.81763459998183,180.16715069999918,180.16715069999918,180.16715069999918,180.16715069999918,180.16715069999918,180.16715069999918,180.16715069999918,180.16715069999918,180.16715069999918,22,0,,,180.16715069999918,180.36735449999105,0.0,180.36735449999105,1,0.0,0,0,1000,num_4,0.5668029999942519,,25,8,2026-03-04_17h51.07.365,2026A_exp2,2022.2.4,60.068285629591884,
1000,1,6.1,3.7,1,0,64,64,45,,,,,180.95132749999175,181.6019802999799,181.6019802999799,182.0864471999812,315,45,182.0864471999812,182.0864471999812,182.0864471999812,182.0864471999812,182.0864471999812,182.0864471999812,182.0864471999812,182.0864471999812,182.0864471999812,182.45268450002186,182.45268450002186,182.45268450002186,182.45268450002186,182.45268450002186,182.45268450002186,182.45268450002186,182.45268450002186,182.45268450002186,23,0,,,182.45268450002186,182.65461039997172,1000,182.65461039997172,1000,1000,1000,1000,0,num_3,0.21591870003612712,,25,8,2026-03-04_17h51.07.365,2026A_exp2,2022.2.4,60.068285629591884,
1000,1,6.1,6.1,0,0,65,65,50,,,,,182.88667420001002,183.53696820000187,183.53696820000187,184.03822360001504,45,315,184.03822360001504,184.03822360001504,184.03822360001504,184.03822360001504,184.03822360001504,184.03822360001504,184.03822360001504,184.03822360001504,184.03822360001504,184.40459420002298,184.40459420002298,184.40459420002298,184.40459420002298,184.40459420002298,184.40459420002298,184.40459420002298,184.40459420002298,184.40459420002298,23,0,,,184.40459420002298,184.60713099996792,1000,184.60713099996792,1000,1000,1000,1000,0,num_3,0.15220330003648996,,25,8,2026-03-04_17h51.07.365,2026A_exp2,2022.2.4,60.068285629591884,
1000,1,0.0,3.7,0,0,66,66,32,,,,,184.7885148000205,185.43913780001458,185.43913780001458,185.9236191000091,315,45,185.9236191000091,185.9236191000091,185.9236191000091,185.9236191000091,185.9236191000091,185.9236191000091,185.9236191000091,185.9236191000091,185.9236191000091,186.289824699983,186.289824699983,186.289824699983,186.289824699983,186.289824699983,186.289824699983,186.289824699983,186.289824699983,186.289824699983,23,0,,,186.289824699983,186.49176459998125,1000,186.49176459998125,1000,1000,1000,1000,0,num_3,0.07573410001350567,,25,8,2026-03-04_17h51.07.365,2026A_exp2,2022.2.4,60.068285629591884,
1,0,0.0,3.7,0,0,67,67,2,,,,,186.59044770000037,187.2408485999913,187.2408485999913,187.74204789998475,315,45,187.74204789998475,187.74204789998475,187.74204789998475,187.74204789998475,187.74204789998475,187.74204789998475,187.74204789998475,187.74204789998475,187.74204789998475,188.09169869998004,188.09169869998004,188.09169869998004,188.09169869998004,188.09169869998004,188.09169869998004,188.09169869998004,188.09169869998004,188.09169869998004,22,0,,,188.09169869998004,188.29194299998926,0.0,188.3086542999954,0,0.0,0,1,1000,num_1,0.29094609996536747,,25,8,2026-03-04_17h51.07.365,2026A_exp2,2022.2.4,60.068285629591884,
1000,1,0.0,0.0,0,0,68,68,47,,,,,188.62576989998342,189.2761997000198,189.2761997000198,189.76077290001558,315,315,189.76077290001558,189.76077290001558,189.76077290001558,189.76077290001558,189.76077290001558,189.76077290001558,189.76077290001558,189.76077290001558,189.76077290001558,190.12707589997444,190.12707589997444,190.12707589997444,190.12707589997444,190.12707589997444,190.12707589997444,190.12707589997444,190.12707589997444,190.12707589997444,23,0,,,190.12707589997444,190.34215579996817,1000,190.34215579996817,1000,1000,1000,1000,0,num_3,0.5361036999966018,,25,8,2026-03-04_17h51.07.365,2026A_exp2,2022.2.4,60.068285629591884,
1,0,6.1,6.1,1,0,69,69,89,,,,,190.8947027999675,191.5452069999883,191.5452069999883,192.04629420000128,45,315,192.04629420000128,192.04629420000128,192.04629420000128,192.04629420000128,192.04629420000128,192.04629420000128,192.04629420000128,192.04629420000128,192.04629420000128,192.41285119997337,192.41285119997337,192.41285119997337,192.41285119997337,192.41285119997337,192.41285119997337,192.41285119997337,192.41285119997337,192.41285119997337,23,0,,,192.41285119997337,192.61303950002184,6.1,192.61303950002184,1,6.1,1,1,1000,num_4,0.40129090001573786,,25,8,2026-03-04_17h51.07.365,2026A_exp2,2022.2.4,60.068285629591884,
1000,1,0.0,4.9,1,0,70,70,73,,,,,193.03003540000645,193.6808387999772,193.6808387999772,194.1817955999868,315,45,194.1817955999868,194.1817955999868,194.1817955999868,194.1817955999868,194.1817955999868,194.1817955999868,194.1817955999868,194.1817955999868,194.1817955999868,194.5316005999921,194.5316005999921,194.5316005999921,194.5316005999921,194.5316005999921,194.5316005999921,194.5316005999921,194.5316005999921,194.5316005999921,22,0,,,194.5316005999921,194.73340440000175,1000,194.73340440000175,1000,1000,1000,1000,1,num_2,0.04887120000785217,,25,8,2026-03-04_17h51.07.365,2026A_exp2,2022.2.4,60.068285629591884,
1,0,0.0,0.0,0,0,71,71,66,,,,,194.7986151999794,195.4491590000107,195.4491590000107,195.95007580000674,45,45,195.95007580000674,195.95007580000674,195.95007580000674,195.95007580000674,195.95007580000674,195.95007580000674,195.95007580000674,195.95007580000674,195.95007580000674,196.3166038999916,196.3166038999916,196.3166038999916,196.3166038999916,196.3166038999916,196.3166038999916,196.3166038999916,196.3166038999916,196.3166038999916,21,1,[0.1667726999730803],[0.20009969995589927],196.3166038999916,196.51674910000293,0.0,196.51674910000293,0,0.0,0,1,1000,num_1,0.16161720000673085,,25,8,2026-03-04_17h51.07.365,2026A_exp2,2022.2.4,60.068285629591884,
1,0,3.7,3.7,1,0,72,72,64,,,,,196.70042740000645,197.35096969996812,197.35096969996812,197.83535130001837,45,45,197.83535130001837,197.83535130001837,197.83535130001837,197.83535130001837,197.83535130001837,197.83535130001837,197.83535130001837,197.83535130001837,197.83535130001837,198.20195239997702,198.20195239997702,198.20195239997702,198.20195239997702,198.20195239997702,198.20195239997702,198.20195239997702,198.20195239997702,198.20195239997702,23,0,,,198.20195239997702,198.4019717000192,3.7,198.4019717000192,1,3.7,1,1,1000,num_4,0.26898130000336096,,25,8,2026-03-04_17h51.07.365,2026A_exp2,2022.2.4,60.068285629591884,
1,0,0.0,0.0,1,0,73,73,82,,,,,198.70242159999907,199.35313489998225,199.35313489998225,199.83757530001458,45,45,199.83757530001458,199.83757530001458,199.83757530001458,199.83757530001458,199.83757530001458,199.83757530001458,199.83757530001458,199.83757530001458,199.83757530001458,200.20372789999237,200.20372789999237,200.20372789999237,200.20372789999237,200.20372789999237,200.20372789999237,200.20372789999237,200.20372789999237,200.20372789999237,23,0,,,200.20372789999237,200.40781549998792,0.0,200.40781549998792,0,0.0,0,1,1000,num_1,0.34353890002239496,,25,8,2026-03-04_17h51.07.365,2026A_exp2,2022.2.4,60.068285629591884,
1000,1,0.0,0.0,0,0,74,74,41,,,,,200.77102779998677,201.4218225000077,201.4218225000077,201.9229561999673,45,45,201.9229561999673,201.9229561999673,201.9229561999673,201.9229561999673,201.9229561999673,201.9229561999673,201.9229561999673,201.9229561999673,201.9229561999673,202.28925299999537,202.28925299999537,202.28925299999537,202.28925299999537,202.28925299999537,202.28925299999537,202.28925299999537,202.28925299999537,202.28925299999537,23,0,,,202.28925299999537,202.4912038000184,1000,202.4912038000184,1000,1000,1000,1000,0,num_3,0.6194408000446856,,25,8,2026-03-04_17h51.07.365,2026A_exp2,2022.2.4,60.068285629591884,
1000,1,3.7,6.1,0,0,75,75,81,,,,,203.14027659996646,203.7908299000119,203.7908299000119,204.30652669997653,45,315,204.30652669997653,204.30652669997653,204.30652669997653,204.30652669997653,204.30652669997653,204.30652669997653,204.30652669997653,204.30652669997653,204.30652669997653,204.65838340000482,204.65838340000482,204.65838340000482,204.65838340000482,204.65838340000482,204.65838340000482,204.65838340000482,204.65838340000482,204.65838340000482,20,1,[0.313644900044892],[0.3637031000107527],204.65838340000482,204.8601786000072,1000,204.8601786000072,1000,1000,1000,1000,1,num_2,0.2827957999543287,,25,8,2026-03-04_17h51.07.365,2026A_exp2,2022.2.4,60.068285629591884,
1,0,6.1,4.9,0,0,76,76,30,,,,,205.15896129998146,205.8095476999879,205.8095476999879,206.31054799997946,45,315,206.31054799997946,206.31054799997946,206.31054799997946,206.31054799997946,206.31054799997946,206.31054799997946,206.31054799997946,206.31054799997946,206.31054799997946,206.67707709997194,206.67707709997194,206.67707709997194,206.67707709997194,206.67707709997194,206.67707709997194,206.67707709997194,206.67707709997194,206.67707709997194,23,0,,,206.67707709997194,206.87720180000179,6.1,206.87720180000179,0,6.1,1,0,1000,num_1,0.1851668000454083,,25,8,2026-03-04_17h51.07.365,2026A_exp2,2022.2.4,60.068285629591884,
1000,1,4.9,4.9,1,0,77,77,60,,,,,207.09394880000036,207.74479369999608,207.74479369999608,208.2292211999884,315,315,208.2292211999884,208.2292211999884,208.2292211999884,208.2292211999884,208.2292211999884,208.2292211999884,208.2292211999884,208.2292211999884,208.2292211999884,208.59558610001113,208.59558610001113,208.59558610001113,208.59558610001113,208.59558610001113,208.59558610001113,208.59558610001113,208.59558610001113,208.59558610001113,23,0,,,208.59558610001113,208.80158789997222,1000,208.80158789997222,1000,1000,1000,1000,0,num_3,0.10166609997395426,,25,8,2026-03-04_17h51.07.365,2026A_exp2,2022.2.4,60.068285629591884,
1,0,4.9,0.0,1,0,78,78,48,,,,,208.92939429997932,209.57996409997577,209.57996409997577,210.0811960999854,315,315,210.0811960999854,210.0811960999854,210.0811960999854,210.0811960999854,210.0811960999854,210.0811960999854,210.0811960999854,210.0811960999854,210.0811960999854,210.44750810001278,210.44750810001278,210.44750810001278,210.44750810001278,210.44750810001278,210.44750810001278,210.44750810001278,210.44750810001278,210.44750810001278,23,0,,,210.44750810001278,210.64774679997936,0.0,210.64774679997936,0,0.0,0,1,1000,num_1,0.17521770001621917,,25,8,2026-03-04_17h51.07.365,2026A_exp2,2022.2.4,60.068285629591884,
1,0,3.7,4.9,0,0,79,79,31,,,,,210.8479151999927,211.49844809999922,211.49844809999922,211.98306140000932,45,45,211.98306140000932,211.98306140000932,211.98306140000932,211.98306140000932,211.98306140000932,211.98306140000932,211.98306140000932,211.98306140000932,211.98306140000932,212.34938879997935,212.34938879997935,212.34938879997935,212.34938879997935,212.34938879997935,212.34938879997935,212.34938879997935,212.34938879997935,212.34938879997935,23,0,,,212.34938879997935,212.54941380000673,3.7,212.54941380000673,1,3.7,1,1,1000,num_4,0.4167277999804355,,25,8,2026-03-04_17h51.07.365,2026A_exp2,2022.2.4,60.068285629591884,
1,0,6.1,6.1,0,0,80,80,11,,,,,212.98338839999633,213.63402369996766,213.63402369996766,214.11837490001926,45,45,214.11837490001926,214.11837490001926,214.11837490001926,214.11837490001926,214.11837490001926,214.11837490001926,214.11837490001926,214.11837490001926,214.11837490001926,214.48479189997306,214.48479189997306,214.48479189997306,214.48479189997306,214.48479189997306,214.48479189997306,214.48479189997306,214.48479189997306,214.48479189997306,23,0,,,214.48479189997306,214.68498730001738,6.1,214.68498730001738,0,6.1,1,0,1000,num_1,0.06566090002888814,,25,8,2026-03-04_17h51.07.365,2026A_exp2,2022.2.4,60.068285629591884,
1000,1,3.7,3.7,1,0,81,81,46,,,,,214.76844610000262,215.40256359998602,215.40256359998602,215.90358779998496,315,315,215.90358779998496,215.90358779998496,215.90358779998496,215.90358779998496,215.90358779998496,215.90358779998496,215.90358779998496,215.90358779998496,215.90358779998496,216.27000089996727,216.27000089996727,216.27000089996727,216.27000089996727,216.27000089996727,216.27000089996727,216.27000089996727,216.27000089996727,216.27000089996727,23,0,,,216.27000089996727,216.4702849999885,1000,216.4702849999885,1000,1000,1000,1000,1,num_2,0.07202620001044124,,25,8,2026-03-04_17h51.07.365,2026A_exp2,2022.2.4,60.068285629591884,
1,0,0.0,6.1,0,0,82,82,72,,,,,216.5704110999941,217.2209475999698,217.2209475999698,217.72195039998041,315,45,217.72195039998041,217.72195039998041,217.72195039998041,217.72195039998041,217.72195039998041,217.72195039998041,217.72195039998041,217.72195039998041,217.72195039998041,218.0880543999956,218.0880543999956,218.0880543999956,218.0880543999956,218.0880543999956,218.0880543999956,218.0880543999956,218.0880543999956,218.0880543999956,23,0,,,218.0880543999956,218.2884660999989,0.0,218.2884660999989,1,0.0,0,0,1000,num_4,0.23799809999763966,,25,8,2026-03-04_17h51.07.365,2026A_exp2,2022.2.4,60.068285629591884,
1000,1,3.7,3.7,0,0,83,83,16,,,,,218.55546689999755,219.20621689996915,219.20621689996915,219.69068990001688,315,315,219.69068990001688,219.69068990001688,219.69068990001688,219.69068990001688,219.69068990001688,219.69068990001688,219.69068990001688,219.69068990001688,219.69068990001688,220.0571190000046,220.0571190000046,220.0571190000046,220.0571190000046,220.0571190000046,220.0571190000046,220.0571190000046,220.0571190000046,220.0571190000046,23,0,,,220.0571190000046,220.25920709996717,1000,220.25920709996717,1000,1000,1000,1000,1,num_2,0.26735329994698986,,25,8,2026-03-04_17h51.07.365,2026A_exp2,2022.2.4,60.068285629591884,
1000,1,6.1,0.0,0,0,84,84,68,,,,,220.55762809998123,221.20830880000722,221.20830880000722,221.7139271000051,45,45,221.7139271000051,221.7139271000051,221.7139271000051,221.7139271000051,221.7139271000051,221.7139271000051,221.7139271000051,221.7139271000051,221.7139271000051,222.07577619998483,222.07577619998483,222.07577619998483,222.07577619998483,222.07577619998483,222.07577619998483,222.07577619998483,222.07577619998483,222.07577619998483,19,2,"[0.2658627000055276, 0.3325573999900371]","[0.31595680001191795, 0.349232500011567]",222.07577619998483,222.27954969997518,1000,222.27954969997518,1000,1000,1000,1000,0,num_3,0.6957143000327051,,25,8,2026-03-04_17h51.07.365,2026A_exp2,2022.2.4,60.068285629591884,
1,0,0.0,3.7,0,0,85,85,22,,,,,222.99331639998127,223.64388689998304,223.64388689998304,224.14499339996837,45,315,224.14499339996837,224.14499339996837,224.14499339996837,224.14499339996837,224.14499339996837,224.14499339996837,224.14499339996837,224.14499339996837,224.14499339996837,224.51157199998852,224.51157199998852,224.51157199998852,224.51157199998852,224.51157199998852,224.51157199998852,224.51157199998852,224.51157199998852,224.51157199998852,23,0,,,224.51157199998852,224.71177870000247,0.0,224.71177870000247,0,0.0,0,1,1000,num_1,0.09467990003759041,,25,8,2026-03-04_17h51.07.365,2026A_exp2,2022.2.4,60.068285629591884,
1,0,0.0,0.0,0,0,86,86,19,,,,,224.82861109997611,225.47929920000024,225.47929920000024,225.96353700000327,45,315,225.96353700000327,225.96353700000327,225.96353700000327,225.96353700000327,225.96353700000327,225.96353700000327,225.96353700000327,225.96353700000327,225.96353700000327,226.32987489999505,226.32987489999505,226.32987489999505,226.32987489999505,226.32987489999505,226.32987489999505,226.32987489999505,226.32987489999505,226.32987489999505,23,0,,,226.32987489999505,226.5302873000037,0.0,226.5302873000037,1,0.0,0,0,1000,num_4,0.7639820000040345,,25,8,2026-03-04_17h51.07.365,2026A_exp2,2022.2.4,60.068285629591884,
1,0,3.7,4.9,0,0,87,87,84,,,,,227.3145116000087,227.96675249998225,227.96675249998225,228.4659197999863,315,45,228.4659197999863,228.4659197999863,228.4659197999863,228.4659197999863,228.4659197999863,228.4659197999863,228.4659197999863,228.4659197999863,228.4659197999863,228.832382099994,228.832382099994,228.832382099994,228.832382099994,228.832382099994,228.832382099994,228.832382099994,228.832382099994,228.832382099994,0,1,[0.001241800026036799],[0.36702500004321337],228.832382099994,229.03262630000245,3.7,229.03262630000245,0,3.7,1,0,1000,num_1,0.06167620001360774,,25,8,2026-03-04_17h51.07.365,2026A_exp2,2022.2.4,60.068285629591884,
1,0,0.0,0.0,0,0,88,88,49,,,,,229.1161608999828,229.76682139997138,229.76682139997138,230.25115949998144,315,315,230.25115949998144,230.25115949998144,230.25115949998144,230.25115949998144,230.25115949998144,230.25115949998144,230.25115949998144,230.25115949998144,230.25115949998144,230.6175768999965,230.6175768999965,230.6175768999965,230.6175768999965,230.6175768999965,230.6175768999965,230.6175768999965,230.6175768999965,230.6175768999965,23,0,,,230.6175768999965,230.81787859997712,0.0,230.81787859997712,1,0.0,0,0,1000,num_4,0.2604488999932073,,25,8,2026-03-04_17h51.07.365,2026A_exp2,2022.2.4,60.068285629591884,
1000,1,3.7,0.0,0,0,89,89,37,,,,,231.10206429997925,231.75191260001156,231.75191260001156,232.2364421999664,315,45,232.2364421999664,232.2364421999664,232.2364421999664,232.2364421999664,232.2364421999664,232.2364421999664,232.2364421999664,232.2364421999664,232.2364421999664,232.60296930000186,232.60296930000186,232.60296930000186,232.60296930000186,232.60296930000186,232.60296930000186,232.60296930000186,232.60296930000186,232.60296930000186,23,0,,,232.60296930000186,232.80508780002128,1000,232.80508780002128,1000,1000,1000,1000,1,num_2,0.12182709999615327,,25,8,2026-03-04_17h51.07.365,2026A_exp2,2022.2.4,60.068285629591884,
,,,,,,,,,,,,,,,,,,,,,,,,,,,,,,,,,,,,,,,,,,,,,,,,,,,,232.96186959999613,,,,,,,
