validity,detectorcomp,contrastCW,contrastCCW,precueCWorCCW,block_80trials.thisRepN,block_80trials.thisTrialN,block_80trials.thisN,block_80trials.thisIndex,etRecord.started,etRecord.stopped,text.started,text.stopped,text_4.started,text_4.stopped,text_6.started,text_6.stopped,oriCW,oriCCW,roi_2.started,grating_UR.started,grating_UL.started,grating_LR.started,grating_LL.started,noise_UR.started,noise_UL.started,noise_LR.started,noise_LL.started,roi_2.stopped,grating_UR.stopped,grating_UL.stopped,grating_LR.stopped,grating_LL.stopped,noise_UR.stopped,noise_UL.stopped,noise_LR.stopped,noise_LL.stopped,outframe,roi_2.numLooks,roi_2.timesOn,roi_2.timesOff,text_2.started,text_2.stopped,probedcontrast,key_resp.started,respdetect,relevantContrast,correctDetect,TorFdetect,respCWorCCW,key_resp.keys,key_resp.rt,feedback_display_.started,participantNo,blockNo,date,expName,psychopyVersion,frameRate,
0,0,4.9,6.1,0,0,0,0,1,3.619998460635543e-05,3.619998460635543e-05,46.11159210000187,48.1146392999799,48.1146392999799,48.748832800018135,48.748832800018135,49.26953119999962,45,315,49.26953119999962,49.26953119999962,49.26953119999962,49.26953119999962,49.26953119999962,49.26953119999962,49.26953119999962,49.26953119999962,49.26953119999962,49.61642189999111,49.61642189999111,49.61642189999111,49.61642189999111,49.61642189999111,49.61642189999111,49.61642189999111,49.61642189999111,49.61642189999111,23,0,,,49.61642189999111,49.81663329998264,6.1,49.81663329998264,1,6.1,1,1,1000,num_4,1.0140903999563307,,28,14,2026-03-05_16h42.35.547,2026A_exp2,2022.2.4,59.90578018979828,
1,0,4.9,0.0,0,0,1,1,47,,,,,50.85099219996482,51.50170209998032,51.50170209998032,51.98610959999496,45,45,51.98610959999496,51.98610959999496,51.98610959999496,51.98610959999496,51.98610959999496,51.98610959999496,51.98610959999496,51.98610959999496,51.98610959999496,52.352565600012895,52.352565600012895,52.352565600012895,52.352565600012895,52.352565600012895,52.352565600012895,52.352565600012895,52.352565600012895,52.352565600012895,22,1,[0.001243000035174191],[0.01736140000866726],52.352565600012895,52.55270010000095,4.9,52.55270010000095,0,4.9,1,0,1000,num_1,0.6787722000153735,,28,14,2026-03-05_16h42.35.547,2026A_exp2,2022.2.4,59.90578018979828,
1,0,0.0,0.0,0,0,2,2,64,,,,,53.253296500013676,53.90704620000906,53.90704620000906,54.388460999995004,315,45,54.388460999995004,54.388460999995004,54.388460999995004,54.388460999995004,54.388460999995004,54.388460999995004,54.388460999995004,54.388460999995004,54.388460999995004,54.75493220001226,54.75493220001226,54.75493220001226,54.75493220001226,54.75493220001226,54.75493220001226,54.75493220001226,54.75493220001226,54.75493220001226,23,0,,,54.75493220001226,54.96643019997282,0.0,54.96643019997282,0,0.0,0,1,1000,num_1,0.633517500013113,,28,14,2026-03-05_16h42.35.547,2026A_exp2,2022.2.4,59.90578018979828,
1,0,6.1,0.0,0,0,3,3,58,,,,,55.622420399973635,56.273093299998436,56.273093299998436,56.77431710000383,45,45,56.77431710000383,56.77431710000383,56.77431710000383,56.77431710000383,56.77431710000383,56.77431710000383,56.77431710000383,56.77431710000383,56.77431710000383,57.123906299995724,57.123906299995724,57.123906299995724,57.123906299995724,57.123906299995724,57.123906299995724,57.123906299995724,57.123906299995724,57.123906299995724,0,1,[0.0012401000130921602],[0.35047130001476035],57.123906299995724,57.324087199987844,6.1,57.324087199987844,0,6.1,1,0,1000,num_1,0.7950294999754988,,28,14,2026-03-05_16h42.35.547,2026A_exp2,2022.2.4,59.90578018979828,
1000,1,0.0,0.0,1,0,4,4,78,,,,,58.141526699997485,58.792322999972384,58.792322999972384,59.276579099998344,315,45,59.276579099998344,59.276579099998344,59.276579099998344,59.276579099998344,59.276579099998344,59.276579099998344,59.276579099998344,59.276579099998344,59.276579099998344,59.643088300013915,59.643088300013915,59.643088300013915,59.643088300013915,59.643088300013915,59.643088300013915,59.643088300013915,59.643088300013915,59.643088300013915,0,1,[0.00122819998068735],[0.36724520003190264],59.643088300013915,59.84836549998727,1000,59.84836549998727,1000,1000,1000,1000,0,num_3,0.5021787000005133,,28,14,2026-03-05_16h42.35.547,2026A_exp2,2022.2.4,59.90578018979828,
0,0,0.0,6.1,0,0,5,5,30,,,,,60.3770446999697,61.019754600012675,61.019754600012675,61.51221409998834,315,315,61.51221409998834,61.51221409998834,61.51221409998834,61.51221409998834,61.51221409998834,61.51221409998834,61.51221409998834,61.51221409998834,61.51221409998834,61.8787121999776,61.8787121999776,61.8787121999776,61.8787121999776,61.8787121999776,61.8787121999776,61.8787121999776,61.8787121999776,61.8787121999776,0,1,[0.0006578000029549003],[0.3679061000002548],61.8787121999776,62.078805800003465,6.1,62.078805800003465,0,6.1,1,0,1000,num_1,0.4245626000338234,,28,14,2026-03-05_16h42.35.547,2026A_exp2,2022.2.4,59.90578018979828,
1000,1,0.0,4.9,0,0,6,6,50,,,,,62.52926149999257,63.18005650001578,63.18005650001578,63.66443160001654,315,315,63.66443160001654,63.66443160001654,63.66443160001654,63.66443160001654,63.66443160001654,63.66443160001654,63.66443160001654,63.66443160001654,63.66443160001654,64.0307848000084,64.0307848000084,64.0307848000084,64.0307848000084,64.0307848000084,64.0307848000084,64.0307848000084,64.0307848000084,64.0307848000084,0,1,[0.0012238000053912401],[0.3672736999578774],64.0307848000084,64.23277459997917,1000,64.23277459997917,1000,1000,1000,1000,0,num_3,0.5264789999928325,,28,14,2026-03-05_16h42.35.547,2026A_exp2,2022.2.4,59.90578018979828,
1,0,3.7,0.0,1,0,7,7,73,,,,,64.78149560000747,65.43221739999717,65.43221739999717,65.91653059999226,315,45,65.91653059999226,65.91653059999226,65.91653059999226,65.91653059999226,65.91653059999226,65.91653059999226,65.91653059999226,65.91653059999226,65.91653059999226,66.2831092000124,66.2831092000124,66.2831092000124,66.2831092000124,66.2831092000124,66.2831092000124,66.2831092000124,66.2831092000124,66.2831092000124,0,1,[0.0008685000357218087],[0.36685739998938516],66.2831092000124,66.48622079996858,0.0,66.48622079996858,0,0.0,0,1,1000,num_1,0.6322783000068739,,28,14,2026-03-05_16h42.35.547,2026A_exp2,2022.2.4,59.90578018979828,
1,0,6.1,0.0,0,0,8,8,22,,,,,67.15065989998402,67.80126209999435,67.80126209999435,68.28575360000832,45,315,68.28575360000832,68.28575360000832,68.28575360000832,68.28575360000832,68.28575360000832,68.28575360000832,68.28575360000832,68.28575360000832,68.28575360000832,68.65210740000475,68.65210740000475,68.65210740000475,68.65210740000475,68.65210740000475,68.65210740000475,68.65210740000475,68.65210740000475,68.65210740000475,1,2,"[0.001201300008688122, 0.05013750004582107]","[0.03348089999053627, 0.36725559999467805]",68.65210740000475,68.85236650001025,6.1,68.85236650001025,0,6.1,1,0,1000,num_1,0.5221782000153325,,28,14,2026-03-05_16h42.35.547,2026A_exp2,2022.2.4,59.90578018979828,
1000,1,4.9,3.7,0,0,9,9,26,,,,,69.40293599996949,70.03683210001327,70.03683210001327,70.53793920000317,45,315,70.53793920000317,70.53793920000317,70.53793920000317,70.53793920000317,70.53793920000317,70.53793920000317,70.53793920000317,70.53793920000317,70.53793920000317,70.90434489998734,70.90434489998734,70.90434489998734,70.90434489998734,70.90434489998734,70.90434489998734,70.90434489998734,70.90434489998734,70.90434489998734,2,2,"[0.017421500000637025, 0.11706899997079745]","[0.10022749996278435, 0.3671813999535516]",70.90434489998734,71.10667100001592,1000,71.10667100001592,1000,1000,1000,1000,0,num_3,0.6842064000084065,,28,14,2026-03-05_16h42.35.547,2026A_exp2,2022.2.4,59.90578018979828,
0,0,0.0,6.1,0,0,10,10,12,,,,,71.82197210000595,72.47256899997592,72.47256899997592,72.97377669997513,45,315,72.97377669997513,72.97377669997513,72.97377669997513,72.97377669997513,72.97377669997513,72.97377669997513,72.97377669997513,72.97377669997513,72.97377669997513,73.34012710000388,73.34012710000388,73.34012710000388,73.34012710000388,73.34012710000388,73.34012710000388,73.34012710000388,73.34012710000388,73.34012710000388,0,1,[0.001291499997023493],[0.36724529997445643],73.34012710000388,73.5404678999912,6.1,73.5404678999912,1,6.1,1,1,1000,num_4,1.066874900017865,,28,14,2026-03-05_16h42.35.547,2026A_exp2,2022.2.4,59.90578018979828,
1000,1,4.9,4.9,0,0,11,11,36,,,,,74.62465790001443,75.27550300001167,75.27550300001167,75.75988149998011,315,315,75.75988149998011,75.75988149998011,75.75988149998011,75.75988149998011,75.75988149998011,75.75988149998011,75.75988149998011,75.75988149998011,75.75988149998011,76.12632989999838,76.12632989999838,76.12632989999838,76.12632989999838,76.12632989999838,76.12632989999838,76.12632989999838,76.12632989999838,76.12632989999838,1,2,"[0.0011888000299222767, 0.05035249999491498]","[0.03348550002556294, 0.3672519000247121]",76.12632989999838,76.32827639998868,1000,76.32827639998868,1000,1000,1000,1000,1,num_2,0.6786969999666326,,28,14,2026-03-05_16h42.35.547,2026A_exp2,2022.2.4,59.90578018979828,
1,0,3.7,3.7,0,0,12,12,69,,,,,77.02728739997838,77.67770200001542,77.67770200001542,78.16215190000366,45,315,78.16215190000366,78.16215190000366,78.16215190000366,78.16215190000366,78.16215190000366,78.16215190000366,78.16215190000366,78.16215190000366,78.16215190000366,78.52870279998751,78.52870279998751,78.52870279998751,78.52870279998751,78.52870279998751,78.52870279998751,78.52870279998751,78.52870279998751,78.52870279998751,0,1,[0.0012193999718874693],[0.3671792999957688],78.52870279998751,78.72889059997397,3.7,78.72889059997397,1,3.7,1,1,1000,num_4,0.3823329000151716,,28,14,2026-03-05_16h42.35.547,2026A_exp2,2022.2.4,59.90578018979828,
1,0,0.0,0.0,1,0,13,13,68,,,,,79.12934499996481,79.77982990001328,79.77982990001328,80.2643442999688,315,45,80.2643442999688,80.2643442999688,80.2643442999688,80.2643442999688,80.2643442999688,80.2643442999688,80.2643442999688,80.2643442999688,80.2643442999688,80.63074379996397,80.63074379996397,80.63074379996397,80.63074379996397,80.63074379996397,80.63074379996397,80.63074379996397,80.63074379996397,80.63074379996397,0,1,[0.0012518999865278602],[0.3671458999742754],80.63074379996397,80.83094680000795,0.0,80.83094680000795,0,0.0,0,1,1000,num_1,0.743769799999427,,28,14,2026-03-05_16h42.35.547,2026A_exp2,2022.2.4,59.90578018979828,
1000,1,3.7,3.7,0,0,14,14,76,,,,,81.59800559998257,82.2343353999895,82.2343353999895,82.73915300000226,315,315,82.73915300000226,82.73915300000226,82.73915300000226,82.73915300000226,82.73915300000226,82.73915300000226,82.73915300000226,82.73915300000226,82.73915300000226,83.09991689998424,83.09991689998424,83.09991689998424,83.09991689998424,83.09991689998424,83.09991689998424,83.09991689998424,83.09991689998424,83.09991689998424,0,1,[0.002590699994470924],[0.3656749000074342],83.09991689998424,83.30191440001363,1000,83.30191440001363,1000,1000,1000,1000,0,num_3,0.3294294000370428,,28,14,2026-03-05_16h42.35.547,2026A_exp2,2022.2.4,59.90578018979828,
1,0,0.0,0.0,0,0,15,15,31,,,,,83.65046520001488,84.30111669999314,84.30111669999314,84.80227340001147,45,45,84.80227340001147,84.80227340001147,84.80227340001147,84.80227340001147,84.80227340001147,84.80227340001147,84.80227340001147,84.80227340001147,84.80227340001147,85.1685337999952,85.1685337999952,85.1685337999952,85.1685337999952,85.1685337999952,85.1685337999952,85.1685337999952,85.1685337999952,85.1685337999952,14,3,"[0.017558799998369068, 0.10033690003911033, 0.18529590003890917]","[0.08381840004585683, 0.1670299000106752, 0.20010000001639128]",85.1685337999952,85.36879809998209,0.0,85.36879809998209,0,0.0,0,1,1000,num_1,0.9743409999646246,,28,14,2026-03-05_16h42.35.547,2026A_exp2,2022.2.4,59.90578018979828,
1000,1,0.0,6.1,1,0,16,16,40,,,,,86.36971669999184,87.02034629997797,87.02034629997797,87.50480200001039,45,45,87.50480200001039,87.50480200001039,87.50480200001039,87.50480200001039,87.50480200001039,87.50480200001039,87.50480200001039,87.50480200001039,87.50480200001039,87.87133029999677,87.87133029999677,87.87133029999677,87.87133029999677,87.87133029999677,87.87133029999677,87.87133029999677,87.87133029999677,87.87133029999677,4,4,"[0.001221399987116456, 0.15027340000960976, 0.28367670002626255, 0.3503655000240542]","[0.13362340000458062, 0.26719510002294555, 0.31725149997510016, 0.36725479998858646]",87.87133029999677,88.07178589998512,1000,88.07178589998512,1000,1000,1000,1000,0,num_3,0.5191956000053324,,28,14,2026-03-05_16h42.35.547,2026A_exp2,2022.2.4,59.90578018979828,
1,0,3.7,0.0,0,0,17,17,15,,,,,88.62217489996692,89.27258910000091,89.27258910000091,89.77372469997499,45,45,89.77372469997499,89.77372469997499,89.77372469997499,89.77372469997499,89.77372469997499,89.77372469997499,89.77372469997499,89.77372469997499,89.77372469997499,90.12366719997954,90.12366719997954,90.12366719997954,90.12366719997954,90.12366719997954,90.12366719997954,90.12366719997954,90.12366719997954,90.12366719997954,0,1,[0.0013100000214762986],[0.353759000019636],90.12366719997954,90.32696159998886,3.7,90.34061730001122,0,3.7,1,0,1000,num_1,0.4825533999828622,,28,14,2026-03-05_16h42.35.547,2026A_exp2,2022.2.4,59.90578018979828,
1000,1,4.9,4.9,1,0,18,18,67,,,,,90.84083840000676,91.49169519997668,91.49169519997668,91.99279390001902,315,45,91.99279390001902,91.99279390001902,91.99279390001902,91.99279390001902,91.99279390001902,91.99279390001902,91.99279390001902,91.99279390001902,91.99279390001902,92.34240109997336,92.34240109997336,92.34240109997336,92.34240109997336,92.34240109997336,92.34240109997336,92.34240109997336,92.34240109997336,92.34240109997336,4,2,"[0.0011842999956570566, 0.3003895999863744]","[0.283631999976933, 0.31721120001748204]",92.34240109997336,92.56363360001706,1000,92.56363360001706,1000,1000,1000,1000,1,num_2,0.5874504999956116,,28,14,2026-03-05_16h42.35.547,2026A_exp2,2022.2.4,59.90578018979828,
1000,1,4.9,6.1,0,0,19,19,35,,,,,93.17661739996402,93.82730699999956,93.82730699999956,94.32837190001737,315,315,94.32837190001737,94.32837190001737,94.32837190001737,94.32837190001737,94.32837190001737,94.32837190001737,94.32837190001737,94.32837190001737,94.32837190001737,94.69482550001703,94.69482550001703,94.69482550001703,94.69482550001703,94.69482550001703,94.69482550001703,94.69482550001703,94.69482550001703,94.69482550001703,0,1,[0.000713899964466691],[0.36764419998507947],94.69482550001703,94.89718859997811,1000,94.89718859997811,1000,1000,1000,1000,0,num_3,0.45416890003252774,,28,14,2026-03-05_16h42.35.547,2026A_exp2,2022.2.4,59.90578018979828,
1,0,6.1,0.0,1,0,20,20,41,,,,,95.37877880001906,96.02940930001205,96.02940930001205,96.53061650000745,45,315,96.53061650000745,96.53061650000745,96.53061650000745,96.53061650000745,96.53061650000745,96.53061650000745,96.53061650000745,96.53061650000745,96.53061650000745,96.89688830001978,96.89688830001978,96.89688830001978,96.89688830001978,96.89688830001978,96.89688830001978,96.89688830001978,96.89688830001978,96.89688830001978,21,1,[0.2837468999787234],[0.3171398999984376],96.89688830001978,97.09711949998746,0.0,97.09711949998746,1,0.0,0,0,1000,num_4,0.3822071999893524,,28,14,2026-03-05_16h42.35.547,2026A_exp2,2022.2.4,59.90578018979828,
0,0,4.9,4.9,0,0,21,21,88,,,,,97.49757070001215,98.1483295999933,98.1483295999933,98.63265479996335,315,45,98.63265479996335,98.63265479996335,98.63265479996335,98.63265479996335,98.63265479996335,98.63265479996335,98.63265479996335,98.63265479996335,98.63265479996335,98.99916269996902,98.99916269996902,98.99916269996902,98.99916269996902,98.99916269996902,98.99916269996902,98.99916269996902,98.99916269996902,98.99916269996902,0,1,[0.001237100048456341],[0.3672309000394307],98.99916269996902,99.19937079999363,4.9,99.19937079999363,0,4.9,1,0,1000,num_1,0.783639800036326,,28,14,2026-03-05_16h42.35.547,2026A_exp2,2022.2.4,59.90578018979828,
1000,1,0.0,6.1,0,0,22,22,85,,,,,100.00013000000035,100.65070769999875,100.65070769999875,101.13508370000636,45,315,101.13508370000636,101.13508370000636,101.13508370000636,101.13508370000636,101.13508370000636,101.13508370000636,101.13508370000636,101.13508370000636,101.13508370000636,101.50169150001602,101.50169150001602,101.50169150001602,101.50169150001602,101.50169150001602,101.50169150001602,101.50169150001602,101.50169150001602,101.50169150001602,21,2,"[0.20018479996360838, 0.2837922999751754]","[0.21704889996908605, 0.30041699996218085]",101.50169150001602,101.70359970000573,1000,101.70359970000573,1000,1000,1000,1000,0,num_3,0.6078799000242725,,28,14,2026-03-05_16h42.35.547,2026A_exp2,2022.2.4,59.90578018979828,
1,0,3.7,6.1,0,0,23,23,74,,,,,102.336029099999,102.98637609998696,102.98637609998696,103.48761650000233,315,315,103.48761650000233,103.48761650000233,103.48761650000233,103.48761650000233,103.48761650000233,103.48761650000233,103.48761650000233,103.48761650000233,103.48761650000233,103.85399679996772,103.85399679996772,103.85399679996772,103.85399679996772,103.85399679996772,103.85399679996772,103.85399679996772,103.85399679996772,103.85399679996772,0,1,[0.0011908000451512635],[0.36720989999594167],103.85399679996772,104.05424779996974,3.7,104.05424779996974,0,3.7,1,0,1000,num_1,0.5528943999670446,,28,14,2026-03-05_16h42.35.547,2026A_exp2,2022.2.4,59.90578018979828,
1000,1,0.0,0.0,1,0,24,24,63,,,,,104.63805259997025,105.29058139998233,105.29058139998233,105.7780818999745,315,315,105.7780818999745,105.7780818999745,105.7780818999745,105.7780818999745,105.7780818999745,105.7780818999745,105.7780818999745,105.7780818999745,105.7780818999745,106.13979859999381,106.13979859999381,106.13979859999381,106.13979859999381,106.13979859999381,106.13979859999381,106.13979859999381,106.13979859999381,106.13979859999381,1,2,"[0.0024676999892108142, 0.2002640999853611]","[0.18356709997169673, 0.3670750000164844]",106.13979859999381,106.35457409999799,1000,106.35457409999799,1000,1000,1000,1000,0,num_3,0.5093773999833502,,28,14,2026-03-05_16h42.35.547,2026A_exp2,2022.2.4,59.90578018979828,
1,0,0.0,0.0,1,0,25,25,56,,,,,106.89040159998694,107.54958200000692,107.54958200000692,108.04202729999088,45,45,108.04202729999088,108.04202729999088,108.04202729999088,108.04202729999088,108.04202729999088,108.04202729999088,108.04202729999088,108.04202729999088,108.04202729999088,108.40860769996652,108.40860769996652,108.40860769996652,108.40860769996652,108.40860769996652,108.40860769996652,108.40860769996652,108.40860769996652,108.40860769996652,1,2,"[0.0012915999977849424, 0.35040669998852536]","[0.33362960000522435, 0.3669569999910891]",108.40860769996652,108.60878680000314,0.0,108.60878680000314,0,0.0,0,1,1000,num_1,0.5431159000145271,,28,14,2026-03-05_16h42.35.547,2026A_exp2,2022.2.4,59.90578018979828,
0,0,0.0,6.1,1,0,26,26,84,,,,,109.1761312999879,109.82666179997614,109.82666179997614,110.31093300000066,315,315,110.31093300000066,110.31093300000066,110.31093300000066,110.31093300000066,110.31093300000066,110.31093300000066,110.31093300000066,110.31093300000066,110.31093300000066,110.67758740001591,110.67758740001591,110.67758740001591,110.67758740001591,110.67758740001591,110.67758740001591,110.67758740001591,110.67758740001591,110.67758740001591,0,1,[0.0011898999800905585],[0.3666160000138916],110.67758740001591,110.87767979997443,0.0,110.87767979997443,0,0.0,0,1,1000,num_1,1.000878199993167,,28,14,2026-03-05_16h42.35.547,2026A_exp2,2022.2.4,59.90578018979828,
1000,1,0.0,3.7,1,0,27,27,7,,,,,111.89533879997907,112.52933459996711,112.52933459996711,113.03037250001216,45,315,113.03037250001216,113.03037250001216,113.03037250001216,113.03037250001216,113.03037250001216,113.03037250001216,113.03037250001216,113.03037250001216,113.03037250001216,113.39686819998315,113.39686819998315,113.39686819998315,113.39686819998315,113.39686819998315,113.39686819998315,113.39686819998315,113.39686819998315,113.39686819998315,0,1,[0.000982699973974377],[0.3676494999672286],113.39686819998315,113.59856389998458,1000,113.59856389998458,1000,1000,1000,1000,0,num_3,1.0247171999653801,,28,14,2026-03-05_16h42.35.547,2026A_exp2,2022.2.4,59.90578018979828,
1,0,6.1,3.7,0,0,28,28,79,,,,,114.64803189999657,115.29868959996384,115.29868959996384,115.79983959998935,45,45,115.79983959998935,115.79983959998935,115.79983959998935,115.79983959998935,115.79983959998935,115.79983959998935,115.79983959998935,115.79983959998935,115.79983959998935,116.16628120001405,116.16628120001405,116.16628120001405,116.16628120001405,116.16628120001405,116.16628120001405,116.16628120001405,116.16628120001405,116.16628120001405,23,0,,,116.16628120001405,116.36647309997352,6.1,116.36647309997352,0,6.1,1,0,1000,num_1,0.5042838000226766,,28,14,2026-03-05_16h42.35.547,2026A_exp2,2022.2.4,59.90578018979828,
1,0,0.0,3.7,0,0,29,29,34,,,,,116.90033360000234,117.54195629997412,117.54195629997412,118.0490288999863,45,315,118.0490288999863,118.0490288999863,118.0490288999863,118.0490288999863,118.0490288999863,118.0490288999863,118.0490288999863,118.0490288999863,118.0490288999863,118.40193569997791,118.40193569997791,118.40193569997791,118.40193569997791,118.40193569997791,118.40193569997791,118.40193569997791,118.40193569997791,118.40193569997791,0,1,[0.004347099980805069],[0.36447460000636056],118.40193569997791,118.60217650001869,0.0,118.60217650001869,0,0.0,0,1,1000,num_1,0.709588099969551,,28,14,2026-03-05_16h42.35.547,2026A_exp2,2022.2.4,59.90578018979828,
1000,1,4.9,6.1,1,0,30,30,4,,,,,119.33615410001948,119.98671199998353,119.98671199998353,120.4710254999809,315,315,120.4710254999809,120.4710254999809,120.4710254999809,120.4710254999809,120.4710254999809,120.4710254999809,120.4710254999809,120.4710254999809,120.4710254999809,120.83756810001796,120.83756810001796,120.83756810001796,120.83756810001796,120.83756810001796,120.83756810001796,120.83756810001796,120.83756810001796,120.83756810001796,0,1,[0.0007637999951839447],[0.36768050002865493],120.83756810001796,121.0395964999916,1000,121.0395964999916,1000,1000,1000,1000,0,num_3,0.7996964000049047,,28,14,2026-03-05_16h42.35.547,2026A_exp2,2022.2.4,59.90578018979828,
1,0,0.0,6.1,1,0,31,31,39,,,,,121.85523869999452,122.50600250001298,122.50600250001298,122.99028219998581,315,315,122.99028219998581,122.99028219998581,122.99028219998581,122.99028219998581,122.99028219998581,122.99028219998581,122.99028219998581,122.99028219998581,122.99028219998581,123.35672799998429,123.35672799998429,123.35672799998429,123.35672799998429,123.35672799998429,123.35672799998429,123.35672799998429,123.35672799998429,123.35672799998429,0,1,[0.0012558000162243843],[0.3671725000021979],123.35672799998429,123.5570982999634,6.1,123.5570982999634,0,6.1,1,0,1000,num_1,0.9140330000082031,,28,14,2026-03-05_16h42.35.547,2026A_exp2,2022.2.4,59.90578018979828,
1,0,0.0,4.9,1,0,32,32,2,,,,,124.49119059997611,125.14197070000228,125.14197070000228,125.62634079996496,45,45,125.62634079996496,125.62634079996496,125.62634079996496,125.62634079996496,125.62634079996496,125.62634079996496,125.62634079996496,125.62634079996496,125.62634079996496,125.99271319998661,125.99271319998661,125.99271319998661,125.99271319998661,125.99271319998661,125.99271319998661,125.99271319998661,125.99271319998661,125.99271319998661,1,2,"[0.001282899989746511, 0.3170643000048585]","[0.3003338999697007, 0.36702110001351684]",125.99271319998661,126.19297809997806,4.9,126.19297809997806,0,4.9,1,0,1000,num_1,0.7016195000032894,,28,14,2026-03-05_16h42.35.547,2026A_exp2,2022.2.4,59.90578018979828,
1000,1,4.9,3.7,1,0,33,33,46,,,,,126.91044489998603,127.5610694999923,127.5610694999923,128.04554550000466,45,315,128.04554550000466,128.04554550000466,128.04554550000466,128.04554550000466,128.04554550000466,128.04554550000466,128.04554550000466,128.04554550000466,128.04554550000466,128.41172009997535,128.41172009997535,128.41172009997535,128.41172009997535,128.41172009997535,128.41172009997535,128.41172009997535,128.41172009997535,128.41172009997535,0,1,[0.0012304999982006848],[0.367104200005997],128.41172009997535,128.61399029998574,1000,128.61399029998574,1000,1000,1000,1000,0,num_3,0.3604848999530077,,28,14,2026-03-05_16h42.35.547,2026A_exp2,2022.2.4,59.90578018979828,
1000,1,0.0,6.1,0,0,34,34,5,,,,,128.99573089997284,129.64657679997617,129.64657679997617,130.14741350000259,315,45,130.14741350000259,130.14741350000259,130.14741350000259,130.14741350000259,130.14741350000259,130.14741350000259,130.14741350000259,130.14741350000259,130.14741350000259,130.51397139998153,130.51397139998153,130.51397139998153,130.51397139998153,130.51397139998153,130.51397139998153,130.51397139998153,130.51397139998153,130.51397139998153,0,1,[0.0012252000160515308],[0.3673442000290379],130.51397139998153,130.71655840001768,1000,130.71655840001768,1000,1000,1000,1000,1,num_2,0.3231198000139557,,28,14,2026-03-05_16h42.35.547,2026A_exp2,2022.2.4,59.90578018979828,
1,0,4.9,6.1,1,0,35,35,62,,,,,131.0645762999775,131.71522620000178,131.71522620000178,132.21635689999675,315,315,132.21635689999675,132.21635689999675,132.21635689999675,132.21635689999675,132.21635689999675,132.21635689999675,132.21635689999675,132.21635689999675,132.21635689999675,132.58272820001002,132.58272820001002,132.58272820001002,132.58272820001002,132.58272820001002,132.58272820001002,132.58272820001002,132.58272820001002,132.58272820001002,0,1,[0.0011166000040248036],[0.3672850000439212],132.58272820001002,132.78297599998768,6.1,132.78297599998768,1,6.1,1,1,1000,num_4,0.472947700007353,,28,14,2026-03-05_16h42.35.547,2026A_exp2,2022.2.4,59.90578018979828,
1,0,0.0,0.0,1,0,36,36,66,,,,,133.2833529000054,133.9339649999747,133.9339649999747,134.41839130001608,315,45,134.41839130001608,134.41839130001608,134.41839130001608,134.41839130001608,134.41839130001608,134.41839130001608,134.41839130001608,134.41839130001608,134.41839130001608,134.78494829998817,134.78494829998817,134.78494829998817,134.78494829998817,134.78494829998817,134.78494829998817,134.78494829998817,134.78494829998817,134.78494829998817,1,2,"[0.0012121000327169895, 0.16697570000542328]","[0.15015250002034009, 0.36701320001157]",134.78494829998817,134.98508660000516,0.0,134.98508660000516,1,0.0,0,0,1000,num_4,0.24557090003509074,,28,14,2026-03-05_16h42.35.547,2026A_exp2,2022.2.4,59.90578018979828,
0,0,4.9,3.7,1,0,37,37,13,,,,,135.2519675999647,135.90256359998602,135.90256359998602,136.3872015000088,45,315,136.3872015000088,136.3872015000088,136.3872015000088,136.3872015000088,136.3872015000088,136.3872015000088,136.3872015000088,136.3872015000088,136.3872015000088,136.75352859997656,136.75352859997656,136.75352859997656,136.75352859997656,136.75352859997656,136.75352859997656,136.75352859997656,136.75352859997656,136.75352859997656,0,1,[0.0018580000032670796],[0.3665083000087179],136.75352859997656,136.95378260000143,4.9,136.95378260000143,1,4.9,1,1,1000,num_4,1.1007754000020213,,28,14,2026-03-05_16h42.35.547,2026A_exp2,2022.2.4,59.90578018979828,
1,0,0.0,4.9,1,0,38,38,44,,,,,138.07191589998547,138.72207869996782,138.72207869996782,139.20653460000176,45,45,139.20653460000176,139.20653460000176,139.20653460000176,139.20653460000176,139.20653460000176,139.20653460000176,139.20653460000176,139.20653460000176,139.20653460000176,139.5730619999813,139.5730619999813,139.5730619999813,139.5730619999813,139.5730619999813,139.5730619999813,139.5730619999813,139.5730619999813,139.5730619999813,21,2,"[0.01718799996888265, 0.1333693999913521]","[0.050070199999026954, 0.1500617999699898]",139.5730619999813,139.773131199996,4.9,139.773131199996,1,4.9,1,1,1000,num_4,0.4343292999546975,,28,14,2026-03-05_16h42.35.547,2026A_exp2,2022.2.4,59.90578018979828,
0,0,3.7,0.0,1,0,39,39,0,,,,,140.2247305000201,140.874368699966,140.874368699966,141.37550799996825,45,315,141.37550799996825,141.37550799996825,141.37550799996825,141.37550799996825,141.37550799996825,141.37550799996825,141.37550799996825,141.37550799996825,141.37550799996825,141.72519939998165,141.72519939998165,141.72519939998165,141.72519939998165,141.72519939998165,141.72519939998165,141.72519939998165,141.72519939998165,141.72519939998165,0,1,[0.0012261999654583633],[0.3503740999731235],141.72519939998165,141.92533379996894,3.7,141.92533379996894,0,3.7,1,0,1000,num_1,0.890156899986323,,28,14,2026-03-05_16h42.35.547,2026A_exp2,2022.2.4,59.90578018979828,
1,0,0.0,0.0,1,0,40,40,24,,,,,142.8429305999889,143.49364220001735,143.49364220001735,143.9780993000022,315,45,143.9780993000022,143.9780993000022,143.9780993000022,143.9780993000022,143.9780993000022,143.9780993000022,143.9780993000022,143.9780993000022,143.9780993000022,144.34440569998696,144.34440569998696,144.34440569998696,144.34440569998696,144.34440569998696,144.34440569998696,144.34440569998696,144.34440569998696,144.34440569998696,3,2,"[0.001209900015965104, 0.3172639000113122]","[0.2670289000379853, 0.36726730002555996]",144.34440569998696,144.54476269998122,0.0,144.54476269998122,0,0.0,0,1,1000,num_1,0.798110399977304,,28,14,2026-03-05_16h42.35.547,2026A_exp2,2022.2.4,59.90578018979828,
1000,1,0.0,3.7,1,0,41,41,86,,,,,145.36212459998205,146.01277829997707,146.01277829997707,146.49727789999451,45,315,146.49727789999451,146.49727789999451,146.49727789999451,146.49727789999451,146.49727789999451,146.49727789999451,146.49727789999451,146.49727789999451,146.49727789999451,146.8636452999781,146.8636452999781,146.8636452999781,146.8636452999781,146.8636452999781,146.8636452999781,146.8636452999781,146.8636452999781,146.8636452999781,0,1,[0.0011855000047944486],[0.36733059998368844],146.8636452999781,147.06559189996915,1000,147.06559189996915,1000,1000,1000,1000,0,num_3,0.6701201000250876,,28,14,2026-03-05_16h42.35.547,2026A_exp2,2022.2.4,59.90578018979828,
1000,1,4.9,0.0,0,0,42,42,82,,,,,147.764560599986,148.42583630001172,148.42583630001172,148.9162500000093,315,315,148.9162500000093,148.9162500000093,148.9162500000093,148.9162500000093,148.9162500000093,148.9162500000093,148.9162500000093,148.9162500000093,148.9162500000093,149.28276059997734,149.28276059997734,149.28276059997734,149.28276059997734,149.28276059997734,149.28276059997734,149.28276059997734,149.28276059997734,149.28276059997734,0,1,[0.0012342000263743103],[0.3671524000237696],149.28276059997734,149.48500829999102,1000,149.48500829999102,1000,1000,1000,1000,0,num_3,0.5614964999840595,,28,14,2026-03-05_16h42.35.547,2026A_exp2,2022.2.4,59.90578018979828,
1000,1,0.0,0.0,1,0,43,43,72,,,,,150.06694479996804,150.71759770001518,150.71759770001518,151.21860929997638,315,45,151.21860929997638,151.21860929997638,151.21860929997638,151.21860929997638,151.21860929997638,151.21860929997638,151.21860929997638,151.21860929997638,151.21860929997638,151.58507640002063,151.58507640002063,151.58507640002063,151.58507640002063,151.58507640002063,151.58507640002063,151.58507640002063,151.58507640002063,151.58507640002063,0,1,[0.0012391000054776669],[0.3673331000027247],151.58507640002063,151.7871906000073,1000,151.7871906000073,1000,1000,1000,1000,1,num_2,0.6114797999616712,,28,14,2026-03-05_16h42.35.547,2026A_exp2,2022.2.4,59.90578018979828,
1,0,3.7,4.9,0,0,44,44,70,,,,,152.41940989997238,153.06982410000637,153.06982410000637,153.5543179999804,45,45,153.5543179999804,153.5543179999804,153.5543179999804,153.5543179999804,153.5543179999804,153.5543179999804,153.5543179999804,153.5543179999804,153.5543179999804,153.92077199998312,153.92077199998312,153.92077199998312,153.92077199998312,153.92077199998312,153.92077199998312,153.92077199998312,153.92077199998312,153.92077199998312,23,0,,,153.92077199998312,154.12085579999257,3.7,154.12085579999257,0,3.7,1,0,1000,num_1,0.9339367999928072,,28,14,2026-03-05_16h42.35.547,2026A_exp2,2022.2.4,59.90578018979828,
0,0,0.0,0.0,0,0,45,45,20,,,,,155.07191960001364,155.72250500001246,155.72250500001246,156.2068658999633,315,315,156.2068658999633,156.2068658999633,156.2068658999633,156.2068658999633,156.2068658999633,156.2068658999633,156.2068658999633,156.2068658999633,156.2068658999633,156.573472100019,156.573472100019,156.573472100019,156.573472100019,156.573472100019,156.573472100019,156.573472100019,156.573472100019,156.573472100019,21,1,[0.0012176000163890421],[0.033445000008214265],156.573472100019,156.77358390000882,0.0,156.77358390000882,0,0.0,0,1,1000,num_1,0.6581132999854162,,28,14,2026-03-05_16h42.35.547,2026A_exp2,2022.2.4,59.90578018979828,
1,0,0.0,0.0,0,0,46,46,75,,,,,157.45749140001135,158.091612899967,158.091612899967,158.59248599997954,45,45,158.59248599997954,158.59248599997954,158.59248599997954,158.59248599997954,158.59248599997954,158.59248599997954,158.59248599997954,158.59248599997954,158.59248599997954,158.95908669999335,158.95908669999335,158.95908669999335,158.95908669999335,158.95908669999335,158.95908669999335,158.95908669999335,158.95908669999335,158.95908669999335,0,1,[0.0012149999965913594],[0.36742969998158514],158.95908669999335,159.1592894999776,0.0,159.1592894999776,1,0.0,0,0,1000,num_4,0.5035816000308841,,28,14,2026-03-05_16h42.35.547,2026A_exp2,2022.2.4,59.90578018979828,
1,0,6.1,3.7,1,0,47,47,45,,,,,159.69334840000374,160.3438487999956,160.3438487999956,160.82816309999907,45,45,160.82816309999907,160.82816309999907,160.82816309999907,160.82816309999907,160.82816309999907,160.82816309999907,160.82816309999907,160.82816309999907,160.82816309999907,161.1947083999985,161.1947083999985,161.1947083999985,161.1947083999985,161.1947083999985,161.1947083999985,161.1947083999985,161.1947083999985,161.1947083999985,0,1,[0.0012030000216327608],[0.3671151000307873],161.1947083999985,161.39479579997715,3.7,161.39479579997715,0,3.7,1,0,1000,num_1,0.45246409997344017,,28,14,2026-03-05_16h42.35.547,2026A_exp2,2022.2.4,59.90578018979828,
1000,1,3.7,3.7,1,0,48,48,25,,,,,161.87864760000957,162.5291869000066,162.5291869000066,163.01380289997905,45,315,163.01380289997905,163.01380289997905,163.01380289997905,163.01380289997905,163.01380289997905,163.01380289997905,163.01380289997905,163.01380289997905,163.01380289997905,163.3802026999765,163.3802026999765,163.3802026999765,163.3802026999765,163.3802026999765,163.3802026999765,163.3802026999765,163.3802026999765,163.3802026999765,0,1,[0.0012138999882154167],[0.36711429996648803],163.3802026999765,163.581953099987,1000,163.581953099987,1000,1000,1000,1000,0,num_3,0.5850548000307754,,28,14,2026-03-05_16h42.35.547,2026A_exp2,2022.2.4,59.90578018979828,
1,0,6.1,0.0,1,0,49,49,53,,,,,164.1980496000033,164.84813290002057,164.84813290002057,165.34933609998552,315,45,165.34933609998552,165.34933609998552,165.34933609998552,165.34933609998552,165.34933609998552,165.34933609998552,165.34933609998552,165.34933609998552,165.34933609998552,165.71590229996946,165.71590229996946,165.71590229996946,165.71590229996946,165.71590229996946,165.71590229996946,165.71590229996946,165.71590229996946,165.71590229996946,23,0,,,165.71590229996946,165.9160706999828,0.0,165.9160706999828,0,0.0,0,1,1000,num_1,0.4990490999771282,,28,14,2026-03-05_16h42.35.547,2026A_exp2,2022.2.4,59.90578018979828,
1,0,0.0,3.7,1,0,50,50,83,,,,,166.4332876999979,167.06726280000294,167.06726280000294,167.56835889996728,45,45,167.56835889996728,167.56835889996728,167.56835889996728,167.56835889996728,167.56835889996728,167.56835889996728,167.56835889996728,167.56835889996728,167.56835889996728,167.93477890000213,167.93477890000213,167.93477890000213,167.93477890000213,167.93477890000213,167.93477890000213,167.93477890000213,167.93477890000213,167.93477890000213,0,1,[0.0012131999828852713],[0.3671717999968678],167.93477890000213,168.13501179998275,3.7,168.13501179998275,0,3.7,1,0,1000,num_1,0.45557469996856526,,28,14,2026-03-05_16h42.35.547,2026A_exp2,2022.2.4,59.90578018979828,
1,0,0.0,0.0,1,0,51,51,60,,,,,168.61879540001974,169.27930679998826,169.27930679998826,169.76994610001566,315,45,169.76994610001566,169.76994610001566,169.76994610001566,169.76994610001566,169.76994610001566,169.76994610001566,169.76994610001566,169.76994610001566,169.76994610001566,170.120463499974,170.120463499974,170.120463499974,170.120463499974,170.120463499974,170.120463499974,170.120463499974,170.120463499974,170.120463499974,23,0,,,170.120463499974,170.32435409998288,0.0,170.32435409998288,1,0.0,0,0,1000,num_4,0.47441730002174154,,28,14,2026-03-05_16h42.35.547,2026A_exp2,2022.2.4,59.90578018979828,
1000,1,0.0,0.0,1,0,52,52,8,,,,,170.82092219998594,171.47159149998333,171.47159149998333,171.9559102000203,45,45,171.9559102000203,171.9559102000203,171.9559102000203,171.9559102000203,171.9559102000203,171.9559102000203,171.9559102000203,171.9559102000203,171.9559102000203,172.32253249996575,172.32253249996575,172.32253249996575,172.32253249996575,172.32253249996575,172.32253249996575,172.32253249996575,172.32253249996575,172.32253249996575,1,1,[0.01736280001932755],[0.36662749998504296],172.32253249996575,172.52446859999327,1000,172.52446859999327,1000,1000,1000,1000,0,num_3,0.34685129998251796,,28,14,2026-03-05_16h42.35.547,2026A_exp2,2022.2.4,59.90578018979828,
0,0,0.0,0.0,0,0,53,53,10,,,,,172.8895953000174,173.54026859998703,173.54026859998703,174.04134930000873,315,45,174.04134930000873,174.04134930000873,174.04134930000873,174.04134930000873,174.04134930000873,174.04134930000873,174.04134930000873,174.04134930000873,174.04134930000873,174.40791379997972,174.40791379997972,174.40791379997972,174.40791379997972,174.40791379997972,174.40791379997972,174.40791379997972,174.40791379997972,174.40791379997972,0,1,[0.0012355000362731516],[0.3671296000247821],174.40791379997972,174.60807339998428,0.0,174.60807339998428,0,0.0,0,1,1000,num_1,0.6954603999620304,,28,14,2026-03-05_16h42.35.547,2026A_exp2,2022.2.4,59.90578018979828,
1,0,6.1,0.0,1,0,54,54,29,,,,,175.32547179999528,175.97612389997812,175.97612389997812,176.46061090001604,45,315,176.46061090001604,176.46061090001604,176.46061090001604,176.46061090001604,176.46061090001604,176.46061090001604,176.46061090001604,176.46061090001604,176.46061090001604,176.82700270001078,176.82700270001078,176.82700270001078,176.82700270001078,176.82700270001078,176.82700270001078,176.82700270001078,176.82700270001078,176.82700270001078,1,1,[0.0011901000398211181],[0.36729229998309165],176.82700270001078,177.02715420001186,0.0,177.02715420001186,1,0.0,0,0,1000,num_4,0.47654860001057386,,28,14,2026-03-05_16h42.35.547,2026A_exp2,2022.2.4,59.90578018979828,
1,0,3.7,0.0,1,0,55,55,55,,,,,177.52772790001472,178.17833989998326,178.17833989998326,178.66258950001793,315,45,178.66258950001793,178.66258950001793,178.66258950001793,178.66258950001793,178.66258950001793,178.66258950001793,178.66258950001793,178.66258950001793,178.66258950001793,179.02911589998985,179.02911589998985,179.02911589998985,179.02911589998985,179.02911589998985,179.02911589998985,179.02911589998985,179.02911589998985,179.02911589998985,21,1,[0.35047349997330457],[0.36714379995828494],179.02911589998985,179.22941789997276,0.0,179.22941789997276,1,0.0,0,0,1000,num_4,0.5142391999834217,,28,14,2026-03-05_16h42.35.547,2026A_exp2,2022.2.4,59.90578018979828,
1,0,4.9,0.0,0,0,56,56,19,,,,,179.76344870001776,180.41356869996525,180.41356869996525,180.89831799996318,315,315,180.89831799996318,180.89831799996318,180.89831799996318,180.89831799996318,180.89831799996318,180.89831799996318,180.89831799996318,180.89831799996318,180.89831799996318,181.2647715000203,181.2647715000203,181.2647715000203,181.2647715000203,181.2647715000203,181.2647715000203,181.2647715000203,181.2647715000203,181.2647715000203,23,0,,,181.2647715000203,181.46490469999844,4.9,181.46490469999844,0,4.9,1,0,1000,num_1,0.6065598999848589,,28,14,2026-03-05_16h42.35.547,2026A_exp2,2022.2.4,59.90578018979828,
1,0,3.7,3.7,1,0,57,57,11,,,,,182.0992750999867,182.74955780000892,182.74955780000892,183.2340220999904,45,45,183.2340220999904,183.2340220999904,183.2340220999904,183.2340220999904,183.2340220999904,183.2340220999904,183.2340220999904,183.2340220999904,183.2340220999904,183.60045949998312,183.60045949998312,183.60045949998312,183.60045949998312,183.60045949998312,183.60045949998312,183.60045949998312,183.60045949998312,183.60045949998312,23,0,,,183.60045949998312,183.80062080000062,3.7,183.80062080000062,1,3.7,1,1,1000,num_4,0.4390815999940969,,28,14,2026-03-05_16h42.35.547,2026A_exp2,2022.2.4,59.90578018979828,
1,0,4.9,3.7,0,0,58,58,89,,,,,184.26769229996717,184.9182781999698,184.9182781999698,185.40287499997066,45,315,185.40287499997066,185.40287499997066,185.40287499997066,185.40287499997066,185.40287499997066,185.40287499997066,185.40287499997066,185.40287499997066,185.40287499997066,185.76913420000346,185.76913420000346,185.76913420000346,185.76913420000346,185.76913420000346,185.76913420000346,185.76913420000346,185.76913420000346,185.76913420000346,0,1,[0.0012057999847456813],[0.3673723999527283],185.76913420000346,185.96949170000153,4.9,185.96949170000153,1,4.9,1,1,1000,num_4,0.5977099000010639,,28,14,2026-03-05_16h42.35.547,2026A_exp2,2022.2.4,59.90578018979828,
1000,1,3.7,0.0,1,0,59,59,54,,,,,186.58673430001363,187.2373581000138,187.2373581000138,187.72177309996914,315,315,187.72177309996914,187.72177309996914,187.72177309996914,187.72177309996914,187.72177309996914,187.72177309996914,187.72177309996914,187.72177309996914,187.72177309996914,188.08833870000672,188.08833870000672,188.08833870000672,188.08833870000672,188.08833870000672,188.08833870000672,188.08833870000672,188.08833870000672,188.08833870000672,22,1,[0.18407870002556592],[0.20018400001572445],188.08833870000672,188.31601060001412,1000,188.31601060001412,1000,1000,1000,1000,0,num_3,0.49904680001782253,,28,14,2026-03-05_16h42.35.547,2026A_exp2,2022.2.4,59.90578018979828,
1000,1,4.9,6.1,0,0,60,60,59,,,,,188.83900480001466,189.48958529997617,189.48958529997617,189.99064350000117,45,315,189.99064350000117,189.99064350000117,189.99064350000117,189.99064350000117,189.99064350000117,189.99064350000117,189.99064350000117,189.99064350000117,189.99064350000117,190.35704219999025,190.35704219999025,190.35704219999025,190.35704219999025,190.35704219999025,190.35704219999025,190.35704219999025,190.35704219999025,190.35704219999025,23,0,,,190.35704219999025,190.5592685000156,1000,190.5592685000156,1000,1000,1000,1000,1,num_2,0.40845750004518777,,28,14,2026-03-05_16h42.35.547,2026A_exp2,2022.2.4,59.90578018979828,
1000,1,6.1,0.0,1,0,61,61,61,,,,,190.9910930999904,191.64179439999862,191.64179439999862,192.1428088999819,315,315,192.1428088999819,192.1428088999819,192.1428088999819,192.1428088999819,192.1428088999819,192.1428088999819,192.1428088999819,192.1428088999819,192.1428088999819,192.49257880001096,192.49257880001096,192.49257880001096,192.49257880001096,192.49257880001096,192.49257880001096,192.49257880001096,192.49257880001096,192.49257880001096,22,0,,,192.49257880001096,192.69483499997295,1000,192.7095602999907,1000,1000,1000,1000,1,num_2,0.4335900000296533,,28,14,2026-03-05_16h42.35.547,2026A_exp2,2022.2.4,59.90578018979828,
1000,1,4.9,4.9,0,0,62,62,6,,,,,193.16000809997786,193.81082740001148,193.81082740001148,194.3269796000095,315,45,194.3269796000095,194.3269796000095,194.3269796000095,194.3269796000095,194.3269796000095,194.3269796000095,194.3269796000095,194.3269796000095,194.3269796000095,194.67816120001953,194.67816120001953,194.67816120001953,194.67816120001953,194.67816120001953,194.67816120001953,194.67816120001953,194.67816120001953,194.67816120001953,23,0,,,194.67816120001953,194.88096169999335,1000,194.88096169999335,1000,1000,1000,1000,1,num_2,0.7340229999972507,,28,14,2026-03-05_16h42.35.547,2026A_exp2,2022.2.4,59.90578018979828,
1,0,4.9,0.0,0,0,63,63,14,,,,,195.6458131999825,196.29635409999173,196.29635409999173,196.79759590001777,315,315,196.79759590001777,196.79759590001777,196.79759590001777,196.79759590001777,196.79759590001777,196.79759590001777,196.79759590001777,196.79759590001777,196.79759590001777,197.16385850001825,197.16385850001825,197.16385850001825,197.16385850001825,197.16385850001825,197.16385850001825,197.16385850001825,197.16385850001825,197.16385850001825,23,0,,,197.16385850001825,197.36420810001437,4.9,197.36420810001437,1,4.9,1,1,1000,num_4,0.570222600013949,,28,14,2026-03-05_16h42.35.547,2026A_exp2,2022.2.4,59.90578018979828,
1000,1,0.0,3.7,0,0,64,64,21,,,,,197.96473810001044,198.62205459998222,198.62205459998222,199.11647249996895,45,315,199.11647249996895,199.11647249996895,199.11647249996895,199.11647249996895,199.11647249996895,199.11647249996895,199.11647249996895,199.11647249996895,199.11647249996895,199.4663203000091,199.4663203000091,199.4663203000091,199.4663203000091,199.4663203000091,199.4663203000091,199.4663203000091,199.4663203000091,199.4663203000091,22,0,,,199.4663203000091,199.68195719999494,1000,199.68195719999494,1000,1000,1000,1000,1,num_2,0.6766379000036977,,28,14,2026-03-05_16h42.35.547,2026A_exp2,2022.2.4,59.90578018979828,
0,0,3.7,0.0,0,0,65,65,16,,,,,200.3839297000086,201.03443850000622,201.03443850000622,201.53555430000415,315,45,201.53555430000415,201.53555430000415,201.53555430000415,201.53555430000415,201.53555430000415,201.53555430000415,201.53555430000415,201.53555430000415,201.53555430000415,201.90203659998951,201.90203659998951,201.90203659998951,201.90203659998951,201.90203659998951,201.90203659998951,201.90203659998951,201.90203659998951,201.90203659998951,23,0,,,201.90203659998951,202.10210020001978,0.0,202.10210020001978,0,0.0,0,1,1000,num_1,0.8257255000062287,,28,14,2026-03-05_16h42.35.547,2026A_exp2,2022.2.4,59.90578018979828,
1000,1,0.0,0.0,1,0,66,66,27,,,,,202.9531268000137,203.60369590000482,203.60369590000482,204.08809550001752,315,45,204.08809550001752,204.08809550001752,204.08809550001752,204.08809550001752,204.08809550001752,204.08809550001752,204.08809550001752,204.08809550001752,204.08809550001752,204.45453009998892,204.45453009998892,204.45453009998892,204.45453009998892,204.45453009998892,204.45453009998892,204.45453009998892,204.45453009998892,204.45453009998892,23,0,,,204.45453009998892,204.65662909997627,1000,204.65662909997627,1000,1000,1000,1000,0,num_3,0.6308779999963008,,28,14,2026-03-05_16h42.35.547,2026A_exp2,2022.2.4,59.90578018979828,
1,0,4.9,0.0,0,0,67,67,57,,,,,205.30550199997379,205.95606890000636,205.95606890000636,206.45722929999465,315,45,206.45722929999465,206.45722929999465,206.45722929999465,206.45722929999465,206.45722929999465,206.45722929999465,206.45722929999465,206.45722929999465,206.45722929999465,206.82359430001816,206.82359430001816,206.82359430001816,206.82359430001816,206.82359430001816,206.82359430001816,206.82359430001816,206.82359430001816,206.82359430001816,23,0,,,206.82359430001816,207.02381949999835,4.9,207.02381949999835,0,4.9,1,0,1000,num_1,1.6801877000252716,,28,14,2026-03-05_16h42.35.547,2026A_exp2,2022.2.4,59.90578018979828,
1000,1,0.0,4.9,1,0,68,68,51,,,,,208.72558279999066,209.37629280000692,209.37629280000692,209.87731730000814,45,315,209.87731730000814,209.87731730000814,209.87731730000814,209.87731730000814,209.87731730000814,209.87731730000814,209.87731730000814,209.87731730000814,209.87731730000814,210.22697109996807,210.22697109996807,210.22697109996807,210.22697109996807,210.22697109996807,210.22697109996807,210.22697109996807,210.22697109996807,210.22697109996807,22,0,,,210.22697109996807,210.42767060000915,1000,210.42767060000915,1000,1000,1000,1000,1,num_2,0.7235309999668971,,28,14,2026-03-05_16h42.35.547,2026A_exp2,2022.2.4,59.90578018979828,
1,0,6.1,0.0,1,0,69,69,23,,,,,211.17804470000556,211.82859240000835,211.82859240000835,212.32973900000798,45,315,212.32973900000798,212.32973900000798,212.32973900000798,212.32973900000798,212.32973900000798,212.32973900000798,212.32973900000798,212.32973900000798,212.32973900000798,212.6962270999793,212.6962270999793,212.6962270999793,212.6962270999793,212.6962270999793,212.6962270999793,212.6962270999793,212.6962270999793,212.6962270999793,23,0,,,212.6962270999793,212.89638290001312,0.0,212.89638290001312,1,0.0,0,0,1000,num_4,0.5501917999936268,,28,14,2026-03-05_16h42.35.547,2026A_exp2,2022.2.4,59.90578018979828,
1000,1,6.1,3.7,0,0,70,70,43,,,,,213.4636068000109,214.1141062999959,214.1141062999959,214.59867779997876,45,45,214.59867779997876,214.59867779997876,214.59867779997876,214.59867779997876,214.59867779997876,214.59867779997876,214.59867779997876,214.59867779997876,214.59867779997876,214.96510279999347,214.96510279999347,214.96510279999347,214.96510279999347,214.96510279999347,214.96510279999347,214.96510279999347,214.96510279999347,214.96510279999347,18,3,"[0.0012042000307701528, 0.30057469999883324, 0.33387060003587976]","[0.04991990001872182, 0.3173231999971904, 0.35053190001053736]",214.96510279999347,215.1674921999802,1000,215.1674921999802,1000,1000,1000,1000,1,num_2,0.5919736999785528,,28,14,2026-03-05_16h42.35.547,2026A_exp2,2022.2.4,59.90578018979828,
1000,1,0.0,0.0,1,0,71,71,37,,,,,215.78255669999635,216.4333158999798,216.4333158999798,216.93423499999335,45,315,216.93423499999335,216.93423499999335,216.93423499999335,216.93423499999335,216.93423499999335,216.93423499999335,216.93423499999335,216.93423499999335,216.93423499999335,217.30069679999724,217.30069679999724,217.30069679999724,217.30069679999724,217.30069679999724,217.30069679999724,217.30069679999724,217.30069679999724,217.30069679999724,23,0,,,217.30069679999724,217.5023608999909,1000,217.5023608999909,1000,1000,1000,1000,0,num_3,0.5133203000295907,,28,14,2026-03-05_16h42.35.547,2026A_exp2,2022.2.4,59.90578018979828,
1,0,6.1,4.9,1,0,72,72,38,,,,,218.0349000999704,218.68541249999544,218.68541249999544,219.1866216000053,315,45,219.1866216000053,219.1866216000053,219.1866216000053,219.1866216000053,219.1866216000053,219.1866216000053,219.1866216000053,219.1866216000053,219.1866216000053,219.55305479996605,219.55305479996605,219.55305479996605,219.55305479996605,219.55305479996605,219.55305479996605,219.55305479996605,219.55305479996605,219.55305479996605,0,1,[0.0012235000031068921],[0.36732680001296103],219.55305479996605,219.75309080001898,4.9,219.75309080001898,1,4.9,1,1,1000,num_4,0.5017634999821894,,28,14,2026-03-05_16h42.35.547,2026A_exp2,2022.2.4,59.90578018979828,
1000,1,4.9,6.1,0,0,73,73,49,,,,,220.2871073000133,220.93845139996847,220.93845139996847,221.42595289996825,45,315,221.42595289996825,221.42595289996825,221.42595289996825,221.42595289996825,221.42595289996825,221.42595289996825,221.42595289996825,221.42595289996825,221.42595289996825,221.78865130001213,221.78865130001213,221.78865130001213,221.78865130001213,221.78865130001213,221.78865130001213,221.78865130001213,221.78865130001213,221.78865130001213,23,0,,,221.78865130001213,222.00233290001052,1000,222.00233290001052,1000,1000,1000,1000,0,num_3,0.5410521000158042,,28,14,2026-03-05_16h42.35.547,2026A_exp2,2022.2.4,59.90578018979828,
1,0,4.9,0.0,1,0,74,74,52,,,,,222.57312969997292,223.22336110001197,223.22336110001197,223.72441630001413,315,315,223.72441630001413,223.72441630001413,223.72441630001413,223.72441630001413,223.72441630001413,223.72441630001413,223.72441630001413,223.72441630001413,223.72441630001413,224.0909329999704,224.0909329999704,224.0909329999704,224.0909329999704,224.0909329999704,224.0909329999704,224.0909329999704,224.0909329999704,224.0909329999704,4,1,[0.001208100002259016],[0.31721680000191554],224.0909329999704,224.29108220001217,0.0,224.29108220001217,0,0.0,0,1,1000,num_1,0.5643696000333875,,28,14,2026-03-05_16h42.35.547,2026A_exp2,2022.2.4,59.90578018979828,
1,0,0.0,0.0,0,0,75,75,87,,,,,224.8750149999978,225.52567709999857,225.52567709999857,226.01006429997506,45,315,226.01006429997506,226.01006429997506,226.01006429997506,226.01006429997506,226.01006429997506,226.01006429997506,226.01006429997506,226.01006429997506,226.01006429997506,226.37648289999925,226.37648289999925,226.37648289999925,226.37648289999925,226.37648289999925,226.37648289999925,226.37648289999925,226.37648289999925,226.37648289999925,0,1,[0.001211599970702082],[0.3672068999730982],226.37648289999925,226.5767001999775,0.0,226.5767001999775,0,0.0,0,1,1000,num_1,0.6068944999715313,,28,14,2026-03-05_16h42.35.547,2026A_exp2,2022.2.4,59.90578018979828,
1000,1,3.7,0.0,0,0,76,76,28,,,,,227.2106880999636,227.8613655999652,227.8613655999652,228.34574239997892,315,45,228.34574239997892,228.34574239997892,228.34574239997892,228.34574239997892,228.34574239997892,228.34574239997892,228.34574239997892,228.34574239997892,228.34574239997892,228.71219120000023,228.71219120000023,228.71219120000023,228.71219120000023,228.71219120000023,228.71219120000023,228.71219120000023,228.71219120000023,228.71219120000023,0,1,[0.000741699943318963],[0.3674706999445334],228.71219120000023,228.91427060001297,1000,228.91427060001297,1000,1000,1000,1000,0,num_3,0.41341090004425496,,28,14,2026-03-05_16h42.35.547,2026A_exp2,2022.2.4,59.90578018979828,
1000,1,0.0,3.7,0,0,77,77,18,,,,,229.34609599999385,229.9967808999936,229.9967808999936,230.4979580999934,45,45,230.4979580999934,230.4979580999934,230.4979580999934,230.4979580999934,230.4979580999934,230.4979580999934,230.4979580999934,230.4979580999934,230.4979580999934,230.86434909998206,230.86434909998206,230.86434909998206,230.86434909998206,230.86434909998206,230.86434909998206,230.86434909998206,230.86434909998206,230.86434909998206,7,1,[0.0012275000335648656],[0.2671157000004314],230.86434909998206,231.06681410002057,1000,231.06681410002057,1000,1000,1000,1000,1,num_2,0.4198259999975562,,28,14,2026-03-05_16h42.35.547,2026A_exp2,2022.2.4,59.90578018979828,
1000,1,0.0,0.0,0,0,78,78,33,,,,,231.51504709996516,232.16551019996405,232.16551019996405,232.6667538000038,315,315,232.6667538000038,232.6667538000038,232.6667538000038,232.6667538000038,232.6667538000038,232.6667538000038,232.6667538000038,232.6667538000038,232.6667538000038,233.0331347999745,233.0331347999745,233.0331347999745,233.0331347999745,233.0331347999745,233.0331347999745,233.0331347999745,233.0331347999745,233.0331347999745,22,1,[0.23352210002485663],[0.2501332000247203],233.0331347999745,233.2335290000192,1000,233.2335290000192,1000,1000,1000,1000,0,num_3,0.4936947000096552,,28,14,2026-03-05_16h42.35.547,2026A_exp2,2022.2.4,59.90578018979828,
1,0,0.0,4.9,0,0,79,79,48,,,,,233.75060379999923,234.4010800999822,234.4010800999822,234.90236000000732,315,45,234.90236000000732,234.90236000000732,234.90236000000732,234.90236000000732,234.90236000000732,234.90236000000732,234.90236000000732,234.90236000000732,234.90236000000732,235.2686028999742,235.2686028999742,235.2686028999742,235.2686028999742,235.2686028999742,235.2686028999742,235.2686028999742,235.2686028999742,235.2686028999742,0,1,[0.0012226999970152974],[0.36695029999827966],235.2686028999742,235.46894880000036,0.0,235.46894880000036,1,0.0,0,0,1000,num_4,0.8980549999978393,,28,14,2026-03-05_16h42.35.547,2026A_exp2,2022.2.4,59.90578018979828,
1,0,4.9,4.9,1,0,80,80,32,,,,,236.38655689998996,237.03716299997177,237.03716299997177,237.52164419996552,45,315,237.52164419996552,237.52164419996552,237.52164419996552,237.52164419996552,237.52164419996552,237.52164419996552,237.52164419996552,237.52164419996552,237.52164419996552,237.887973600009,237.887973600009,237.887973600009,237.887973600009,237.887973600009,237.887973600009,237.887973600009,237.887973600009,237.887973600009,0,1,[0.0014623000170104206],[0.36683030001586303],237.887973600009,238.08827399997972,4.9,238.08827399997972,1,4.9,1,1,1000,num_4,0.5992690999992192,,28,14,2026-03-05_16h42.35.547,2026A_exp2,2022.2.4,59.90578018979828,
1,0,0.0,0.0,1,0,81,81,77,,,,,238.70557609997923,239.3562078999821,239.3562078999821,239.84043380001094,315,315,239.84043380001094,239.84043380001094,239.84043380001094,239.84043380001094,239.84043380001094,239.84043380001094,239.84043380001094,239.84043380001094,239.84043380001094,240.20712189999176,240.20712189999176,240.20712189999176,240.20712189999176,240.20712189999176,240.20712189999176,240.20712189999176,240.20712189999176,240.20712189999176,0,1,[0.0011805000249296427],[0.3671240000403486],240.20712189999176,240.4069562999648,0.0,240.42368359997636,0,0.0,0,1,1000,num_1,0.9282568000489846,,28,14,2026-03-05_16h42.35.547,2026A_exp2,2022.2.4,59.90578018979828,
1,0,0.0,4.9,0,0,82,82,9,,,,,241.37495379999746,242.02549500000896,242.02549500000896,242.5102941999794,45,45,242.5102941999794,242.5102941999794,242.5102941999794,242.5102941999794,242.5102941999794,242.5102941999794,242.5102941999794,242.5102941999794,242.5102941999794,242.87621690001106,242.87621690001106,242.87621690001106,242.87621690001106,242.87621690001106,242.87621690001106,242.87621690001106,242.87621690001106,242.87621690001106,0,1,[0.0018425000016577542],[0.3661897999700159],242.87621690001106,243.07650779996766,0.0,243.07650779996766,0,0.0,0,1,1000,num_1,0.4820478999754414,,28,14,2026-03-05_16h42.35.547,2026A_exp2,2022.2.4,59.90578018979828,
1,0,0.0,6.1,1,0,83,83,17,,,,,243.5772487000213,244.23630709998542,244.23630709998542,244.71619389997795,315,45,244.71619389997795,244.71619389997795,244.71619389997795,244.71619389997795,244.71619389997795,244.71619389997795,244.71619389997795,244.71619389997795,244.71619389997795,245.07858309999574,245.07858309999574,245.07858309999574,245.07858309999574,245.07858309999574,245.07858309999574,245.07858309999574,245.07858309999574,245.07858309999574,10,3,"[0.0023719000164419413, 0.0336941999848932, 0.2336236999835819]","[0.02136910002445802, 0.200291000015568, 0.2670827999827452]",245.07858309999574,245.27875529997982,6.1,245.27875529997982,1,6.1,1,1,1000,num_4,0.5681489999988116,,28,14,2026-03-05_16h42.35.547,2026A_exp2,2022.2.4,59.90578018979828,
1000,1,0.0,3.7,1,0,84,84,81,,,,,245.8626832999871,246.51328399998602,246.51328399998602,246.99751249997644,315,45,246.99751249997644,246.99751249997644,246.99751249997644,246.99751249997644,246.99751249997644,246.99751249997644,246.99751249997644,246.99751249997644,246.99751249997644,247.36385309998877,247.36385309998877,247.36385309998877,247.36385309998877,247.36385309998877,247.36385309998877,247.36385309998877,247.36385309998877,247.36385309998877,23,0,,,247.36385309998877,247.56556760001695,1000,247.56556760001695,1000,1000,1000,1000,0,num_3,0.47439719998510554,,28,14,2026-03-05_16h42.35.547,2026A_exp2,2022.2.4,59.90578018979828,
1000,1,6.1,0.0,1,0,85,85,71,,,,,248.0648370999843,248.71552450000308,248.71552450000308,249.21659049997106,315,45,249.21659049997106,249.21659049997106,249.21659049997106,249.21659049997106,249.21659049997106,249.21659049997106,249.21659049997106,249.21659049997106,249.21659049997106,249.58302069996716,249.58302069996716,249.58302069996716,249.58302069996716,249.58302069996716,249.58302069996716,249.58302069996716,249.58302069996716,249.58302069996716,23,0,,,249.58302069996716,249.78463060001377,1000,249.78463060001377,1000,1000,1000,1000,1,num_2,0.4547766000032425,,28,14,2026-03-05_16h42.35.547,2026A_exp2,2022.2.4,59.90578018979828,
1000,1,0.0,0.0,1,0,86,86,80,,,,,250.26718089997303,250.9177526999847,250.9177526999847,251.41883759998018,45,315,251.41883759998018,251.41883759998018,251.41883759998018,251.41883759998018,251.41883759998018,251.41883759998018,251.41883759998018,251.41883759998018,251.41883759998018,251.78527340001892,251.78527340001892,251.78527340001892,251.78527340001892,251.78527340001892,251.78527340001892,251.78527340001892,251.78527340001892,251.78527340001892,11,1,[0.0012184000224806368],[0.20042270002886653],251.78527340001892,251.98815079999622,1000,251.98815079999622,1000,1000,1000,1000,1,num_2,0.7557418000069447,,28,14,2026-03-05_16h42.35.547,2026A_exp2,2022.2.4,59.90578018979828,
1,0,0.0,0.0,1,0,87,87,42,,,,,252.76967499998864,253.4201929999981,253.4201929999981,253.92108780000126,315,315,253.92108780000126,253.92108780000126,253.92108780000126,253.92108780000126,253.92108780000126,253.92108780000126,253.92108780000126,253.92108780000126,253.92108780000126,254.27112609997857,254.27112609997857,254.27112609997857,254.27112609997857,254.27112609997857,254.27112609997857,254.27112609997857,254.27112609997857,254.27112609997857,0,1,[0.0013487000251188874],[0.3505346000310965],254.27112609997857,254.47130480001215,0.0,254.48797459999332,1,0.0,0,0,1000,num_4,0.5514935000101104,,28,14,2026-03-05_16h42.35.547,2026A_exp2,2022.2.4,59.90578018979828,
1,0,0.0,6.1,0,0,88,88,3,,,,,255.05521439999575,255.70585129997926,255.70585129997926,256.2065519000171,315,315,256.2065519000171,256.2065519000171,256.2065519000171,256.2065519000171,256.2065519000171,256.2065519000171,256.2065519000171,256.2065519000171,256.2065519000171,256.5567058000015,256.5567058000015,256.5567058000015,256.5567058000015,256.5567058000015,256.5567058000015,256.5567058000015,256.5567058000015,256.5567058000015,22,0,,,256.5567058000015,256.75696379999863,0.0,256.75696379999863,0,0.0,0,1,1000,num_1,0.8104027999797836,,28,14,2026-03-05_16h42.35.547,2026A_exp2,2022.2.4,59.90578018979828,
0,0,6.1,0.0,0,0,89,89,65,,,,,257.5909797999775,258.24134010000853,258.24134010000853,258.7261710999883,315,315,258.7261710999883,258.7261710999883,258.7261710999883,258.7261710999883,258.7261710999883,258.7261710999883,258.7261710999883,258.7261710999883,258.7261710999883,259.0925416999962,259.0925416999962,259.0925416999962,259.0925416999962,259.0925416999962,259.0925416999962,259.0925416999962,259.0925416999962,259.0925416999962,23,0,,,259.0925416999962,259.2927973999758,0.0,259.2927973999758,0,0.0,0,1,1000,num_1,0.994362999976147,,28,14,2026-03-05_16h42.35.547,2026A_exp2,2022.2.4,59.90578018979828,
,,,,,,,,,,,,,,,,,,,,,,,,,,,,,,,,,,,,,,,,,,,,,,,,,,,,260.3187915000017,,,,,,,
