validity,detectorcomp,contrastCW,contrastCCW,precueCWorCCW,block_80trials.thisRepN,block_80trials.thisTrialN,block_80trials.thisN,block_80trials.thisIndex,etRecord.started,etRecord.stopped,text.started,text.stopped,text_4.started,text_4.stopped,text_6.started,text_6.stopped,oriCW,oriCCW,roi_2.started,grating_UR.started,grating_UL.started,grating_LR.started,grating_LL.started,noise_UR.started,noise_UL.started,noise_LR.started,noise_LL.started,roi_2.stopped,grating_UR.stopped,grating_UL.stopped,grating_LR.stopped,grating_LL.stopped,noise_UR.stopped,noise_UL.stopped,noise_LR.stopped,noise_LL.stopped,outframe,roi_2.numLooks,roi_2.timesOn,roi_2.timesOff,text_2.started,text_2.stopped,probedcontrast,key_resp.started,respdetect,relevantContrast,correctDetect,TorFdetect,respCWorCCW,key_resp.keys,key_resp.rt,feedback_display_.started,participantNo,blockNo,date,expName,psychopyVersion,frameRate,
1000,1,0.0,4.9,0,0,0,0,61,4.029995761811733e-05,4.029995761811733e-05,52.85753859998658,54.86052950005978,54.86052950005978,55.4945052000694,55.4945052000694,56.018844900187105,45,315,56.018844900187105,56.018844900187105,56.018844900187105,56.018844900187105,56.018844900187105,56.018844900187105,56.018844900187105,56.018844900187105,56.018844900187105,56.36168900015764,56.36168900015764,56.36168900015764,56.36168900015764,56.36168900015764,56.36168900015764,56.36168900015764,56.36168900015764,56.36168900015764,23,0,,,56.36168900015764,56.56888930010609,1000,56.56888930010609,1000,1000,1000,1000,1,num_2,1.7211108999326825,,32,4,2026-03-12_15h27.12.079,2026A_exp2,2022.2.4,59.997432034478784,
1,0,0.0,0.0,0,0,1,1,24,,,,,58.31385549996048,58.94749779999256,58.94749779999256,59.46532390010543,315,45,59.46532390010543,59.46532390010543,59.46532390010543,59.46532390010543,59.46532390010543,59.46532390010543,59.46532390010543,59.46532390010543,59.46532390010543,59.83184400014579,59.83184400014579,59.83184400014579,59.83184400014579,59.83184400014579,59.83184400014579,59.83184400014579,59.83184400014579,59.83184400014579,23,0,,,59.83184400014579,60.03222619998269,0.0,60.03222619998269,1,0.0,0,0,1000,num_4,0.7373207001946867,,32,4,2026-03-12_15h27.12.079,2026A_exp2,2022.2.4,59.997432034478784,
1,0,6.1,0.0,1,0,2,2,80,,,,,60.79954929999076,61.450244300067425,61.450244300067425,61.9344623000361,45,315,61.9344623000361,61.9344623000361,61.9344623000361,61.9344623000361,61.9344623000361,61.9344623000361,61.9344623000361,61.9344623000361,61.9344623000361,62.301066200016066,62.301066200016066,62.301066200016066,62.301066200016066,62.301066200016066,62.301066200016066,62.301066200016066,62.301066200016066,62.301066200016066,23,0,,,62.301066200016066,62.50143010006286,0.0,62.50143010006286,0,0.0,0,1,1000,num_1,0.500218499917537,,32,4,2026-03-12_15h27.12.079,2026A_exp2,2022.2.4,59.997432034478784,
1000,1,0.0,6.1,1,0,3,3,43,,,,,63.018137300154194,63.66898540011607,63.66898540011607,64.15344380005263,315,45,64.15344380005263,64.15344380005263,64.15344380005263,64.15344380005263,64.15344380005263,64.15344380005263,64.15344380005263,64.15344380005263,64.15344380005263,64.52003809995949,64.52003809995949,64.52003809995949,64.52003809995949,64.52003809995949,64.52003809995949,64.52003809995949,64.52003809995949,64.52003809995949,23,0,,,64.52003809995949,64.73495710012503,1000,64.73495710012503,1000,1000,1000,1000,1,num_2,0.5312027998734266,,32,4,2026-03-12_15h27.12.079,2026A_exp2,2022.2.4,59.997432034478784,
1000,1,6.1,6.1,1,0,4,4,4,,,,,65.28741480014287,65.94233880005777,65.94233880005777,66.43917830009013,315,315,66.43917830009013,66.43917830009013,66.43917830009013,66.43917830009013,66.43917830009013,66.43917830009013,66.43917830009013,66.43917830009013,66.43917830009013,66.80556660005823,66.80556660005823,66.80556660005823,66.80556660005823,66.80556660005823,66.80556660005823,66.80556660005823,66.80556660005823,66.80556660005823,23,0,,,66.80556660005823,67.00819680001587,1000,67.00819680001587,1000,1000,1000,1000,1,num_2,0.6426703999750316,,32,4,2026-03-12_15h27.12.079,2026A_exp2,2022.2.4,59.997432034478784,
1000,1,6.1,0.0,1,0,5,5,83,,,,,67.67300870013423,68.32359590008855,68.32359590008855,68.82472240016796,45,45,68.82472240016796,68.82472240016796,68.82472240016796,68.82472240016796,68.82472240016796,68.82472240016796,68.82472240016796,68.82472240016796,68.82472240016796,69.17455980018713,69.17455980018713,69.17455980018713,69.17455980018713,69.17455980018713,69.17455980018713,69.17455980018713,69.17455980018713,69.17455980018713,22,0,,,69.17455980018713,69.37655090005137,1000,69.37655090005137,1000,1000,1000,1000,0,num_3,0.41001120023429394,,32,4,2026-03-12_15h27.12.079,2026A_exp2,2022.2.4,59.997432034478784,
1,0,0.0,6.1,1,0,6,6,50,,,,,69.80838820012286,70.45909350016154,70.45909350016154,70.96017830003984,315,45,70.96017830003984,70.96017830003984,70.96017830003984,70.96017830003984,70.96017830003984,70.96017830003984,70.96017830003984,70.96017830003984,70.96017830003984,71.32658040011302,71.32658040011302,71.32658040011302,71.32658040011302,71.32658040011302,71.32658040011302,71.32658040011302,71.32658040011302,71.32658040011302,23,0,,,71.32658040011302,71.52701890002936,6.1,71.52701890002936,1,6.1,1,1,1000,num_4,0.4188194000162184,,32,4,2026-03-12_15h27.12.079,2026A_exp2,2022.2.4,59.997432034478784,
1,0,0.0,3.7,1,0,7,7,32,,,,,71.97721879999153,72.63869839999825,72.63869839999825,73.12880800012499,315,315,73.12880800012499,73.12880800012499,73.12880800012499,73.12880800012499,73.12880800012499,73.12880800012499,73.12880800012499,73.12880800012499,73.12880800012499,73.47879309998825,73.47879309998825,73.47879309998825,73.47879309998825,73.47879309998825,73.47879309998825,73.47879309998825,73.47879309998825,73.47879309998825,22,0,,,73.47879309998825,73.68252060003579,3.7,73.68252060003579,1,3.7,1,1,1000,num_4,0.6071116998791695,,32,4,2026-03-12_15h27.12.079,2026A_exp2,2022.2.4,59.997432034478784,
1,0,0.0,6.1,0,0,8,8,0,,,,,74.31274630012922,74.94701969996095,74.94701969996095,75.44809630000964,315,45,75.44809630000964,75.44809630000964,75.44809630000964,75.44809630000964,75.44809630000964,75.44809630000964,75.44809630000964,75.44809630000964,75.44809630000964,75.81455869995989,75.81455869995989,75.81455869995989,75.81455869995989,75.81455869995989,75.81455869995989,75.81455869995989,75.81455869995989,75.81455869995989,23,0,,,75.81455869995989,76.01462700008415,0.0,76.01462700008415,0,0.0,0,1,1000,num_1,0.4119543000124395,,32,4,2026-03-12_15h27.12.079,2026A_exp2,2022.2.4,59.997432034478784,
0,0,3.7,0.0,0,0,9,9,62,,,,,76.44840630004182,77.10701040015556,77.10701040015556,77.58776300004683,45,45,77.58776300004683,77.58776300004683,77.58776300004683,77.58776300004683,77.58776300004683,77.58776300004683,77.58776300004683,77.58776300004683,77.58776300004683,77.9500198001042,77.9500198001042,77.9500198001042,77.9500198001042,77.9500198001042,77.9500198001042,77.9500198001042,77.9500198001042,77.9500198001042,23,0,,,77.9500198001042,78.15012610005215,0.0,78.15012610005215,0,0.0,0,1,1000,num_1,0.6760140999685973,,32,4,2026-03-12_15h27.12.079,2026A_exp2,2022.2.4,59.997432034478784,
1000,1,0.0,4.9,1,0,10,10,66,,,,,78.85253060003743,79.50328340008855,79.50328340008855,80.0026406000834,315,315,80.0026406000834,80.0026406000834,80.0026406000834,80.0026406000834,80.0026406000834,80.0026406000834,80.0026406000834,80.0026406000834,80.0026406000834,80.36879050009884,80.36879050009884,80.36879050009884,80.36879050009884,80.36879050009884,80.36879050009884,80.36879050009884,80.36879050009884,80.36879050009884,23,0,,,80.36879050009884,80.57125729997642,1000,80.57125729997642,1000,1000,1000,1000,1,num_2,0.5914285001344979,,32,4,2026-03-12_15h27.12.079,2026A_exp2,2022.2.4,59.997432034478784,
1,0,6.1,3.7,1,0,11,11,51,,,,,81.18634170014411,81.8373217000626,81.8373217000626,82.33835020009428,315,45,82.33835020009428,82.33835020009428,82.33835020009428,82.33835020009428,82.33835020009428,82.33835020009428,82.33835020009428,82.33835020009428,82.33835020009428,82.70474990014918,82.70474990014918,82.70474990014918,82.70474990014918,82.70474990014918,82.70474990014918,82.70474990014918,82.70474990014918,82.70474990014918,23,0,,,82.70474990014918,82.90500540006906,3.7,82.90500540006906,1,3.7,1,1,1000,num_4,1.0250196000561118,,32,4,2026-03-12_15h27.12.079,2026A_exp2,2022.2.4,59.997432034478784,
1000,1,0.0,0.0,1,0,12,12,85,,,,,83.95618290011771,84.60668810014613,84.60668810014613,85.10943020018749,45,315,85.10943020018749,85.10943020018749,85.10943020018749,85.10943020018749,85.10943020018749,85.10943020018749,85.10943020018749,85.10943020018749,85.10943020018749,85.47414300008677,85.47414300008677,85.47414300008677,85.47414300008677,85.47414300008677,85.47414300008677,85.47414300008677,85.47414300008677,85.47414300008677,23,0,,,85.47414300008677,85.6759532999713,1000,85.6759532999713,1000,1000,1000,1000,1,num_2,0.7823013002052903,,32,4,2026-03-12_15h27.12.079,2026A_exp2,2022.2.4,59.997432034478784,
1,0,3.7,6.1,0,0,13,13,52,,,,,86.47510790009983,87.1260083001107,87.1260083001107,87.6268988000229,45,45,87.6268988000229,87.6268988000229,87.6268988000229,87.6268988000229,87.6268988000229,87.6268988000229,87.6268988000229,87.6268988000229,87.6268988000229,87.99336720001884,87.99336720001884,87.99336720001884,87.99336720001884,87.99336720001884,87.99336720001884,87.99336720001884,87.99336720001884,87.99336720001884,23,0,,,87.99336720001884,88.19365909998305,3.7,88.19365909998305,1,3.7,1,1,1000,num_4,0.9046956999227405,,32,4,2026-03-12_15h27.12.079,2026A_exp2,2022.2.4,59.997432034478784,
1000,1,0.0,0.0,1,0,14,14,1,,,,,89.12774370005354,89.786429699976,89.786429699976,90.27963520004414,45,45,90.27963520004414,90.27963520004414,90.27963520004414,90.27963520004414,90.27963520004414,90.27963520004414,90.27963520004414,90.27963520004414,90.27963520004414,90.64584360015579,90.64584360015579,90.64584360015579,90.64584360015579,90.64584360015579,90.64584360015579,90.64584360015579,90.64584360015579,90.64584360015579,23,0,,,90.64584360015579,90.84837650018744,1000,90.84837650018744,1000,1000,1000,1000,1,num_2,0.5615862000267953,,32,4,2026-03-12_15h27.12.079,2026A_exp2,2022.2.4,59.997432034478784,
1,0,3.7,0.0,0,0,15,15,87,,,,,91.43313440005295,92.08085100003518,92.08085100003518,92.58184480015188,45,315,92.58184480015188,92.58184480015188,92.58184480015188,92.58184480015188,92.58184480015188,92.58184480015188,92.58184480015188,92.58184480015188,92.58184480015188,92.94843590003438,92.94843590003438,92.94843590003438,92.94843590003438,92.94843590003438,92.94843590003438,92.94843590003438,92.94843590003438,92.94843590003438,23,0,,,92.94843590003438,93.14847999997437,3.7,93.14847999997437,1,3.7,1,1,1000,num_4,0.4220280998852104,,32,4,2026-03-12_15h27.12.079,2026A_exp2,2022.2.4,59.997432034478784,
1000,1,6.1,6.1,0,0,16,16,16,,,,,93.59900670009665,94.232827299973,94.232827299973,94.73408269998617,45,45,94.73408269998617,94.73408269998617,94.73408269998617,94.73408269998617,94.73408269998617,94.73408269998617,94.73408269998617,94.73408269998617,94.73408269998617,95.10051420005038,95.10051420005038,95.10051420005038,95.10051420005038,95.10051420005038,95.10051420005038,95.10051420005038,95.10051420005038,95.10051420005038,23,0,,,95.10051420005038,95.30205990001559,1000,95.30205990001559,1000,1000,1000,1000,0,num_3,0.6118763000704348,,32,4,2026-03-12_15h27.12.079,2026A_exp2,2022.2.4,59.997432034478784,
1,0,3.7,4.9,1,0,17,17,20,,,,,95.93472090014257,96.58714219997637,96.58714219997637,97.09165120008402,315,45,97.09165120008402,97.09165120008402,97.09165120008402,97.09165120008402,97.09165120008402,97.09165120008402,97.09165120008402,97.09165120008402,97.09165120008402,97.45285380003043,97.45285380003043,97.45285380003043,97.45285380003043,97.45285380003043,97.45285380003043,97.45285380003043,97.45285380003043,97.45285380003043,23,0,,,97.45285380003043,97.6529831001535,4.9,97.6529831001535,1,4.9,1,1,1000,num_4,0.7489280998706818,,32,4,2026-03-12_15h27.12.079,2026A_exp2,2022.2.4,59.997432034478784,
1000,1,3.7,3.7,0,0,18,18,72,,,,,98.42030850006267,99.07101309997961,99.07101309997961,99.57217860012315,45,315,99.57217860012315,99.57217860012315,99.57217860012315,99.57217860012315,99.57217860012315,99.57217860012315,99.57217860012315,99.57217860012315,99.57217860012315,99.92201000009663,99.92201000009663,99.92201000009663,99.92201000009663,99.92201000009663,99.92201000009663,99.92201000009663,99.92201000009663,99.92201000009663,22,0,,,99.92201000009663,100.12426880002022,1000,100.12426880002022,1000,1000,1000,1000,0,num_3,0.5584321999922395,,32,4,2026-03-12_15h27.12.079,2026A_exp2,2022.2.4,59.997432034478784,
1000,1,3.7,6.1,1,0,19,19,58,,,,,100.70595320011489,101.35669909999706,101.35669909999706,101.86310560000129,315,45,101.86310560000129,101.86310560000129,101.86310560000129,101.86310560000129,101.86310560000129,101.86310560000129,101.86310560000129,101.86310560000129,101.86310560000129,102.22412100015208,102.22412100015208,102.22412100015208,102.22412100015208,102.22412100015208,102.22412100015208,102.22412100015208,102.22412100015208,102.22412100015208,23,0,,,102.22412100015208,102.42616540007293,1000,102.42616540007293,1000,1000,1000,1000,1,num_2,0.504454700043425,,32,4,2026-03-12_15h27.12.079,2026A_exp2,2022.2.4,59.997432034478784,
1,0,0.0,0.0,1,0,20,20,69,,,,,102.95866440003738,103.6088388999924,103.6088388999924,104.110081900144,315,315,104.110081900144,104.110081900144,104.110081900144,104.110081900144,104.110081900144,104.110081900144,104.110081900144,104.110081900144,104.110081900144,104.47636330011301,104.47636330011301,104.47636330011301,104.47636330011301,104.47636330011301,104.47636330011301,104.47636330011301,104.47636330011301,104.47636330011301,23,0,,,104.47636330011301,104.6765901001636,0.0,104.6765901001636,0,0.0,0,1,1000,num_1,1.0779023000504822,,32,4,2026-03-12_15h27.12.079,2026A_exp2,2022.2.4,59.997432034478784,
1,0,0.0,0.0,0,0,21,21,79,,,,,105.7777244001627,106.42851200001314,106.42851200001314,106.91291710012592,315,45,106.91291710012592,106.91291710012592,106.91291710012592,106.91291710012592,106.91291710012592,106.91291710012592,106.91291710012592,106.91291710012592,106.91291710012592,107.27934060012922,107.27934060012922,107.27934060012922,107.27934060012922,107.27934060012922,107.27934060012922,107.27934060012922,107.27934060012922,107.27934060012922,23,0,,,107.27934060012922,107.47952840011567,0.0,107.47952840011567,1,0.0,0,0,1000,num_4,0.506152399815619,,32,4,2026-03-12_15h27.12.079,2026A_exp2,2022.2.4,59.997432034478784,
1000,1,6.1,6.1,1,0,22,22,8,,,,,108.01326999999583,108.66416430007666,108.66416430007666,109.14830460003577,45,315,109.14830460003577,109.14830460003577,109.14830460003577,109.14830460003577,109.14830460003577,109.14830460003577,109.14830460003577,109.14830460003577,109.14830460003577,109.51492030010559,109.51492030010559,109.51492030010559,109.51492030010559,109.51492030010559,109.51492030010559,109.51492030010559,109.51492030010559,109.51492030010559,23,0,,,109.51492030010559,109.7168466001749,1000,109.7168466001749,1000,1000,1000,1000,0,num_3,0.7567592000123113,,32,4,2026-03-12_15h27.12.079,2026A_exp2,2022.2.4,59.997432034478784,
1,0,6.1,4.9,1,0,23,23,64,,,,,110.49897900014184,111.14979890012182,111.14979890012182,111.63420750014484,315,315,111.63420750014484,111.63420750014484,111.63420750014484,111.63420750014484,111.63420750014484,111.63420750014484,111.63420750014484,111.63420750014484,111.63420750014484,112.00062620011158,112.00062620011158,112.00062620011158,112.00062620011158,112.00062620011158,112.00062620011158,112.00062620011158,112.00062620011158,112.00062620011158,23,0,,,112.00062620011158,112.20094790006988,4.9,112.20094790006988,1,4.9,1,1,1000,num_4,0.5691984000150114,,32,4,2026-03-12_15h27.12.079,2026A_exp2,2022.2.4,59.997432034478784,
1,0,6.1,6.1,1,0,24,24,23,,,,,112.80136390007101,113.45215960009955,113.45215960009955,113.93657620018348,315,45,113.93657620018348,113.93657620018348,113.93657620018348,113.93657620018348,113.93657620018348,113.93657620018348,113.93657620018348,113.93657620018348,113.93657620018348,114.3030211001169,114.3030211001169,114.3030211001169,114.3030211001169,114.3030211001169,114.3030211001169,114.3030211001169,114.3030211001169,114.3030211001169,23,0,,,114.3030211001169,114.5032971999608,6.1,114.5032971999608,1,6.1,1,1,1000,num_4,0.44232750008814037,,32,4,2026-03-12_15h27.12.079,2026A_exp2,2022.2.4,59.997432034478784,
1000,1,0.0,3.7,1,0,25,25,13,,,,,114.9701976000797,115.62105720001273,115.62105720001273,116.10556269995868,45,315,116.10556269995868,116.10556269995868,116.10556269995868,116.10556269995868,116.10556269995868,116.10556269995868,116.10556269995868,116.10556269995868,116.10556269995868,116.47183140018024,116.47183140018024,116.47183140018024,116.47183140018024,116.47183140018024,116.47183140018024,116.47183140018024,116.47183140018024,116.47183140018024,23,0,,,116.47183140018024,116.6744592001196,1000,116.6744592001196,1000,1000,1000,1000,1,num_2,0.8156586000695825,,32,4,2026-03-12_15h27.12.079,2026A_exp2,2022.2.4,59.997432034478784,
0,0,0.0,0.0,0,0,26,26,59,,,,,117.50634240009822,118.15700090001337,118.15700090001337,118.65783160016872,45,315,118.65783160016872,118.65783160016872,118.65783160016872,118.65783160016872,118.65783160016872,118.65783160016872,118.65783160016872,118.65783160016872,118.65783160016872,119.02427379996516,119.02427379996516,119.02427379996516,119.02427379996516,119.02427379996516,119.02427379996516,119.02427379996516,119.02427379996516,119.02427379996516,23,0,,,119.02427379996516,119.22461330005899,0.0,119.22461330005899,0,0.0,0,1,1000,num_1,1.5532027001027018,,32,4,2026-03-12_15h27.12.079,2026A_exp2,2022.2.4,59.997432034478784,
1000,1,0.0,3.7,0,0,27,27,46,,,,,120.8093966001179,121.46002500015311,121.46002500015311,121.94466350018047,315,315,121.94466350018047,121.94466350018047,121.94466350018047,121.94466350018047,121.94466350018047,121.94466350018047,121.94466350018047,121.94466350018047,121.94466350018047,122.31117370002903,122.31117370002903,122.31117370002903,122.31117370002903,122.31117370002903,122.31117370002903,122.31117370002903,122.31117370002903,122.31117370002903,23,0,,,122.31117370002903,122.51320350007154,1000,122.51320350007154,1000,1000,1000,1000,1,num_2,1.0005926000885665,,32,4,2026-03-12_15h27.12.079,2026A_exp2,2022.2.4,59.997432034478784,
1000,1,3.7,0.0,1,0,28,28,38,,,,,123.54552659997717,124.19626110000536,124.19626110000536,124.68057369999588,45,45,124.68057369999588,124.68057369999588,124.68057369999588,124.68057369999588,124.68057369999588,124.68057369999588,124.68057369999588,124.68057369999588,124.68057369999588,125.04712680005468,125.04712680005468,125.04712680005468,125.04712680005468,125.04712680005468,125.04712680005468,125.04712680005468,125.04712680005468,125.04712680005468,23,0,,,125.04712680005468,125.24925890006125,1000,125.24925890006125,1000,1000,1000,1000,0,num_3,0.7043059999123216,,32,4,2026-03-12_15h27.12.079,2026A_exp2,2022.2.4,59.997432034478784,
1000,1,3.7,4.9,0,0,29,29,45,,,,,125.98127720016055,126.63192069996148,126.63192069996148,127.13319050008431,315,45,127.13319050008431,127.13319050008431,127.13319050008431,127.13319050008431,127.13319050008431,127.13319050008431,127.13319050008431,127.13319050008431,127.13319050008431,127.49939060001634,127.49939060001634,127.49939060001634,127.49939060001634,127.49939060001634,127.49939060001634,127.49939060001634,127.49939060001634,127.49939060001634,23,0,,,127.49939060001634,127.70152740017511,1000,127.70152740017511,1000,1000,1000,1000,0,num_3,1.5327016001101583,,32,4,2026-03-12_15h27.12.079,2026A_exp2,2022.2.4,59.997432034478784,
1000,1,0.0,0.0,0,0,30,30,5,,,,,129.2512266000267,129.90196619997732,129.90196619997732,130.40310500003397,315,315,130.40310500003397,130.40310500003397,130.40310500003397,130.40310500003397,130.40310500003397,130.40310500003397,130.40310500003397,130.40310500003397,130.40310500003397,130.76928380015306,130.76928380015306,130.76928380015306,130.76928380015306,130.76928380015306,130.76928380015306,130.76928380015306,130.76928380015306,130.76928380015306,23,0,,,130.76928380015306,130.9714969000779,1000,130.9714969000779,1000,1000,1000,1000,0,num_3,1.1338605999480933,,32,4,2026-03-12_15h27.12.079,2026A_exp2,2022.2.4,59.997432034478784,
1000,1,4.9,0.0,1,0,31,31,77,,,,,132.12083490006626,132.77142730006017,132.77142730006017,133.27267320011742,315,45,133.27267320011742,133.27267320011742,133.27267320011742,133.27267320011742,133.27267320011742,133.27267320011742,133.27267320011742,133.27267320011742,133.27267320011742,133.63901809998788,133.63901809998788,133.63901809998788,133.63901809998788,133.63901809998788,133.63901809998788,133.63901809998788,133.63901809998788,133.63901809998788,23,0,,,133.63901809998788,133.8409351001028,1000,133.8409351001028,1000,1000,1000,1000,0,num_3,0.5292263000737876,,32,4,2026-03-12_15h27.12.079,2026A_exp2,2022.2.4,59.997432034478784,
1000,1,6.1,0.0,1,0,32,32,29,,,,,134.3897208000999,135.0237180001568,135.0237180001568,135.52464139997028,45,45,135.52464139997028,135.52464139997028,135.52464139997028,135.52464139997028,135.52464139997028,135.52464139997028,135.52464139997028,135.52464139997028,135.52464139997028,135.89126210007817,135.89126210007817,135.89126210007817,135.89126210007817,135.89126210007817,135.89126210007817,135.89126210007817,135.89126210007817,135.89126210007817,23,0,,,135.89126210007817,136.09309089998715,1000,136.09309089998715,1000,1000,1000,1000,0,num_3,0.365179399959743,,32,4,2026-03-12_15h27.12.079,2026A_exp2,2022.2.4,59.997432034478784,
1,0,0.0,0.0,1,0,33,33,42,,,,,136.47513050003909,137.12576550012454,137.12576550012454,137.62698760000058,315,45,137.62698760000058,137.62698760000058,137.62698760000058,137.62698760000058,137.62698760000058,137.62698760000058,137.62698760000058,137.62698760000058,137.62698760000058,137.9767249999568,137.9767249999568,137.9767249999568,137.9767249999568,137.9767249999568,137.9767249999568,137.9767249999568,137.9767249999568,137.9767249999568,22,0,,,137.9767249999568,138.17694030003622,0.0,138.19356190017425,0,0.0,0,1,1000,num_1,1.3038404998369515,,32,4,2026-03-12_15h27.12.079,2026A_exp2,2022.2.4,59.997432034478784,
1000,1,0.0,0.0,1,0,34,34,78,,,,,139.52816050010733,140.17894849996082,140.17894849996082,140.67269020015374,315,45,140.67269020015374,140.67269020015374,140.67269020015374,140.67269020015374,140.67269020015374,140.67269020015374,140.67269020015374,140.67269020015374,140.67269020015374,141.02971899998374,141.02971899998374,141.02971899998374,141.02971899998374,141.02971899998374,141.02971899998374,141.02971899998374,141.02971899998374,141.02971899998374,23,0,,,141.02971899998374,141.2318522001151,1000,141.2318522001151,1000,1000,1000,1000,0,num_3,0.6975920000113547,,32,4,2026-03-12_15h27.12.079,2026A_exp2,2022.2.4,59.997432034478784,
1000,1,0.0,0.0,0,0,35,35,7,,,,,141.9473050001543,142.59792149998248,142.59792149998248,143.09899369999766,45,45,143.09899369999766,143.09899369999766,143.09899369999766,143.09899369999766,143.09899369999766,143.09899369999766,143.09899369999766,143.09899369999766,143.09899369999766,143.4655710000079,143.4655710000079,143.4655710000079,143.4655710000079,143.4655710000079,143.4655710000079,143.4655710000079,143.4655710000079,143.4655710000079,23,0,,,143.4655710000079,143.6677232000511,1000,143.6677232000511,1000,1000,1000,1000,0,num_3,0.44679059996269643,,32,4,2026-03-12_15h27.12.079,2026A_exp2,2022.2.4,59.997432034478784,
1000,1,4.9,0.0,0,0,36,36,54,,,,,144.13275040010922,144.78355649998412,144.78355649998412,145.28457910008729,45,315,145.28457910008729,145.28457910008729,145.28457910008729,145.28457910008729,145.28457910008729,145.28457910008729,145.28457910008729,145.28457910008729,145.28457910008729,145.65105119999498,145.65105119999498,145.65105119999498,145.65105119999498,145.65105119999498,145.65105119999498,145.65105119999498,145.65105119999498,145.65105119999498,23,0,,,145.65105119999498,145.8529097000137,1000,145.8529097000137,1000,1000,1000,1000,0,num_3,0.4059692998416722,,32,4,2026-03-12_15h27.12.079,2026A_exp2,2022.2.4,59.997432034478784,
0,0,6.1,4.9,0,0,37,37,22,,,,,146.2848595001269,146.93565959995613,146.93565959995613,147.43685659999028,45,45,147.43685659999028,147.43685659999028,147.43685659999028,147.43685659999028,147.43685659999028,147.43685659999028,147.43685659999028,147.43685659999028,147.43685659999028,147.78647230006754,147.78647230006754,147.78647230006754,147.78647230006754,147.78647230006754,147.78647230006754,147.78647230006754,147.78647230006754,147.78647230006754,22,0,,,147.78647230006754,147.9866389001254,4.9,148.00340880011208,1,4.9,1,1,1000,num_4,1.1661991998553276,,32,4,2026-03-12_15h27.12.079,2026A_exp2,2022.2.4,59.997432034478784,
1,0,0.0,3.7,1,0,38,38,14,,,,,149.18792130006477,149.82187330001034,149.82187330001034,150.32289830013178,315,315,150.32289830013178,150.32289830013178,150.32289830013178,150.32289830013178,150.32289830013178,150.32289830013178,150.32289830013178,150.32289830013178,150.32289830013178,150.6894680999685,150.6894680999685,150.6894680999685,150.6894680999685,150.6894680999685,150.6894680999685,150.6894680999685,150.6894680999685,150.6894680999685,23,0,,,150.6894680999685,150.88928570016287,3.7,150.88928570016287,1,3.7,1,1,1000,num_4,0.5373048998881131,,32,4,2026-03-12_15h27.12.079,2026A_exp2,2022.2.4,59.997432034478784,
1,0,6.1,0.0,0,0,39,39,47,,,,,151.4566735001281,152.10748260002583,152.10748260002583,152.59187510004267,315,45,152.59187510004267,152.59187510004267,152.59187510004267,152.59187510004267,152.59187510004267,152.59187510004267,152.59187510004267,152.59187510004267,152.59187510004267,152.95834990008734,152.95834990008734,152.95834990008734,152.95834990008734,152.95834990008734,152.95834990008734,152.95834990008734,152.95834990008734,152.95834990008734,23,0,,,152.95834990008734,153.1586396000348,6.1,153.1586396000348,1,6.1,1,1,1000,num_4,0.6192165999673307,,32,4,2026-03-12_15h27.12.079,2026A_exp2,2022.2.4,59.997432034478784,
1000,1,4.9,0.0,0,0,40,40,41,,,,,153.80903390003368,154.45977680012584,154.45977680012584,154.944433900062,45,315,154.944433900062,154.944433900062,154.944433900062,154.944433900062,154.944433900062,154.944433900062,154.944433900062,154.944433900062,154.944433900062,155.310457700165,155.310457700165,155.310457700165,155.310457700165,155.310457700165,155.310457700165,155.310457700165,155.310457700165,155.310457700165,23,0,,,155.310457700165,155.51299130008556,1000,155.51299130008556,1000,1000,1000,1000,0,num_3,0.5364600999746472,,32,4,2026-03-12_15h27.12.079,2026A_exp2,2022.2.4,59.997432034478784,
1,0,0.0,0.0,0,0,41,41,55,,,,,156.07805760018528,156.73024790012278,156.73024790012278,157.22976030013524,315,315,157.22976030013524,157.22976030013524,157.22976030013524,157.22976030013524,157.22976030013524,157.22976030013524,157.22976030013524,157.22976030013524,157.22976030013524,157.5796601001639,157.5796601001639,157.5796601001639,157.5796601001639,157.5796601001639,157.5796601001639,157.5796601001639,157.5796601001639,157.5796601001639,22,0,,,157.5796601001639,157.77983360015787,0.0,157.77983360015787,1,0.0,0,0,1000,num_4,1.5504103999119252,,32,4,2026-03-12_15h27.12.079,2026A_exp2,2022.2.4,59.997432034478784,
0,0,4.9,3.7,0,0,42,42,28,,,,,159.3479862001259,159.99874410009943,159.99874410009943,160.4830285999924,45,45,160.4830285999924,160.4830285999924,160.4830285999924,160.4830285999924,160.4830285999924,160.4830285999924,160.4830285999924,160.4830285999924,160.4830285999924,160.84949619998224,160.84949619998224,160.84949619998224,160.84949619998224,160.84949619998224,160.84949619998224,160.84949619998224,160.84949619998224,160.84949619998224,23,0,,,160.84949619998224,161.04975120001473,3.7,161.04975120001473,0,3.7,1,0,1000,num_1,2.280445900047198,,32,4,2026-03-12_15h27.12.079,2026A_exp2,2022.2.4,59.997432034478784,
1,0,6.1,0.0,1,0,43,43,70,,,,,163.35200350009836,164.00236689997837,164.00236689997837,164.5037917001173,45,315,164.5037917001173,164.5037917001173,164.5037917001173,164.5037917001173,164.5037917001173,164.5037917001173,164.5037917001173,164.5037917001173,164.5037917001173,164.85348580009304,164.85348580009304,164.85348580009304,164.85348580009304,164.85348580009304,164.85348580009304,164.85348580009304,164.85348580009304,164.85348580009304,22,0,,,164.85348580009304,165.05378439999186,0.0,165.05378439999186,0,0.0,0,1,1000,num_1,0.7799442000687122,,32,4,2026-03-12_15h27.12.079,2026A_exp2,2022.2.4,59.997432034478784,
1,0,4.9,3.7,0,0,44,44,44,,,,,165.8544067000039,166.50519690010697,166.50519690010697,166.9895397000946,45,45,166.9895397000946,166.9895397000946,166.9895397000946,166.9895397000946,166.9895397000946,166.9895397000946,166.9895397000946,166.9895397000946,166.9895397000946,167.35596340009943,167.35596340009943,167.35596340009943,167.35596340009943,167.35596340009943,167.35596340009943,167.35596340009943,167.35596340009943,167.35596340009943,23,0,,,167.35596340009943,167.5562410999555,4.9,167.5562410999555,1,4.9,1,1,1000,num_4,0.5656593001913279,,32,4,2026-03-12_15h27.12.079,2026A_exp2,2022.2.4,59.997432034478784,
1000,1,3.7,0.0,1,0,45,45,19,,,,,168.1402791000437,168.79073450015858,168.79073450015858,169.27520070015453,45,45,169.27520070015453,169.27520070015453,169.27520070015453,169.27520070015453,169.27520070015453,169.27520070015453,169.27520070015453,169.27520070015453,169.27520070015453,169.6416511000134,169.6416511000134,169.6416511000134,169.6416511000134,169.6416511000134,169.6416511000134,169.6416511000134,169.6416511000134,169.6416511000134,23,0,,,169.6416511000134,169.843387800036,1000,169.843387800036,1000,1000,1000,1000,0,num_3,0.7273772999178618,,32,4,2026-03-12_15h27.12.079,2026A_exp2,2022.2.4,59.997432034478784,
1,0,4.9,3.7,1,0,46,46,27,,,,,170.59273819997907,171.2433278001845,171.2433278001845,171.74435150017962,315,315,171.74435150017962,171.74435150017962,171.74435150017962,171.74435150017962,171.74435150017962,171.74435150017962,171.74435150017962,171.74435150017962,171.74435150017962,172.0942222001031,172.0942222001031,172.0942222001031,172.0942222001031,172.0942222001031,172.0942222001031,172.0942222001031,172.0942222001031,172.0942222001031,22,0,,,172.0942222001031,172.29426009999588,3.7,172.29426009999588,1,3.7,1,1,1000,num_4,0.7477278001606464,,32,4,2026-03-12_15h27.12.079,2026A_exp2,2022.2.4,59.997432034478784,
1000,1,0.0,4.9,0,0,47,47,26,,,,,173.0618883999996,173.69580820016563,173.69580820016563,174.19705600012094,45,45,174.19705600012094,174.19705600012094,174.19705600012094,174.19705600012094,174.19705600012094,174.19705600012094,174.19705600012094,174.19705600012094,174.19705600012094,174.56332030007616,174.56332030007616,174.56332030007616,174.56332030007616,174.56332030007616,174.56332030007616,174.56332030007616,174.56332030007616,174.56332030007616,23,0,,,174.56332030007616,174.76530149998143,1000,174.76530149998143,1000,1000,1000,1000,1,num_2,1.445357299875468,,32,4,2026-03-12_15h27.12.079,2026A_exp2,2022.2.4,59.997432034478784,
1,0,0.0,0.0,0,0,48,48,88,,,,,176.23147380002774,176.88231260003522,176.88231260003522,177.38327790005133,45,315,177.38327790005133,177.38327790005133,177.38327790005133,177.38327790005133,177.38327790005133,177.38327790005133,177.38327790005133,177.38327790005133,177.38327790005133,177.74983460013755,177.74983460013755,177.74983460013755,177.74983460013755,177.74983460013755,177.74983460013755,177.74983460013755,177.74983460013755,177.74983460013755,23,0,,,177.74983460013755,177.95002740016207,0.0,177.95002740016207,1,0.0,0,0,1000,num_4,0.7082638998981565,,32,4,2026-03-12_15h27.12.079,2026A_exp2,2022.2.4,59.997432034478784,
1000,1,6.1,0.0,0,0,49,49,81,,,,,178.6840538000688,,179.33436440001242,179.83257240010425,315,315,179.83257240010425,179.83257240010425,179.83257240010425,179.83257240010425,179.83257240010425,179.83257240010425,179.83257240010425,179.83257240010425,179.83257240010425,180.18535930011421,180.18535930011421,180.18535930011421,180.18535930011421,180.18535930011421,180.18535930011421,180.18535930011421,180.18535930011421,180.18535930011421,23,0,,,180.18535930011421,180.40177780017257,1000,180.40177780017257,1000,1000,1000,1000,0,num_3,0.47241479996591806,,32,4,2026-03-12_15h27.12.079,2026A_exp2,2022.2.4,59.997432034478784,
1,0,4.9,0.0,0,0,50,50,53,,,,,180.90275530004874,181.55355289997533,181.55355289997533,182.0547426000703,315,45,182.0547426000703,182.0547426000703,182.0547426000703,182.0547426000703,182.0547426000703,182.0547426000703,182.0547426000703,182.0547426000703,182.0547426000703,182.4211454000324,182.4211454000324,182.4211454000324,182.4211454000324,182.4211454000324,182.4211454000324,182.4211454000324,182.4211454000324,182.4211454000324,23,0,,,182.4211454000324,182.6213251000736,4.9,182.6213251000736,1,4.9,1,1,1000,num_4,0.6282311000395566,,32,4,2026-03-12_15h27.12.079,2026A_exp2,2022.2.4,59.997432034478784,
1000,1,3.7,0.0,0,0,51,51,56,,,,,183.27191530005075,183.92245030007325,183.92245030007325,184.40707539999858,45,45,184.40707539999858,184.40707539999858,184.40707539999858,184.40707539999858,184.40707539999858,184.40707539999858,184.40707539999858,184.40707539999858,184.40707539999858,184.7734311001841,184.7734311001841,184.7734311001841,184.7734311001841,184.7734311001841,184.7734311001841,184.7734311001841,184.7734311001841,184.7734311001841,23,0,,,184.7734311001841,184.97570240008645,1000,184.97570240008645,1000,1000,1000,1000,0,num_3,0.587026100140065,,32,4,2026-03-12_15h27.12.079,2026A_exp2,2022.2.4,59.997432034478784,
1000,1,0.0,0.0,1,0,52,52,9,,,,,185.59087459999137,186.24158010003157,186.24158010003157,186.74259150004946,45,315,186.74259150004946,186.74259150004946,186.74259150004946,186.74259150004946,186.74259150004946,186.74259150004946,186.74259150004946,186.74259150004946,186.74259150004946,187.10915870009921,187.10915870009921,187.10915870009921,187.10915870009921,187.10915870009921,187.10915870009921,187.10915870009921,187.10915870009921,187.10915870009921,23,0,,,187.10915870009921,187.31098020006903,1000,187.31098020006903,1000,1000,1000,1000,0,num_3,0.907759299967438,,32,4,2026-03-12_15h27.12.079,2026A_exp2,2022.2.4,59.997432034478784,
0,0,4.9,0.0,1,0,53,53,67,,,,,188.24375090003014,188.90330270002596,188.90330270002596,189.39537589997053,45,315,189.39537589997053,189.39537589997053,189.39537589997053,189.39537589997053,189.39537589997053,189.39537589997053,189.39537589997053,189.39537589997053,189.39537589997053,189.7451590001583,189.7451590001583,189.7451590001583,189.7451590001583,189.7451590001583,189.7451590001583,189.7451590001583,189.7451590001583,189.7451590001583,22,0,,,189.7451590001583,189.9452925999649,4.9,189.96204380015843,1,4.9,1,1,1000,num_4,0.6403135999571532,,32,4,2026-03-12_15h27.12.079,2026A_exp2,2022.2.4,59.997432034478784,
1000,1,3.7,0.0,0,0,54,54,76,,,,,190.62941680010408,191.26317710010335,191.26317710010335,191.76447890000418,315,315,191.76447890000418,191.76447890000418,191.76447890000418,191.76447890000418,191.76447890000418,191.76447890000418,191.76447890000418,191.76447890000418,191.76447890000418,192.1308747001458,192.1308747001458,192.1308747001458,192.1308747001458,192.1308747001458,192.1308747001458,192.1308747001458,192.1308747001458,192.1308747001458,23,0,,,192.1308747001458,192.332965800073,1000,192.332965800073,1000,1000,1000,1000,0,num_3,0.6778208001051098,,32,4,2026-03-12_15h27.12.079,2026A_exp2,2022.2.4,59.997432034478784,
1,0,0.0,6.1,1,0,55,55,36,,,,,193.03158880001865,193.68245350010693,193.68245350010693,194.18351930007339,45,45,194.18351930007339,194.18351930007339,194.18351930007339,194.18351930007339,194.18351930007339,194.18351930007339,194.18351930007339,194.18351930007339,194.18351930007339,194.54954549996182,194.54954549996182,194.54954549996182,194.54954549996182,194.54954549996182,194.54954549996182,194.54954549996182,194.54954549996182,194.54954549996182,23,0,,,194.54954549996182,194.75011160015129,6.1,194.75011160015129,1,6.1,1,1,1000,num_4,0.5952359999064356,,32,4,2026-03-12_15h27.12.079,2026A_exp2,2022.2.4,59.997432034478784,
0,0,0.0,0.0,1,0,56,56,2,,,,,195.36734910006635,196.01803599996492,196.01803599996492,196.50252149999142,315,45,196.50252149999142,196.50252149999142,196.50252149999142,196.50252149999142,196.50252149999142,196.50252149999142,196.50252149999142,196.50252149999142,196.50252149999142,196.86884870007634,196.86884870007634,196.86884870007634,196.86884870007634,196.86884870007634,196.86884870007634,196.86884870007634,196.86884870007634,196.86884870007634,23,0,,,196.86884870007634,197.06916519999504,0.0,197.06916519999504,1,0.0,0,0,1000,num_4,0.8523035000544041,,32,4,2026-03-12_15h27.12.079,2026A_exp2,2022.2.4,59.997432034478784,
1,0,6.1,0.0,1,0,57,57,89,,,,,197.95343310013413,198.58733420004137,198.58733420004137,199.0885225001257,315,45,199.0885225001257,199.0885225001257,199.0885225001257,199.0885225001257,199.0885225001257,199.0885225001257,199.0885225001257,199.0885225001257,199.0885225001257,199.4548369999975,199.4548369999975,199.4548369999975,199.4548369999975,199.4548369999975,199.4548369999975,199.4548369999975,199.4548369999975,199.4548369999975,23,0,,,199.4548369999975,199.6550117000006,0.0,199.6550117000006,0,0.0,0,1,1000,num_1,0.851414600154385,,32,4,2026-03-12_15h27.12.079,2026A_exp2,2022.2.4,59.997432034478784,
1,0,3.7,3.7,1,0,58,58,30,,,,,200.52242560009472,201.17322470014915,201.17322470014915,201.65758550004102,315,45,201.65758550004102,201.65758550004102,201.65758550004102,201.65758550004102,201.65758550004102,201.65758550004102,201.65758550004102,201.65758550004102,201.65758550004102,202.0240844001528,202.0240844001528,202.0240844001528,202.0240844001528,202.0240844001528,202.0240844001528,202.0240844001528,202.0240844001528,202.0240844001528,23,0,,,202.0240844001528,202.22428760002367,3.7,202.22428760002367,1,3.7,1,1,1000,num_4,0.6176010998897254,,32,4,2026-03-12_15h27.12.079,2026A_exp2,2022.2.4,59.997432034478784,
1,0,3.7,4.9,1,0,59,59,18,,,,,202.8581000000704,203.50874410010874,203.50874410010874,203.9932162000332,315,45,203.9932162000332,203.9932162000332,203.9932162000332,203.9932162000332,203.9932162000332,203.9932162000332,203.9932162000332,203.9932162000332,203.9932162000332,204.35965690016747,204.35965690016747,204.35965690016747,204.35965690016747,204.35965690016747,204.35965690016747,204.35965690016747,204.35965690016747,204.35965690016747,23,0,,,204.35965690016747,204.55980399996042,4.9,204.55980399996042,1,4.9,1,1,1000,num_4,0.4897197000682354,,32,4,2026-03-12_15h27.12.079,2026A_exp2,2022.2.4,59.997432034478784,
1000,1,4.9,3.7,0,0,60,60,40,,,,,205.0770583001431,205.72786460001953,205.72786460001953,206.2120519001037,45,45,206.2120519001037,206.2120519001037,206.2120519001037,206.2120519001037,206.2120519001037,206.2120519001037,206.2120519001037,206.2120519001037,206.2120519001037,206.57862629997544,206.57862629997544,206.57862629997544,206.57862629997544,206.57862629997544,206.57862629997544,206.57862629997544,206.57862629997544,206.57862629997544,23,0,,,206.57862629997544,206.78047310002148,1000,206.78047310002148,1000,1000,1000,1000,0,num_3,0.6212512000929564,,32,4,2026-03-12_15h27.12.079,2026A_exp2,2022.2.4,59.997432034478784,
1000,1,0.0,3.7,1,0,61,61,84,,,,,207.42941970005631,208.080116200028,208.080116200028,208.58122489997186,45,315,208.58122489997186,208.58122489997186,208.58122489997186,208.58122489997186,208.58122489997186,208.58122489997186,208.58122489997186,208.58122489997186,208.58122489997186,208.94748329999857,208.94748329999857,208.94748329999857,208.94748329999857,208.94748329999857,208.94748329999857,208.94748329999857,208.94748329999857,208.94748329999857,23,0,,,208.94748329999857,209.14767410000786,1000,209.14767410000786,1000,1000,1000,1000,1,num_2,0.48592750006355345,,32,4,2026-03-12_15h27.12.079,2026A_exp2,2022.2.4,59.997432034478784,
1000,1,4.9,4.9,1,0,62,62,68,,,,,209.6651515001431,210.3156120001804,210.3156120001804,210.81693430012092,45,315,210.81693430012092,210.81693430012092,210.81693430012092,210.81693430012092,210.81693430012092,210.81693430012092,210.81693430012092,210.81693430012092,210.81693430012092,211.16645979997702,211.16645979997702,211.16645979997702,211.16645979997702,211.16645979997702,211.16645979997702,211.16645979997702,211.16645979997702,211.16645979997702,22,0,,,211.16645979997702,211.36663970001973,1000,211.38336830004118,1000,1000,1000,1000,1,num_2,0.6755021000280976,,32,4,2026-03-12_15h27.12.079,2026A_exp2,2022.2.4,59.997432034478784,
1,0,0.0,0.0,1,0,63,63,49,,,,,212.0841883001849,212.73622900014743,212.73622900014743,213.21923699998297,315,45,213.21923699998297,213.21923699998297,213.21923699998297,213.21923699998297,213.21923699998297,213.21923699998297,213.21923699998297,213.21923699998297,213.21923699998297,213.58551060012542,213.58551060012542,213.58551060012542,213.58551060012542,213.58551060012542,213.58551060012542,213.58551060012542,213.58551060012542,213.58551060012542,23,0,,,213.58551060012542,213.78561170003377,0.0,213.78561170003377,0,0.0,0,1,1000,num_1,1.1843308000825346,,32,4,2026-03-12_15h27.12.079,2026A_exp2,2022.2.4,59.997432034478784,
1000,1,0.0,6.1,1,0,64,64,71,,,,,214.9868728001602,215.6376510001719,215.6376510001719,216.12183750001714,45,315,216.12183750001714,216.12183750001714,216.12183750001714,216.12183750001714,216.12183750001714,216.12183750001714,216.12183750001714,216.12183750001714,216.12183750001714,216.48853540001437,216.48853540001437,216.48853540001437,216.48853540001437,216.48853540001437,216.48853540001437,216.48853540001437,216.48853540001437,216.48853540001437,23,0,,,216.48853540001437,216.68890070007183,1000,216.68890070007183,1000,1000,1000,1000,1,num_2,0.688712399918586,,32,4,2026-03-12_15h27.12.079,2026A_exp2,2022.2.4,59.997432034478784,
1000,1,6.1,0.0,1,0,65,65,57,,,,,217.40583180007525,218.0563263001386,218.0563263001386,218.5407849000767,45,315,218.5407849000767,218.5407849000767,218.5407849000767,218.5407849000767,218.5407849000767,218.5407849000767,218.5407849000767,218.5407849000767,218.5407849000767,218.90741980005987,218.90741980005987,218.90741980005987,218.90741980005987,218.90741980005987,218.90741980005987,218.90741980005987,218.90741980005987,218.90741980005987,23,0,,,218.90741980005987,219.1075461001601,1000,219.1075461001601,1000,1000,1000,1000,0,num_3,0.4058845001272857,,32,4,2026-03-12_15h27.12.079,2026A_exp2,2022.2.4,59.997432034478784,
1,0,6.1,4.9,1,0,66,66,11,,,,,219.54205270018429,220.19231910002418,220.19231910002418,220.69302270002663,315,315,220.69302270002663,220.69302270002663,220.69302270002663,220.69302270002663,220.69302270002663,220.69302270002663,220.69302270002663,220.69302270002663,220.69302270002663,221.04310300014913,221.04310300014913,221.04310300014913,221.04310300014913,221.04310300014913,221.04310300014913,221.04310300014913,221.04310300014913,221.04310300014913,22,0,,,221.04310300014913,221.2431428001728,4.9,221.2431428001728,1,4.9,1,1,1000,num_4,0.6789510000962764,,32,4,2026-03-12_15h27.12.079,2026A_exp2,2022.2.4,59.997432034478784,
1,0,0.0,3.7,1,0,67,67,35,,,,,221.94419599999674,222.57793750008568,222.57793750008568,223.07896740012802,315,315,223.07896740012802,223.07896740012802,223.07896740012802,223.07896740012802,223.07896740012802,223.07896740012802,223.07896740012802,223.07896740012802,223.07896740012802,223.44541010004468,223.44541010004468,223.44541010004468,223.44541010004468,223.44541010004468,223.44541010004468,223.44541010004468,223.44541010004468,223.44541010004468,23,0,,,223.44541010004468,223.64542730012909,3.7,223.64542730012909,1,3.7,1,1,1000,num_4,0.46791990008205175,,32,4,2026-03-12_15h27.12.079,2026A_exp2,2022.2.4,59.997432034478784,
0,0,0.0,3.7,0,0,68,68,34,,,,,224.12940079998225,224.78014699998312,224.78014699998312,225.26463400013745,45,315,225.26463400013745,225.26463400013745,225.26463400013745,225.26463400013745,225.26463400013745,225.26463400013745,225.26463400013745,225.26463400013745,225.26463400013745,225.63099239999428,225.63099239999428,225.63099239999428,225.63099239999428,225.63099239999428,225.63099239999428,225.63099239999428,225.63099239999428,225.63099239999428,23,0,,,225.63099239999428,225.83128180005588,3.7,225.83128180005588,0,3.7,1,0,1000,num_1,2.5867992998100817,,32,4,2026-03-12_15h27.12.079,2026A_exp2,2022.2.4,59.997432034478784,
1,0,0.0,4.9,0,0,69,69,3,,,,,228.45061179995537,229.10109380003996,229.10109380003996,229.58564030006528,45,45,229.58564030006528,229.58564030006528,229.58564030006528,229.58564030006528,229.58564030006528,229.58564030006528,229.58564030006528,229.58564030006528,229.58564030006528,229.9520372999832,229.9520372999832,229.9520372999832,229.9520372999832,229.9520372999832,229.9520372999832,229.9520372999832,229.9520372999832,229.9520372999832,23,0,,,229.9520372999832,230.15210930001922,0.0,230.15210930001922,1,0.0,0,0,1000,num_4,1.1543115000240505,,32,4,2026-03-12_15h27.12.079,2026A_exp2,2022.2.4,59.997432034478784,
1000,1,6.1,0.0,1,0,70,70,25,,,,,231.33666580007412,231.9705493999645,231.9705493999645,232.47179920016788,45,315,232.47179920016788,232.47179920016788,232.47179920016788,232.47179920016788,232.47179920016788,232.47179920016788,232.47179920016788,232.47179920016788,232.47179920016788,232.83818230009638,232.83818230009638,232.83818230009638,232.83818230009638,232.83818230009638,232.83818230009638,232.83818230009638,232.83818230009638,232.83818230009638,23,0,,,232.83818230009638,233.0401034001261,1000,233.0401034001261,1000,1000,1000,1000,0,num_3,0.353485899977386,,32,4,2026-03-12_15h27.12.079,2026A_exp2,2022.2.4,59.997432034478784,
1000,1,3.7,3.7,0,0,71,71,63,,,,,233.4217938000802,234.07292010006495,234.07292010006495,234.57387090008706,315,315,234.57387090008706,234.57387090008706,234.57387090008706,234.57387090008706,234.57387090008706,234.57387090008706,234.57387090008706,234.57387090008706,234.57387090008706,234.94027470005676,234.94027470005676,234.94027470005676,234.94027470005676,234.94027470005676,234.94027470005676,234.94027470005676,234.94027470005676,234.94027470005676,23,0,,,234.94027470005676,235.14264070009813,1000,235.14264070009813,1000,1000,1000,1000,0,num_3,0.40425490005873144,,32,4,2026-03-12_15h27.12.079,2026A_exp2,2022.2.4,59.997432034478784,
1000,1,0.0,0.0,0,0,72,72,86,,,,,235.57415810017847,236.22490880009718,236.22490880009718,236.72589360014535,45,315,236.72589360014535,236.72589360014535,236.72589360014535,236.72589360014535,236.72589360014535,236.72589360014535,236.72589360014535,236.72589360014535,236.72589360014535,237.09246159996837,237.09246159996837,237.09246159996837,237.09246159996837,237.09246159996837,237.09246159996837,237.09246159996837,237.09246159996837,237.09246159996837,23,0,,,237.09246159996837,237.29430840001442,1000,237.29430840001442,1000,1000,1000,1000,0,num_3,1.0752289998345077,,32,4,2026-03-12_15h27.12.079,2026A_exp2,2022.2.4,59.997432034478784,
1000,1,0.0,0.0,0,0,73,73,15,,,,,238.393541400088,239.04412380000576,239.04412380000576,239.54551269998774,45,315,239.54551269998774,239.54551269998774,239.54551269998774,239.54551269998774,239.54551269998774,239.54551269998774,239.54551269998774,239.54551269998774,239.54551269998774,239.9119468999561,239.9119468999561,239.9119468999561,239.9119468999561,239.9119468999561,239.9119468999561,239.9119468999561,239.9119468999561,239.9119468999561,23,0,,,239.9119468999561,240.11405840003863,1000,240.11405840003863,1000,1000,1000,1000,0,num_3,0.647435899823904,,32,4,2026-03-12_15h27.12.079,2026A_exp2,2022.2.4,59.997432034478784,
1000,1,3.7,6.1,1,0,74,74,48,,,,,240.77961650001816,241.43002640013583,241.43002640013583,241.91457729996182,315,45,241.91457729996182,241.91457729996182,241.91457729996182,241.91457729996182,241.91457729996182,241.91457729996182,241.91457729996182,241.91457729996182,241.91457729996182,242.2807370000519,242.2807370000519,242.2807370000519,242.2807370000519,242.2807370000519,242.2807370000519,242.2807370000519,242.2807370000519,242.2807370000519,23,0,,,242.2807370000519,242.48337860009633,1000,242.48337860009633,1000,1000,1000,1000,1,num_2,0.3341915998607874,,32,4,2026-03-12_15h27.12.079,2026A_exp2,2022.2.4,59.997432034478784,
1,0,4.9,0.0,1,0,75,75,65,,,,,242.84816910000518,243.49886439996772,243.49886439996772,244.0000236001797,45,45,244.0000236001797,244.0000236001797,244.0000236001797,244.0000236001797,244.0000236001797,244.0000236001797,244.0000236001797,244.0000236001797,244.0000236001797,244.36623070016503,244.36623070016503,244.36623070016503,244.36623070016503,244.36623070016503,244.36623070016503,244.36623070016503,244.36623070016503,244.36623070016503,23,0,,,244.36623070016503,244.566593100084,0.0,244.566593100084,0,0.0,0,1,1000,num_1,0.6759273000061512,,32,4,2026-03-12_15h27.12.079,2026A_exp2,2022.2.4,59.997432034478784,
1,0,0.0,6.1,1,0,76,76,31,,,,,245.26713090017438,245.9012975001242,245.9012975001242,246.40255320002325,45,315,246.40255320002325,246.40255320002325,246.40255320002325,246.40255320002325,246.40255320002325,246.40255320002325,246.40255320002325,246.40255320002325,246.40255320002325,246.768812000053,246.768812000053,246.768812000053,246.768812000053,246.768812000053,246.768812000053,246.768812000053,246.768812000053,246.768812000053,23,0,,,246.768812000053,246.96893390011974,6.1,246.96893390011974,1,6.1,1,1,1000,num_4,0.47283109999261796,,32,4,2026-03-12_15h27.12.079,2026A_exp2,2022.2.4,59.997432034478784,
1000,1,0.0,0.0,0,0,77,77,17,,,,,247.4692957000807,248.12019599997438,248.12019599997438,248.60446529998444,315,315,248.60446529998444,248.60446529998444,248.60446529998444,248.60446529998444,248.60446529998444,248.60446529998444,248.60446529998444,248.60446529998444,248.60446529998444,248.97097050002776,248.97097050002776,248.97097050002776,248.97097050002776,248.97097050002776,248.97097050002776,248.97097050002776,248.97097050002776,248.97097050002776,23,0,,,248.97097050002776,249.1733894001227,1000,249.1733894001227,1000,1000,1000,1000,0,num_3,0.532693900167942,,32,4,2026-03-12_15h27.12.079,2026A_exp2,2022.2.4,59.997432034478784,
1,0,0.0,4.9,0,0,78,78,73,,,,,249.7217399000656,250.3724847000558,250.3724847000558,250.8735315001104,45,315,250.8735315001104,250.8735315001104,250.8735315001104,250.8735315001104,250.8735315001104,250.8735315001104,250.8735315001104,250.8735315001104,250.8735315001104,251.23995180008933,251.23995180008933,251.23995180008933,251.23995180008933,251.23995180008933,251.23995180008933,251.23995180008933,251.23995180008933,251.23995180008933,23,0,,,251.23995180008933,251.44020800013095,0.0,251.44020800013095,1,0.0,0,0,1000,num_4,0.7132508000358939,,32,4,2026-03-12_15h27.12.079,2026A_exp2,2022.2.4,59.997432034478784,
1,0,6.1,0.0,0,0,79,79,21,,,,,252.17431910010055,252.82486749999225,252.82486749999225,253.3093247001525,45,45,253.3093247001525,253.3093247001525,253.3093247001525,253.3093247001525,253.3093247001525,253.3093247001525,253.3093247001525,253.3093247001525,253.3093247001525,253.67573769995943,253.67573769995943,253.67573769995943,253.67573769995943,253.67573769995943,253.67573769995943,253.67573769995943,253.67573769995943,253.67573769995943,23,0,,,253.67573769995943,253.8759578000754,6.1,253.8759578000754,1,6.1,1,1,1000,num_4,0.5025311000645161,,32,4,2026-03-12_15h27.12.079,2026A_exp2,2022.2.4,59.997432034478784,
0,0,6.1,0.0,0,0,80,80,74,,,,,254.4094673001673,255.04376160004176,255.04376160004176,255.54487140011042,45,45,255.54487140011042,255.54487140011042,255.54487140011042,255.54487140011042,255.54487140011042,255.54487140011042,255.54487140011042,255.54487140011042,255.54487140011042,255.91135570011102,255.91135570011102,255.91135570011102,255.91135570011102,255.91135570011102,255.91135570011102,255.91135570011102,255.91135570011102,255.91135570011102,23,0,,,255.91135570011102,256.1115328001324,0.0,256.1115328001324,0,0.0,0,1,1000,num_1,0.7221458998974413,,32,4,2026-03-12_15h27.12.079,2026A_exp2,2022.2.4,59.997432034478784,
1,0,0.0,4.9,1,0,81,81,37,,,,,256.86220950004645,257.49615749996156,257.49615749996156,257.9973391001113,315,315,257.9973391001113,257.9973391001113,257.9973391001113,257.9973391001113,257.9973391001113,257.9973391001113,257.9973391001113,257.9973391001113,257.9973391001113,258.36369360005483,258.36369360005483,258.36369360005483,258.36369360005483,258.36369360005483,258.36369360005483,258.36369360005483,258.36369360005483,258.36369360005483,23,0,,,258.36369360005483,258.5638611000031,4.9,258.5638611000031,1,4.9,1,1,1000,num_4,0.4540889000054449,,32,4,2026-03-12_15h27.12.079,2026A_exp2,2022.2.4,59.997432034478784,
1,0,0.0,6.1,1,0,82,82,33,,,,,259.0476569000166,259.69842380005866,259.69842380005866,260.1827498001512,315,315,260.1827498001512,260.1827498001512,260.1827498001512,260.1827498001512,260.1827498001512,260.1827498001512,260.1827498001512,260.1827498001512,260.1827498001512,260.5490743999835,260.5490743999835,260.5490743999835,260.5490743999835,260.5490743999835,260.5490743999835,260.5490743999835,260.5490743999835,260.5490743999835,23,0,,,260.5490743999835,260.7493064000737,6.1,260.7493064000737,1,6.1,1,1,1000,num_4,0.4923761999234557,,32,4,2026-03-12_15h27.12.079,2026A_exp2,2022.2.4,59.997432034478784,
1000,1,0.0,4.9,0,0,83,83,60,,,,,261.26642150012776,261.91736089996994,261.91736089996994,262.40171190002,45,315,262.40171190002,262.40171190002,262.40171190002,262.40171190002,262.40171190002,262.40171190002,262.40171190002,262.40171190002,262.40171190002,262.7681528001558,262.7681528001558,262.7681528001558,262.7681528001558,262.7681528001558,262.7681528001558,262.7681528001558,262.7681528001558,262.7681528001558,23,0,,,262.7681528001558,262.97032530000433,1000,262.97032530000433,1000,1000,1000,1000,0,num_3,0.8634029000531882,,32,4,2026-03-12_15h27.12.079,2026A_exp2,2022.2.4,59.997432034478784,
1,0,6.1,0.0,0,0,84,84,82,,,,,263.85235280008055,264.5032505001873,264.5032505001873,265.00417320011184,315,45,265.00417320011184,265.00417320011184,265.00417320011184,265.00417320011184,265.00417320011184,265.00417320011184,265.00417320011184,265.00417320011184,265.00417320011184,265.3706643001642,265.3706643001642,265.3706643001642,265.3706643001642,265.3706643001642,265.3706643001642,265.3706643001642,265.3706643001642,265.3706643001642,23,0,,,265.3706643001642,265.57099060015753,6.1,265.57099060015753,1,6.1,1,1,1000,num_4,0.535114899976179,,32,4,2026-03-12_15h27.12.079,2026A_exp2,2022.2.4,59.997432034478784,
1,0,0.0,0.0,1,0,85,85,39,,,,,266.1381792000029,266.78882770007476,266.78882770007476,267.2732303000521,315,45,267.2732303000521,267.2732303000521,267.2732303000521,267.2732303000521,267.2732303000521,267.2732303000521,267.2732303000521,267.2732303000521,267.2732303000521,267.639674999984,267.639674999984,267.639674999984,267.639674999984,267.639674999984,267.639674999984,267.639674999984,267.639674999984,267.639674999984,23,0,,,267.639674999984,267.83982380013913,0.0,267.83982380013913,0,0.0,0,1,1000,num_1,0.8256723000667989,,32,4,2026-03-12_15h27.12.079,2026A_exp2,2022.2.4,59.997432034478784,
1000,1,0.0,4.9,0,0,86,86,6,,,,,268.69094270002097,269.32447009999305,269.32447009999305,269.82582120015286,315,45,269.82582120015286,269.82582120015286,269.82582120015286,269.82582120015286,269.82582120015286,269.82582120015286,269.82582120015286,269.82582120015286,269.82582120015286,270.1922164000571,270.1922164000571,270.1922164000571,270.1922164000571,270.1922164000571,270.1922164000571,270.1922164000571,270.1922164000571,270.1922164000571,23,0,,,270.1922164000571,270.3941447001416,1000,270.3941447001416,1000,1000,1000,1000,1,num_2,0.9117288000416011,,32,4,2026-03-12_15h27.12.079,2026A_exp2,2022.2.4,59.997432034478784,
1000,1,4.9,0.0,1,0,87,87,10,,,,,271.3266756001394,271.9773808000609,271.9773808000609,272.47839000006206,315,45,272.47839000006206,272.47839000006206,272.47839000006206,272.47839000006206,272.47839000006206,272.47839000006206,272.47839000006206,272.47839000006206,272.47839000006206,272.8448296999559,272.8448296999559,272.8448296999559,272.8448296999559,272.8448296999559,272.8448296999559,272.8448296999559,272.8448296999559,272.8448296999559,23,0,,,272.8448296999559,273.0466627001297,1000,273.0466627001297,1000,1000,1000,1000,0,num_3,0.4602187001146376,,32,4,2026-03-12_15h27.12.079,2026A_exp2,2022.2.4,59.997432034478784,
1,0,3.7,0.0,1,0,88,88,12,,,,,273.5290314001031,274.1795493999962,274.1795493999962,274.66401399997994,45,45,274.66401399997994,274.66401399997994,274.66401399997994,274.66401399997994,274.66401399997994,274.66401399997994,274.66401399997994,274.66401399997994,274.66401399997994,275.0303122000769,275.0303122000769,275.0303122000769,275.0303122000769,275.0303122000769,275.0303122000769,275.0303122000769,275.0303122000769,275.0303122000769,23,0,,,275.0303122000769,275.23054810008034,0.0,275.23054810008034,0,0.0,0,1,1000,num_1,1.1790232001803815,,32,4,2026-03-12_15h27.12.079,2026A_exp2,2022.2.4,59.997432034478784,
1000,1,6.1,3.7,0,0,89,89,75,,,,,276.431668800069,277.08250540005974,277.08250540005974,277.56677090004086,45,315,277.56677090004086,277.56677090004086,277.56677090004086,277.56677090004086,277.56677090004086,277.56677090004086,277.56677090004086,277.56677090004086,277.56677090004086,277.93327070004307,277.93327070004307,277.93327070004307,277.93327070004307,277.93327070004307,277.93327070004307,277.93327070004307,277.93327070004307,277.93327070004307,23,0,,,277.93327070004307,278.13502170005813,1000,278.13502170005813,1000,1000,1000,1000,0,num_3,1.1704857998993248,,32,4,2026-03-12_15h27.12.079,2026A_exp2,2022.2.4,59.997432034478784,
,,,,,,,,,,,,,,,,,,,,,,,,,,,,,,,,,,,,,,,,,,,,,,,,,,,,279.3434206000529,,,,,,,
