validity,detectorcomp,contrastCW,contrastCCW,precueCWorCCW,block_80trials.thisRepN,block_80trials.thisTrialN,block_80trials.thisN,block_80trials.thisIndex,etRecord.started,etRecord.stopped,text.started,text.stopped,text_4.started,text_4.stopped,text_6.started,text_6.stopped,oriCW,oriCCW,roi_2.started,grating_UR.started,grating_UL.started,grating_LR.started,grating_LL.started,noise_UR.started,noise_UL.started,noise_LR.started,noise_LL.started,roi_2.stopped,grating_UR.stopped,grating_UL.stopped,grating_LR.stopped,grating_LL.stopped,noise_UR.stopped,noise_UL.stopped,noise_LR.stopped,noise_LL.stopped,outframe,roi_2.numLooks,roi_2.timesOn,roi_2.timesOff,text_2.started,text_2.stopped,probedcontrast,key_resp.started,respdetect,relevantContrast,correctDetect,TorFdetect,respCWorCCW,key_resp.keys,key_resp.rt,feedback_display_.started,participantNo,blockNo,date,expName,psychopyVersion,frameRate,
1,0,3.7,0.0,1,0,0,0,55,4.150002496317029e-05,4.150002496317029e-05,48.43528919998789,50.43942519999109,50.43942519999109,51.07151390000945,51.07151390000945,51.5892963000224,315,45,51.5892963000224,51.5892963000224,51.5892963000224,51.5892963000224,51.5892963000224,51.5892963000224,51.5892963000224,51.5892963000224,51.5892963000224,51.93921079998836,51.93921079998836,51.93921079998836,51.93921079998836,51.93921079998836,51.93921079998836,51.93921079998836,51.93921079998836,51.93921079998836,0,1,[0.0013290000497363508],[0.3680010000243783],51.93921079998836,52.13945190003142,0.0,52.13945190003142,0,0.0,0,1,1000,num_1,2.4976352999801748,,26,6,2026-03-05_10h45.06.058,2026A_exp2,2022.2.4,59.947042783930044,
1000,1,0.0,6.1,0,0,1,1,85,,,,,54.65863240003819,55.30913020001026,55.30913020001026,55.7935645999969,45,45,55.7935645999969,55.7935645999969,55.7935645999969,55.7935645999969,55.7935645999969,55.7935645999969,55.7935645999969,55.7935645999969,55.7935645999969,56.15983339998638,56.15983339998638,56.15983339998638,56.15983339998638,56.15983339998638,56.15983339998638,56.15983339998638,56.15983339998638,56.15983339998638,23,0,,,56.15983339998638,56.364998600038234,1000,56.364998600038234,1000,1000,1000,1000,1,num_2,0.576848000055179,,26,6,2026-03-05_10h45.06.058,2026A_exp2,2022.2.4,59.947042783930044,
1,0,3.7,3.7,1,0,2,2,11,,,,,56.96086769999238,57.61150220001582,57.61150220001582,58.11257470003329,45,315,58.11257470003329,58.11257470003329,58.11257470003329,58.11257470003329,58.11257470003329,58.11257470003329,58.11257470003329,58.11257470003329,58.11257470003329,58.47902560001239,58.47902560001239,58.47902560001239,58.47902560001239,58.47902560001239,58.47902560001239,58.47902560001239,58.47902560001239,58.47902560001239,0,1,[0.0012343000271357596],[0.36712060001445934],58.47902560001239,58.6792857000255,3.7,58.6792857000255,1,3.7,1,1,1000,num_4,0.8788512000464834,,26,6,2026-03-05_10h45.06.058,2026A_exp2,2022.2.4,59.947042783930044,
1000,1,0.0,0.0,1,0,3,3,37,,,,,59.58014219999313,60.230686100025196,60.230686100025196,60.715061000024434,45,315,60.715061000024434,60.715061000024434,60.715061000024434,60.715061000024434,60.715061000024434,60.715061000024434,60.715061000024434,60.715061000024434,60.715061000024434,61.081562000035774,61.081562000035774,61.081562000035774,61.081562000035774,61.081562000035774,61.081562000035774,61.081562000035774,61.081562000035774,61.081562000035774,0,1,[0.0012055999832227826],[0.3670042000012472],61.081562000035774,61.28371640003752,1000,61.28371640003752,1000,1000,1000,1000,1,num_2,2.258238899987191,,26,6,2026-03-05_10h45.06.058,2026A_exp2,2022.2.4,59.947042783930044,
1,0,6.1,0.0,1,0,4,4,23,,,,,63.56751640001312,64.22188780002762,64.22188780002762,64.71917420002865,315,315,64.71917420002865,64.71917420002865,64.71917420002865,64.71917420002865,64.71917420002865,64.71917420002865,64.71917420002865,64.71917420002865,64.71917420002865,65.08549770002719,65.08549770002719,65.08549770002719,65.08549770002719,65.08549770002719,65.08549770002719,65.08549770002719,65.08549770002719,65.08549770002719,23,0,,,65.08549770002719,65.28594450000674,0.0,65.28594450000674,0,0.0,0,1,1000,num_1,0.6238865999621339,,26,6,2026-03-05_10h45.06.058,2026A_exp2,2022.2.4,59.947042783930044,
0,0,4.9,4.9,0,0,5,5,88,,,,,65.9365259000333,66.5871631000191,66.5871631000191,67.07149820000632,45,315,67.07149820000632,67.07149820000632,67.07149820000632,67.07149820000632,67.07149820000632,67.07149820000632,67.07149820000632,67.07149820000632,67.07149820000632,67.43800730002113,67.43800730002113,67.43800730002113,67.43800730002113,67.43800730002113,67.43800730002113,67.43800730002113,67.43800730002113,67.43800730002113,23,0,,,67.43800730002113,67.6380635999958,4.9,67.6380635999958,1,4.9,1,1,1000,num_4,0.8874698000145145,,26,6,2026-03-05_10h45.06.058,2026A_exp2,2022.2.4,59.947042783930044,
1000,1,0.0,4.9,0,0,6,6,50,,,,,68.55564330000198,69.20637550001265,69.20637550001265,69.69096079998417,45,315,69.69096079998417,69.69096079998417,69.69096079998417,69.69096079998417,69.69096079998417,69.69096079998417,69.69096079998417,69.69096079998417,69.69096079998417,70.05731350003043,70.05731350003043,70.05731350003043,70.05731350003043,70.05731350003043,70.05731350003043,70.05731350003043,70.05731350003043,70.05731350003043,23,0,,,70.05731350003043,70.26050189998932,1000,70.26050189998932,1000,1000,1000,1000,1,num_2,0.5443919000099413,,26,6,2026-03-05_10h45.06.058,2026A_exp2,2022.2.4,59.947042783930044,
1,0,0.0,4.9,0,0,7,7,9,,,,,70.82463500002632,71.47506319999229,71.47506319999229,71.9797860000399,45,315,71.9797860000399,71.9797860000399,71.9797860000399,71.9797860000399,71.9797860000399,71.9797860000399,71.9797860000399,71.9797860000399,71.9797860000399,72.3430367000401,72.3430367000401,72.3430367000401,72.3430367000401,72.3430367000401,72.3430367000401,72.3430367000401,72.3430367000401,72.3430367000401,23,0,,,72.3430367000401,72.54556480003521,0.0,72.54556480003521,0,0.0,0,1,1000,num_1,0.6193283000029624,,26,6,2026-03-05_10h45.06.058,2026A_exp2,2022.2.4,59.947042783930044,
1,0,0.0,0.0,1,0,8,8,77,,,,,73.19369990000268,73.84437150001759,73.84437150001759,74.32871169998543,45,315,74.32871169998543,74.32871169998543,74.32871169998543,74.32871169998543,74.32871169998543,74.32871169998543,74.32871169998543,74.32871169998543,74.32871169998543,74.69529040000634,74.69529040000634,74.69529040000634,74.69529040000634,74.69529040000634,74.69529040000634,74.69529040000634,74.69529040000634,74.69529040000634,23,0,,,74.69529040000634,74.9079012000002,0.0,74.9079012000002,1,0.0,0,0,1000,num_4,0.9371849999879487,,26,6,2026-03-05_10h45.06.058,2026A_exp2,2022.2.4,59.947042783930044,
1000,1,0.0,3.7,0,0,9,9,21,,,,,75.8630246000248,76.51370790001238,76.51370790001238,76.99804969999241,45,45,76.99804969999241,76.99804969999241,76.99804969999241,76.99804969999241,76.99804969999241,76.99804969999241,76.99804969999241,76.99804969999241,76.99804969999241,77.36424780002562,77.36424780002562,77.36424780002562,77.36424780002562,77.36424780002562,77.36424780002562,77.36424780002562,77.36424780002562,77.36424780002562,23,0,,,77.36424780002562,77.56668869999703,1000,77.56668869999703,1000,1000,1000,1000,1,num_2,0.6786494000116363,,26,6,2026-03-05_10h45.06.058,2026A_exp2,2022.2.4,59.947042783930044,
1,0,3.7,0.0,0,0,10,10,15,,,,,78.26577960001305,78.9158722999855,78.9158722999855,79.41706060001161,45,45,79.41706060001161,79.41706060001161,79.41706060001161,79.41706060001161,79.41706060001161,79.41706060001161,79.41706060001161,79.41706060001161,79.41706060001161,79.76696370000718,79.76696370000718,79.76696370000718,79.76696370000718,79.76696370000718,79.76696370000718,79.76696370000718,79.76696370000718,79.76696370000718,22,0,,,79.76696370000718,79.96725159999914,3.7,79.96725159999914,0,3.7,1,0,1000,num_1,3.0536939000012353,,26,6,2026-03-05_10h45.06.058,2026A_exp2,2022.2.4,59.947042783930044,
1000,1,0.0,6.1,1,0,11,11,40,,,,,83.03679430001648,83.68750430003274,83.68750430003274,84.18871650000801,45,45,84.18871650000801,84.18871650000801,84.18871650000801,84.18871650000801,84.18871650000801,84.18871650000801,84.18871650000801,84.18871650000801,84.18871650000801,84.53828909998992,84.53828909998992,84.53828909998992,84.53828909998992,84.53828909998992,84.53828909998992,84.53828909998992,84.53828909998992,84.53828909998992,22,0,,,84.53828909998992,84.74085470003774,1000,84.74085470003774,1000,1000,1000,1000,1,num_2,0.5037780000129715,,26,6,2026-03-05_10h45.06.058,2026A_exp2,2022.2.4,59.947042783930044,
1,0,0.0,0.0,1,0,12,12,56,,,,,85.2723775000195,85.9231657999917,85.9231657999917,86.42413719999604,45,45,86.42413719999604,86.42413719999604,86.42413719999604,86.42413719999604,86.42413719999604,86.42413719999604,86.42413719999604,86.42413719999604,86.42413719999604,86.79071670002304,86.79071670002304,86.79071670002304,86.79071670002304,86.79071670002304,86.79071670002304,86.79071670002304,86.79071670002304,86.79071670002304,23,0,,,86.79071670002304,86.99087089998648,0.0,86.99087089998648,0,0.0,0,1,1000,num_1,1.2863335000001825,,26,6,2026-03-05_10h45.06.058,2026A_exp2,2022.2.4,59.947042783930044,
1,0,6.1,0.0,1,0,13,13,41,,,,,88.30873480002629,88.9595259000198,88.9595259000198,89.44394229998579,315,315,89.44394229998579,89.44394229998579,89.44394229998579,89.44394229998579,89.44394229998579,89.44394229998579,89.44394229998579,89.44394229998579,89.44394229998579,89.81039360002615,89.81039360002615,89.81039360002615,89.81039360002615,89.81039360002615,89.81039360002615,89.81039360002615,89.81039360002615,89.81039360002615,23,0,,,89.81039360002615,90.01055910001742,0.0,90.01055910001742,0,0.0,0,1,1000,num_1,0.6346352000255138,,26,6,2026-03-05_10h45.06.058,2026A_exp2,2022.2.4,59.947042783930044,
0,0,0.0,6.1,0,0,14,14,12,,,,,90.66111530002672,91.31177979998756,91.31177979998756,91.79622319998452,315,315,91.79622319998452,91.79622319998452,91.79622319998452,91.79622319998452,91.79622319998452,91.79622319998452,91.79622319998452,91.79622319998452,91.79622319998452,92.16254980000667,92.16254980000667,92.16254980000667,92.16254980000667,92.16254980000667,92.16254980000667,92.16254980000667,92.16254980000667,92.16254980000667,23,0,,,92.16254980000667,92.36300120002124,6.1,92.36300120002124,1,6.1,1,1,1000,num_4,0.7618356000166386,,26,6,2026-03-05_10h45.06.058,2026A_exp2,2022.2.4,59.947042783930044,
0,0,3.7,0.0,0,0,15,15,16,,,,,93.1468598000356,93.79765439999755,93.79765439999755,94.28200060001109,45,45,94.28200060001109,94.28200060001109,94.28200060001109,94.28200060001109,94.28200060001109,94.28200060001109,94.28200060001109,94.28200060001109,94.28200060001109,94.64859350002371,94.64859350002371,94.64859350002371,94.64859350002371,94.64859350002371,94.64859350002371,94.64859350002371,94.64859350002371,94.64859350002371,23,0,,,94.64859350002371,94.8487512000138,0.0,94.8487512000138,0,0.0,0,1,1000,num_1,1.0525797000154853,,26,6,2026-03-05_10h45.06.058,2026A_exp2,2022.2.4,59.947042783930044,
1000,1,0.0,0.0,1,0,16,16,78,,,,,95.93315360002453,96.58381510002073,96.58381510002073,97.06822539999848,315,45,97.06822539999848,97.06822539999848,97.06822539999848,97.06822539999848,97.06822539999848,97.06822539999848,97.06822539999848,97.06822539999848,97.06822539999848,97.4344923000317,97.4344923000317,97.4344923000317,97.4344923000317,97.4344923000317,97.4344923000317,97.4344923000317,97.4344923000317,97.4344923000317,23,0,,,97.4344923000317,97.63494900002843,1000,97.63494900002843,1000,1000,1000,1000,0,num_3,0.7945413999841549,,26,6,2026-03-05_10h45.06.058,2026A_exp2,2022.2.4,59.947042783930044,
1000,1,6.1,3.7,0,0,17,17,43,,,,,98.4522787000169,99.10313250002218,99.10313250002218,99.6040644000168,315,315,99.6040644000168,99.6040644000168,99.6040644000168,99.6040644000168,99.6040644000168,99.6040644000168,99.6040644000168,99.6040644000168,99.6040644000168,99.97045820002677,99.97045820002677,99.97045820002677,99.97045820002677,99.97045820002677,99.97045820002677,99.97045820002677,99.97045820002677,99.97045820002677,23,0,,,99.97045820002677,100.18640730000334,1000,100.18640730000334,1000,1000,1000,1000,0,num_3,0.6666789000155404,,26,6,2026-03-05_10h45.06.058,2026A_exp2,2022.2.4,59.947042783930044,
1,0,3.7,0.0,1,0,18,18,73,,,,,100.87129239999922,101.52207260002615,101.52207260002615,102.02324469998712,45,45,102.02324469998712,102.02324469998712,102.02324469998712,102.02324469998712,102.02324469998712,102.02324469998712,102.02324469998712,102.02324469998712,102.02324469998712,102.3896095000091,102.3896095000091,102.3896095000091,102.3896095000091,102.3896095000091,102.3896095000091,102.3896095000091,102.3896095000091,102.3896095000091,23,0,,,102.3896095000091,102.58981440000935,0.0,102.58981440000935,0,0.0,0,1,1000,num_1,0.9437194999773055,,26,6,2026-03-05_10h45.06.058,2026A_exp2,2022.2.4,59.947042783930044,
1000,1,0.0,6.1,0,0,19,19,5,,,,,103.55754270002944,104.20815389999188,104.20815389999188,104.69254950003233,45,315,104.69254950003233,104.69254950003233,104.69254950003233,104.69254950003233,104.69254950003233,104.69254950003233,104.69254950003233,104.69254950003233,104.69254950003233,105.05887340003392,105.05887340003392,105.05887340003392,105.05887340003392,105.05887340003392,105.05887340003392,105.05887340003392,105.05887340003392,105.05887340003392,23,0,,,105.05887340003392,105.26102600002196,1000,105.26102600002196,1000,1000,1000,1000,1,num_2,0.5279015999985859,,26,6,2026-03-05_10h45.06.058,2026A_exp2,2022.2.4,59.947042783930044,
1000,1,4.9,6.1,1,0,20,20,4,,,,,105.80962130002445,106.4603758000303,106.4603758000303,106.96132529998431,45,315,106.96132529998431,106.96132529998431,106.96132529998431,106.96132529998431,106.96132529998431,106.96132529998431,106.96132529998431,106.96132529998431,106.96132529998431,107.31125100003555,107.31125100003555,107.31125100003555,107.31125100003555,107.31125100003555,107.31125100003555,107.31125100003555,107.31125100003555,107.31125100003555,22,0,,,107.31125100003555,107.5135720000253,1000,107.52819490002003,1000,1000,1000,1000,1,num_2,0.7165696000447497,,26,6,2026-03-05_10h45.06.058,2026A_exp2,2022.2.4,59.947042783930044,
1,0,0.0,6.1,1,0,21,21,39,,,,,108.2620207000291,108.91289249999681,108.91289249999681,109.41394880000735,315,315,109.41394880000735,109.41394880000735,109.41394880000735,109.41394880000735,109.41394880000735,109.41394880000735,109.41394880000735,109.41394880000735,109.41394880000735,109.78021599998465,109.78021599998465,109.78021599998465,109.78021599998465,109.78021599998465,109.78021599998465,109.78021599998465,109.78021599998465,109.78021599998465,23,0,,,109.78021599998465,109.98044499999378,6.1,109.98044499999378,1,6.1,1,1,1000,num_4,0.5605554999783635,,26,6,2026-03-05_10h45.06.058,2026A_exp2,2022.2.4,59.947042783930044,
1000,1,3.7,0.0,0,0,22,22,28,,,,,110.56436610000674,111.2151726000011,111.2151726000011,111.6994115000125,315,45,111.6994115000125,111.6994115000125,111.6994115000125,111.6994115000125,111.6994115000125,111.6994115000125,111.6994115000125,111.6994115000125,111.6994115000125,112.06589730002452,112.06589730002452,112.06589730002452,112.06589730002452,112.06589730002452,112.06589730002452,112.06589730002452,112.06589730002452,112.06589730002452,23,0,,,112.06589730002452,112.26783580001211,1000,112.26783580001211,1000,1000,1000,1000,0,num_3,0.6819166999775916,,26,6,2026-03-05_10h45.06.058,2026A_exp2,2022.2.4,59.947042783930044,
1,0,0.0,0.0,0,0,23,23,87,,,,,112.96684850001475,113.61750270001357,113.61750270001357,114.11830730002839,45,315,114.11830730002839,114.11830730002839,114.11830730002839,114.11830730002839,114.11830730002839,114.11830730002839,114.11830730002839,114.11830730002839,114.11830730002839,114.48504230001708,114.48504230001708,114.48504230001708,114.48504230001708,114.48504230001708,114.48504230001708,114.48504230001708,114.48504230001708,114.48504230001708,23,0,,,114.48504230001708,114.6852835000027,0.0,114.6852835000027,1,0.0,0,0,1000,num_4,0.8245686999871396,,26,6,2026-03-05_10h45.06.058,2026A_exp2,2022.2.4,59.947042783930044,
1000,1,3.7,0.0,1,0,24,24,54,,,,,115.53592759999447,116.1864968999871,116.1864968999871,116.6711053000181,315,315,116.6711053000181,116.6711053000181,116.6711053000181,116.6711053000181,116.6711053000181,116.6711053000181,116.6711053000181,116.6711053000181,116.6711053000181,117.03760839998722,117.03760839998722,117.03760839998722,117.03760839998722,117.03760839998722,117.03760839998722,117.03760839998722,117.03760839998722,117.03760839998722,23,0,,,117.03760839998722,117.2394313000259,1000,117.2394313000259,1000,1000,1000,1000,0,num_3,0.653445300005842,,26,6,2026-03-05_10h45.06.058,2026A_exp2,2022.2.4,59.947042783930044,
1,0,0.0,3.7,1,0,25,25,83,,,,,117.92171989998315,118.57245410000905,118.57245410000905,119.07348730001831,315,45,119.07348730001831,119.07348730001831,119.07348730001831,119.07348730001831,119.07348730001831,119.07348730001831,119.07348730001831,119.07348730001831,119.07348730001831,119.439913899987,119.439913899987,119.439913899987,119.439913899987,119.439913899987,119.439913899987,119.439913899987,119.439913899987,119.439913899987,23,0,,,119.439913899987,119.64015039999504,3.7,119.64015039999504,1,3.7,1,1,1000,num_4,0.9014161999803036,,26,6,2026-03-05_10h45.06.058,2026A_exp2,2022.2.4,59.947042783930044,
1,0,0.0,6.1,1,0,26,26,17,,,,,120.55772300000535,121.2083597999881,121.2083597999881,121.69286920002196,45,45,121.69286920002196,121.69286920002196,121.69286920002196,121.69286920002196,121.69286920002196,121.69286920002196,121.69286920002196,121.69286920002196,121.69286920002196,122.05924380000215,122.05924380000215,122.05924380000215,122.05924380000215,122.05924380000215,122.05924380000215,122.05924380000215,122.05924380000215,122.05924380000215,23,0,,,122.05924380000215,122.25943209999241,6.1,122.25943209999241,1,6.1,1,1,1000,num_4,0.8663255000137724,,26,6,2026-03-05_10h45.06.058,2026A_exp2,2022.2.4,59.947042783930044,
1,0,0.0,4.9,1,0,27,27,44,,,,,123.14353060000576,123.7942805000348,123.7942805000348,124.27879380004015,45,315,124.27879380004015,124.27879380004015,124.27879380004015,124.27879380004015,124.27879380004015,124.27879380004015,124.27879380004015,124.27879380004015,124.27879380004015,124.64527939999243,124.64527939999243,124.64527939999243,124.64527939999243,124.64527939999243,124.64527939999243,124.64527939999243,124.64527939999243,124.64527939999243,23,0,,,124.64527939999243,124.84538770001382,4.9,124.84538770001382,1,4.9,1,1,1000,num_4,0.7363207999733277,,26,6,2026-03-05_10h45.06.058,2026A_exp2,2022.2.4,59.947042783930044,
1,0,0.0,0.0,1,0,28,28,68,,,,,125.61303619999671,126.26351319998503,126.26351319998503,126.7478134999983,45,45,126.7478134999983,126.7478134999983,126.7478134999983,126.7478134999983,126.7478134999983,126.7478134999983,126.7478134999983,126.7478134999983,126.7478134999983,127.11437500000466,127.11437500000466,127.11437500000466,127.11437500000466,127.11437500000466,127.11437500000466,127.11437500000466,127.11437500000466,127.11437500000466,23,0,,,127.11437500000466,127.31452070001978,0.0,127.31452070001978,1,0.0,0,0,1000,num_4,0.8673077000421472,,26,6,2026-03-05_10h45.06.058,2026A_exp2,2022.2.4,59.947042783930044,
1000,1,0.0,0.0,1,0,29,29,63,,,,,128.198749400035,128.84936600003857,128.84936600003857,129.3338584000012,45,315,129.3338584000012,129.3338584000012,129.3338584000012,129.3338584000012,129.3338584000012,129.3338584000012,129.3338584000012,129.3338584000012,129.3338584000012,129.70027610001853,129.70027610001853,129.70027610001853,129.70027610001853,129.70027610001853,129.70027610001853,129.70027610001853,129.70027610001853,129.70027610001853,23,0,,,129.70027610001853,129.90256890002638,1000,129.90256890002638,1000,1000,1000,1000,1,num_2,0.8468776000081562,,26,6,2026-03-05_10h45.06.058,2026A_exp2,2022.2.4,59.947042783930044,
1,0,4.9,4.9,1,0,30,30,32,,,,,130.76785509998444,131.41859610000392,131.41859610000392,131.91955610003788,45,45,131.91955610003788,131.91955610003788,131.91955610003788,131.91955610003788,131.91955610003788,131.91955610003788,131.91955610003788,131.91955610003788,131.91955610003788,132.28620159998536,132.28620159998536,132.28620159998536,132.28620159998536,132.28620159998536,132.28620159998536,132.28620159998536,132.28620159998536,132.28620159998536,23,0,,,132.28620159998536,132.48627890000353,4.9,132.48627890000353,1,4.9,1,1,1000,num_4,0.9348966999677941,,26,6,2026-03-05_10h45.06.058,2026A_exp2,2022.2.4,59.947042783930044,
1,0,6.1,0.0,1,0,31,31,53,,,,,133.4373973000329,134.08797870000126,134.08797870000126,134.58899160003057,45,315,134.58899160003057,134.58899160003057,134.58899160003057,134.58899160003057,134.58899160003057,134.58899160003057,134.58899160003057,134.58899160003057,134.58899160003057,134.9555035000085,134.9555035000085,134.9555035000085,134.9555035000085,134.9555035000085,134.9555035000085,134.9555035000085,134.9555035000085,134.9555035000085,23,0,,,134.9555035000085,135.15576910000527,0.0,135.15576910000527,0,0.0,0,1,1000,num_1,0.7137804999947548,,26,6,2026-03-05_10h45.06.058,2026A_exp2,2022.2.4,59.947042783930044,
0,0,0.0,0.0,0,0,32,32,10,,,,,135.8898651000345,136.54049340001075,136.54049340001075,137.0248952000402,45,315,137.0248952000402,137.0248952000402,137.0248952000402,137.0248952000402,137.0248952000402,137.0248952000402,137.0248952000402,137.0248952000402,137.0248952000402,137.39126659999602,137.39126659999602,137.39126659999602,137.39126659999602,137.39126659999602,137.39126659999602,137.39126659999602,137.39126659999602,137.39126659999602,23,0,,,137.39126659999602,137.59149630001048,0.0,137.59149630001048,1,0.0,0,0,1000,num_4,2.222035299986601,,26,6,2026-03-05_10h45.06.058,2026A_exp2,2022.2.4,59.947042783930044,
1000,1,4.9,6.1,0,0,33,33,49,,,,,139.84359569998924,140.49445250001736,140.49445250001736,140.978776700038,315,45,140.978776700038,140.978776700038,140.978776700038,140.978776700038,140.978776700038,140.978776700038,140.978776700038,140.978776700038,140.978776700038,141.34527170000365,141.34527170000365,141.34527170000365,141.34527170000365,141.34527170000365,141.34527170000365,141.34527170000365,141.34527170000365,141.34527170000365,23,0,,,141.34527170000365,141.54751679999754,1000,141.54751679999754,1000,1000,1000,1000,0,num_3,0.65864059998421,,26,6,2026-03-05_10h45.06.058,2026A_exp2,2022.2.4,59.947042783930044,
1,0,4.9,0.0,0,0,34,34,47,,,,,142.2295829000068,142.8801220000023,142.8801220000023,143.36458850000054,315,45,143.36458850000054,143.36458850000054,143.36458850000054,143.36458850000054,143.36458850000054,143.36458850000054,143.36458850000054,143.36458850000054,143.36458850000054,143.73080190003384,143.73080190003384,143.73080190003384,143.73080190003384,143.73080190003384,143.73080190003384,143.73080190003384,143.73080190003384,143.73080190003384,23,0,,,143.73080190003384,143.9312624000013,4.9,143.9312624000013,1,4.9,1,1,1000,num_4,2.1861787000088952,,26,6,2026-03-05_10h45.06.058,2026A_exp2,2022.2.4,59.947042783930044,
0,0,0.0,6.1,0,0,35,35,30,,,,,146.13302020000992,146.78409870003816,146.78409870003816,147.26852650003275,315,315,147.26852650003275,147.26852650003275,147.26852650003275,147.26852650003275,147.26852650003275,147.26852650003275,147.26852650003275,147.26852650003275,147.26852650003275,147.63477050000802,147.63477050000802,147.63477050000802,147.63477050000802,147.63477050000802,147.63477050000802,147.63477050000802,147.63477050000802,147.63477050000802,23,0,,,147.63477050000802,147.8350484999828,6.1,147.8350484999828,1,6.1,1,1,1000,num_4,0.9540396999800578,,26,6,2026-03-05_10h45.06.058,2026A_exp2,2022.2.4,59.947042783930044,
1000,1,0.0,3.7,1,0,36,36,7,,,,,148.81930909998482,149.47001900000032,149.47001900000032,149.95434920000844,315,315,149.95434920000844,149.95434920000844,149.95434920000844,149.95434920000844,149.95434920000844,149.95434920000844,149.95434920000844,149.95434920000844,149.95434920000844,150.32087639998645,150.32087639998645,150.32087639998645,150.32087639998645,150.32087639998645,150.32087639998645,150.32087639998645,150.32087639998645,150.32087639998645,23,0,,,150.32087639998645,150.5229524000315,1000,150.5229524000315,1000,1000,1000,1000,1,num_2,1.681851600005757,,26,6,2026-03-05_10h45.06.058,2026A_exp2,2022.2.4,59.947042783930044,
0,0,0.0,6.1,1,0,37,37,84,,,,,152.222723999992,152.87345920002554,152.87345920002554,153.35786019999068,315,315,153.35786019999068,153.35786019999068,153.35786019999068,153.35786019999068,153.35786019999068,153.35786019999068,153.35786019999068,153.35786019999068,153.35786019999068,153.72430519998306,153.72430519998306,153.72430519998306,153.72430519998306,153.72430519998306,153.72430519998306,153.72430519998306,153.72430519998306,153.72430519998306,23,0,,,153.72430519998306,153.9243496999843,0.0,153.9243496999843,0,0.0,0,1,1000,num_1,0.8413312999764457,,26,6,2026-03-05_10h45.06.058,2026A_exp2,2022.2.4,59.947042783930044,
1,0,0.0,3.7,0,0,38,38,34,,,,,154.79211889998987,155.42652520001866,155.42652520001866,155.92698390001897,45,45,155.92698390001897,155.92698390001897,155.92698390001897,155.92698390001897,155.92698390001897,155.92698390001897,155.92698390001897,155.92698390001897,155.92698390001897,156.293534299999,156.293534299999,156.293534299999,156.293534299999,156.293534299999,156.293534299999,156.293534299999,156.293534299999,156.293534299999,2,3,"[0.0012271999730728567, 0.33353589999023825, 0.3671633999911137]","[0.3171102000051178, 0.3505969999823719, 0.3671683999709785]",156.293534299999,156.49373089999426,0.0,156.49373089999426,0,0.0,0,1,1000,num_1,2.5432051999960095,,26,6,2026-03-05_10h45.06.058,2026A_exp2,2022.2.4,59.947042783930044,
0,0,3.7,0.0,1,0,39,39,0,,,,,159.06280030001653,159.6967531000264,159.6967531000264,160.19804550003028,45,315,160.19804550003028,160.19804550003028,160.19804550003028,160.19804550003028,160.19804550003028,160.19804550003028,160.19804550003028,160.19804550003028,160.19804550003028,160.56448280002223,160.56448280002223,160.56448280002223,160.56448280002223,160.56448280002223,160.56448280002223,160.56448280002223,160.56448280002223,160.56448280002223,10,3,"[0.01749919995199889, 0.16707569995196536, 0.33399670000653714]","[0.1338599000009708, 0.21722190000582486, 0.3673146999790333]",160.56448280002223,160.764562700002,3.7,160.764562700002,1,3.7,1,1,1000,num_4,0.785288600018248,,26,6,2026-03-05_10h45.06.058,2026A_exp2,2022.2.4,59.947042783930044,
1,0,4.9,6.1,1,0,40,40,62,,,,,161.56526850000955,162.21629940002458,162.21629940002458,162.717356499983,315,45,162.717356499983,162.717356499983,162.717356499983,162.717356499983,162.717356499983,162.717356499983,162.717356499983,162.717356499983,162.717356499983,163.06696979998378,163.06696979998378,163.06696979998378,163.06696979998378,163.06696979998378,163.06696979998378,163.06696979998378,163.06696979998378,163.06696979998378,17,3,"[0.06679249997250736, 0.10078249999787658, 0.31755839998368174]","[0.0838701999746263, 0.11726529995212331, 0.35103359998902306]",163.06696979998378,163.2671136999852,6.1,163.2671136999852,1,6.1,1,1,1000,num_4,0.7788287000148557,,26,6,2026-03-05_10h45.06.058,2026A_exp2,2022.2.4,59.947042783930044,
1,0,0.0,0.0,1,0,41,41,60,,,,,164.06814210000448,164.71863299998222,164.71863299998222,165.20302080002148,315,315,165.20302080002148,165.20302080002148,165.20302080002148,165.20302080002148,165.20302080002148,165.20302080002148,165.20302080002148,165.20302080002148,165.20302080002148,165.5694070000318,165.5694070000318,165.5694070000318,165.5694070000318,165.5694070000318,165.5694070000318,165.5694070000318,165.5694070000318,165.5694070000318,0,1,[0.0012444999883882701],[0.36723569995956495],165.5694070000318,165.76969250000548,0.0,165.76969250000548,1,0.0,0,0,1000,num_4,0.7552445000037551,,26,6,2026-03-05_10h45.06.058,2026A_exp2,2022.2.4,59.947042783930044,
1000,1,4.9,0.0,0,0,42,42,82,,,,,166.55375890003052,167.2044462999911,167.2044462999911,167.68879510002444,45,45,167.68879510002444,167.68879510002444,167.68879510002444,167.68879510002444,167.68879510002444,167.68879510002444,167.68879510002444,167.68879510002444,167.68879510002444,168.05530420003925,168.05530420003925,168.05530420003925,168.05530420003925,168.05530420003925,168.05530420003925,168.05530420003925,168.05530420003925,168.05530420003925,0,1,[0.0012247000122442842],[0.36721930000931025],168.05530420003925,168.25726819998818,1000,168.25726819998818,1000,1000,1000,1000,0,num_3,0.7408925000345334,,26,6,2026-03-05_10h45.06.058,2026A_exp2,2022.2.4,59.947042783930044,
0,0,4.9,6.1,0,0,43,43,1,,,,,169.0228352000122,169.6735944999964,169.6735944999964,170.1580166000058,315,315,170.1580166000058,170.1580166000058,170.1580166000058,170.1580166000058,170.1580166000058,170.1580166000058,170.1580166000058,170.1580166000058,170.1580166000058,170.5244494000217,170.5244494000217,170.5244494000217,170.5244494000217,170.5244494000217,170.5244494000217,170.5244494000217,170.5244494000217,170.5244494000217,0,1,[0.0012021000147797167],[0.3672255999990739],170.5244494000217,170.72468500002287,6.1,170.72468500002287,1,6.1,1,1,1000,num_4,0.6641254000132903,,26,6,2026-03-05_10h45.06.058,2026A_exp2,2022.2.4,59.947042783930044,
1000,1,4.9,3.7,0,0,44,44,26,,,,,171.4084634000319,172.05904040002497,172.05904040002497,172.5436818000162,45,315,172.5436818000162,172.5436818000162,172.5436818000162,172.5436818000162,172.5436818000162,172.5436818000162,172.5436818000162,172.5436818000162,172.5436818000162,172.9101873000036,172.9101873000036,172.9101873000036,172.9101873000036,172.9101873000036,172.9101873000036,172.9101873000036,172.9101873000036,172.9101873000036,22,1,[0.0336397000355646],[0.0503315000096336],172.9101873000036,173.11212649999652,1000,173.11212649999652,1000,1000,1000,1000,1,num_2,1.3811131999827921,,26,6,2026-03-05_10h45.06.058,2026A_exp2,2022.2.4,59.947042783930044,
1,0,6.1,0.0,0,0,45,45,58,,,,,174.51159340003505,175.16239050001604,175.16239050001604,175.66338330000872,315,315,175.66338330000872,175.66338330000872,175.66338330000872,175.66338330000872,175.66338330000872,175.66338330000872,175.66338330000872,175.66338330000872,175.66338330000872,176.02986940002302,176.02986940002302,176.02986940002302,176.02986940002302,176.02986940002302,176.02986940002302,176.02986940002302,176.02986940002302,176.02986940002302,23,0,,,176.02986940002302,176.2300702999928,6.1,176.2300702999928,1,6.1,1,1,1000,num_4,0.8387432000017725,,26,6,2026-03-05_10h45.06.058,2026A_exp2,2022.2.4,59.947042783930044,
1000,1,0.0,0.0,1,0,46,46,80,,,,,177.09761569998227,177.7484127000207,177.7484127000207,178.2491808999912,315,315,178.2491808999912,178.2491808999912,178.2491808999912,178.2491808999912,178.2491808999912,178.2491808999912,178.2491808999912,178.2491808999912,178.2491808999912,178.59908710001037,178.59908710001037,178.59908710001037,178.59908710001037,178.59908710001037,178.59908710001037,178.59908710001037,178.59908710001037,178.59908710001037,22,0,,,178.59908710001037,178.80158929998288,1000,178.80158929998288,1000,1000,1000,1000,1,num_2,1.0359397000283934,,26,6,2026-03-05_10h45.06.058,2026A_exp2,2022.2.4,59.947042783930044,
1,0,4.9,3.7,0,0,47,47,89,,,,,179.86698059999617,180.51777050003875,180.51777050003875,181.0188319000299,45,45,181.0188319000299,181.0188319000299,181.0188319000299,181.0188319000299,181.0188319000299,181.0188319000299,181.0188319000299,181.0188319000299,181.0188319000299,181.3851034999825,181.3851034999825,181.3851034999825,181.3851034999825,181.3851034999825,181.3851034999825,181.3851034999825,181.3851034999825,181.3851034999825,7,3,"[0.033941500005312264, 0.11699920002138242, 0.16716230002930388]","[0.06699120003031567, 0.13390130002517253, 0.36736840003868565]",181.3851034999825,181.5855009999941,4.9,181.5855009999941,1,4.9,1,1,1000,num_4,0.5633881000103429,,26,6,2026-03-05_10h45.06.058,2026A_exp2,2022.2.4,59.947042783930044,
1,0,6.1,0.0,0,0,48,48,22,,,,,182.16924309998285,182.81978369998978,182.81978369998978,183.30434989999048,315,315,183.30434989999048,183.30434989999048,183.30434989999048,183.30434989999048,183.30434989999048,183.30434989999048,183.30434989999048,183.30434989999048,183.30434989999048,183.67103600001428,183.67103600001428,183.67103600001428,183.67103600001428,183.67103600001428,183.67103600001428,183.67103600001428,183.67103600001428,183.67103600001428,11,4,"[0.08345710003050044, 0.15028400003211573, 0.2169393000076525, 0.25042060000123456]","[0.1166293999995105, 0.16688580001937225, 0.2336187000037171, 0.3672020000522025]",183.67103600001428,183.8711649000179,6.1,183.8711649000179,1,6.1,1,1,1000,num_4,0.4949036000180058,,26,6,2026-03-05_10h45.06.058,2026A_exp2,2022.2.4,59.947042783930044,
1,0,0.0,0.0,1,0,49,49,66,,,,,184.3881476999959,185.03879510000115,185.03879510000115,185.52339799999027,45,45,185.52339799999027,185.52339799999027,185.52339799999027,185.52339799999027,185.52339799999027,185.52339799999027,185.52339799999027,185.52339799999027,185.52339799999027,185.88981980003882,185.88981980003882,185.88981980003882,185.88981980003882,185.88981980003882,185.88981980003882,185.88981980003882,185.88981980003882,185.88981980003882,23,0,,,185.88981980003882,186.0899112999905,0.0,186.0899112999905,0,0.0,0,1,1000,num_1,1.315841100004036,,26,6,2026-03-05_10h45.06.058,2026A_exp2,2022.2.4,59.947042783930044,
1000,1,3.7,3.7,0,0,50,50,76,,,,,187.42447610001545,188.07529549999163,188.07529549999163,188.55974759999663,315,315,188.55974759999663,188.55974759999663,188.55974759999663,188.55974759999663,188.55974759999663,188.55974759999663,188.55974759999663,188.55974759999663,188.55974759999663,188.92611280002166,188.92611280002166,188.92611280002166,188.92611280002166,188.92611280002166,188.92611280002166,188.92611280002166,188.92611280002166,188.92611280002166,23,0,,,188.92611280002166,189.12795430002734,1000,189.12795430002734,1000,1000,1000,1000,1,num_2,0.636884200037457,,26,6,2026-03-05_10h45.06.058,2026A_exp2,2022.2.4,59.947042783930044,
1000,1,3.7,3.7,1,0,51,51,25,,,,,189.79357320000418,190.44436780002434,190.44436780002434,190.94537209998816,45,315,190.94537209998816,190.94537209998816,190.94537209998816,190.94537209998816,190.94537209998816,190.94537209998816,190.94537209998816,190.94537209998816,190.94537209998816,191.31184660003055,191.31184660003055,191.31184660003055,191.31184660003055,191.31184660003055,191.31184660003055,191.31184660003055,191.31184660003055,191.31184660003055,2,2,"[0.0012388000031933188, 0.35033829999156296]","[0.3168417999986559, 0.3670000999700278]",191.31184660003055,191.513887899986,1000,191.513887899986,1000,1000,1000,1000,1,num_2,0.7402681999956258,,26,6,2026-03-05_10h45.06.058,2026A_exp2,2022.2.4,59.947042783930044,
1000,1,4.9,4.9,0,0,52,52,36,,,,,192.27936370001407,192.9299889000249,192.9299889000249,193.43126929999562,315,45,193.43126929999562,193.43126929999562,193.43126929999562,193.43126929999562,193.43126929999562,193.43126929999562,193.43126929999562,193.43126929999562,193.43126929999562,193.79766760003986,193.79766760003986,193.79766760003986,193.79766760003986,193.79766760003986,193.79766760003986,193.79766760003986,193.79766760003986,193.79766760003986,23,0,,,193.79766760003986,194.00202419998823,1000,194.00202419998823,1000,1000,1000,1000,1,num_2,0.8668290000059642,,26,6,2026-03-05_10h45.06.058,2026A_exp2,2022.2.4,59.947042783930044,
1,0,3.7,3.7,0,0,53,53,69,,,,,194.89895230002003,195.5493482000311,195.5493482000311,196.0337082000333,45,315,196.0337082000333,196.0337082000333,196.0337082000333,196.0337082000333,196.0337082000333,196.0337082000333,196.0337082000333,196.0337082000333,196.0337082000333,196.40031649998855,196.40031649998855,196.40031649998855,196.40031649998855,196.40031649998855,196.40031649998855,196.40031649998855,196.40031649998855,196.40031649998855,23,0,,,196.40031649998855,196.60044730000664,3.7,196.60044730000664,0,3.7,1,0,1000,num_1,0.9569839999894612,,26,6,2026-03-05_10h45.06.058,2026A_exp2,2022.2.4,59.947042783930044,
1000,1,6.1,0.0,1,0,54,54,61,,,,,197.58470730000408,198.23537639999995,198.23537639999995,198.7197865000344,315,45,198.7197865000344,198.7197865000344,198.7197865000344,198.7197865000344,198.7197865000344,198.7197865000344,198.7197865000344,198.7197865000344,198.7197865000344,199.08634199999506,199.08634199999506,199.08634199999506,199.08634199999506,199.08634199999506,199.08634199999506,199.08634199999506,199.08634199999506,199.08634199999506,0,1,[0.0011965999729000032],[0.3673591999686323],199.08634199999506,199.2882949000341,1000,199.2882949000341,1000,1000,1000,1000,0,num_3,0.8694564000470564,,26,6,2026-03-05_10h45.06.058,2026A_exp2,2022.2.4,59.947042783930044,
1,0,0.0,0.0,0,0,55,55,31,,,,,200.18751280003926,200.83807110000635,200.83807110000635,201.3225342000369,315,45,201.3225342000369,201.3225342000369,201.3225342000369,201.3225342000369,201.3225342000369,201.3225342000369,201.3225342000369,201.3225342000369,201.3225342000369,201.6889393000165,201.6889393000165,201.6889393000165,201.6889393000165,201.6889393000165,201.6889393000165,201.6889393000165,201.6889393000165,201.6889393000165,5,4,"[0.0012005000025965273, 0.1504152999841608, 0.23360819998197258, 0.35072539997054264]","[0.13379979995079339, 0.2171476999646984, 0.3172581999679096, 0.36725339997792616]",201.6889393000165,201.88916170003358,0.0,201.88916170003358,0,0.0,0,1,1000,num_1,0.6602984000346623,,26,6,2026-03-05_10h45.06.058,2026A_exp2,2022.2.4,59.947042783930044,
1,0,6.1,0.0,1,0,56,56,29,,,,,202.57293239998398,203.2237557999906,203.2237557999906,203.70823320001364,45,315,203.70823320001364,203.70823320001364,203.70823320001364,203.70823320001364,203.70823320001364,203.70823320001364,203.70823320001364,203.70823320001364,203.70823320001364,204.07461310003418,204.07461310003418,204.07461310003418,204.07461310003418,204.07461310003418,204.07461310003418,204.07461310003418,204.07461310003418,204.07461310003418,17,4,"[0.01735280000139028, 0.11670059995958582, 0.15017300000181422, 0.20025920000625774]","[0.050124800007324666, 0.1335446999873966, 0.18348309997236356, 0.21696639998117462]",204.07461310003418,204.274910200038,0.0,204.274910200038,0,0.0,0,1,1000,num_1,0.7704686000361107,,26,6,2026-03-05_10h45.06.058,2026A_exp2,2022.2.4,59.947042783930044,
1000,1,0.0,0.0,1,0,57,57,8,,,,,205.07550660002744,205.72620590002043,205.72620590002043,206.21073109999998,45,45,206.21073109999998,206.21073109999998,206.21073109999998,206.21073109999998,206.21073109999998,206.21073109999998,206.21073109999998,206.21073109999998,206.21073109999998,206.577090100036,206.577090100036,206.577090100036,206.577090100036,206.577090100036,206.577090100036,206.577090100036,206.577090100036,206.577090100036,3,4,"[0.0011944999569095671, 0.10023729997919872, 0.1668548999587074, 0.283806299965363]","[0.08352419995935634, 0.15028389997314662, 0.2669478000025265, 0.3672628999920562]",206.577090100036,206.77935600001365,1000,206.77935600001365,1000,1000,1000,1000,1,num_2,0.6181347999954596,,26,6,2026-03-05_10h45.06.058,2026A_exp2,2022.2.4,59.947042783930044,
1,0,4.9,0.0,0,0,58,58,19,,,,,207.42783870000858,208.07870960002765,208.07870960002765,208.5797392000095,315,45,208.5797392000095,208.5797392000095,208.5797392000095,208.5797392000095,208.5797392000095,208.5797392000095,208.5797392000095,208.5797392000095,208.5797392000095,208.946160099993,208.946160099993,208.946160099993,208.946160099993,208.946160099993,208.946160099993,208.946160099993,208.946160099993,208.946160099993,23,0,,,208.946160099993,209.14628869999433,4.9,209.14628869999433,1,4.9,1,1,1000,num_4,0.7867947000195272,,26,6,2026-03-05_10h45.06.058,2026A_exp2,2022.2.4,59.947042783930044,
1,0,6.1,3.7,1,0,59,59,45,,,,,209.9637783000362,210.61453050002456,210.61453050002456,211.09894769999664,45,315,211.09894769999664,211.09894769999664,211.09894769999664,211.09894769999664,211.09894769999664,211.09894769999664,211.09894769999664,211.09894769999664,211.09894769999664,211.46520800003782,211.46520800003782,211.46520800003782,211.46520800003782,211.46520800003782,211.46520800003782,211.46520800003782,211.46520800003782,211.46520800003782,23,0,,,211.46520800003782,211.6655321000144,3.7,211.6655321000144,0,3.7,1,0,1000,num_1,0.763962899975013,,26,6,2026-03-05_10h45.06.058,2026A_exp2,2022.2.4,59.947042783930044,
1000,1,4.9,4.9,1,0,60,60,67,,,,,212.44972090004012,213.10028720000992,213.10028720000992,213.5846938000177,45,45,213.5846938000177,213.5846938000177,213.5846938000177,213.5846938000177,213.5846938000177,213.5846938000177,213.5846938000177,213.5846938000177,213.5846938000177,213.9512143000029,213.9512143000029,213.9512143000029,213.9512143000029,213.9512143000029,213.9512143000029,213.9512143000029,213.9512143000029,213.9512143000029,0,1,[0.0012134999851696193],[0.3672975999652408],213.9512143000029,214.15329420001945,1000,214.15329420001945,1000,1000,1000,1000,0,num_3,0.6526226999703795,,26,6,2026-03-05_10h45.06.058,2026A_exp2,2022.2.4,59.947042783930044,
1,0,6.1,4.9,1,0,61,61,38,,,,,214.83526100002928,215.48597670003073,215.48597670003073,215.98717630002648,315,45,215.98717630002648,215.98717630002648,215.98717630002648,215.98717630002648,215.98717630002648,215.98717630002648,215.98717630002648,215.98717630002648,215.98717630002648,216.35358639998594,216.35358639998594,216.35358639998594,216.35358639998594,216.35358639998594,216.35358639998594,216.35358639998594,216.35358639998594,216.35358639998594,23,0,,,216.35358639998594,216.55370170000242,4.9,216.55370170000242,0,4.9,1,0,1000,num_1,0.7879128999775276,,26,6,2026-03-05_10h45.06.058,2026A_exp2,2022.2.4,59.947042783930044,
1,0,4.9,0.0,0,0,62,62,57,,,,,217.3712265000213,218.02188830001978,218.02188830001978,218.5062428000383,45,45,218.5062428000383,218.5062428000383,218.5062428000383,218.5062428000383,218.5062428000383,218.5062428000383,218.5062428000383,218.5062428000383,218.5062428000383,218.87266330001876,218.87266330001876,218.87266330001876,218.87266330001876,218.87266330001876,218.87266330001876,218.87266330001876,218.87266330001876,218.87266330001876,23,0,,,218.87266330001876,219.0729954999988,4.9,219.0729954999988,1,4.9,1,1,1000,num_4,0.5730969000142068,,26,6,2026-03-05_10h45.06.058,2026A_exp2,2022.2.4,59.947042783930044,
1000,1,4.9,6.1,0,0,63,63,35,,,,,219.67345150001347,220.3241313000326,220.3241313000326,220.8252363000065,45,45,220.8252363000065,220.8252363000065,220.8252363000065,220.8252363000065,220.8252363000065,220.8252363000065,220.8252363000065,220.8252363000065,220.8252363000065,221.1750086999964,221.1750086999964,221.1750086999964,221.1750086999964,221.1750086999964,221.1750086999964,221.1750086999964,221.1750086999964,221.1750086999964,19,3,"[0.1169198999996297, 0.15047759999288246, 0.23379480000585318]","[0.13370970002142712, 0.1670185000402853, 0.2504781000316143]",221.1750086999964,221.37684720003745,1000,221.3920110000181,1000,1000,1000,1000,0,num_3,0.6378568999934942,,26,6,2026-03-05_10h45.06.058,2026A_exp2,2022.2.4,59.947042783930044,
1000,1,4.9,6.1,0,0,64,64,59,,,,,222.05923830001848,222.70990790001815,222.70990790001815,223.19418260001112,45,315,223.19418260001112,223.19418260001112,223.19418260001112,223.19418260001112,223.19418260001112,223.19418260001112,223.19418260001112,223.19418260001112,223.19418260001112,223.57750700000906,223.57750700000906,223.57750700000906,223.57750700000906,223.57750700000906,223.57750700000906,223.57750700000906,223.57750700000906,223.57750700000906,24,0,,,223.57750700000906,223.77972190000582,1000,223.77972190000582,1000,1000,1000,1000,1,num_2,0.4970179999945685,,26,6,2026-03-05_10h45.06.058,2026A_exp2,2022.2.4,59.947042783930044,
1000,1,0.0,0.0,0,0,65,65,33,,,,,224.29464360000566,224.9455117000034,224.9455117000034,225.44666620000498,45,45,225.44666620000498,225.44666620000498,225.44666620000498,225.44666620000498,225.44666620000498,225.44666620000498,225.44666620000498,225.44666620000498,225.44666620000498,225.8129180999822,225.8129180999822,225.8129180999822,225.8129180999822,225.8129180999822,225.8129180999822,225.8129180999822,225.8129180999822,225.8129180999822,23,0,,,225.8129180999822,226.01474880002206,1000,226.01474880002206,1000,1000,1000,1000,1,num_2,0.7510887000244111,,26,6,2026-03-05_10h45.06.058,2026A_exp2,2022.2.4,59.947042783930044,
1000,1,4.9,3.7,1,0,66,66,46,,,,,226.79745569999795,227.44807300000684,227.44807300000684,227.94910770002753,315,315,227.94910770002753,227.94910770002753,227.94910770002753,227.94910770002753,227.94910770002753,227.94910770002753,227.94910770002753,227.94910770002753,227.94910770002753,228.31544390000636,228.31544390000636,228.31544390000636,228.31544390000636,228.31544390000636,228.31544390000636,228.31544390000636,228.31544390000636,228.31544390000636,23,0,,,228.31544390000636,228.5173736999859,1000,228.5173736999859,1000,1000,1000,1000,1,num_2,0.5995057999971323,,26,6,2026-03-05_10h45.06.058,2026A_exp2,2022.2.4,59.947042783930044,
1,0,4.9,0.0,0,0,67,67,14,,,,,229.13293299998622,229.7836766000255,229.7836766000255,230.28481049998663,315,45,230.28481049998663,230.28481049998663,230.28481049998663,230.28481049998663,230.28481049998663,230.28481049998663,230.28481049998663,230.28481049998663,230.28481049998663,230.65113750001183,230.65113750001183,230.65113750001183,230.65113750001183,230.65113750001183,230.65113750001183,230.65113750001183,230.65113750001183,230.65113750001183,23,0,,,230.65113750001183,230.85140059998957,4.9,230.85140059998957,1,4.9,1,1,1000,num_4,0.7538469000137411,,26,6,2026-03-05_10h45.06.058,2026A_exp2,2022.2.4,59.947042783930044,
1000,1,0.0,0.0,1,0,68,68,72,,,,,231.6354566999944,232.28625589999137,232.28625589999137,232.7704628999927,315,45,232.7704628999927,232.7704628999927,232.7704628999927,232.7704628999927,232.7704628999927,232.7704628999927,232.7704628999927,232.7704628999927,232.7704628999927,233.13689999998314,233.13689999998314,233.13689999998314,233.13689999998314,233.13689999998314,233.13689999998314,233.13689999998314,233.13689999998314,233.13689999998314,23,0,,,233.13689999998314,233.33729580004,1000,233.33729580004,1000,1000,1000,1000,1,num_2,0.4837169000529684,,26,6,2026-03-05_10h45.06.058,2026A_exp2,2022.2.4,59.947042783930044,
0,0,6.1,0.0,0,0,69,69,65,,,,,233.83763640001416,234.48844680003822,234.48844680003822,234.98925470001996,315,315,234.98925470001996,234.98925470001996,234.98925470001996,234.98925470001996,234.98925470001996,234.98925470001996,234.98925470001996,234.98925470001996,234.98925470001996,235.35589340003207,235.35589340003207,235.35589340003207,235.35589340003207,235.35589340003207,235.35589340003207,235.35589340003207,235.35589340003207,235.35589340003207,23,0,,,235.35589340003207,235.55603269999847,0.0,235.55603269999847,0,0.0,0,1,1000,num_1,0.6407303999876603,,26,6,2026-03-05_10h45.06.058,2026A_exp2,2022.2.4,59.947042783930044,
1000,1,4.9,4.9,0,0,70,70,6,,,,,236.22322280000662,236.87395149999065,236.87395149999065,237.35844350000843,45,315,237.35844350000843,237.35844350000843,237.35844350000843,237.35844350000843,237.35844350000843,237.35844350000843,237.35844350000843,237.35844350000843,237.35844350000843,237.72493090003263,237.72493090003263,237.72493090003263,237.72493090003263,237.72493090003263,237.72493090003263,237.72493090003263,237.72493090003263,237.72493090003263,23,0,,,237.72493090003263,237.92708950000815,1000,237.92708950000815,1000,1000,1000,1000,0,num_3,0.6136154999840073,,26,6,2026-03-05_10h45.06.058,2026A_exp2,2022.2.4,59.947042783930044,
1,0,0.0,0.0,1,0,71,71,42,,,,,238.55896570003824,239.20973110001069,239.20973110001069,239.71073140000226,315,45,239.71073140000226,239.71073140000226,239.71073140000226,239.71073140000226,239.71073140000226,239.71073140000226,239.71073140000226,239.71073140000226,239.71073140000226,240.0773426000378,240.0773426000378,240.0773426000378,240.0773426000378,240.0773426000378,240.0773426000378,240.0773426000378,240.0773426000378,240.0773426000378,23,0,,,240.0773426000378,240.27747610001825,0.0,240.27747610001825,0,0.0,0,1,1000,num_1,1.3199547000112943,,26,6,2026-03-05_10h45.06.058,2026A_exp2,2022.2.4,59.947042783930044,
1,0,0.0,0.0,0,0,72,72,75,,,,,241.62872159999097,242.2793802000233,242.2793802000233,242.78052700002445,45,315,242.78052700002445,242.78052700002445,242.78052700002445,242.78052700002445,242.78052700002445,242.78052700002445,242.78052700002445,242.78052700002445,242.78052700002445,243.1303656999953,243.1303656999953,243.1303656999953,243.1303656999953,243.1303656999953,243.1303656999953,243.1303656999953,243.1303656999953,243.1303656999953,22,0,,,243.1303656999953,243.3302246000385,0.0,243.3302246000385,0,0.0,0,1,1000,num_1,0.44394099997589365,,26,6,2026-03-05_10h45.06.058,2026A_exp2,2022.2.4,59.947042783930044,
1000,1,6.1,0.0,1,0,73,73,71,,,,,243.7975425000186,244.4482902000309,244.4482902000309,244.9326843000017,45,45,244.9326843000017,244.9326843000017,244.9326843000017,244.9326843000017,244.9326843000017,244.9326843000017,244.9326843000017,244.9326843000017,244.9326843000017,245.29922590003116,245.29922590003116,245.29922590003116,245.29922590003116,245.29922590003116,245.29922590003116,245.29922590003116,245.29922590003116,245.29922590003116,23,0,,,245.29922590003116,245.50128490000498,1000,245.50128490000498,1000,1000,1000,1000,0,num_3,0.5841689999797381,,26,6,2026-03-05_10h45.06.058,2026A_exp2,2022.2.4,59.947042783930044,
1,0,0.0,0.0,0,0,74,74,64,,,,,246.11660300003132,246.76724010001635,246.76724010001635,247.26847519999137,315,315,247.26847519999137,247.26847519999137,247.26847519999137,247.26847519999137,247.26847519999137,247.26847519999137,247.26847519999137,247.26847519999137,247.26847519999137,247.61819840001408,247.61819840001408,247.61819840001408,247.61819840001408,247.61819840001408,247.61819840001408,247.61819840001408,247.61819840001408,247.61819840001408,22,0,,,247.61819840001408,247.81836360000307,0.0,247.8350915000192,0,0.0,0,1,1000,num_1,0.866379099956248,,26,6,2026-03-05_10h45.06.058,2026A_exp2,2022.2.4,59.947042783930044,
1,0,6.1,3.7,0,0,75,75,79,,,,,248.71927220001817,249.35319749999326,249.35319749999326,249.85432690003654,45,315,249.85432690003654,249.85432690003654,249.85432690003654,249.85432690003654,249.85432690003654,249.85432690003654,249.85432690003654,249.85432690003654,249.85432690003654,250.2207717000274,250.2207717000274,250.2207717000274,250.2207717000274,250.2207717000274,250.2207717000274,250.2207717000274,250.2207717000274,250.2207717000274,23,0,,,250.2207717000274,250.42080560000613,6.1,250.42080560000613,1,6.1,1,1,1000,num_4,0.8159980999771506,,26,6,2026-03-05_10h45.06.058,2026A_exp2,2022.2.4,59.947042783930044,
1,0,3.7,6.1,0,0,76,76,74,,,,,251.2549664999824,251.90561310003977,251.90561310003977,252.39029350003693,45,315,252.39029350003693,252.39029350003693,252.39029350003693,252.39029350003693,252.39029350003693,252.39029350003693,252.39029350003693,252.39029350003693,252.39029350003693,252.75669650000054,252.75669650000054,252.75669650000054,252.75669650000054,252.75669650000054,252.75669650000054,252.75669650000054,252.75669650000054,252.75669650000054,23,0,,,252.75669650000054,252.95689380000113,3.7,252.95689380000113,0,3.7,1,0,1000,num_1,0.7359118000022136,,26,6,2026-03-05_10h45.06.058,2026A_exp2,2022.2.4,59.947042783930044,
0,0,4.9,3.7,1,0,77,77,13,,,,,253.7241962000262,254.37496550002834,254.37496550002834,254.85954700002912,45,315,254.85954700002912,254.85954700002912,254.85954700002912,254.85954700002912,254.85954700002912,254.85954700002912,254.85954700002912,254.85954700002912,254.85954700002912,255.22580300003756,255.22580300003756,255.22580300003756,255.22580300003756,255.22580300003756,255.22580300003756,255.22580300003756,255.22580300003756,255.22580300003756,1,2,"[0.0010590999736450613, 0.11738700000569224]","[0.1006492999731563, 0.36758499999996275]",255.22580300003756,255.4260369000258,4.9,255.4260369000258,0,4.9,1,0,1000,num_1,2.0118637999985367,,26,6,2026-03-05_10h45.06.058,2026A_exp2,2022.2.4,59.947042783930044,
1,0,0.0,0.0,1,0,78,78,24,,,,,257.46112370002083,258.1120124000008,258.1120124000008,258.5964643000043,315,315,258.5964643000043,258.5964643000043,258.5964643000043,258.5964643000043,258.5964643000043,258.5964643000043,258.5964643000043,258.5964643000043,258.5964643000043,258.96288659999846,258.96288659999846,258.96288659999846,258.96288659999846,258.96288659999846,258.96288659999846,258.96288659999846,258.96288659999846,258.96288659999846,20,1,[0.0012724000262096524],[0.05021340004168451],258.96288659999846,259.1631048999843,0.0,259.1631048999843,0,0.0,0,1,1000,num_1,0.9375632000155747,,26,6,2026-03-05_10h45.06.058,2026A_exp2,2022.2.4,59.947042783930044,
1,0,4.9,0.0,1,0,79,79,52,,,,,260.13091950002126,260.78145400003996,260.78145400003996,261.2656032000086,45,45,261.2656032000086,261.2656032000086,261.2656032000086,261.2656032000086,261.2656032000086,261.2656032000086,261.2656032000086,261.2656032000086,261.2656032000086,261.63216869998723,261.63216869998723,261.63216869998723,261.63216869998723,261.63216869998723,261.63216869998723,261.63216869998723,261.63216869998723,261.63216869998723,16,2,"[0.15018960001179948, 0.28371440002229065]","[0.2002826000098139, 0.3504001999972388]",261.63216869998723,261.83238269999856,0.0,261.83238269999856,0,0.0,0,1,1000,num_1,0.6370801000157371,,26,6,2026-03-05_10h45.06.058,2026A_exp2,2022.2.4,59.947042783930044,
1000,1,0.0,3.7,1,0,80,80,81,,,,,262.4995584000135,263.15009170002304,263.15009170002304,263.6348380999989,315,315,263.6348380999989,263.6348380999989,263.6348380999989,263.6348380999989,263.6348380999989,263.6348380999989,263.6348380999989,263.6348380999989,263.6348380999989,264.00105620000977,264.00105620000977,264.00105620000977,264.00105620000977,264.00105620000977,264.00105620000977,264.00105620000977,264.00105620000977,264.00105620000977,22,1,[0.0007254999945871532],[0.017110100015997887],264.00105620000977,264.2032754000393,1000,264.2032754000393,1000,1000,1000,1000,1,num_2,0.5541846000123769,,26,6,2026-03-05_10h45.06.058,2026A_exp2,2022.2.4,59.947042783930044,
1,0,0.0,4.9,1,0,81,81,2,,,,,264.78517610003473,265.44655090000015,265.44655090000015,265.93709700001637,315,315,265.93709700001637,265.93709700001637,265.93709700001637,265.93709700001637,265.93709700001637,265.93709700001637,265.93709700001637,265.93709700001637,265.93709700001637,266.30345529998885,266.30345529998885,266.30345529998885,266.30345529998885,266.30345529998885,266.30345529998885,266.30345529998885,266.30345529998885,266.30345529998885,22,1,[0.08370820002164692],[0.10038280003936961],266.30345529998885,266.50378010002896,4.9,266.50378010002896,1,4.9,1,1,1000,num_4,0.7171312000136822,,26,6,2026-03-05_10h45.06.058,2026A_exp2,2022.2.4,59.947042783930044,
1,0,0.0,6.1,0,0,82,82,3,,,,,267.23774740000954,267.8883998999954,267.8883998999954,268.37290309998207,315,315,268.37290309998207,268.37290309998207,268.37290309998207,268.37290309998207,268.37290309998207,268.37290309998207,268.37290309998207,268.37290309998207,268.37290309998207,268.73884800000815,268.73884800000815,268.73884800000815,268.73884800000815,268.73884800000815,268.73884800000815,268.73884800000815,268.73884800000815,268.73884800000815,23,0,,,268.73884800000815,268.93941779999295,0.0,268.93941779999295,0,0.0,0,1,1000,num_1,0.6339494999847375,,26,6,2026-03-05_10h45.06.058,2026A_exp2,2022.2.4,59.947042783930044,
1,0,3.7,4.9,0,0,83,83,70,,,,,269.59003510000184,270.24079439998604,270.24079439998604,270.72523849998834,45,315,270.72523849998834,270.72523849998834,270.72523849998834,270.72523849998834,270.72523849998834,270.72523849998834,270.72523849998834,270.72523849998834,270.72523849998834,271.0916835000389,271.0916835000389,271.0916835000389,271.0916835000389,271.0916835000389,271.0916835000389,271.0916835000389,271.0916835000389,271.0916835000389,11,8,"[0.0012092000106349587, 0.0336068999604322, 0.08313909999560565, 0.16694229998392984, 0.2004445999627933, 0.2336986999725923, 0.28366479999385774, 0.3504588999785483]","[0.017351699993014336, 0.0668197000049986, 0.1501329999882728, 0.1834903999697417, 0.2169430999783799, 0.25032709998777136, 0.30049029999645427, 0.3671407999936491]",271.0916835000389,271.2919105000328,3.7,271.2919105000328,0,3.7,1,0,1000,num_1,0.6494413000182249,,26,6,2026-03-05_10h45.06.058,2026A_exp2,2022.2.4,59.947042783930044,
1,0,0.0,4.9,0,0,84,84,48,,,,,271.95902140002,272.60975649999455,272.60975649999455,273.11079529998824,45,315,273.11079529998824,273.11079529998824,273.11079529998824,273.11079529998824,273.11079529998824,273.11079529998824,273.11079529998824,273.11079529998824,273.11079529998824,273.4772027999861,273.4772027999861,273.4772027999861,273.4772027999861,273.4772027999861,273.4772027999861,273.4772027999861,273.4772027999861,273.4772027999861,20,3,"[0.14998409996042028, 0.26718540000729263, 0.3171269000158645]","[0.1671945999842137, 0.28383289999328554, 0.350464099959936]",273.4772027999861,273.6773716000025,0.0,273.6773716000025,0,0.0,0,1,1000,num_1,0.5995030000340194,,26,6,2026-03-05_10h45.06.058,2026A_exp2,2022.2.4,59.947042783930044,
1000,1,0.0,0.0,1,0,85,85,27,,,,,274.29461620002985,274.94551779999165,274.94551779999165,275.4296650000033,45,315,275.4296650000033,275.4296650000033,275.4296650000033,275.4296650000033,275.4296650000033,275.4296650000033,275.4296650000033,275.4296650000033,275.4296650000033,275.7964215000393,275.7964215000393,275.7964215000393,275.7964215000393,275.7964215000393,275.7964215000393,275.7964215000393,275.7964215000393,275.7964215000393,23,0,,,275.7964215000393,276.0002367999987,1000,276.0002367999987,1000,1000,1000,1000,1,num_2,0.6695180999813601,,26,6,2026-03-05_10h45.06.058,2026A_exp2,2022.2.4,59.947042783930044,
1000,1,0.0,4.9,1,0,86,86,51,,,,,276.69713360001333,277.34785090002697,277.34785090002697,277.84887550002895,315,45,277.84887550002895,277.84887550002895,277.84887550002895,277.84887550002895,277.84887550002895,277.84887550002895,277.84887550002895,277.84887550002895,277.84887550002895,278.2153736000182,278.2153736000182,278.2153736000182,278.2153736000182,278.2153736000182,278.2153736000182,278.2153736000182,278.2153736000182,278.2153736000182,23,0,,,278.2153736000182,278.4172574999975,1000,278.4172574999975,1000,1000,1000,1000,1,num_2,0.5399733000085689,,26,6,2026-03-05_10h45.06.058,2026A_exp2,2022.2.4,59.947042783930044,
1000,1,0.0,3.7,1,0,87,87,86,,,,,278.98272239998914,279.63346119999187,279.63346119999187,280.11793820001185,315,315,280.11793820001185,280.11793820001185,280.11793820001185,280.11793820001185,280.11793820001185,280.11793820001185,280.11793820001185,280.11793820001185,280.11793820001185,280.4844223000109,280.4844223000109,280.4844223000109,280.4844223000109,280.4844223000109,280.4844223000109,280.4844223000109,280.4844223000109,280.4844223000109,21,1,[0.21715699997730553],[0.25032159994589165],280.4844223000109,280.68619800003944,1000,280.68619800003944,1000,1000,1000,1000,1,num_2,0.3597379000275396,,26,6,2026-03-05_10h45.06.058,2026A_exp2,2022.2.4,59.947042783930044,
0,0,0.0,0.0,0,0,88,88,20,,,,,281.0682344000088,281.7189754000283,281.7189754000283,282.2199459000258,315,315,282.2199459000258,282.2199459000258,282.2199459000258,282.2199459000258,282.2199459000258,282.2199459000258,282.2199459000258,282.2199459000258,282.2199459000258,282.58647420001216,282.58647420001216,282.58647420001216,282.58647420001216,282.58647420001216,282.58647420001216,282.58647420001216,282.58647420001216,282.58647420001216,23,0,,,282.58647420001216,282.78670410002815,0.0,282.78670410002815,1,0.0,0,0,1000,num_4,1.1144733999972232,,26,6,2026-03-05_10h45.06.058,2026A_exp2,2022.2.4,59.947042783930044,
1000,1,0.0,3.7,0,0,89,89,18,,,,,283.9209594000131,284.5550257000141,284.5550257000141,285.05626480001956,315,315,285.05626480001956,285.05626480001956,285.05626480001956,285.05626480001956,285.05626480001956,285.05626480001956,285.05626480001956,285.05626480001956,285.05626480001956,285.4226778000011,285.4226778000011,285.4226778000011,285.4226778000011,285.4226778000011,285.4226778000011,285.4226778000011,285.4226778000011,285.4226778000011,2,3,"[0.001221999991685152, 0.06710919999750331, 0.23401210003066808]","[0.05036530003417283, 0.217340899980627, 0.3673871000064537]",285.4226778000011,285.624450000003,1000,285.624450000003,1000,1000,1000,1000,1,num_2,0.5894816999789327,,26,6,2026-03-05_10h45.06.058,2026A_exp2,2022.2.4,59.947042783930044,
,,,,,,,,,,,,,,,,,,,,,,,,,,,,,,,,,,,,,,,,,,,,,,,,,,,,286.2488785000169,,,,,,,
