validity,detectorcomp,contrastCW,contrastCCW,precueCWorCCW,block_80trials.thisRepN,block_80trials.thisTrialN,block_80trials.thisN,block_80trials.thisIndex,etRecord.started,etRecord.stopped,text.started,text.stopped,text_4.started,text_4.stopped,text_6.started,text_6.stopped,oriCW,oriCCW,roi_2.started,grating_UR.started,grating_UL.started,grating_LR.started,grating_LL.started,noise_UR.started,noise_UL.started,noise_LR.started,noise_LL.started,roi_2.stopped,grating_UR.stopped,grating_UL.stopped,grating_LR.stopped,grating_LL.stopped,noise_UR.stopped,noise_UL.stopped,noise_LR.stopped,noise_LL.stopped,outframe,roi_2.numLooks,roi_2.timesOn,roi_2.timesOff,text_2.started,text_2.stopped,probedcontrast,key_resp.started,respdetect,relevantContrast,correctDetect,TorFdetect,respCWorCCW,key_resp.keys,key_resp.rt,feedback_display_.started,participantNo,blockNo,date,expName,psychopyVersion,frameRate,
1,0,6.1,0.0,1,0,0,0,70,7.14000198058784e-05,7.14000198058784e-05,50.69147359998897,52.69718729995657,52.69718729995657,53.32824780000374,53.32824780000374,53.84814009995898,315,315,53.84814009995898,53.84814009995898,53.84814009995898,53.84814009995898,53.84814009995898,53.84814009995898,53.84814009995898,53.84814009995898,53.84814009995898,54.195607299974654,54.195607299974654,54.195607299974654,54.195607299974654,54.195607299974654,54.195607299974654,54.195607299974654,54.195607299974654,54.195607299974654,23,0,,,54.195607299974654,54.39602439996088,0.0,54.39602439996088,0,0.0,0,1,1000,num_1,0.6528863999992609,,22,12,2026-03-04_11h40.18.207,2026A_exp2,2022.2.4,59.94567721842281,
1000,1,4.9,0.0,1,0,1,1,77,,,,,55.079813199990895,55.71376039995812,55.71376039995812,56.21503379999194,45,315,56.21503379999194,56.21503379999194,56.21503379999194,56.21503379999194,56.21503379999194,56.21503379999194,56.21503379999194,56.21503379999194,56.21503379999194,56.581105199991725,56.581105199991725,56.581105199991725,56.581105199991725,56.581105199991725,56.581105199991725,56.581105199991725,56.581105199991725,56.581105199991725,23,0,,,56.581105199991725,56.78135989996372,1000,56.78135989996372,1000,1000,1000,1000,0,num_3,0.44324890000279993,,22,12,2026-03-04_11h40.18.207,2026A_exp2,2022.2.4,59.94567721842281,
1000,1,0.0,0.0,1,0,2,2,78,,,,,57.248674499976914,57.89906639995752,57.89906639995752,58.383893799968064,315,315,58.383893799968064,58.383893799968064,58.383893799968064,58.383893799968064,58.383893799968064,58.383893799968064,58.383893799968064,58.383893799968064,58.383893799968064,58.74996240000473,58.74996240000473,58.74996240000473,58.74996240000473,58.74996240000473,58.74996240000473,58.74996240000473,58.74996240000473,58.74996240000473,23,0,,,58.74996240000473,58.95049580000341,1000,58.95049580000341,1000,1000,1000,1000,0,num_3,0.5304142000386491,,22,12,2026-03-04_11h40.18.207,2026A_exp2,2022.2.4,59.94567721842281,
1000,1,4.9,0.0,0,0,3,3,41,,,,,59.50111979997018,60.13478769996436,60.13478769996436,60.63585699995747,45,315,60.63585699995747,60.63585699995747,60.63585699995747,60.63585699995747,60.63585699995747,60.63585699995747,60.63585699995747,60.63585699995747,60.63585699995747,61.00226019998081,61.00226019998081,61.00226019998081,61.00226019998081,61.00226019998081,61.00226019998081,61.00226019998081,61.00226019998081,61.00226019998081,23,0,,,61.00226019998081,61.202612499997485,1000,61.202612499997485,1000,1000,1000,1000,0,num_3,0.4150345000089146,,22,12,2026-03-04_11h40.18.207,2026A_exp2,2022.2.4,59.94567721842281,
0,0,0.0,0.0,0,0,4,4,59,,,,,61.63645729998825,62.2868671999895,62.2868671999895,62.77138479996938,315,45,62.77138479996938,62.77138479996938,62.77138479996938,62.77138479996938,62.77138479996938,62.77138479996938,62.77138479996938,62.77138479996938,62.77138479996938,63.13759030000074,63.13759030000074,63.13759030000074,63.13759030000074,63.13759030000074,63.13759030000074,63.13759030000074,63.13759030000074,63.13759030000074,23,0,,,63.13759030000074,63.33813220000593,0.0,63.33813220000593,1,0.0,0,0,1000,num_4,1.3264902000082657,,22,12,2026-03-04_11h40.18.207,2026A_exp2,2022.2.4,59.94567721842281,
1,0,0.0,6.1,1,0,5,5,36,,,,,64.68941359996097,65.32333849999122,65.32333849999122,65.82430390000809,315,45,65.82430390000809,65.82430390000809,65.82430390000809,65.82430390000809,65.82430390000809,65.82430390000809,65.82430390000809,65.82430390000809,65.82430390000809,66.19077849999303,66.19077849999303,66.19077849999303,66.19077849999303,66.19077849999303,66.19077849999303,66.19077849999303,66.19077849999303,66.19077849999303,23,0,,,66.19077849999303,66.39124590001302,6.1,66.39124590001302,1,6.1,1,1,1000,num_4,0.658352600003127,,22,12,2026-03-04_11h40.18.207,2026A_exp2,2022.2.4,59.94567721842281,
1,0,0.0,0.0,0,0,6,6,55,,,,,67.07488929998362,67.7088417999912,67.7088417999912,68.21027839998715,315,45,68.21027839998715,68.21027839998715,68.21027839998715,68.21027839998715,68.21027839998715,68.21027839998715,68.21027839998715,68.21027839998715,68.21027839998715,68.57649279996986,68.57649279996986,68.57649279996986,68.57649279996986,68.57649279996986,68.57649279996986,68.57649279996986,68.57649279996986,68.57649279996986,23,0,,,68.57649279996986,68.77695029997267,0.0,68.77695029997267,0,0.0,0,1,1000,num_1,0.5686222999938764,,22,12,2026-03-04_11h40.18.207,2026A_exp2,2022.2.4,59.94567721842281,
1,0,4.9,0.0,1,0,7,7,65,,,,,69.37733220000518,70.01131490000989,70.01131490000989,70.51270879997173,315,315,70.51270879997173,70.51270879997173,70.51270879997173,70.51270879997173,70.51270879997173,70.51270879997173,70.51270879997173,70.51270879997173,70.51270879997173,70.87897289998364,70.87897289998364,70.87897289998364,70.87897289998364,70.87897289998364,70.87897289998364,70.87897289998364,70.87897289998364,70.87897289998364,23,0,,,70.87897289998364,71.07895729999291,0.0,71.07895729999291,0,0.0,0,1,1000,num_1,0.6106225000112318,,22,12,2026-03-04_11h40.18.207,2026A_exp2,2022.2.4,59.94567721842281,
1,0,6.1,6.1,1,0,8,8,23,,,,,71.71315359999426,72.34691139997449,72.34691139997449,72.84825099998852,315,45,72.84825099998852,72.84825099998852,72.84825099998852,72.84825099998852,72.84825099998852,72.84825099998852,72.84825099998852,72.84825099998852,72.84825099998852,73.2146020999644,73.2146020999644,73.2146020999644,73.2146020999644,73.2146020999644,73.2146020999644,73.2146020999644,73.2146020999644,73.2146020999644,23,0,,,73.2146020999644,73.41470530000515,6.1,73.41470530000515,0,6.1,1,0,1000,num_1,0.5629945999826305,,22,12,2026-03-04_11h40.18.207,2026A_exp2,2022.2.4,59.94567721842281,
1000,1,4.9,3.7,0,0,9,9,40,,,,,73.99851539998781,74.63272319996031,74.63272319996031,75.13441429997329,315,45,75.13441429997329,75.13441429997329,75.13441429997329,75.13441429997329,75.13441429997329,75.13441429997329,75.13441429997329,75.13441429997329,75.13441429997329,75.49993900000118,75.49993900000118,75.49993900000118,75.49993900000118,75.49993900000118,75.49993900000118,75.49993900000118,75.49993900000118,75.49993900000118,23,0,,,75.49993900000118,75.70026359998155,1000,75.70026359998155,1000,1000,1000,1000,0,num_3,0.4053064999752678,,22,12,2026-03-04_11h40.18.207,2026A_exp2,2022.2.4,59.94567721842281,
0,0,4.9,3.7,0,0,10,10,28,,,,,76.13421709998511,76.78483339998638,76.78483339998638,77.26917919999687,45,315,77.26917919999687,77.26917919999687,77.26917919999687,77.26917919999687,77.26917919999687,77.26917919999687,77.26917919999687,77.26917919999687,77.26917919999687,77.63582319999114,77.63582319999114,77.63582319999114,77.63582319999114,77.63582319999114,77.63582319999114,77.63582319999114,77.63582319999114,77.63582319999114,23,0,,,77.63582319999114,77.83598009997513,3.7,77.83598009997513,0,3.7,1,0,1000,num_1,0.5567108999821357,,22,12,2026-03-04_11h40.18.207,2026A_exp2,2022.2.4,59.94567721842281,
1000,1,4.9,0.0,0,0,11,11,54,,,,,78.41988189995755,79.05369249999058,79.05369249999058,79.55481459997827,315,45,79.55481459997827,79.55481459997827,79.55481459997827,79.55481459997827,79.55481459997827,79.55481459997827,79.55481459997827,79.55481459997827,79.55481459997827,79.92154489998939,79.92154489998939,79.92154489998939,79.92154489998939,79.92154489998939,79.92154489998939,79.92154489998939,79.92154489998939,79.92154489998939,23,0,,,79.92154489998939,80.1217759999563,1000,80.1217759999563,1000,1000,1000,1000,0,num_3,0.5676052000490017,,22,12,2026-03-04_11h40.18.207,2026A_exp2,2022.2.4,59.94567721842281,
1000,1,3.7,0.0,1,0,12,12,38,,,,,80.70545599999605,81.35635319998255,81.35635319998255,81.85725160001311,45,45,81.85725160001311,81.85725160001311,81.85725160001311,81.85725160001311,81.85725160001311,81.85725160001311,81.85725160001311,81.85725160001311,81.85725160001311,82.22395389998564,82.22395389998564,82.22395389998564,82.22395389998564,82.22395389998564,82.22395389998564,82.22395389998564,82.22395389998564,82.22395389998564,23,0,,,82.22395389998564,82.42393170000287,1000,82.42393170000287,1000,1000,1000,1000,0,num_3,0.3773624000023119,,22,12,2026-03-04_11h40.18.207,2026A_exp2,2022.2.4,59.94567721842281,
1,0,0.0,3.7,1,0,13,13,32,,,,,82.82424669998,83.47476770001231,83.47476770001231,83.95931259996723,315,315,83.95931259996723,83.95931259996723,83.95931259996723,83.95931259996723,83.95931259996723,83.95931259996723,83.95931259996723,83.95931259996723,83.95931259996723,84.32566739997128,84.32566739997128,84.32566739997128,84.32566739997128,84.32566739997128,84.32566739997128,84.32566739997128,84.32566739997128,84.32566739997128,23,0,,,84.32566739997128,84.5260852999636,3.7,84.5260852999636,0,3.7,1,0,1000,num_1,1.1393344999523833,,22,12,2026-03-04_11h40.18.207,2026A_exp2,2022.2.4,59.94567721842281,
1,0,0.0,6.1,1,0,14,14,33,,,,,85.69419010001002,86.32813049998367,86.32813049998367,86.82897400000365,45,315,86.82897400000365,86.82897400000365,86.82897400000365,86.82897400000365,86.82897400000365,86.82897400000365,86.82897400000365,86.82897400000365,86.82897400000365,87.19525319995591,87.19525319995591,87.19525319995591,87.19525319995591,87.19525319995591,87.19525319995591,87.19525319995591,87.19525319995591,87.19525319995591,23,0,,,87.19525319995591,87.39621959999204,6.1,87.39621959999204,1,6.1,1,1,1000,num_4,0.6134300000267103,,22,12,2026-03-04_11h40.18.207,2026A_exp2,2022.2.4,59.94567721842281,
1,0,6.1,4.9,1,0,15,15,64,,,,,88.02939779998269,88.66385589999845,88.66385589999845,89.16521790000843,45,45,89.16521790000843,89.16521790000843,89.16521790000843,89.16521790000843,89.16521790000843,89.16521790000843,89.16521790000843,89.16521790000843,89.16521790000843,89.53142299997853,89.53142299997853,89.53142299997853,89.53142299997853,89.53142299997853,89.53142299997853,89.53142299997853,89.53142299997853,89.53142299997853,23,0,,,89.53142299997853,89.73115030000918,4.9,89.73115030000918,0,4.9,1,0,1000,num_1,0.7981820999993943,,22,12,2026-03-04_11h40.18.207,2026A_exp2,2022.2.4,59.94567721842281,
1,0,0.0,0.0,1,0,16,16,69,,,,,90.54856829997152,91.18259019998368,91.18259019998368,91.68392099998891,45,315,91.68392099998891,91.68392099998891,91.68392099998891,91.68392099998891,91.68392099998891,91.68392099998891,91.68392099998891,91.68392099998891,91.68392099998891,92.05006919999141,92.05006919999141,92.05006919999141,92.05006919999141,92.05006919999141,92.05006919999141,92.05006919999141,92.05006919999141,92.05006919999141,23,0,,,92.05006919999141,92.2502361999941,0.0,92.2502361999941,0,0.0,0,1,1000,num_1,0.48689480003667995,,22,12,2026-03-04_11h40.18.207,2026A_exp2,2022.2.4,59.94567721842281,
1,0,0.0,0.0,0,0,17,17,88,,,,,92.76744620001409,93.40124819998164,93.40124819998164,93.90250859997468,45,45,93.90250859997468,93.90250859997468,93.90250859997468,93.90250859997468,93.90250859997468,93.90250859997468,93.90250859997468,93.90250859997468,93.90250859997468,94.26888099999633,94.26888099999633,94.26888099999633,94.26888099999633,94.26888099999633,94.26888099999633,94.26888099999633,94.26888099999633,94.26888099999633,23,0,,,94.26888099999633,94.46921529999236,0.0,94.46921529999236,0,0.0,0,1,1000,num_1,0.37950300000375137,,22,12,2026-03-04_11h40.18.207,2026A_exp2,2022.2.4,59.94567721842281,
1,0,6.1,3.7,1,0,18,18,51,,,,,94.86998919997131,95.5201126000029,95.5201126000029,96.00479229999473,315,315,96.00479229999473,96.00479229999473,96.00479229999473,96.00479229999473,96.00479229999473,96.00479229999473,96.00479229999473,96.00479229999473,96.00479229999473,96.37123970000539,96.37123970000539,96.37123970000539,96.37123970000539,96.37123970000539,96.37123970000539,96.37123970000539,96.37123970000539,96.37123970000539,23,0,,,96.37123970000539,96.57148629997391,3.7,96.57148629997391,0,3.7,1,0,1000,num_1,0.7415379000012763,,22,12,2026-03-04_11h40.18.207,2026A_exp2,2022.2.4,59.94567721842281,
1,0,0.0,3.7,1,0,19,19,14,,,,,97.33875080000143,97.98956539999926,97.98956539999926,98.47402039996814,315,315,98.47402039996814,98.47402039996814,98.47402039996814,98.47402039996814,98.47402039996814,98.47402039996814,98.47402039996814,98.47402039996814,98.47402039996814,98.8405797999585,98.8405797999585,98.8405797999585,98.8405797999585,98.8405797999585,98.8405797999585,98.8405797999585,98.8405797999585,98.8405797999585,11,3,"[0.0012322000111453235, 0.16703100001905113, 0.26722209999570623]","[0.15028369997162372, 0.20047879999037832, 0.2837938999873586]",98.8405797999585,99.04064469999867,3.7,99.04064469999867,0,3.7,1,0,1000,num_1,0.6812716999556869,,22,12,2026-03-04_11h40.18.207,2026A_exp2,2022.2.4,59.94567721842281,
1000,1,0.0,4.9,0,0,20,20,26,,,,,99.74119309999514,100.392066099972,100.392066099972,100.87638259999221,315,315,100.87638259999221,100.87638259999221,100.87638259999221,100.87638259999221,100.87638259999221,100.87638259999221,100.87638259999221,100.87638259999221,100.87638259999221,101.24286209995626,101.24286209995626,101.24286209995626,101.24286209995626,101.24286209995626,101.24286209995626,101.24286209995626,101.24286209995626,101.24286209995626,23,0,,,101.24286209995626,101.44484499999089,1000,101.44484499999089,1000,1000,1000,1000,0,num_3,2.091985000006389,,22,12,2026-03-04_11h40.18.207,2026A_exp2,2022.2.4,59.94567721842281,
1,0,0.0,0.0,1,0,21,21,42,,,,,103.56182750000153,104.21258669998497,104.21258669998497,104.7136266999878,315,315,104.7136266999878,104.7136266999878,104.7136266999878,104.7136266999878,104.7136266999878,104.7136266999878,104.7136266999878,104.7136266999878,104.7136266999878,105.08004470000742,105.08004470000742,105.08004470000742,105.08004470000742,105.08004470000742,105.08004470000742,105.08004470000742,105.08004470000742,105.08004470000742,23,0,,,105.08004470000742,105.28026480000699,0.0,105.28026480000699,1,0.0,0,0,1000,num_4,1.0807910999865271,,22,12,2026-03-04_11h40.18.207,2026A_exp2,2022.2.4,59.94567721842281,
1,0,3.7,3.7,1,0,22,22,30,,,,,106.38145809998969,107.0319826999912,107.0319826999912,107.51637029997073,45,315,107.51637029997073,107.51637029997073,107.51637029997073,107.51637029997073,107.51637029997073,107.51637029997073,107.51637029997073,107.51637029997073,107.51637029997073,107.88320099998964,107.88320099998964,107.88320099998964,107.88320099998964,107.88320099998964,107.88320099998964,107.88320099998964,107.88320099998964,107.88320099998964,23,0,,,107.88320099998964,108.08296579995658,3.7,108.08296579995658,0,3.7,1,0,1000,num_1,0.7984618000336923,,22,12,2026-03-04_11h40.18.207,2026A_exp2,2022.2.4,59.94567721842281,
0,0,0.0,0.0,1,0,23,23,2,,,,,108.900418300007,109.55114719999256,109.55114719999256,110.03559549996862,315,315,110.03559549996862,110.03559549996862,110.03559549996862,110.03559549996862,110.03559549996862,110.03559549996862,110.03559549996862,110.03559549996862,110.03559549996862,110.40202400000999,110.40202400000999,110.40202400000999,110.40202400000999,110.40202400000999,110.40202400000999,110.40202400000999,110.40202400000999,110.40202400000999,23,0,,,110.40202400000999,110.61416229995666,0.0,110.61416229995666,0,0.0,0,1,1000,num_1,1.4993810000014491,,22,12,2026-03-04_11h40.18.207,2026A_exp2,2022.2.4,59.94567721842281,
0,0,6.1,0.0,0,0,24,24,74,,,,,112.1369798000087,112.78758209996158,112.78758209996158,113.27223770000273,45,45,113.27223770000273,113.27223770000273,113.27223770000273,113.27223770000273,113.27223770000273,113.27223770000273,113.27223770000273,113.27223770000273,113.27223770000273,113.63850900001125,113.63850900001125,113.63850900001125,113.63850900001125,113.63850900001125,113.63850900001125,113.63850900001125,113.63850900001125,113.63850900001125,23,0,,,113.63850900001125,113.8387051000027,0.0,113.8387051000027,0,0.0,0,1,1000,num_1,0.7143891000305302,,22,12,2026-03-04_11h40.18.207,2026A_exp2,2022.2.4,59.94567721842281,
1,0,0.0,6.1,0,0,25,25,0,,,,,114.5728431000025,115.22355819999939,115.22355819999939,115.70780219999142,315,315,115.70780219999142,115.70780219999142,115.70780219999142,115.70780219999142,115.70780219999142,115.70780219999142,115.70780219999142,115.70780219999142,115.70780219999142,116.07421449996764,116.07421449996764,116.07421449996764,116.07421449996764,116.07421449996764,116.07421449996764,116.07421449996764,116.07421449996764,116.07421449996764,23,0,,,116.07421449996764,116.27448159997584,0.0,116.27448159997584,0,0.0,0,1,1000,num_1,0.5823355999891646,,22,12,2026-03-04_11h40.18.207,2026A_exp2,2022.2.4,59.94567721842281,
1,0,0.0,0.0,0,0,26,26,24,,,,,116.87517139996635,117.52585859998362,117.52585859998362,118.00984199997038,45,315,118.00984199997038,118.00984199997038,118.00984199997038,118.00984199997038,118.00984199997038,118.00984199997038,118.00984199997038,118.00984199997038,118.00984199997038,118.3767138000112,118.3767138000112,118.3767138000112,118.3767138000112,118.3767138000112,118.3767138000112,118.3767138000112,118.3767138000112,118.3767138000112,23,0,,,118.3767138000112,118.57682039996143,0.0,118.57682039996143,1,0.0,0,0,1000,num_4,1.2972717999946326,,22,12,2026-03-04_11h40.18.207,2026A_exp2,2022.2.4,59.94567721842281,
1000,1,3.7,6.1,1,0,27,27,48,,,,,119.89475440001115,120.5452854000032,120.5452854000032,121.02995749999536,315,45,121.02995749999536,121.02995749999536,121.02995749999536,121.02995749999536,121.02995749999536,121.02995749999536,121.02995749999536,121.02995749999536,121.02995749999536,121.39630540000508,121.39630540000508,121.39630540000508,121.39630540000508,121.39630540000508,121.39630540000508,121.39630540000508,121.39630540000508,121.39630540000508,23,0,,,121.39630540000508,121.59685500001069,1000,121.59685500001069,1000,1000,1000,1000,1,num_2,0.44398240000009537,,22,12,2026-03-04_11h40.18.207,2026A_exp2,2022.2.4,59.94567721842281,
1000,1,0.0,3.7,1,0,28,28,84,,,,,122.06375089997891,122.71430809999583,122.71430809999583,123.21541609999258,315,315,123.21541609999258,123.21541609999258,123.21541609999258,123.21541609999258,123.21541609999258,123.21541609999258,123.21541609999258,123.21541609999258,123.21541609999258,123.5814922999707,123.5814922999707,123.5814922999707,123.5814922999707,123.5814922999707,123.5814922999707,123.5814922999707,123.5814922999707,123.5814922999707,23,0,,,123.5814922999707,123.80269759998191,1000,123.80269759998191,1000,1000,1000,1000,1,num_2,0.6709179999888875,,22,12,2026-03-04_11h40.18.207,2026A_exp2,2022.2.4,59.94567721842281,
1000,1,0.0,0.0,1,0,29,29,9,,,,,124.49936759995762,125.15006640000502,125.15006640000502,125.65110859996639,315,315,125.65110859996639,125.65110859996639,125.65110859996639,125.65110859996639,125.65110859996639,125.65110859996639,125.65110859996639,125.65110859996639,125.65110859996639,126.01767149998341,126.01767149998341,126.01767149998341,126.01767149998341,126.01767149998341,126.01767149998341,126.01767149998341,126.01767149998341,126.01767149998341,23,0,,,126.01767149998341,126.21798369998578,1000,126.21798369998578,1000,1000,1000,1000,1,num_2,0.3428814000217244,,22,12,2026-03-04_11h40.18.207,2026A_exp2,2022.2.4,59.94567721842281,
1000,1,6.1,6.1,1,0,30,30,8,,,,,126.58483539998997,127.23550869995961,127.23550869995961,127.73656779999146,315,45,127.73656779999146,127.73656779999146,127.73656779999146,127.73656779999146,127.73656779999146,127.73656779999146,127.73656779999146,127.73656779999146,127.73656779999146,128.10302109998884,128.10302109998884,128.10302109998884,128.10302109998884,128.10302109998884,128.10302109998884,128.10302109998884,128.10302109998884,128.10302109998884,23,0,,,128.10302109998884,128.3052716999664,1000,128.3052716999664,1000,1000,1000,1000,1,num_2,0.3768950999947265,,22,12,2026-03-04_11h40.18.207,2026A_exp2,2022.2.4,59.94567721842281,
1000,1,6.1,0.0,0,0,31,31,81,,,,,128.70357109996257,129.35419469996123,129.35419469996123,129.8554125999799,45,45,129.8554125999799,129.8554125999799,129.8554125999799,129.8554125999799,129.8554125999799,129.8554125999799,129.8554125999799,129.8554125999799,129.8554125999799,130.20512299996335,130.20512299996335,130.20512299996335,130.20512299996335,130.20512299996335,130.20512299996335,130.20512299996335,130.20512299996335,130.20512299996335,22,0,,,130.20512299996335,130.4054595999769,1000,130.4054595999769,1000,1000,1000,1000,0,num_3,0.331265400047414,,22,12,2026-03-04_11h40.18.207,2026A_exp2,2022.2.4,59.94567721842281,
1,0,6.1,0.0,0,0,32,32,82,,,,,130.75564920000033,131.40645680000307,131.40645680000307,131.90743889997248,45,315,131.90743889997248,131.90743889997248,131.90743889997248,131.90743889997248,131.90743889997248,131.90743889997248,131.90743889997248,131.90743889997248,131.90743889997248,132.2737256999826,132.2737256999826,132.2737256999826,132.2737256999826,132.2737256999826,132.2737256999826,132.2737256999826,132.2737256999826,132.2737256999826,23,0,,,132.2737256999826,132.4739526999765,6.1,132.4739526999765,1,6.1,1,1,1000,num_4,0.6158440000144765,,22,12,2026-03-04_11h40.18.207,2026A_exp2,2022.2.4,59.94567721842281,
1,0,3.7,4.9,1,0,33,33,20,,,,,133.10794129996793,133.75852779997513,133.75852779997513,134.24299569998402,315,315,134.24299569998402,134.24299569998402,134.24299569998402,134.24299569998402,134.24299569998402,134.24299569998402,134.24299569998402,134.24299569998402,134.24299569998402,134.60956760001136,134.60956760001136,134.60956760001136,134.60956760001136,134.60956760001136,134.60956760001136,134.60956760001136,134.60956760001136,134.60956760001136,23,0,,,134.60956760001136,134.80966609995812,4.9,134.80966609995812,1,4.9,1,1,1000,num_4,0.5275890000048093,,22,12,2026-03-04_11h40.18.207,2026A_exp2,2022.2.4,59.94567721842281,
1000,1,0.0,4.9,0,0,34,34,6,,,,,135.3604623999563,136.01103399996646,136.01103399996646,136.4952890999848,315,45,136.4952890999848,136.4952890999848,136.4952890999848,136.4952890999848,136.4952890999848,136.4952890999848,136.4952890999848,136.4952890999848,136.4952890999848,136.86166559997946,136.86166559997946,136.86166559997946,136.86166559997946,136.86166559997946,136.86166559997946,136.86166559997946,136.86166559997946,136.86166559997946,23,0,,,136.86166559997946,137.06380329997046,1000,137.06380329997046,1000,1000,1000,1000,1,num_2,0.6091402000165544,,22,12,2026-03-04_11h40.18.207,2026A_exp2,2022.2.4,59.94567721842281,
1000,1,3.7,0.0,0,0,35,35,76,,,,,137.69597100000829,138.34660539997276,138.34660539997276,138.84779949998483,315,315,138.84779949998483,138.84779949998483,138.84779949998483,138.84779949998483,138.84779949998483,138.84779949998483,138.84779949998483,138.84779949998483,138.84779949998483,139.21427619998576,139.21427619998576,139.21427619998576,139.21427619998576,139.21427619998576,139.21427619998576,139.21427619998576,139.21427619998576,139.21427619998576,23,0,,,139.21427619998576,139.43085070000961,1000,139.43085070000961,1000,1000,1000,1000,0,num_3,0.3061303000431508,,22,12,2026-03-04_11h40.18.207,2026A_exp2,2022.2.4,59.94567721842281,
1000,1,6.1,0.0,1,0,36,36,57,,,,,139.7647766000009,140.41507950000232,140.41507950000232,140.9163808999583,315,315,140.9163808999583,140.9163808999583,140.9163808999583,140.9163808999583,140.9163808999583,140.9163808999583,140.9163808999583,140.9163808999583,140.9163808999583,141.2826342000044,141.2826342000044,141.2826342000044,141.2826342000044,141.2826342000044,141.2826342000044,141.2826342000044,141.2826342000044,141.2826342000044,23,0,,,141.2826342000044,141.48487529996783,1000,141.48487529996783,1000,1000,1000,1000,0,num_3,0.42113850003806874,,22,12,2026-03-04_11h40.18.207,2026A_exp2,2022.2.4,59.94567721842281,
1,0,6.1,0.0,0,0,37,37,47,,,,,141.9334995999816,142.58421030000318,142.58421030000318,143.0684959999635,315,45,143.0684959999635,143.0684959999635,143.0684959999635,143.0684959999635,143.0684959999635,143.0684959999635,143.0684959999635,143.0684959999635,143.0684959999635,143.43511550000403,143.43511550000403,143.43511550000403,143.43511550000403,143.43511550000403,143.43511550000403,143.43511550000403,143.43511550000403,143.43511550000403,21,1,[0.0012272000312805176],[0.03348250000271946],143.43511550000403,143.6350448000012,6.1,143.6350448000012,1,6.1,1,1,1000,num_4,0.7337946000043303,,22,12,2026-03-04_11h40.18.207,2026A_exp2,2022.2.4,59.94567721842281,
1000,1,0.0,4.9,1,0,38,38,66,,,,,144.38596459996188,145.03657409996958,145.03657409996958,145.52113989996724,315,315,145.52113989996724,145.52113989996724,145.52113989996724,145.52113989996724,145.52113989996724,145.52113989996724,145.52113989996724,145.52113989996724,145.52113989996724,145.88752869999735,145.88752869999735,145.88752869999735,145.88752869999735,145.88752869999735,145.88752869999735,145.88752869999735,145.88752869999735,145.88752869999735,1,2,"[0.0007407999946735799, 0.0671427000197582]","[0.05057000002125278, 0.3677527999971062]",145.88752869999735,146.0896325999638,1000,146.0896325999638,1000,1000,1000,1000,1,num_2,0.4873828000272624,,22,12,2026-03-04_11h40.18.207,2026A_exp2,2022.2.4,59.94567721842281,
1,0,6.1,0.0,1,0,39,39,80,,,,,146.60483209998347,147.25557739997748,147.25557739997748,147.75654949998716,315,45,147.75654949998716,147.75654949998716,147.75654949998716,147.75654949998716,147.75654949998716,147.75654949998716,147.75654949998716,147.75654949998716,147.75654949998716,148.1231034999946,148.1231034999946,148.1231034999946,148.1231034999946,148.1231034999946,148.1231034999946,148.1231034999946,148.1231034999946,148.1231034999946,0,1,[0.00121189997298643],[0.36700530000962317],148.1231034999946,148.32333280000603,0.0,148.32333280000603,0,0.0,0,1,1000,num_1,0.6861677999841049,,22,12,2026-03-04_11h40.18.207,2026A_exp2,2022.2.4,59.94567721842281,
1000,1,0.0,6.1,1,0,40,40,71,,,,,149.0407475999673,149.6912271999754,149.6912271999754,150.17578529997263,45,315,150.17578529997263,150.17578529997263,150.17578529997263,150.17578529997263,150.17578529997263,150.17578529997263,150.17578529997263,150.17578529997263,150.17578529997263,150.5420103999786,150.5420103999786,150.5420103999786,150.5420103999786,150.5420103999786,150.5420103999786,150.5420103999786,150.5420103999786,150.5420103999786,23,0,,,150.5420103999786,150.74478740000632,1000,150.74478740000632,1000,1000,1000,1000,1,num_2,0.377180400013458,,22,12,2026-03-04_11h40.18.207,2026A_exp2,2022.2.4,59.94567721842281,
1000,1,0.0,6.1,1,0,41,41,43,,,,,151.14264380000532,151.79328350001015,151.79328350001015,152.29454249999253,45,315,152.29454249999253,152.29454249999253,152.29454249999253,152.29454249999253,152.29454249999253,152.29454249999253,152.29454249999253,152.29454249999253,152.29454249999253,152.66100729996106,152.66100729996106,152.66100729996106,152.66100729996106,152.66100729996106,152.66100729996106,152.66100729996106,152.66100729996106,152.66100729996106,23,0,,,152.66100729996106,152.86132079997333,1000,152.86132079997333,1000,1000,1000,1000,1,num_2,0.4043958999682218,,22,12,2026-03-04_11h40.18.207,2026A_exp2,2022.2.4,59.94567721842281,
1000,1,0.0,4.9,0,0,42,42,61,,,,,153.2948519999627,153.94550510001136,153.94550510001136,154.44674419995863,315,45,154.44674419995863,154.44674419995863,154.44674419995863,154.44674419995863,154.44674419995863,154.44674419995863,154.44674419995863,154.44674419995863,154.44674419995863,154.813149900001,154.813149900001,154.813149900001,154.813149900001,154.813149900001,154.813149900001,154.813149900001,154.813149900001,154.813149900001,23,0,,,154.813149900001,155.01517079997575,1000,155.01517079997575,1000,1000,1000,1000,1,num_2,0.5463601999799721,,22,12,2026-03-04_11h40.18.207,2026A_exp2,2022.2.4,59.94567721842281,
1,0,0.0,4.9,1,0,43,43,37,,,,,155.5803911999683,156.23115249996772,156.23115249996772,156.73220959998434,45,45,156.73220959998434,156.73220959998434,156.73220959998434,156.73220959998434,156.73220959998434,156.73220959998434,156.73220959998434,156.73220959998434,156.73220959998434,157.09865989995888,157.09865989995888,157.09865989995888,157.09865989995888,157.09865989995888,157.09865989995888,157.09865989995888,157.09865989995888,157.09865989995888,23,0,,,157.09865989995888,157.2989752999856,4.9,157.2989752999856,1,4.9,1,1,1000,num_4,0.6469718999578618,,22,12,2026-03-04_11h40.18.207,2026A_exp2,2022.2.4,59.94567721842281,
1,0,3.7,4.9,1,0,44,44,18,,,,,157.96640869998373,158.61694759997772,158.61694759997772,159.1012339000008,45,45,159.1012339000008,159.1012339000008,159.1012339000008,159.1012339000008,159.1012339000008,159.1012339000008,159.1012339000008,159.1012339000008,159.1012339000008,159.4678120999597,159.4678120999597,159.4678120999597,159.4678120999597,159.4678120999597,159.4678120999597,159.4678120999597,159.4678120999597,159.4678120999597,23,0,,,159.4678120999597,159.66783769999165,4.9,159.66783769999165,1,4.9,1,1,1000,num_4,0.8212695999536663,,22,12,2026-03-04_11h40.18.207,2026A_exp2,2022.2.4,59.94567721842281,
1,0,0.0,3.7,1,0,45,45,35,,,,,160.51866669999436,161.16934089997085,161.16934089997085,161.65379319997737,45,45,161.65379319997737,161.65379319997737,161.65379319997737,161.65379319997737,161.65379319997737,161.65379319997737,161.65379319997737,161.65379319997737,161.65379319997737,162.0203060999629,162.0203060999629,162.0203060999629,162.0203060999629,162.0203060999629,162.0203060999629,162.0203060999629,162.0203060999629,162.0203060999629,23,0,,,162.0203060999629,162.22052470000926,3.7,162.22052470000926,1,3.7,1,1,1000,num_4,0.40475340001285076,,22,12,2026-03-04_11h40.18.207,2026A_exp2,2022.2.4,59.94567721842281,
1000,1,6.1,6.1,0,0,46,46,16,,,,,162.65391150000505,163.30481379997218,163.30481379997218,163.78938209998887,315,315,163.78938209998887,163.78938209998887,163.78938209998887,163.78938209998887,163.78938209998887,163.78938209998887,163.78938209998887,163.78938209998887,163.78938209998887,164.15572439995594,164.15572439995594,164.15572439995594,164.15572439995594,164.15572439995594,164.15572439995594,164.15572439995594,164.15572439995594,164.15572439995594,23,0,,,164.15572439995594,164.35797099996125,1000,164.35797099996125,1000,1000,1000,1000,1,num_2,0.7952628000057302,,22,12,2026-03-04_11h40.18.207,2026A_exp2,2022.2.4,59.94567721842281,
1000,1,4.9,0.0,1,0,47,47,10,,,,,165.17320099996869,165.82411350001348,165.82411350001348,166.3252031999873,45,315,166.3252031999873,166.3252031999873,166.3252031999873,166.3252031999873,166.3252031999873,166.3252031999873,166.3252031999873,166.3252031999873,166.3252031999873,166.69161119998898,166.69161119998898,166.69161119998898,166.69161119998898,166.69161119998898,166.69161119998898,166.69161119998898,166.69161119998898,166.69161119998898,23,0,,,166.69161119998898,166.89306159998523,1000,166.89306159998523,1000,1000,1000,1000,0,num_3,0.3166851000278257,,22,12,2026-03-04_11h40.18.207,2026A_exp2,2022.2.4,59.94567721842281,
1000,1,3.7,3.7,0,0,48,48,63,,,,,167.22549119999167,167.87603380001383,167.87603380001383,168.3772837999859,45,45,168.3772837999859,168.3772837999859,168.3772837999859,168.3772837999859,168.3772837999859,168.3772837999859,168.3772837999859,168.3772837999859,168.3772837999859,168.74368169996887,168.74368169996887,168.74368169996887,168.74368169996887,168.74368169996887,168.74368169996887,168.74368169996887,168.74368169996887,168.74368169996887,23,0,,,168.74368169996887,168.94553929998074,1000,168.94553929998074,1000,1000,1000,1000,1,num_2,0.3674258000100963,,22,12,2026-03-04_11h40.18.207,2026A_exp2,2022.2.4,59.94567721842281,
1000,1,3.7,0.0,0,0,49,49,56,,,,,169.34446140000364,169.99492420000024,169.99492420000024,170.496109300002,45,45,170.496109300002,170.496109300002,170.496109300002,170.496109300002,170.496109300002,170.496109300002,170.496109300002,170.496109300002,170.496109300002,170.86247900000308,170.86247900000308,170.86247900000308,170.86247900000308,170.86247900000308,170.86247900000308,170.86247900000308,170.86247900000308,170.86247900000308,23,0,,,170.86247900000308,171.06503719999455,1000,171.06503719999455,1000,1000,1000,1000,0,num_3,0.23179529997287318,,22,12,2026-03-04_11h40.18.207,2026A_exp2,2022.2.4,59.94567721842281,
1000,1,0.0,3.7,1,0,50,50,13,,,,,171.3128939999733,171.96369349997258,171.96369349997258,172.46494019997772,315,45,172.46494019997772,172.46494019997772,172.46494019997772,172.46494019997772,172.46494019997772,172.46494019997772,172.46494019997772,172.46494019997772,172.46494019997772,172.83104049996473,172.83104049996473,172.83104049996473,172.83104049996473,172.83104049996473,172.83104049996473,172.83104049996473,172.83104049996473,172.83104049996473,23,0,,,172.83104049996473,173.03305989998626,1000,173.03305989998626,1000,1000,1000,1000,1,num_2,0.19975959998555481,,22,12,2026-03-04_11h40.18.207,2026A_exp2,2022.2.4,59.94567721842281,
1000,1,6.1,3.7,0,0,51,51,75,,,,,173.24814169999445,173.89871709997533,173.89871709997533,174.40001449995907,45,45,174.40001449995907,174.40001449995907,174.40001449995907,174.40001449995907,174.40001449995907,174.40001449995907,174.40001449995907,174.40001449995907,174.40001449995907,174.76639710000018,174.76639710000018,174.76639710000018,174.76639710000018,174.76639710000018,174.76639710000018,174.76639710000018,174.76639710000018,174.76639710000018,23,0,,,174.76639710000018,174.9683543999563,1000,174.9683543999563,1000,1000,1000,1000,0,num_3,0.40083399997092783,,22,12,2026-03-04_11h40.18.207,2026A_exp2,2022.2.4,59.94567721842281,
1000,1,4.9,4.9,1,0,52,52,68,,,,,175.40047429996775,176.05097869999008,176.05097869999008,176.55203899997286,45,315,176.55203899997286,176.55203899997286,176.55203899997286,176.55203899997286,176.55203899997286,176.55203899997286,176.55203899997286,176.55203899997286,176.55203899997286,176.91846089996397,176.91846089996397,176.91846089996397,176.91846089996397,176.91846089996397,176.91846089996397,176.91846089996397,176.91846089996397,176.91846089996397,23,0,,,176.91846089996397,177.1211462999927,1000,177.1211462999927,1000,1000,1000,1000,1,num_2,0.3037425000220537,,22,12,2026-03-04_11h40.18.207,2026A_exp2,2022.2.4,59.94567721842281,
1000,1,0.0,0.0,1,0,53,53,1,,,,,177.45239679998485,178.10305089998292,178.10305089998292,178.6041119999718,45,315,178.6041119999718,178.6041119999718,178.6041119999718,178.6041119999718,178.6041119999718,178.6041119999718,178.6041119999718,178.6041119999718,178.6041119999718,178.9538255999796,178.9538255999796,178.9538255999796,178.9538255999796,178.9538255999796,178.9538255999796,178.9538255999796,178.9538255999796,178.9538255999796,22,0,,,178.9538255999796,179.15608369995607,1000,179.17085439997027,1000,1000,1000,1000,1,num_2,0.3906303000403568,,22,12,2026-03-04_11h40.18.207,2026A_exp2,2022.2.4,59.94567721842281,
1000,1,6.1,0.0,1,0,54,54,29,,,,,179.5878093999927,180.2384705999866,180.2384705999866,180.73948539997218,315,45,180.73948539997218,180.73948539997218,180.73948539997218,180.73948539997218,180.73948539997218,180.73948539997218,180.73948539997218,180.73948539997218,180.73948539997218,181.10606269998243,181.10606269998243,181.10606269998243,181.10606269998243,181.10606269998243,181.10606269998243,181.10606269998243,181.10606269998243,181.10606269998243,23,0,,,181.10606269998243,181.308105300006,1000,181.308105300006,1000,1000,1000,1000,0,num_3,0.07736739999381825,,22,12,2026-03-04_11h40.18.207,2026A_exp2,2022.2.4,59.94567721842281,
1000,1,3.7,6.1,1,0,55,55,58,,,,,181.40623359999154,182.05670899996767,182.05670899996767,182.55788839998422,315,45,182.55788839998422,182.55788839998422,182.55788839998422,182.55788839998422,182.55788839998422,182.55788839998422,182.55788839998422,182.55788839998422,182.55788839998422,182.90791119995993,182.90791119995993,182.90791119995993,182.90791119995993,182.90791119995993,182.90791119995993,182.90791119995993,182.90791119995993,182.90791119995993,22,0,,,182.90791119995993,183.10981259995606,1000,183.1247378999833,1000,1000,1000,1000,1,num_2,0.3645837999647483,,22,12,2026-03-04_11h40.18.207,2026A_exp2,2022.2.4,59.94567721842281,
0,0,4.9,0.0,1,0,56,56,67,,,,,183.5085257999599,184.15905219997512,184.15905219997512,184.66015559999505,315,315,184.66015559999505,184.66015559999505,184.66015559999505,184.66015559999505,184.66015559999505,184.66015559999505,184.66015559999505,184.66015559999505,184.66015559999505,185.0266999999876,185.0266999999876,185.0266999999876,185.0266999999876,185.0266999999876,185.0266999999876,185.0266999999876,185.0266999999876,185.0266999999876,23,0,,,185.0266999999876,185.2268418999738,4.9,185.2268418999738,1,4.9,1,1,1000,num_4,0.5666000000201166,,22,12,2026-03-04_11h40.18.207,2026A_exp2,2022.2.4,59.94567721842281,
1,0,0.0,0.0,1,0,57,57,39,,,,,185.81063630001154,186.4614554999862,186.4614554999862,186.94595779996598,315,315,186.94595779996598,186.94595779996598,186.94595779996598,186.94595779996598,186.94595779996598,186.94595779996598,186.94595779996598,186.94595779996598,186.94595779996598,187.31211920001078,187.31211920001078,187.31211920001078,187.31211920001078,187.31211920001078,187.31211920001078,187.31211920001078,187.31211920001078,187.31211920001078,23,0,,,187.31211920001078,187.51250379998237,0.0,187.51250379998237,1,0.0,0,0,1000,num_4,0.4728112999582663,,22,12,2026-03-04_11h40.18.207,2026A_exp2,2022.2.4,59.94567721842281,
1,0,6.1,4.9,1,0,58,58,11,,,,,188.01311309996527,188.6634822000051,188.6634822000051,189.16341509995982,45,315,189.16341509995982,189.16341509995982,189.16341509995982,189.16341509995982,189.16341509995982,189.16341509995982,189.16341509995982,189.16341509995982,189.16341509995982,189.51455590000842,189.51455590000842,189.51455590000842,189.51455590000842,189.51455590000842,189.51455590000842,189.51455590000842,189.51455590000842,189.51455590000842,23,0,,,189.51455590000842,189.71824809996178,4.9,189.71824809996178,0,4.9,1,0,1000,num_1,0.5308809999842197,,22,12,2026-03-04_11h40.18.207,2026A_exp2,2022.2.4,59.94567721842281,
1,0,3.7,0.0,1,0,59,59,12,,,,,190.26510479999706,190.91586700000335,190.91586700000335,191.4021126999869,45,45,191.4021126999869,191.4021126999869,191.4021126999869,191.4021126999869,191.4021126999869,191.4021126999869,191.4021126999869,191.4021126999869,191.4021126999869,191.76646139996592,191.76646139996592,191.76646139996592,191.76646139996592,191.76646139996592,191.76646139996592,191.76646139996592,191.76646139996592,191.76646139996592,23,0,,,191.76646139996592,191.96691209997516,0.0,191.96691209997516,0,0.0,0,1,1000,num_1,0.4663327999878675,,22,12,2026-03-04_11h40.18.207,2026A_exp2,2022.2.4,59.94567721842281,
1,0,0.0,4.9,0,0,60,60,3,,,,,192.4506233999855,193.10146229999373,193.10146229999373,193.60247609997168,315,45,193.60247609997168,193.60247609997168,193.60247609997168,193.60247609997168,193.60247609997168,193.60247609997168,193.60247609997168,193.60247609997168,193.60247609997168,193.95227670000168,193.95227670000168,193.95227670000168,193.95227670000168,193.95227670000168,193.95227670000168,193.95227670000168,193.95227670000168,193.95227670000168,22,0,,,193.95227670000168,194.1524661000003,0.0,194.1524661000003,0,0.0,0,1,1000,num_1,0.656995800032746,,22,12,2026-03-04_11h40.18.207,2026A_exp2,2022.2.4,59.94567721842281,
1000,1,3.7,0.0,1,0,61,61,19,,,,,194.83631119999336,195.48718519997783,195.48718519997783,195.97142169997096,315,45,195.97142169997096,195.97142169997096,195.97142169997096,195.97142169997096,195.97142169997096,195.97142169997096,195.97142169997096,195.97142169997096,195.97142169997096,196.3379441999714,196.3379441999714,196.3379441999714,196.3379441999714,196.3379441999714,196.3379441999714,196.3379441999714,196.3379441999714,196.3379441999714,23,0,,,196.3379441999714,196.5404021999566,1000,196.5404021999566,1000,1000,1000,1000,1,num_2,0.7169592000427656,,22,12,2026-03-04_11h40.18.207,2026A_exp2,2022.2.4,59.94567721842281,
1000,1,0.0,4.9,0,0,62,62,60,,,,,197.28859319997719,197.9394359999569,197.9394359999569,198.44064179999987,315,45,198.44064179999987,198.44064179999987,198.44064179999987,198.44064179999987,198.44064179999987,198.44064179999987,198.44064179999987,198.44064179999987,198.44064179999987,198.79047690000152,198.79047690000152,198.79047690000152,198.79047690000152,198.79047690000152,198.79047690000152,198.79047690000152,198.79047690000152,198.79047690000152,22,0,,,198.79047690000152,198.99730449996423,1000,198.99730449996423,1000,1000,1000,1000,1,num_2,0.4355249999789521,,22,12,2026-03-04_11h40.18.207,2026A_exp2,2022.2.4,59.94567721842281,
1,0,6.1,0.0,0,0,63,63,21,,,,,199.45760239998344,200.10841739998432,200.10841739998432,200.60954380000476,315,45,200.60954380000476,200.60954380000476,200.60954380000476,200.60954380000476,200.60954380000476,200.60954380000476,200.60954380000476,200.60954380000476,200.60954380000476,200.95928379998077,200.95928379998077,200.95928379998077,200.95928379998077,200.95928379998077,200.95928379998077,200.95928379998077,200.95928379998077,200.95928379998077,22,0,,,200.95928379998077,201.15948989999015,6.1,201.1761219999753,1,6.1,1,1,1000,num_4,0.7371743000112474,,22,12,2026-03-04_11h40.18.207,2026A_exp2,2022.2.4,59.94567721842281,
1,0,0.0,4.9,0,0,64,64,73,,,,,201.94335740001407,202.59423479996622,202.59423479996622,203.07848399999784,45,45,203.07848399999784,203.07848399999784,203.07848399999784,203.07848399999784,203.07848399999784,203.07848399999784,203.07848399999784,203.07848399999784,203.07848399999784,203.4454274000018,203.4454274000018,203.4454274000018,203.4454274000018,203.4454274000018,203.4454274000018,203.4454274000018,203.4454274000018,203.4454274000018,19,1,[0.0012111000251024961],[0.06693470000755042],203.4454274000018,203.64530979999108,0.0,203.64530979999108,0,0.0,0,1,1000,num_1,0.6037120999535546,,22,12,2026-03-04_11h40.18.207,2026A_exp2,2022.2.4,59.94567721842281,
1,0,4.9,0.0,0,0,65,65,53,,,,,204.27924209996127,204.92987849999918,204.92987849999918,205.41436059999978,315,45,205.41436059999978,205.41436059999978,205.41436059999978,205.41436059999978,205.41436059999978,205.41436059999978,205.41436059999978,205.41436059999978,205.41436059999978,205.78029379999498,205.78029379999498,205.78029379999498,205.78029379999498,205.78029379999498,205.78029379999498,205.78029379999498,205.78029379999498,205.78029379999498,23,0,,,205.78029379999498,205.98087560001295,4.9,205.98087560001295,1,4.9,1,1,1000,num_4,0.7885658000013791,,22,12,2026-03-04_11h40.18.207,2026A_exp2,2022.2.4,59.94567721842281,
1,0,6.1,0.0,1,0,66,66,89,,,,,206.7984363999567,207.44909199996619,207.44909199996619,207.93341040000087,315,315,207.93341040000087,207.93341040000087,207.93341040000087,207.93341040000087,207.93341040000087,207.93341040000087,207.93341040000087,207.93341040000087,207.93341040000087,208.29989799996838,208.29989799996838,208.29989799996838,208.29989799996838,208.29989799996838,208.29989799996838,208.29989799996838,208.29989799996838,208.29989799996838,23,0,,,208.29989799996838,208.50011580000864,0.0,208.50011580000864,0,0.0,0,1,1000,num_1,0.604756900051143,,22,12,2026-03-04_11h40.18.207,2026A_exp2,2022.2.4,59.94567721842281,
1000,1,6.1,0.0,1,0,67,67,25,,,,,209.1341376999626,209.77900729997782,209.77900729997782,210.28499670000747,45,45,210.28499670000747,210.28499670000747,210.28499670000747,210.28499670000747,210.28499670000747,210.28499670000747,210.28499670000747,210.28499670000747,210.28499670000747,210.63552929996513,210.63552929996513,210.63552929996513,210.63552929996513,210.63552929996513,210.63552929996513,210.63552929996513,210.63552929996513,210.63552929996513,23,0,,,210.63552929996513,210.84753219998674,1000,210.84753219998674,1000,1000,1000,1000,0,num_3,0.6821673000231385,,22,12,2026-03-04_11h40.18.207,2026A_exp2,2022.2.4,59.94567721842281,
1,0,0.0,6.1,1,0,68,68,31,,,,,211.55323309998494,212.20400629995856,212.20400629995856,212.68825999996625,315,45,212.68825999996625,212.68825999996625,212.68825999996625,212.68825999996625,212.68825999996625,212.68825999996625,212.68825999996625,212.68825999996625,212.68825999996625,213.05461749999085,213.05461749999085,213.05461749999085,213.05461749999085,213.05461749999085,213.05461749999085,213.05461749999085,213.05461749999085,213.05461749999085,23,0,,,213.05461749999085,213.25488169997698,6.1,213.25488169997698,1,6.1,1,1,1000,num_4,0.5864588000113145,,22,12,2026-03-04_11h40.18.207,2026A_exp2,2022.2.4,59.94567721842281,
1,0,4.9,3.7,0,0,69,69,44,,,,,213.87212229997385,214.52282929996727,214.52282929996727,215.00727549998555,45,45,215.00727549998555,215.00727549998555,215.00727549998555,215.00727549998555,215.00727549998555,215.00727549998555,215.00727549998555,215.00727549998555,215.00727549998555,215.37350359995617,215.37350359995617,215.37350359995617,215.37350359995617,215.37350359995617,215.37350359995617,215.37350359995617,215.37350359995617,215.37350359995617,23,0,,,215.37350359995617,215.57388479996007,4.9,215.57388479996007,1,4.9,1,1,1000,num_4,0.5868433000287041,,22,12,2026-03-04_11h40.18.207,2026A_exp2,2022.2.4,59.94567721842281,
1000,1,0.0,0.0,0,0,70,70,5,,,,,216.19120090000797,216.8419464000035,216.8419464000035,217.3263151999563,315,315,217.3263151999563,217.3263151999563,217.3263151999563,217.3263151999563,217.3263151999563,217.3263151999563,217.3263151999563,217.3263151999563,217.3263151999563,217.69248039997183,217.69248039997183,217.69248039997183,217.69248039997183,217.69248039997183,217.69248039997183,217.69248039997183,217.69248039997183,217.69248039997183,23,0,,,217.69248039997183,217.8947019999614,1000,217.8947019999614,1000,1000,1000,1000,1,num_2,1.6594408000237308,,22,12,2026-03-04_11h40.18.207,2026A_exp2,2022.2.4,59.94567721842281,
1000,1,6.1,6.1,1,0,71,71,4,,,,,219.57797270000447,220.22856239997782,220.22856239997782,220.7295561999781,45,315,220.7295561999781,220.7295561999781,220.7295561999781,220.7295561999781,220.7295561999781,220.7295561999781,220.7295561999781,220.7295561999781,220.7295561999781,221.096001399972,221.096001399972,221.096001399972,221.096001399972,221.096001399972,221.096001399972,221.096001399972,221.096001399972,221.096001399972,23,0,,,221.096001399972,221.29772289999528,1000,221.29772289999528,1000,1000,1000,1000,1,num_2,0.4152775999973528,,22,12,2026-03-04_11h40.18.207,2026A_exp2,2022.2.4,59.94567721842281,
0,0,0.0,3.7,0,0,72,72,34,,,,,221.73030950000975,222.38061990001006,222.38061990001006,222.88253740000073,45,45,222.88253740000073,222.88253740000073,222.88253740000073,222.88253740000073,222.88253740000073,222.88253740000073,222.88253740000073,222.88253740000073,222.88253740000073,223.2313514999696,223.2313514999696,223.2313514999696,223.2313514999696,223.2313514999696,223.2313514999696,223.2313514999696,223.2313514999696,223.2313514999696,22,0,,,223.2313514999696,223.43179539998528,3.7,223.4483031000127,1,3.7,1,1,1000,num_4,0.5767549000447616,,22,12,2026-03-04_11h40.18.207,2026A_exp2,2022.2.4,59.94567721842281,
1000,1,0.0,0.0,0,0,73,73,86,,,,,224.04899649997242,224.69961750000948,224.69961750000948,225.18389300000854,45,45,225.18389300000854,225.18389300000854,225.18389300000854,225.18389300000854,225.18389300000854,225.18389300000854,225.18389300000854,225.18389300000854,225.18389300000854,225.55056949995924,225.55056949995924,225.55056949995924,225.55056949995924,225.55056949995924,225.55056949995924,225.55056949995924,225.55056949995924,225.55056949995924,23,0,,,225.55056949995924,225.75223759998335,1000,225.75223759998335,1000,1000,1000,1000,1,num_2,0.7456030999892391,,22,12,2026-03-04_11h40.18.207,2026A_exp2,2022.2.4,59.94567721842281,
0,0,3.7,0.0,0,0,74,74,62,,,,,226.51819999999134,227.16869999998016,227.16869999998016,227.66991810000036,45,315,227.66991810000036,227.66991810000036,227.66991810000036,227.66991810000036,227.66991810000036,227.66991810000036,227.66991810000036,227.66991810000036,227.66991810000036,228.01958779996494,228.01958779996494,228.01958779996494,228.01958779996494,228.01958779996494,228.01958779996494,228.01958779996494,228.01958779996494,228.01958779996494,22,0,,,228.01958779996494,228.219737300009,0.0,228.2363063999801,0,0.0,0,1,1000,num_1,0.6527712999959476,,22,12,2026-03-04_11h40.18.207,2026A_exp2,2022.2.4,59.94567721842281,
1,0,0.0,6.1,1,0,75,75,50,,,,,228.92050259996904,229.5711574999732,229.5711574999732,230.05550009995932,315,315,230.05550009995932,230.05550009995932,230.05550009995932,230.05550009995932,230.05550009995932,230.05550009995932,230.05550009995932,230.05550009995932,230.05550009995932,230.42200439999579,230.42200439999579,230.42200439999579,230.42200439999579,230.42200439999579,230.42200439999579,230.42200439999579,230.42200439999579,230.42200439999579,23,0,,,230.42200439999579,230.62228859995957,6.1,230.62228859995957,1,6.1,1,1,1000,num_4,0.6752125000348315,,22,12,2026-03-04_11h40.18.207,2026A_exp2,2022.2.4,59.94567721842281,
1000,1,0.0,0.0,1,0,76,76,85,,,,,231.32295830000658,231.97344219998922,231.97344219998922,232.45800409995718,45,315,232.45800409995718,232.45800409995718,232.45800409995718,232.45800409995718,232.45800409995718,232.45800409995718,232.45800409995718,232.45800409995718,232.45800409995718,232.82445359998383,232.82445359998383,232.82445359998383,232.82445359998383,232.82445359998383,232.82445359998383,232.82445359998383,232.82445359998383,232.82445359998383,23,0,,,232.82445359998383,233.02649179997388,1000,233.02649179997388,1000,1000,1000,1000,1,num_2,0.6310080999974161,,22,12,2026-03-04_11h40.18.207,2026A_exp2,2022.2.4,59.94567721842281,
1000,1,0.0,0.0,0,0,77,77,7,,,,,233.67532189999474,234.32598470000084,234.32598470000084,234.8269376999815,45,315,234.8269376999815,234.8269376999815,234.8269376999815,234.8269376999815,234.8269376999815,234.8269376999815,234.8269376999815,234.8269376999815,234.8269376999815,235.1935177000123,235.1935177000123,235.1935177000123,235.1935177000123,235.1935177000123,235.1935177000123,235.1935177000123,235.1935177000123,235.1935177000123,23,0,,,235.1935177000123,235.39594550000038,1000,235.39594550000038,1000,1000,1000,1000,0,num_3,0.5809613000019453,,22,12,2026-03-04_11h40.18.207,2026A_exp2,2022.2.4,59.94567721842281,
1000,1,3.7,3.7,0,0,78,78,72,,,,,235.99432339996565,236.64484759996412,236.64484759996412,237.1459332999657,315,315,237.1459332999657,237.1459332999657,237.1459332999657,237.1459332999657,237.1459332999657,237.1459332999657,237.1459332999657,237.1459332999657,237.1459332999657,237.5124891999876,237.5124891999876,237.5124891999876,237.5124891999876,237.5124891999876,237.5124891999876,237.5124891999876,237.5124891999876,237.5124891999876,23,0,,,237.5124891999876,237.7145775000099,1000,237.7145775000099,1000,1000,1000,1000,0,num_3,0.326235499989707,,22,12,2026-03-04_11h40.18.207,2026A_exp2,2022.2.4,59.94567721842281,
1,0,4.9,3.7,1,0,79,79,27,,,,,238.06307199998992,238.71359349996783,238.71359349996783,239.21879459999036,315,315,239.21879459999036,239.21879459999036,239.21879459999036,239.21879459999036,239.21879459999036,239.21879459999036,239.21879459999036,239.21879459999036,239.21879459999036,239.58114139997633,239.58114139997633,239.58114139997633,239.58114139997633,239.58114139997633,239.58114139997633,239.58114139997633,239.58114139997633,239.58114139997633,23,0,,,239.58114139997633,239.78137129999232,3.7,239.78137129999232,1,3.7,1,1,1000,num_4,0.620004299969878,,22,12,2026-03-04_11h40.18.207,2026A_exp2,2022.2.4,59.94567721842281,
1000,1,0.0,0.0,0,0,80,80,15,,,,,240.43211140000494,241.08270319999428,241.08270319999428,241.56697629997507,315,315,241.56697629997507,241.56697629997507,241.56697629997507,241.56697629997507,241.56697629997507,241.56697629997507,241.56697629997507,241.56697629997507,241.56697629997507,241.93345849995967,241.93345849995967,241.93345849995967,241.93345849995967,241.93345849995967,241.93345849995967,241.93345849995967,241.93345849995967,241.93345849995967,23,0,,,241.93345849995967,242.13380889996188,1000,242.13380889996188,1000,1000,1000,1000,0,num_3,0.37990229995921254,,22,12,2026-03-04_11h40.18.207,2026A_exp2,2022.2.4,59.94567721842281,
1,0,3.7,0.0,0,0,81,81,87,,,,,242.5343267999706,243.16804049996426,243.16804049996426,243.66924739995738,45,45,243.66924739995738,243.66924739995738,243.66924739995738,243.66924739995738,243.66924739995738,243.66924739995738,243.66924739995738,243.66924739995738,243.66924739995738,244.03564279997954,244.03564279997954,244.03564279997954,244.03564279997954,244.03564279997954,244.03564279997954,244.03564279997954,244.03564279997954,244.03564279997954,23,0,,,244.03564279997954,244.23589849995915,3.7,244.23589849995915,1,3.7,1,1,1000,num_4,0.4769438999937847,,22,12,2026-03-04_11h40.18.207,2026A_exp2,2022.2.4,59.94567721842281,
1000,1,0.0,0.0,0,0,82,82,17,,,,,244.73642059997655,245.3869846999878,245.3869846999878,245.87145019997843,315,315,245.87145019997843,245.87145019997843,245.87145019997843,245.87145019997843,245.87145019997843,245.87145019997843,245.87145019997843,245.87145019997843,245.87145019997843,246.23779129999457,246.23779129999457,246.23779129999457,246.23779129999457,246.23779129999457,246.23779129999457,246.23779129999457,246.23779129999457,246.23779129999457,23,0,,,246.23779129999457,246.44026199996006,1000,246.44026199996006,1000,1000,1000,1000,0,num_3,0.6896797000081278,,22,12,2026-03-04_11h40.18.207,2026A_exp2,2022.2.4,59.94567721842281,
1,0,3.7,6.1,0,0,83,83,52,,,,,247.15549799997825,247.80593579995912,247.80593579995912,248.3072159999865,315,45,248.3072159999865,248.3072159999865,248.3072159999865,248.3072159999865,248.3072159999865,248.3072159999865,248.3072159999865,248.3072159999865,248.3072159999865,248.67357499996433,248.67357499996433,248.67357499996433,248.67357499996433,248.67357499996433,248.67357499996433,248.67357499996433,248.67357499996433,248.67357499996433,23,0,,,248.67357499996433,248.87367489997996,3.7,248.87367489997996,0,3.7,1,0,1000,num_1,0.6231392999761738,,22,12,2026-03-04_11h40.18.207,2026A_exp2,2022.2.4,59.94567721842281,
1,0,0.0,0.0,1,0,84,84,49,,,,,249.5245075999992,250.17513359995792,250.17513359995792,250.65937889995985,315,315,250.65937889995985,250.65937889995985,250.65937889995985,250.65937889995985,250.65937889995985,250.65937889995985,250.65937889995985,250.65937889995985,250.65937889995985,251.0257166000083,251.0257166000083,251.0257166000083,251.0257166000083,251.0257166000083,251.0257166000083,251.0257166000083,251.0257166000083,251.0257166000083,23,0,,,251.0257166000083,251.22605779999867,0.0,251.22605779999867,1,0.0,0,0,1000,num_4,0.6146805000025779,,22,12,2026-03-04_11h40.18.207,2026A_exp2,2022.2.4,59.94567721842281,
1000,1,6.1,0.0,1,0,85,85,83,,,,,251.86000960000092,252.49429140001303,252.49429140001303,252.99524209997617,45,45,252.99524209997617,252.99524209997617,252.99524209997617,252.99524209997617,252.99524209997617,252.99524209997617,252.99524209997617,252.99524209997617,252.99524209997617,253.36180059995968,253.36180059995968,253.36180059995968,253.36180059995968,253.36180059995968,253.36180059995968,253.36180059995968,253.36180059995968,253.36180059995968,23,0,,,253.36180059995968,253.56375370000023,1000,253.56375370000023,1000,1000,1000,1000,0,num_3,0.4297831999720074,,22,12,2026-03-04_11h40.18.207,2026A_exp2,2022.2.4,59.94567721842281,
1,0,0.0,0.0,0,0,86,86,79,,,,,254.01250559999608,254.66322609997587,254.66322609997587,255.16382769995835,45,315,255.16382769995835,255.16382769995835,255.16382769995835,255.16382769995835,255.16382769995835,255.16382769995835,255.16382769995835,255.16382769995835,255.16382769995835,255.5304807999637,255.5304807999637,255.5304807999637,255.5304807999637,255.5304807999637,255.5304807999637,255.5304807999637,255.5304807999637,255.5304807999637,23,0,,,255.5304807999637,255.7306407999713,0.0,255.7306407999713,1,0.0,0,0,1000,num_4,0.7351163999992423,,22,12,2026-03-04_11h40.18.207,2026A_exp2,2022.2.4,59.94567721842281,
1000,1,0.0,3.7,0,0,87,87,46,,,,,256.48151829995913,257.13210779998917,257.13210779998917,257.63309229997685,45,45,257.63309229997685,257.63309229997685,257.63309229997685,257.63309229997685,257.63309229997685,257.63309229997685,257.63309229997685,257.63309229997685,257.63309229997685,257.98281889996724,257.98281889996724,257.98281889996724,257.98281889996724,257.98281889996724,257.98281889996724,257.98281889996724,257.98281889996724,257.98281889996724,22,0,,,257.98281889996724,258.1852537000086,1000,258.1852537000086,1000,1000,1000,1000,0,num_3,0.5046688000438735,,22,12,2026-03-04_11h40.18.207,2026A_exp2,2022.2.4,59.94567721842281,
1000,1,3.7,4.9,0,0,88,88,45,,,,,258.7171016999637,259.36770579998847,259.36770579998847,259.86880160000874,315,315,259.86880160000874,259.86880160000874,259.86880160000874,259.86880160000874,259.86880160000874,259.86880160000874,259.86880160000874,259.86880160000874,259.86880160000874,260.2185030999826,260.2185030999826,260.2185030999826,260.2185030999826,260.2185030999826,260.2185030999826,260.2185030999826,260.2185030999826,260.2185030999826,22,0,,,260.2185030999826,260.4206361999968,1000,260.4206361999968,1000,1000,1000,1000,1,num_2,0.4681496999692172,,22,12,2026-03-04_11h40.18.207,2026A_exp2,2022.2.4,59.94567721842281,
0,0,6.1,4.9,0,0,89,89,22,,,,,260.91932509996695,261.5697466999991,261.5697466999991,262.07086189999245,315,315,262.07086189999245,262.07086189999245,262.07086189999245,262.07086189999245,262.07086189999245,262.07086189999245,262.07086189999245,262.07086189999245,262.07086189999245,262.4373579999665,262.4373579999665,262.4373579999665,262.4373579999665,262.4373579999665,262.4373579999665,262.4373579999665,262.4373579999665,262.4373579999665,23,0,,,262.4373579999665,262.6373612000025,4.9,262.6373612000025,1,4.9,1,1,1000,num_4,0.8122075999854133,,22,12,2026-03-04_11h40.18.207,2026A_exp2,2022.2.4,59.94567721842281,
,,,,,,,,,,,,,,,,,,,,,,,,,,,,,,,,,,,,,,,,,,,,,,,,,,,,263.48021349997725,,,,,,,
