validity,detectorcomp,contrastCW,contrastCCW,precueCWorCCW,block_80trials.thisRepN,block_80trials.thisTrialN,block_80trials.thisN,block_80trials.thisIndex,etRecord.started,etRecord.stopped,text.started,text.stopped,text_4.started,text_4.stopped,text_6.started,text_6.stopped,oriCW,oriCCW,roi_2.started,grating_UR.started,grating_UL.started,grating_LR.started,grating_LL.started,noise_UR.started,noise_UL.started,noise_LR.started,noise_LL.started,roi_2.stopped,grating_UR.stopped,grating_UL.stopped,grating_LR.stopped,grating_LL.stopped,noise_UR.stopped,noise_UL.stopped,noise_LR.stopped,noise_LL.stopped,outframe,roi_2.numLooks,roi_2.timesOn,roi_2.timesOff,text_2.started,text_2.stopped,probedcontrast,key_resp.started,respdetect,relevantContrast,correctDetect,TorFdetect,respCWorCCW,key_resp.keys,key_resp.rt,feedback_display_.started,participantNo,blockNo,date,expName,psychopyVersion,frameRate,
1000,1,0.0,4.9,0,0,0,0,26,0.00013669999316334724,0.00013669999316334724,48.79357190011069,50.79780129995197,50.79780129995197,51.43101359996945,51.43101359996945,51.9537259999197,45,315,51.9537259999197,51.9537259999197,51.9537259999197,51.9537259999197,51.9537259999197,51.9537259999197,51.9537259999197,51.9537259999197,51.9537259999197,52.29863650002517,52.29863650002517,52.29863650002517,52.29863650002517,52.29863650002517,52.29863650002517,52.29863650002517,52.29863650002517,52.29863650002517,4,1,[0.0010222999844700098],[0.3155098999850452],52.29863650002517,52.49956290004775,1000,52.49956290004775,1000,1000,1000,1000,1,num_2,1.190585299860686,,30,12,2026-03-12_11h13.35.635,2026A_exp2,2022.2.4,59.95829305673547,
1,0,0.0,6.1,1,0,1,1,36,,,,,53.716867699986324,54.36730489996262,54.36730489996262,54.868382999906316,45,315,54.868382999906316,54.868382999906316,54.868382999906316,54.868382999906316,54.868382999906316,54.868382999906316,54.868382999906316,54.868382999906316,54.868382999906316,55.23492720001377,55.23492720001377,55.23492720001377,55.23492720001377,55.23492720001377,55.23492720001377,55.23492720001377,55.23492720001377,55.23492720001377,23,0,,,55.23492720001377,55.435040100011975,6.1,55.435040100011975,1,6.1,1,1,1000,num_4,0.679413499776274,,30,12,2026-03-12_11h13.35.635,2026A_exp2,2022.2.4,59.95829305673547,
1000,1,4.9,0.0,1,0,2,2,10,,,,,56.135844100033864,56.786321399966255,56.786321399966255,57.27090830006637,45,45,57.27090830006637,57.27090830006637,57.27090830006637,57.27090830006637,57.27090830006637,57.27090830006637,57.27090830006637,57.27090830006637,57.27090830006637,57.63728310004808,57.63728310004808,57.63728310004808,57.63728310004808,57.63728310004808,57.63728310004808,57.63728310004808,57.63728310004808,57.63728310004808,0,1,[0.0014112999197095633],[0.36732560000382364],57.63728310004808,57.83974039996974,1000,57.83974039996974,1000,1000,1000,1000,0,num_3,0.4423359998036176,,30,12,2026-03-12_11h13.35.635,2026A_exp2,2022.2.4,59.95829305673547,
1000,1,0.0,4.9,0,0,3,3,60,,,,,58.304751799907535,58.95514429989271,58.95514429989271,59.456280400045216,45,45,59.456280400045216,59.456280400045216,59.456280400045216,59.456280400045216,59.456280400045216,59.456280400045216,59.456280400045216,59.456280400045216,59.456280400045216,59.80603579990566,59.80603579990566,59.80603579990566,59.80603579990566,59.80603579990566,59.80603579990566,59.80603579990566,59.80603579990566,59.80603579990566,0,1,[0.0011913999915122986],[0.35050969989970326],59.80603579990566,60.008164800005034,1000,60.02288660011254,1000,1000,1000,1000,1,num_2,0.37964050006121397,,30,12,2026-03-12_11h13.35.635,2026A_exp2,2022.2.4,59.95829305673547,
1000,1,6.1,6.1,1,0,4,4,4,,,,,60.42351619992405,61.07414279994555,61.07414279994555,61.575252200011164,315,315,61.575252200011164,61.575252200011164,61.575252200011164,61.575252200011164,61.575252200011164,61.575252200011164,61.575252200011164,61.575252200011164,61.575252200011164,61.94156070007011,61.94156070007011,61.94156070007011,61.94156070007011,61.94156070007011,61.94156070007011,61.94156070007011,61.94156070007011,61.94156070007011,23,0,,,61.94156070007011,62.1439265999943,1000,62.1439265999943,1000,1000,1000,1000,1,num_2,0.4350020997226238,,30,12,2026-03-12_11h13.35.635,2026A_exp2,2022.2.4,59.95829305673547,
1,0,0.0,3.7,1,0,5,5,14,,,,,62.60891050007194,63.25971279991791,63.25971279991791,63.76091119996272,315,315,63.76091119996272,63.76091119996272,63.76091119996272,63.76091119996272,63.76091119996272,63.76091119996272,63.76091119996272,63.76091119996272,63.76091119996272,64.11030529998243,64.11030529998243,64.11030529998243,64.11030529998243,64.11030529998243,64.11030529998243,64.11030529998243,64.11030529998243,64.11030529998243,0,1,[0.0008107000030577183],[0.3509921000804752],64.11030529998243,64.3105933999177,3.7,64.32718500006013,1,3.7,1,1,1000,num_4,0.5627352998126298,,30,12,2026-03-12_11h13.35.635,2026A_exp2,2022.2.4,59.95829305673547,
1000,1,0.0,0.0,1,0,6,6,1,,,,,64.91100599989295,65.5618827000726,65.5618827000726,66.04614189988934,315,315,66.04614189988934,66.04614189988934,66.04614189988934,66.04614189988934,66.04614189988934,66.04614189988934,66.04614189988934,66.04614189988934,66.04614189988934,66.41275139991194,66.41275139991194,66.41275139991194,66.41275139991194,66.41275139991194,66.41275139991194,66.41275139991194,66.41275139991194,66.41275139991194,0,1,[0.0008948999457061291],[0.367558800149709],66.41275139991194,66.6150754999835,1000,66.6150754999835,1000,1000,1000,1000,0,num_3,0.5790430998895317,,30,12,2026-03-12_11h13.35.635,2026A_exp2,2022.2.4,59.95829305673547,
1000,1,0.0,0.0,0,0,7,7,17,,,,,67.21341539989226,67.86427989997901,67.86427989997901,68.3486649999395,45,315,68.3486649999395,68.3486649999395,68.3486649999395,68.3486649999395,68.3486649999395,68.3486649999395,68.3486649999395,68.3486649999395,68.3486649999395,68.71494249999523,68.71494249999523,68.71494249999523,68.71494249999523,68.71494249999523,68.71494249999523,68.71494249999523,68.71494249999523,68.71494249999523,0,1,[0.0012280999217182398],[0.36711749993264675],68.71494249999523,68.91787260002457,1000,68.91787260002457,1000,1000,1000,1000,1,num_2,0.5966201000846922,,30,12,2026-03-12_11h13.35.635,2026A_exp2,2022.2.4,59.95829305673547,
1000,1,3.7,0.0,1,0,8,8,38,,,,,69.53236040007323,70.1832296999637,70.1832296999637,70.68427209998481,45,45,70.68427209998481,70.68427209998481,70.68427209998481,70.68427209998481,70.68427209998481,70.68427209998481,70.68427209998481,70.68427209998481,70.68427209998481,71.03406609990634,71.03406609990634,71.03406609990634,71.03406609990634,71.03406609990634,71.03406609990634,71.03406609990634,71.03406609990634,71.03406609990634,0,1,[0.00123079982586205],[0.3504807997960597],71.03406609990634,71.23425460001454,1000,71.25087559991516,1000,1000,1000,1000,0,num_3,0.4710510999429971,,30,12,2026-03-12_11h13.35.635,2026A_exp2,2022.2.4,59.95829305673547,
1,0,0.0,3.7,1,0,9,9,35,,,,,71.75128509989008,72.40198759990744,72.40198759990744,72.90320540009998,315,45,72.90320540009998,72.90320540009998,72.90320540009998,72.90320540009998,72.90320540009998,72.90320540009998,72.90320540009998,72.90320540009998,72.90320540009998,73.26955930003896,73.26955930003896,73.26955930003896,73.26955930003896,73.26955930003896,73.26955930003896,73.26955930003896,73.26955930003896,73.26955930003896,0,1,[0.0012470998335629702],[0.3670448998454958],73.26955930003896,73.4699711999856,3.7,73.4699711999856,0,3.7,1,0,1000,num_1,0.6134174999315292,,30,12,2026-03-12_11h13.35.635,2026A_exp2,2022.2.4,59.95829305673547,
0,0,6.1,4.9,0,0,10,10,22,,,,,74.10373699991032,74.75440079998225,74.75440079998225,75.25554509996437,315,315,75.25554509996437,75.25554509996437,75.25554509996437,75.25554509996437,75.25554509996437,75.25554509996437,75.25554509996437,75.25554509996437,75.25554509996437,75.62200460000895,75.62200460000895,75.62200460000895,75.62200460000895,75.62200460000895,75.62200460000895,75.62200460000895,75.62200460000895,75.62200460000895,0,1,[0.001452099997550249],[0.3669793999288231],75.62200460000895,75.82219849992543,4.9,75.82219849992543,1,4.9,1,1,1000,num_4,0.8120561998803169,,30,12,2026-03-12_11h13.35.635,2026A_exp2,2022.2.4,59.95829305673547,
1,0,6.1,0.0,1,0,11,11,89,,,,,76.65609889989719,77.30686370003968,77.30686370003968,77.80145090003498,315,45,77.80145090003498,77.80145090003498,77.80145090003498,77.80145090003498,77.80145090003498,77.80145090003498,77.80145090003498,77.80145090003498,77.80145090003498,78.1578047000803,78.1578047000803,78.1578047000803,78.1578047000803,78.1578047000803,78.1578047000803,78.1578047000803,78.1578047000803,78.1578047000803,20,1,[0.0043987000826746225],[0.05137650016695261],78.1578047000803,78.35810650000349,0.0,78.35810650000349,0,0.0,0,1,1000,num_1,0.5560679999180138,,30,12,2026-03-12_11h13.35.635,2026A_exp2,2022.2.4,59.95829305673547,
1000,1,0.0,0.0,1,0,12,12,78,,,,,78.94182529998943,79.59245310002007,79.59245310002007,80.07690309989266,45,315,80.07690309989266,80.07690309989266,80.07690309989266,80.07690309989266,80.07690309989266,80.07690309989266,80.07690309989266,80.07690309989266,80.07690309989266,80.44334040000103,80.44334040000103,80.44334040000103,80.44334040000103,80.44334040000103,80.44334040000103,80.44334040000103,80.44334040000103,80.44334040000103,14,1,[0.0012960999738425016],[0.1498606998939067],80.44334040000103,80.64554980001412,1000,80.64554980001412,1000,1000,1000,1000,1,num_2,0.46899729990400374,,30,12,2026-03-12_11h13.35.635,2026A_exp2,2022.2.4,59.95829305673547,
1000,1,4.9,0.0,1,0,13,13,77,,,,,81.14405629993416,81.79479550011456,81.79479550011456,82.29596340004355,45,315,82.29596340004355,82.29596340004355,82.29596340004355,82.29596340004355,82.29596340004355,82.29596340004355,82.29596340004355,82.29596340004355,82.29596340004355,82.66216349997558,82.66216349997558,82.66216349997558,82.66216349997558,82.66216349997558,82.66216349997558,82.66216349997558,82.66216349997558,82.66216349997558,23,0,,,82.66216349997558,82.86495939991437,1000,82.86495939991437,1000,1000,1000,1000,0,num_3,0.5531356998253614,,30,12,2026-03-12_11h13.35.635,2026A_exp2,2022.2.4,59.95829305673547,
1,0,4.9,0.0,1,0,14,14,65,,,,,83.4463104000315,84.09704450005665,84.09704450005665,84.59823819994926,315,315,84.59823819994926,84.59823819994926,84.59823819994926,84.59823819994926,84.59823819994926,84.59823819994926,84.59823819994926,84.59823819994926,84.59823819994926,84.9645008998923,84.9645008998923,84.9645008998923,84.9645008998923,84.9645008998923,84.9645008998923,84.9645008998923,84.9645008998923,84.9645008998923,5,5,"[0.0012875001411885023, 0.13346530008129776, 0.20006310008466244, 0.28360460000112653, 0.35024490021169186]","[0.11656370013952255, 0.16679230006411672, 0.26677950005978346, 0.33352169999852777, 0.36683790013194084]",84.9645008998923,85.16486730007455,0.0,85.16486730007455,0,0.0,0,1,1000,num_1,0.9025520998984575,,30,12,2026-03-12_11h13.35.635,2026A_exp2,2022.2.4,59.95829305673547,
1,0,4.9,3.7,1,0,15,15,27,,,,,86.08434640010819,86.73299510008655,86.73299510008655,87.23422580002807,315,45,87.23422580002807,87.23422580002807,87.23422580002807,87.23422580002807,87.23422580002807,87.23422580002807,87.23422580002807,87.23422580002807,87.23422580002807,87.60060229990631,87.60060229990631,87.60060229990631,87.60060229990631,87.60060229990631,87.60060229990631,87.60060229990631,87.60060229990631,87.60060229990631,6,2,"[0.001235299976542592, 0.05003709997981787]","[0.03347240015864372, 0.3004187000915408]",87.60060229990631,87.80065930006094,3.7,87.80065930006094,0,3.7,1,0,1000,num_1,0.6339890998788178,,30,12,2026-03-12_11h13.35.635,2026A_exp2,2022.2.4,59.95829305673547,
0,0,0.0,0.0,1,0,16,16,2,,,,,88.45131419994868,89.10210729995742,89.10210729995742,89.58646810008213,45,315,89.58646810008213,89.58646810008213,89.58646810008213,89.58646810008213,89.58646810008213,89.58646810008213,89.58646810008213,89.58646810008213,89.58646810008213,89.95294209988788,89.95294209988788,89.95294209988788,89.95294209988788,89.95294209988788,89.95294209988788,89.95294209988788,89.95294209988788,89.95294209988788,0,1,[0.0012479000724852085],[0.36698020016774535],89.95294209988788,90.15314280008897,0.0,90.15314280008897,0,0.0,0,1,1000,num_1,0.36214829981327057,,30,12,2026-03-12_11h13.35.635,2026A_exp2,2022.2.4,59.95829305673547,
1000,1,4.9,0.0,0,0,17,17,54,,,,,90.53672829992138,91.18737880000845,91.18737880000845,91.67176669999026,315,45,91.67176669999026,91.67176669999026,91.67176669999026,91.67176669999026,91.67176669999026,91.67176669999026,91.67176669999026,91.67176669999026,91.67176669999026,92.0385779000353,92.0385779000353,92.0385779000353,92.0385779000353,92.0385779000353,92.0385779000353,92.0385779000353,92.0385779000353,92.0385779000353,0,1,[0.0012423000298440456],[0.36687590018846095],92.0385779000353,92.24093200010248,1000,92.24093200010248,1000,1000,1000,1000,0,num_3,0.5137060999404639,,30,12,2026-03-12_11h13.35.635,2026A_exp2,2022.2.4,59.95829305673547,
1,0,0.0,0.0,0,0,18,18,24,,,,,92.7723246999085,93.42312759999186,93.42312759999186,93.92410490009934,45,315,93.92410490009934,93.92410490009934,93.92410490009934,93.92410490009934,93.92410490009934,93.92410490009934,93.92410490009934,93.92410490009934,93.92410490009934,94.2906287999358,94.2906287999358,94.2906287999358,94.2906287999358,94.2906287999358,94.2906287999358,94.2906287999358,94.2906287999358,94.2906287999358,22,1,[0.1334168000612408],[0.1498488001525402],94.2906287999358,94.49091190006584,0.0,94.49091190006584,0,0.0,0,1,1000,num_1,0.42369589977897704,,30,12,2026-03-12_11h13.35.635,2026A_exp2,2022.2.4,59.95829305673547,
1000,1,3.7,4.9,0,0,19,19,45,,,,,94.94108680007048,95.59181330003776,95.59181330003776,96.07630220009014,315,315,96.07630220009014,96.07630220009014,96.07630220009014,96.07630220009014,96.07630220009014,96.07630220009014,96.07630220009014,96.07630220009014,96.07630220009014,96.44274590001442,96.44274590001442,96.44274590001442,96.44274590001442,96.44274590001442,96.44274590001442,96.44274590001442,96.44274590001442,96.44274590001442,0,1,[0.0012610999401658773],[0.36701549985446036],96.44274590001442,96.64549500006251,1000,96.64549500006251,1000,1000,1000,1000,1,num_2,0.669568199897185,,30,12,2026-03-12_11h13.35.635,2026A_exp2,2022.2.4,59.95829305673547,
0,0,6.1,0.0,0,0,20,20,74,,,,,97.3438122998923,97.99427179992199,97.99427179992199,98.4787634999957,315,45,98.4787634999957,98.4787634999957,98.4787634999957,98.4787634999957,98.4787634999957,98.4787634999957,98.4787634999957,98.4787634999957,98.4787634999957,98.84523890004493,98.84523890004493,98.84523890004493,98.84523890004493,98.84523890004493,98.84523890004493,98.84523890004493,98.84523890004493,98.84523890004493,3,1,[0.0007326998747885227],[0.3342929999344051],98.84523890004493,99.04534410010092,0.0,99.04534410010092,0,0.0,0,1,1000,num_1,0.5967043999116868,,30,12,2026-03-12_11h13.35.635,2026A_exp2,2022.2.4,59.95829305673547,
0,0,0.0,0.0,0,0,21,21,59,,,,,99.66250379988924,100.31338170007803,100.31338170007803,100.7977491999045,45,45,100.7977491999045,100.7977491999045,100.7977491999045,100.7977491999045,100.7977491999045,100.7977491999045,100.7977491999045,100.7977491999045,100.7977491999045,101.16418550000526,101.16418550000526,101.16418550000526,101.16418550000526,101.16418550000526,101.16418550000526,101.16418550000526,101.16418550000526,101.16418550000526,21,3,"[0.001299200113862753, 0.033409800147637725, 0.0668407001066953]","[0.01730250008404255, 0.05012809997424483, 0.08344850013963878]",101.16418550000526,101.36440830002539,0.0,101.36440830002539,0,0.0,0,1,1000,num_1,0.3187794997356832,,30,12,2026-03-12_11h13.35.635,2026A_exp2,2022.2.4,59.95829305673547,
1000,1,6.1,3.7,0,0,22,22,75,,,,,101.71450780006126,102.36537489993498,102.36537489993498,102.84964839997701,45,315,102.84964839997701,102.84964839997701,102.84964839997701,102.84964839997701,102.84964839997701,102.84964839997701,102.84964839997701,102.84964839997701,102.84964839997701,103.21608770010062,103.21608770010062,103.21608770010062,103.21608770010062,103.21608770010062,103.21608770010062,103.21608770010062,103.21608770010062,103.21608770010062,23,0,,,103.21608770010062,103.41895460011438,1000,103.41895460011438,1000,1000,1000,1000,0,num_3,0.3989685997366905,,30,12,2026-03-12_11h13.35.635,2026A_exp2,2022.2.4,59.95829305673547,
1,0,6.1,0.0,1,0,23,23,70,,,,,103.83340559992939,104.48405300010927,104.48405300010927,104.98517820006236,45,45,104.98517820006236,104.98517820006236,104.98517820006236,104.98517820006236,104.98517820006236,104.98517820006236,104.98517820006236,104.98517820006236,104.98517820006236,105.3516581999138,105.3516581999138,105.3516581999138,105.3516581999138,105.3516581999138,105.3516581999138,105.3516581999138,105.3516581999138,105.3516581999138,23,0,,,105.3516581999138,105.5518392000813,0.0,105.5518392000813,0,0.0,0,1,1000,num_1,0.6989715998061001,,30,12,2026-03-12_11h13.35.635,2026A_exp2,2022.2.4,59.95829305673547,
1,0,6.1,4.9,1,0,24,24,64,,,,,106.26916910009459,106.91993450000882,106.91993450000882,107.4043908000458,315,315,107.4043908000458,107.4043908000458,107.4043908000458,107.4043908000458,107.4043908000458,107.4043908000458,107.4043908000458,107.4043908000458,107.4043908000458,107.77078570006415,107.77078570006415,107.77078570006415,107.77078570006415,107.77078570006415,107.77078570006415,107.77078570006415,107.77078570006415,107.77078570006415,23,0,,,107.77078570006415,107.97094959998503,4.9,107.97094959998503,0,4.9,1,0,1000,num_1,2.312480099964887,,30,12,2026-03-12_11h13.35.635,2026A_exp2,2022.2.4,59.95829305673547,
1000,1,0.0,0.0,0,0,25,25,5,,,,,110.3065273000393,110.95729449996725,110.95729449996725,111.44186759996228,315,315,111.44186759996228,111.44186759996228,111.44186759996228,111.44186759996228,111.44186759996228,111.44186759996228,111.44186759996228,111.44186759996228,111.44186759996228,111.8081433000043,111.8081433000043,111.8081433000043,111.8081433000043,111.8081433000043,111.8081433000043,111.8081433000043,111.8081433000043,111.8081433000043,23,0,,,111.8081433000043,112.0106065000873,1000,112.0106065000873,1000,1000,1000,1000,1,num_2,1.0402842999901623,,30,12,2026-03-12_11h13.35.635,2026A_exp2,2022.2.4,59.95829305673547,
1,0,0.0,0.0,1,0,26,26,49,,,,,113.07597150001675,113.72685150010511,113.72685150010511,114.2284405999817,315,45,114.2284405999817,114.2284405999817,114.2284405999817,114.2284405999817,114.2284405999817,114.2284405999817,114.2284405999817,114.2284405999817,114.2284405999817,114.59419479989447,114.59419479989447,114.59419479989447,114.59419479989447,114.59419479989447,114.59419479989447,114.59419479989447,114.59419479989447,114.59419479989447,24,0,,,114.59419479989447,114.7944593001157,0.0,114.7944593001157,0,0.0,0,1,1000,num_1,0.584557400085032,,30,12,2026-03-12_11h13.35.635,2026A_exp2,2022.2.4,59.95829305673547,
1000,1,0.0,6.1,1,0,27,27,43,,,,,115.39489219989628,116.04568489990197,116.04568489990197,116.53007089998573,45,45,116.53007089998573,116.53007089998573,116.53007089998573,116.53007089998573,116.53007089998573,116.53007089998573,116.53007089998573,116.53007089998573,116.53007089998573,116.8964708999265,116.8964708999265,116.8964708999265,116.8964708999265,116.8964708999265,116.8964708999265,116.8964708999265,116.8964708999265,116.8964708999265,23,0,,,116.8964708999265,117.09930710005574,1000,117.09930710005574,1000,1000,1000,1000,1,num_2,0.43916379986330867,,30,12,2026-03-12_11h13.35.635,2026A_exp2,2022.2.4,59.95829305673547,
1000,1,0.0,0.0,0,0,28,28,15,,,,,117.56382900010794,118.214370300062,118.214370300062,118.71563849993981,45,45,118.71563849993981,118.71563849993981,118.71563849993981,118.71563849993981,118.71563849993981,118.71563849993981,118.71563849993981,118.71563849993981,118.71563849993981,119.08203150006011,119.08203150006011,119.08203150006011,119.08203150006011,119.08203150006011,119.08203150006011,119.08203150006011,119.08203150006011,119.08203150006011,23,0,,,119.08203150006011,119.28424019995145,1000,119.28424019995145,1000,1000,1000,1000,1,num_2,0.65474579972215,,30,12,2026-03-12_11h13.35.635,2026A_exp2,2022.2.4,59.95829305673547,
1,0,0.0,3.7,1,0,29,29,32,,,,,119.96616569999605,120.61695350008085,120.61695350008085,121.11808099993505,45,315,121.11808099993505,121.11808099993505,121.11808099993505,121.11808099993505,121.11808099993505,121.11808099993505,121.11808099993505,121.11808099993505,121.11808099993505,121.48444449994713,121.48444449994713,121.48444449994713,121.48444449994713,121.48444449994713,121.48444449994713,121.48444449994713,121.48444449994713,121.48444449994713,23,0,,,121.48444449994713,121.68465530010872,3.7,121.68465530010872,0,3.7,1,0,1000,num_1,0.6386319000739604,,30,12,2026-03-12_11h13.35.635,2026A_exp2,2022.2.4,59.95829305673547,
1,0,3.7,3.7,1,0,30,30,30,,,,,122.35209659999236,123.0025728000328,123.0025728000328,123.50380100007169,45,45,123.50380100007169,123.50380100007169,123.50380100007169,123.50380100007169,123.50380100007169,123.50380100007169,123.50380100007169,123.50380100007169,123.50380100007169,123.87004070007242,123.87004070007242,123.87004070007242,123.87004070007242,123.87004070007242,123.87004070007242,123.87004070007242,123.87004070007242,123.87004070007242,23,0,,,123.87004070007242,124.08331830007955,3.7,124.08331830007955,0,3.7,1,0,1000,num_1,0.7910292998421937,,30,12,2026-03-12_11h13.35.635,2026A_exp2,2022.2.4,59.95829305673547,
1000,1,6.1,0.0,1,0,31,31,57,,,,,124.90444550011307,125.55787090002559,125.55787090002559,126.04467620002106,45,315,126.04467620002106,126.04467620002106,126.04467620002106,126.04467620002106,126.04467620002106,126.04467620002106,126.04467620002106,126.04467620002106,126.04467620002106,126.4061636000406,126.4061636000406,126.4061636000406,126.4061636000406,126.4061636000406,126.4061636000406,126.4061636000406,126.4061636000406,126.4061636000406,23,0,,,126.4061636000406,126.6062694999855,1000,126.6062694999855,1000,1000,1000,1000,0,num_3,0.3567493997979909,,30,12,2026-03-12_11h13.35.635,2026A_exp2,2022.2.4,59.95829305673547,
1,0,6.1,4.9,1,0,32,32,11,,,,,126.98989779991098,127.64068030007184,127.64068030007184,128.14166940003633,45,45,128.14166940003633,128.14166940003633,128.14166940003633,128.14166940003633,128.14166940003633,128.14166940003633,128.14166940003633,128.14166940003633,128.14166940003633,128.50816350011155,128.50816350011155,128.50816350011155,128.50816350011155,128.50816350011155,128.50816350011155,128.50816350011155,128.50816350011155,128.50816350011155,23,0,,,128.50816350011155,128.70836509997025,4.9,128.70836509997025,0,4.9,1,0,1000,num_1,0.6384357998613268,,30,12,2026-03-12_11h13.35.635,2026A_exp2,2022.2.4,59.95829305673547,
1,0,6.1,6.1,1,0,33,33,23,,,,,129.37561189988628,130.02639269991778,130.02639269991778,130.5109228999354,45,45,130.5109228999354,130.5109228999354,130.5109228999354,130.5109228999354,130.5109228999354,130.5109228999354,130.5109228999354,130.5109228999354,130.5109228999354,130.87701690010726,130.87701690010726,130.87701690010726,130.87701690010726,130.87701690010726,130.87701690010726,130.87701690010726,130.87701690010726,130.87701690010726,23,0,,,130.87701690010726,131.07744650007226,6.1,131.07744650007226,1,6.1,1,1,1000,num_4,0.9325749999843538,,30,12,2026-03-12_11h13.35.635,2026A_exp2,2022.2.4,59.95829305673547,
1000,1,4.9,4.9,1,0,34,34,68,,,,,132.02822969993576,132.67906380002387,132.67906380002387,133.16339199990034,315,45,133.16339199990034,133.16339199990034,133.16339199990034,133.16339199990034,133.16339199990034,133.16339199990034,133.16339199990034,133.16339199990034,133.16339199990034,133.52985220006667,133.52985220006667,133.52985220006667,133.52985220006667,133.52985220006667,133.52985220006667,133.52985220006667,133.52985220006667,133.52985220006667,23,0,,,133.52985220006667,133.73264129995368,1000,133.73264129995368,1000,1000,1000,1000,1,num_2,0.5975197998341173,,30,12,2026-03-12_11h13.35.635,2026A_exp2,2022.2.4,59.95829305673547,
1,0,0.0,4.9,0,0,35,35,73,,,,,134.3472180000972,134.99801429989748,134.99801429989748,135.4990594999399,45,315,135.4990594999399,135.4990594999399,135.4990594999399,135.4990594999399,135.4990594999399,135.4990594999399,135.4990594999399,135.4990594999399,135.4990594999399,135.865537900012,135.865537900012,135.865537900012,135.865537900012,135.865537900012,135.865537900012,135.865537900012,135.865537900012,135.865537900012,23,0,,,135.865537900012,136.065730500035,0.0,136.065730500035,0,0.0,0,1,1000,num_1,0.5761418999172747,,30,12,2026-03-12_11h13.35.635,2026A_exp2,2022.2.4,59.95829305673547,
1,0,0.0,6.1,1,0,36,36,31,,,,,136.66616840008646,137.31699030008167,137.31699030008167,137.80132080009207,45,315,137.80132080009207,137.80132080009207,137.80132080009207,137.80132080009207,137.80132080009207,137.80132080009207,137.80132080009207,137.80132080009207,137.80132080009207,138.16779200010933,138.16779200010933,138.16779200010933,138.16779200010933,138.16779200010933,138.16779200010933,138.16779200010933,138.16779200010933,138.16779200010933,23,0,,,138.16779200010933,138.3680668999441,6.1,138.3680668999441,1,6.1,1,1,1000,num_4,0.4500736996997148,,30,12,2026-03-12_11h13.35.635,2026A_exp2,2022.2.4,59.95829305673547,
1000,1,0.0,0.0,1,0,37,37,85,,,,,138.83507920010015,139.48542389995418,139.48542389995418,139.97025589994155,45,315,139.97025589994155,139.97025589994155,139.97025589994155,139.97025589994155,139.97025589994155,139.97025589994155,139.97025589994155,139.97025589994155,139.97025589994155,140.33667210000567,140.33667210000567,140.33667210000567,140.33667210000567,140.33667210000567,140.33667210000567,140.33667210000567,140.33667210000567,140.33667210000567,22,1,[0.0014148000627756119],[0.01758949994109571],140.33667210000567,140.53906910005026,1000,140.53906910005026,1000,1000,1000,1000,1,num_2,0.5037026999052614,,30,12,2026-03-12_11h13.35.635,2026A_exp2,2022.2.4,59.95829305673547,
1,0,0.0,6.1,1,0,38,38,50,,,,,141.07064049993642,141.72138529992662,141.72138529992662,142.2224604000803,315,45,142.2224604000803,142.2224604000803,142.2224604000803,142.2224604000803,142.2224604000803,142.2224604000803,142.2224604000803,142.2224604000803,142.2224604000803,142.58953010011464,142.58953010011464,142.58953010011464,142.58953010011464,142.58953010011464,142.58953010011464,142.58953010011464,142.58953010011464,142.58953010011464,23,0,,,142.58953010011464,142.789178899955,6.1,142.789178899955,1,6.1,1,1,1000,num_4,0.8133845999836922,,30,12,2026-03-12_11h13.35.635,2026A_exp2,2022.2.4,59.95829305673547,
1000,1,0.0,4.9,0,0,39,39,61,,,,,143.62318219989538,144.27385509992018,144.27385509992018,144.75844989996403,315,45,144.75844989996403,144.75844989996403,144.75844989996403,144.75844989996403,144.75844989996403,144.75844989996403,144.75844989996403,144.75844989996403,144.75844989996403,145.12470760010183,145.12470760010183,145.12470760010183,145.12470760010183,145.12470760010183,145.12470760010183,145.12470760010183,145.12470760010183,145.12470760010183,20,1,[0.0012479000724852085],[0.05012240004725754],145.12470760010183,145.32645959989168,1000,145.32645959989168,1000,1000,1000,1000,1,num_2,1.0354901999235153,,30,12,2026-03-12_11h13.35.635,2026A_exp2,2022.2.4,59.95829305673547,
1000,1,0.0,0.0,0,0,40,40,86,,,,,146.39261270011775,147.04323099995963,147.04323099995963,147.54433030006476,315,315,147.54433030006476,147.54433030006476,147.54433030006476,147.54433030006476,147.54433030006476,147.54433030006476,147.54433030006476,147.54433030006476,147.54433030006476,147.9108706000261,147.9108706000261,147.9108706000261,147.9108706000261,147.9108706000261,147.9108706000261,147.9108706000261,147.9108706000261,147.9108706000261,23,0,,,147.9108706000261,148.1133234000299,1000,148.1133234000299,1000,1000,1000,1000,1,num_2,0.8971899000462145,,30,12,2026-03-12_11h13.35.635,2026A_exp2,2022.2.4,59.95829305673547,
1000,1,6.1,0.0,0,0,41,41,81,,,,,149.028540099971,149.6793756999541,149.6793756999541,150.1942660000641,315,45,150.1942660000641,150.1942660000641,150.1942660000641,150.1942660000641,150.1942660000641,150.1942660000641,150.1942660000641,150.1942660000641,150.1942660000641,150.53014559997246,150.53014559997246,150.53014559997246,150.53014559997246,150.53014559997246,150.53014559997246,150.53014559997246,150.53014559997246,150.53014559997246,10,1,[0.004078600089997053],[0.19770470005460083],150.53014559997246,150.73238059994765,1000,150.74720279988833,1000,1000,1000,1000,0,num_3,0.6310876000206918,,30,12,2026-03-12_11h13.35.635,2026A_exp2,2022.2.4,59.95829305673547,
1,0,0.0,0.0,0,0,42,42,79,,,,,151.3975651001092,152.04825520003214,152.04825520003214,152.54943490005098,45,315,152.54943490005098,152.54943490005098,152.54943490005098,152.54943490005098,152.54943490005098,152.54943490005098,152.54943490005098,152.54943490005098,152.54943490005098,152.8992208999116,152.8992208999116,152.8992208999116,152.8992208999116,152.8992208999116,152.8992208999116,152.8992208999116,152.8992208999116,152.8992208999116,21,1,[0.033385299844667315],[0.05024080001749098],152.8992208999116,153.09947180002928,0.0,153.09947180002928,0,0.0,0,1,1000,num_1,0.2309876000508666,,30,12,2026-03-12_11h13.35.635,2026A_exp2,2022.2.4,59.95829305673547,
1000,1,3.7,3.7,0,0,43,43,72,,,,,153.34953669994138,154.000199199887,154.000199199887,154.4847037999425,45,45,154.4847037999425,154.4847037999425,154.4847037999425,154.4847037999425,154.4847037999425,154.4847037999425,154.4847037999425,154.4847037999425,154.4847037999425,154.85119939991273,154.85119939991273,154.85119939991273,154.85119939991273,154.85119939991273,154.85119939991273,154.85119939991273,154.85119939991273,154.85119939991273,23,0,,,154.85119939991273,155.05383350001648,1000,155.05383350001648,1000,1000,1000,1000,1,num_2,0.45349569991230965,,30,12,2026-03-12_11h13.35.635,2026A_exp2,2022.2.4,59.95829305673547,
1000,1,4.9,3.7,0,0,44,44,40,,,,,155.5351577999536,156.1857932000421,156.1857932000421,156.6867837999016,315,315,156.6867837999016,156.6867837999016,156.6867837999016,156.6867837999016,156.6867837999016,156.6867837999016,156.6867837999016,156.6867837999016,156.6867837999016,157.05322410003282,157.05322410003282,157.05322410003282,157.05322410003282,157.05322410003282,157.05322410003282,157.05322410003282,157.05322410003282,157.05322410003282,23,0,,,157.05322410003282,157.25618760008365,1000,157.25618760008365,1000,1000,1000,1000,1,num_2,0.4417239998001605,,30,12,2026-03-12_11h13.35.635,2026A_exp2,2022.2.4,59.95829305673547,
1000,1,0.0,0.0,1,0,45,45,9,,,,,157.72044720011763,158.35461229993962,158.35461229993962,158.8557919000741,45,45,158.8557919000741,158.8557919000741,158.8557919000741,158.8557919000741,158.8557919000741,158.8557919000741,158.8557919000741,158.8557919000741,158.8557919000741,159.222246899968,159.222246899968,159.222246899968,159.222246899968,159.222246899968,159.222246899968,159.222246899968,159.222246899968,159.222246899968,16,1,[0.0012312999460846186],[0.11707729985937476],159.222246899968,159.42465050006285,1000,159.42465050006285,1000,1000,1000,1000,1,num_2,0.4980581998825073,,30,12,2026-03-12_11h13.35.635,2026A_exp2,2022.2.4,59.95829305673547,
1000,1,3.7,0.0,0,0,46,46,56,,,,,159.93955249991268,160.59035820001736,160.59035820001736,161.0913811000064,315,315,161.0913811000064,161.0913811000064,161.0913811000064,161.0913811000064,161.0913811000064,161.0913811000064,161.0913811000064,161.0913811000064,161.0913811000064,161.45766189997084,161.45766189997084,161.45766189997084,161.45766189997084,161.45766189997084,161.45766189997084,161.45766189997084,161.45766189997084,161.45766189997084,23,0,,,161.45766189997084,161.66020760009997,1000,161.66020760009997,1000,1000,1000,1000,1,num_2,0.510783199686557,,30,12,2026-03-12_11h13.35.635,2026A_exp2,2022.2.4,59.95829305673547,
1000,1,0.0,3.7,0,0,47,47,46,,,,,162.19175600004382,162.8426230000332,162.8426230000332,163.34623729996383,315,45,163.34623729996383,163.34623729996383,163.34623729996383,163.34623729996383,163.34623729996383,163.34623729996383,163.34623729996383,163.34623729996383,163.34623729996383,163.70993039989844,163.70993039989844,163.70993039989844,163.70993039989844,163.70993039989844,163.70993039989844,163.70993039989844,163.70993039989844,163.70993039989844,23,0,,,163.70993039989844,163.91252160002477,1000,163.91252160002477,1000,1000,1000,1000,1,num_2,0.46538519975729287,,30,12,2026-03-12_11h13.35.635,2026A_exp2,2022.2.4,59.95829305673547,
1000,1,0.0,3.7,1,0,48,48,13,,,,,164.3940437999554,165.04473960003816,165.04473960003816,165.52900160010904,45,45,165.52900160010904,165.52900160010904,165.52900160010904,165.52900160010904,165.52900160010904,165.52900160010904,165.52900160010904,165.52900160010904,165.52900160010904,165.89550310000777,165.89550310000777,165.89550310000777,165.89550310000777,165.89550310000777,165.89550310000777,165.89550310000777,165.89550310000777,165.89550310000777,0,1,[0.0015116999857127666],[0.3667033000383526],165.89550310000777,166.09764240006916,1000,166.09764240006916,1000,1000,1000,1000,1,num_2,0.4725110998842865,,30,12,2026-03-12_11h13.35.635,2026A_exp2,2022.2.4,59.95829305673547,
1,0,0.0,0.0,0,0,49,49,88,,,,,166.59658419992775,167.24698830000125,167.24698830000125,167.7480303000193,45,315,167.7480303000193,167.7480303000193,167.7480303000193,167.7480303000193,167.7480303000193,167.7480303000193,167.7480303000193,167.7480303000193,167.7480303000193,168.1142591999378,168.1142591999378,168.1142591999378,168.1142591999378,168.1142591999378,168.1142591999378,168.1142591999378,168.1142591999378,168.1142591999378,1,2,"[0.0011130999773740768, 0.033715000143274665]","[0.017598900012671947, 0.36731850006617606]",168.1142591999378,168.31468529999256,0.0,168.31468529999256,0,0.0,0,1,1000,num_1,0.4393892998341471,,30,12,2026-03-12_11h13.35.635,2026A_exp2,2022.2.4,59.95829305673547,
0,0,0.0,3.7,0,0,50,50,34,,,,,168.78190609999,169.43242130009457,169.43242130009457,169.91679510008544,45,45,169.91679510008544,169.91679510008544,169.91679510008544,169.91679510008544,169.91679510008544,169.91679510008544,169.91679510008544,169.91679510008544,169.91679510008544,170.28309780010022,170.28309780010022,170.28309780010022,170.28309780010022,170.28309780010022,170.28309780010022,170.28309780010022,170.28309780010022,170.28309780010022,11,2,"[0.0012755000498145819, 0.16698410012759268]","[0.15009939996525645, 0.21694600000046194]",170.28309780010022,170.4835208998993,3.7,170.4835208998993,1,3.7,1,1,1000,num_4,0.719221199862659,,30,12,2026-03-12_11h13.35.635,2026A_exp2,2022.2.4,59.95829305673547,
1000,1,6.1,0.0,1,0,51,51,29,,,,,171.2341428999789,171.87589820008725,171.87589820008725,172.37506059999578,45,315,172.37506059999578,172.37506059999578,172.37506059999578,172.37506059999578,172.37506059999578,172.37506059999578,172.37506059999578,172.37506059999578,172.37506059999578,172.7356690999586,172.7356690999586,172.7356690999586,172.7356690999586,172.7356690999586,172.7356690999586,172.7356690999586,172.7356690999586,172.7356690999586,23,0,,,172.7356690999586,172.93786439998075,1000,172.93786439998075,1000,1000,1000,1000,0,num_3,0.5212556996848434,,30,12,2026-03-12_11h13.35.635,2026A_exp2,2022.2.4,59.95829305673547,
1,0,0.0,6.1,0,0,52,52,0,,,,,173.4863416000735,174.13711400004104,174.13711400004104,174.63819240010343,45,315,174.63819240010343,174.63819240010343,174.63819240010343,174.63819240010343,174.63819240010343,174.63819240010343,174.63819240010343,174.63819240010343,174.63819240010343,175.00465249991976,175.00465249991976,175.00465249991976,175.00465249991976,175.00465249991976,175.00465249991976,175.00465249991976,175.00465249991976,175.00465249991976,23,0,,,175.00465249991976,175.20488120010123,0.0,175.20488120010123,0,0.0,0,1,1000,num_1,0.7332403000909835,,30,12,2026-03-12_11h13.35.635,2026A_exp2,2022.2.4,59.95829305673547,
1000,1,3.7,6.1,1,0,53,53,58,,,,,175.95540109998547,176.60621790005825,176.60621790005825,177.09056650009006,315,45,177.09056650009006,177.09056650009006,177.09056650009006,177.09056650009006,177.09056650009006,177.09056650009006,177.09056650009006,177.09056650009006,177.09056650009006,177.45710030011833,177.45710030011833,177.45710030011833,177.45710030011833,177.45710030011833,177.45710030011833,177.45710030011833,177.45710030011833,177.45710030011833,21,1,[0.001229400048032403],[0.03351119998842478],177.45710030011833,177.6597859999165,1000,177.6597859999165,1000,1000,1000,1000,1,num_2,0.407593899872154,,30,12,2026-03-12_11h13.35.635,2026A_exp2,2022.2.4,59.95829305673547,
1,0,3.7,6.1,0,0,54,54,52,,,,,178.09098610002548,178.74170070001855,178.74170070001855,179.24280630005524,45,45,179.24280630005524,179.24280630005524,179.24280630005524,179.24280630005524,179.24280630005524,179.24280630005524,179.24280630005524,179.24280630005524,179.24280630005524,179.60937230009586,179.60937230009586,179.60937230009586,179.60937230009586,179.60937230009586,179.60937230009586,179.60937230009586,179.60937230009586,179.60937230009586,23,0,,,179.60937230009586,179.80967270000838,3.7,179.80967270000838,0,3.7,1,0,1000,num_1,0.5050273998640478,,30,12,2026-03-12_11h13.35.635,2026A_exp2,2022.2.4,59.95829305673547,
0,0,3.7,0.0,0,0,55,55,62,,,,,180.34321000007913,180.9938189999666,180.9938189999666,181.47833249997348,315,315,181.47833249997348,181.47833249997348,181.47833249997348,181.47833249997348,181.47833249997348,181.47833249997348,181.47833249997348,181.47833249997348,181.47833249997348,181.84464400005527,181.84464400005527,181.84464400005527,181.84464400005527,181.84464400005527,181.84464400005527,181.84464400005527,181.84464400005527,181.84464400005527,23,0,,,181.84464400005527,182.0450663000811,0.0,182.0450663000811,0,0.0,0,1,1000,num_1,0.6537120998837054,,30,12,2026-03-12_11h13.35.635,2026A_exp2,2022.2.4,59.95829305673547,
1000,1,6.1,0.0,1,0,56,56,25,,,,,182.72903460008092,183.36895320005715,183.36895320005715,183.86425599991344,45,315,183.86425599991344,183.86425599991344,183.86425599991344,183.86425599991344,183.86425599991344,183.86425599991344,183.86425599991344,183.86425599991344,183.86425599991344,184.23061689990573,184.23061689990573,184.23061689990573,184.23061689990573,184.23061689990573,184.23061689990573,184.23061689990573,184.23061689990573,184.23061689990573,17,1,[0.0012565001379698515],[0.10009409999474883],184.23061689990573,184.43250479991548,1000,184.43250479991548,1000,1000,1000,1000,0,num_3,0.5143235998693854,,30,12,2026-03-12_11h13.35.635,2026A_exp2,2022.2.4,59.95829305673547,
1,0,3.7,0.0,1,0,57,57,12,,,,,184.96446819999255,185.61520190001465,185.61520190001465,186.11646419996396,315,315,186.11646419996396,186.11646419996396,186.11646419996396,186.11646419996396,186.11646419996396,186.11646419996396,186.11646419996396,186.11646419996396,186.11646419996396,186.4827580000274,186.4827580000274,186.4827580000274,186.4827580000274,186.4827580000274,186.4827580000274,186.4827580000274,186.4827580000274,186.4827580000274,23,0,,,186.4827580000274,186.68300929991528,0.0,186.68300929991528,0,0.0,0,1,1000,num_1,0.5198492000345141,,30,12,2026-03-12_11h13.35.635,2026A_exp2,2022.2.4,59.95829305673547,
1,0,0.0,4.9,0,0,58,58,3,,,,,187.2333321000915,187.88416839996353,187.88416839996353,188.36860710009933,315,45,188.36860710009933,188.36860710009933,188.36860710009933,188.36860710009933,188.36860710009933,188.36860710009933,188.36860710009933,188.36860710009933,188.36860710009933,188.73497830005363,188.73497830005363,188.73497830005363,188.73497830005363,188.73497830005363,188.73497830005363,188.73497830005363,188.73497830005363,188.73497830005363,23,0,,,188.73497830005363,188.93529250007123,0.0,188.93529250007123,0,0.0,0,1,1000,num_1,0.6033219997771084,,30,12,2026-03-12_11h13.35.635,2026A_exp2,2022.2.4,59.95829305673547,
0,0,4.9,0.0,1,0,59,59,67,,,,,189.55491670011543,190.20317850005813,190.20317850005813,190.7044387999922,315,45,190.7044387999922,190.7044387999922,190.7044387999922,190.7044387999922,190.7044387999922,190.7044387999922,190.7044387999922,190.7044387999922,190.7044387999922,191.07067889999598,191.07067889999598,191.07067889999598,191.07067889999598,191.07067889999598,191.07067889999598,191.07067889999598,191.07067889999598,191.07067889999598,20,1,[0.0012533001136034727],[0.050217000069096684],191.07067889999598,191.27071850001812,4.9,191.27071850001812,0,4.9,1,0,1000,num_1,0.38773799990303814,,30,12,2026-03-12_11h13.35.635,2026A_exp2,2022.2.4,59.95829305673547,
1,0,0.0,0.0,1,0,60,60,39,,,,,191.68863119999878,192.3386452998966,192.3386452998966,192.8397607000079,315,45,192.8397607000079,192.8397607000079,192.8397607000079,192.8397607000079,192.8397607000079,192.8397607000079,192.8397607000079,192.8397607000079,192.8397607000079,193.20618119998835,193.20618119998835,193.20618119998835,193.20618119998835,193.20618119998835,193.20618119998835,193.20618119998835,193.20618119998835,193.20618119998835,0,1,[0.0012566999066621065],[0.36714069987647235],193.20618119998835,193.40667929989286,0.0,193.40667929989286,0,0.0,0,1,1000,num_1,0.22788170003332198,,30,12,2026-03-12_11h13.35.635,2026A_exp2,2022.2.4,59.95829305673547,
1000,1,3.7,0.0,1,0,61,61,19,,,,,193.65644520008937,194.30722550000064,194.30722550000064,194.79163999995217,45,45,194.79163999995217,194.79163999995217,194.79163999995217,194.79163999995217,194.79163999995217,194.79163999995217,194.79163999995217,194.79163999995217,194.79163999995217,195.15820769988932,195.15820769988932,195.15820769988932,195.15820769988932,195.15820769988932,195.15820769988932,195.15820769988932,195.15820769988932,195.15820769988932,5,2,"[0.050069999881088734, 0.1334599000401795]","[0.1001651999540627, 0.36699349991977215]",195.15820769988932,195.360777300084,1000,195.360777300084,1000,1000,1000,1000,1,num_2,0.897880699718371,,30,12,2026-03-12_11h13.35.635,2026A_exp2,2022.2.4,59.95829305673547,
1,0,0.0,0.0,0,0,62,62,55,,,,,196.27587140002288,196.92653560009785,196.92653560009785,197.4277230000589,315,315,197.4277230000589,197.4277230000589,197.4277230000589,197.4277230000589,197.4277230000589,197.4277230000589,197.4277230000589,197.4277230000589,197.4277230000589,197.79397169989534,197.79397169989534,197.79397169989534,197.79397169989534,197.79397169989534,197.79397169989534,197.79397169989534,197.79397169989534,197.79397169989534,0,1,[0.0012657998595386744],[0.36727849999442697],197.79397169989534,197.99432649998926,0.0,197.99432649998926,0,0.0,0,1,1000,num_1,0.30406149988994,,30,12,2026-03-12_11h13.35.635,2026A_exp2,2022.2.4,59.95829305673547,
1,0,6.1,0.0,0,0,63,63,82,,,,,198.32793839997612,198.9785225999076,198.9785225999076,199.4629561000038,315,315,199.4629561000038,199.4629561000038,199.4629561000038,199.4629561000038,199.4629561000038,199.4629561000038,199.4629561000038,199.4629561000038,199.4629561000038,199.8295189999044,199.8295189999044,199.8295189999044,199.8295189999044,199.8295189999044,199.8295189999044,199.8295189999044,199.8295189999044,199.8295189999044,0,1,[0.0012379998806864023],[0.3673149000387639],199.8295189999044,200.0296132999938,6.1,200.0296132999938,1,6.1,1,1,1000,num_4,1.1810731999576092,,30,12,2026-03-12_11h13.35.635,2026A_exp2,2022.2.4,59.95829305673547,
1000,1,6.1,6.1,0,0,64,64,16,,,,,201.2308116001077,201.86489349999465,201.86489349999465,202.36598589993082,315,45,202.36598589993082,202.36598589993082,202.36598589993082,202.36598589993082,202.36598589993082,202.36598589993082,202.36598589993082,202.36598589993082,202.36598589993082,202.73242000001483,202.73242000001483,202.73242000001483,202.73242000001483,202.73242000001483,202.73242000001483,202.73242000001483,202.73242000001483,202.73242000001483,0,1,[0.0010794000700116158],[0.3672970999032259],202.73242000001483,202.93501239991747,1000,202.93501239991747,1000,1000,1000,1000,1,num_2,0.49884149990975857,,30,12,2026-03-12_11h13.35.635,2026A_exp2,2022.2.4,59.95829305673547,
1,0,0.0,0.0,1,0,65,65,69,,,,,203.44969119993038,204.10037039988674,204.10037039988674,204.60160159994848,315,315,204.60160159994848,204.60160159994848,204.60160159994848,204.60160159994848,204.60160159994848,204.60160159994848,204.60160159994848,204.60160159994848,204.60160159994848,204.96801949990913,204.96801949990913,204.96801949990913,204.96801949990913,204.96801949990913,204.96801949990913,204.96801949990913,204.96801949990913,204.96801949990913,1,2,"[0.0012929998338222504, 0.06671759998425841]","[0.050475799944251776, 0.3673753999173641]",204.96801949990913,205.168042199919,0.0,205.168042199919,0,0.0,0,1,1000,num_1,0.27450339985080063,,30,12,2026-03-12_11h13.35.635,2026A_exp2,2022.2.4,59.95829305673547,
1,0,6.1,0.0,1,0,66,66,80,,,,,205.46835130010732,206.1190365999937,206.1190365999937,206.60339660011232,315,45,206.60339660011232,206.60339660011232,206.60339660011232,206.60339660011232,206.60339660011232,206.60339660011232,206.60339660011232,206.60339660011232,206.60339660011232,206.96993499994278,206.96993499994278,206.96993499994278,206.96993499994278,206.96993499994278,206.96993499994278,206.96993499994278,206.96993499994278,206.96993499994278,19,2,"[0.20053869998082519, 0.3004729999229312]","[0.21727030002512038, 0.35069609992206097]",206.96993499994278,207.1701581000816,0.0,207.1701581000816,0,0.0,0,1,1000,num_1,0.5050420998595655,,30,12,2026-03-12_11h13.35.635,2026A_exp2,2022.2.4,59.95829305673547,
1,0,0.0,4.9,1,0,67,67,37,,,,,207.70389849995263,208.35468150000088,208.35468150000088,208.83913680003025,45,45,208.83913680003025,208.83913680003025,208.83913680003025,208.83913680003025,208.83913680003025,208.83913680003025,208.83913680003025,208.83913680003025,208.83913680003025,209.2053545000963,209.2053545000963,209.2053545000963,209.2053545000963,209.2053545000963,209.2053545000963,209.2053545000963,209.2053545000963,209.2053545000963,14,1,[0.0012209000997245312],[0.15017490019090474],209.2053545000963,209.4056446000468,4.9,209.4056446000468,1,4.9,1,1,1000,num_4,0.4131681998260319,,30,12,2026-03-12_11h13.35.635,2026A_exp2,2022.2.4,59.95829305673547,
1000,1,0.0,4.9,0,0,68,68,6,,,,,209.8393061000388,210.48998349998146,210.48998349998146,210.97453660005704,45,45,210.97453660005704,210.97453660005704,210.97453660005704,210.97453660005704,210.97453660005704,210.97453660005704,210.97453660005704,210.97453660005704,210.97453660005704,211.34097460005432,211.34097460005432,211.34097460005432,211.34097460005432,211.34097460005432,211.34097460005432,211.34097460005432,211.34097460005432,211.34097460005432,0,1,[0.0012611998245120049],[0.3670726998243481],211.34097460005432,211.5429072000552,1000,211.5429072000552,1000,1000,1000,1000,1,num_2,0.6044218000024557,,30,12,2026-03-12_11h13.35.635,2026A_exp2,2022.2.4,59.95829305673547,
1,0,4.9,0.0,0,0,69,69,53,,,,,212.17503500008024,212.82581000006758,212.82581000006758,213.32676269998774,315,45,213.32676269998774,213.32676269998774,213.32676269998774,213.32676269998774,213.32676269998774,213.32676269998774,213.32676269998774,213.32676269998774,213.32676269998774,213.69320319988765,213.69320319988765,213.69320319988765,213.69320319988765,213.69320319988765,213.69320319988765,213.69320319988765,213.69320319988765,213.69320319988765,3,1,[0.05014569987542927],[0.3671543998643756],213.69320319988765,213.89346639998257,4.9,213.89346639998257,0,4.9,1,0,1000,num_1,0.36454849992878735,,30,12,2026-03-12_11h13.35.635,2026A_exp2,2022.2.4,59.95829305673547,
1,0,3.7,0.0,0,0,70,70,87,,,,,214.27713589998893,214.92786539997905,214.92786539997905,215.4121715000365,45,45,215.4121715000365,215.4121715000365,215.4121715000365,215.4121715000365,215.4121715000365,215.4121715000365,215.4121715000365,215.4121715000365,215.4121715000365,215.77879690006375,215.77879690006375,215.77879690006375,215.77879690006375,215.77879690006375,215.77879690006375,215.77879690006375,215.77879690006375,215.77879690006375,0,1,[0.0012336999643594027],[0.3670983000192791],215.77879690006375,215.97892019990832,3.7,215.97892019990832,0,3.7,1,0,1000,num_1,1.5189119998831302,,30,12,2026-03-12_11h13.35.635,2026A_exp2,2022.2.4,59.95829305673547,
1000,1,3.7,6.1,1,0,71,71,48,,,,,217.53029639995657,218.16405929997563,218.16405929997563,218.6655846000649,315,45,218.6655846000649,218.6655846000649,218.6655846000649,218.6655846000649,218.6655846000649,218.6655846000649,218.6655846000649,218.6655846000649,218.6655846000649,219.03189820004627,219.03189820004627,219.03189820004627,219.03189820004627,219.03189820004627,219.03189820004627,219.03189820004627,219.03189820004627,219.03189820004627,4,3,"[0.017721799900755286, 0.21739930007606745, 0.2673770999535918]","[0.20064849988557398, 0.2507608998566866, 0.36758359987288713]",219.03189820004627,219.23450740007684,1000,219.23450740007684,1000,1000,1000,1000,1,num_2,0.5279052997939289,,30,12,2026-03-12_11h13.35.635,2026A_exp2,2022.2.4,59.95829305673547,
1,0,0.0,6.1,1,0,72,72,33,,,,,219.7830694001168,220.43331189989112,220.43331189989112,220.93455839995295,315,315,220.93455839995295,220.93455839995295,220.93455839995295,220.93455839995295,220.93455839995295,220.93455839995295,220.93455839995295,220.93455839995295,220.93455839995295,221.30092799989507,221.30092799989507,221.30092799989507,221.30092799989507,221.30092799989507,221.30092799989507,221.30092799989507,221.30092799989507,221.30092799989507,23,0,,,221.30092799989507,221.50113949994557,6.1,221.50113949994557,1,6.1,1,1,1000,num_4,0.5175095996819437,,30,12,2026-03-12_11h13.35.635,2026A_exp2,2022.2.4,59.95829305673547,
1,0,6.1,0.0,0,0,73,73,47,,,,,222.03488090005703,222.6855951999314,222.6855951999314,223.17008710000664,315,45,223.17008710000664,223.17008710000664,223.17008710000664,223.17008710000664,223.17008710000664,223.17008710000664,223.17008710000664,223.17008710000664,223.17008710000664,223.53655180009082,223.53655180009082,223.53655180009082,223.53655180009082,223.53655180009082,223.53655180009082,223.53655180009082,223.53655180009082,223.53655180009082,0,1,[0.0012042999733239412],[0.36708229989744723],223.53655180009082,223.73669719998725,6.1,223.73669719998725,1,6.1,1,1,1000,num_4,0.5545291998423636,,30,12,2026-03-12_11h13.35.635,2026A_exp2,2022.2.4,59.95829305673547,
1,0,4.9,3.7,0,0,74,74,44,,,,,224.32051700004376,224.9713405999355,224.9713405999355,225.47234470001422,315,45,225.47234470001422,225.47234470001422,225.47234470001422,225.47234470001422,225.47234470001422,225.47234470001422,225.47234470001422,225.47234470001422,225.47234470001422,225.82220970001072,225.82220970001072,225.82220970001072,225.82220970001072,225.82220970001072,225.82220970001072,225.82220970001072,225.82220970001072,225.82220970001072,5,3,"[0.03360760002397001, 0.23369370005093515, 0.2670223000459373]","[0.20033839996904135, 0.25047739990986884, 0.3504125999752432]",225.82220970001072,226.02241569990292,4.9,226.02241569990292,1,4.9,1,1,1000,num_4,0.5557148000225425,,30,12,2026-03-12_11h13.35.635,2026A_exp2,2022.2.4,59.95829305673547,
1,0,3.7,4.9,1,0,75,75,20,,,,,226.60610170010477,227.25695109996013,227.25695109996013,227.75797930010594,315,45,227.75797930010594,227.75797930010594,227.75797930010594,227.75797930010594,227.75797930010594,227.75797930010594,227.75797930010594,227.75797930010594,227.75797930010594,228.1242978000082,228.1242978000082,228.1242978000082,228.1242978000082,228.1242978000082,228.1242978000082,228.1242978000082,228.1242978000082,228.1242978000082,2,2,"[0.0012529999949038029, 0.36680889991112053]","[0.3337107999250293, 0.3668116999324411]",228.1242978000082,228.32469779998064,4.9,228.32469779998064,1,4.9,1,1,1000,num_4,0.44570369995199144,,30,12,2026-03-12_11h13.35.635,2026A_exp2,2022.2.4,59.95829305673547,
1,0,0.0,0.0,1,0,76,76,42,,,,,228.7916407000739,229.44215620006435,229.44215620006435,229.92685250006616,45,315,229.92685250006616,229.92685250006616,229.92685250006616,229.92685250006616,229.92685250006616,229.92685250006616,229.92685250006616,229.92685250006616,229.92685250006616,230.29322110000066,230.29322110000066,230.29322110000066,230.29322110000066,230.29322110000066,230.29322110000066,230.29322110000066,230.29322110000066,230.29322110000066,0,1,[0.0012471000663936138],[0.367156800115481],230.29322110000066,230.49335290002637,0.0,230.49335290002637,0,0.0,0,1,1000,num_1,0.3814983000047505,,30,12,2026-03-12_11h13.35.635,2026A_exp2,2022.2.4,59.95829305673547,
1000,1,6.1,0.0,1,0,77,77,83,,,,,230.8937750000041,231.5278616999276,231.5278616999276,232.02876159991138,45,315,232.02876159991138,232.02876159991138,232.02876159991138,232.02876159991138,232.02876159991138,232.02876159991138,232.02876159991138,232.02876159991138,232.02876159991138,232.3952204999514,232.3952204999514,232.3952204999514,232.3952204999514,232.3952204999514,232.3952204999514,232.3952204999514,232.3952204999514,232.3952204999514,2,2,"[0.00122079998254776, 0.05025269999168813]","[0.017237900057807565, 0.3671683999709785]",232.3952204999514,232.59810839989223,1000,232.59810839989223,1000,1000,1000,1000,0,num_3,0.7804176998324692,,30,12,2026-03-12_11h13.35.635,2026A_exp2,2022.2.4,59.95829305673547,
1000,1,0.0,3.7,1,0,78,78,84,,,,,233.3961861000862,234.04708310007118,234.04708310007118,234.5480587000493,315,315,234.5480587000493,234.5480587000493,234.5480587000493,234.5480587000493,234.5480587000493,234.5480587000493,234.5480587000493,234.5480587000493,234.5480587000493,234.91436169994995,234.91436169994995,234.91436169994995,234.91436169994995,234.91436169994995,234.91436169994995,234.91436169994995,234.91436169994995,234.91436169994995,0,1,[0.0012441000435501337],[0.367160800145939],234.91436169994995,235.1428392000962,1000,235.1428392000962,1000,1000,1000,1000,1,num_2,0.3721352000720799,,30,12,2026-03-12_11h13.35.635,2026A_exp2,2022.2.4,59.95829305673547,
1000,1,0.0,6.1,1,0,79,79,71,,,,,235.53188739996403,236.1824934000615,236.1824934000615,236.68365360004827,45,315,236.68365360004827,236.68365360004827,236.68365360004827,236.68365360004827,236.68365360004827,236.68365360004827,236.68365360004827,236.68365360004827,236.68365360004827,237.05006300006062,237.05006300006062,237.05006300006062,237.05006300006062,237.05006300006062,237.05006300006062,237.05006300006062,237.05006300006062,237.05006300006062,23,0,,,237.05006300006062,237.25251480005682,1000,237.25251480005682,1000,1000,1000,1000,1,num_2,0.4134247999172658,,30,12,2026-03-12_11h13.35.635,2026A_exp2,2022.2.4,59.95829305673547,
1,0,6.1,3.7,1,0,80,80,51,,,,,237.68387409998104,238.3346688998863,238.3346688998863,238.8357532999944,315,45,238.8357532999944,238.8357532999944,238.8357532999944,238.8357532999944,238.8357532999944,238.8357532999944,238.8357532999944,238.8357532999944,238.8357532999944,239.2020483999513,239.2020483999513,239.2020483999513,239.2020483999513,239.2020483999513,239.2020483999513,239.2020483999513,239.2020483999513,239.2020483999513,23,0,,,239.2020483999513,239.40226519992575,3.7,239.40226519992575,0,3.7,1,0,1000,num_1,0.8719292997848243,,30,12,2026-03-12_11h13.35.635,2026A_exp2,2022.2.4,59.95829305673547,
1000,1,0.0,4.9,1,0,81,81,66,,,,,240.30315880011767,240.9538445000071,240.9538445000071,241.43849100009538,45,45,241.43849100009538,241.43849100009538,241.43849100009538,241.43849100009538,241.43849100009538,241.43849100009538,241.43849100009538,241.43849100009538,241.43849100009538,241.80481150001287,241.80481150001287,241.80481150001287,241.80481150001287,241.80481150001287,241.80481150001287,241.80481150001287,241.80481150001287,241.80481150001287,0,1,[0.0013017000164836645],[0.3672208001371473],241.80481150001287,242.00695939990692,1000,242.00695939990692,1000,1000,1000,1000,1,num_2,0.4114973999094218,,30,12,2026-03-12_11h13.35.635,2026A_exp2,2022.2.4,59.95829305673547,
1000,1,0.0,0.0,0,0,82,82,7,,,,,242.43865999998525,243.09071599994786,243.09071599994786,243.59053679998033,315,45,243.59053679998033,243.59053679998033,243.59053679998033,243.59053679998033,243.59053679998033,243.59053679998033,243.59053679998033,243.59053679998033,243.59053679998033,243.9569323998876,243.9569323998876,243.9569323998876,243.9569323998876,243.9569323998876,243.9569323998876,243.9569323998876,243.9569323998876,243.9569323998876,4,1,[0.0014766999520361423],[0.31695350003428757],243.9569323998876,244.15908290003426,1000,244.15908290003426,1000,1000,1000,1000,1,num_2,0.5636420999653637,,30,12,2026-03-12_11h13.35.635,2026A_exp2,2022.2.4,59.95829305673547,
1000,1,6.1,6.1,1,0,83,83,8,,,,,244.74120089993812,245.3916436000727,245.3916436000727,245.8929526999127,45,45,245.8929526999127,245.8929526999127,245.8929526999127,245.8929526999127,245.8929526999127,245.8929526999127,245.8929526999127,245.8929526999127,245.8929526999127,246.25920210010372,246.25920210010372,246.25920210010372,246.25920210010372,246.25920210010372,246.25920210010372,246.25920210010372,246.25920210010372,246.25920210010372,2,1,[0.0013834999408572912],[0.3502513999119401],246.25920210010372,246.46198230003938,1000,246.46198230003938,1000,1000,1000,1000,0,num_3,0.6205696000251919,,30,12,2026-03-12_11h13.35.635,2026A_exp2,2022.2.4,59.95829305673547,
1,0,6.1,0.0,0,0,84,84,21,,,,,247.11018970003352,247.76062890002504,247.76062890002504,248.26181789999828,45,315,248.26181789999828,248.26181789999828,248.26181789999828,248.26181789999828,248.26181789999828,248.26181789999828,248.26181789999828,248.26181789999828,248.26181789999828,248.6282997999806,248.6282997999806,248.6282997999806,248.6282997999806,248.6282997999806,248.6282997999806,248.6282997999806,248.6282997999806,248.6282997999806,1,2,"[0.001221999991685152, 0.0667771000880748]","[0.05008989991620183, 0.36715710000135005]",248.6282997999806,248.82851370004937,6.1,248.82851370004937,1,6.1,1,1,1000,num_4,0.46991509990766644,,30,12,2026-03-12_11h13.35.635,2026A_exp2,2022.2.4,59.95829305673547,
1000,1,3.7,0.0,0,0,85,85,76,,,,,249.32891110004857,249.96280120010488,249.96280120010488,250.46391399996355,45,315,250.46391399996355,250.46391399996355,250.46391399996355,250.46391399996355,250.46391399996355,250.46391399996355,250.46391399996355,250.46391399996355,250.46391399996355,250.83036000002176,250.83036000002176,250.83036000002176,250.83036000002176,250.83036000002176,250.83036000002176,250.83036000002176,250.83036000002176,250.83036000002176,23,0,,,250.83036000002176,251.0326330999378,1000,251.0326330999378,1000,1000,1000,1000,0,num_3,0.6334943999536335,,30,12,2026-03-12_11h13.35.635,2026A_exp2,2022.2.4,59.95829305673547,
1000,1,4.9,0.0,0,0,86,86,41,,,,,251.6812907999847,252.33200860000215,252.33200860000215,252.83287020004354,315,315,252.83287020004354,252.83287020004354,252.83287020004354,252.83287020004354,252.83287020004354,252.83287020004354,252.83287020004354,252.83287020004354,252.83287020004354,253.19953779992647,253.19953779992647,253.19953779992647,253.19953779992647,253.19953779992647,253.19953779992647,253.19953779992647,253.19953779992647,253.19953779992647,23,0,,,253.19953779992647,253.4019659999758,1000,253.4019659999758,1000,1000,1000,1000,0,num_3,0.8411779997404665,,30,12,2026-03-12_11h13.35.635,2026A_exp2,2022.2.4,59.95829305673547,
1000,1,3.7,3.7,0,0,87,87,63,,,,,254.26716620009392,254.91787109989673,254.91787109989673,255.41904229996726,45,45,255.41904229996726,255.41904229996726,255.41904229996726,255.41904229996726,255.41904229996726,255.41904229996726,255.41904229996726,255.41904229996726,255.41904229996726,255.7688617000822,255.7688617000822,255.7688617000822,255.7688617000822,255.7688617000822,255.7688617000822,255.7688617000822,255.7688617000822,255.7688617000822,22,0,,,255.7688617000822,255.99148859991692,1000,255.99148859991692,1000,1000,1000,1000,0,num_3,0.32260279986076057,,30,12,2026-03-12_11h13.35.635,2026A_exp2,2022.2.4,59.95829305673547,
0,0,4.9,3.7,0,0,88,88,28,,,,,256.3358450999949,256.9864000999369,256.9864000999369,257.48778340010904,315,45,257.48778340010904,257.48778340010904,257.48778340010904,257.48778340010904,257.48778340010904,257.48778340010904,257.48778340010904,257.48778340010904,257.48778340010904,257.8541194999125,257.8541194999125,257.8541194999125,257.8541194999125,257.8541194999125,257.8541194999125,257.8541194999125,257.8541194999125,257.8541194999125,23,0,,,257.8541194999125,258.0543674000073,3.7,258.0543674000073,0,3.7,1,0,1000,num_1,0.7006240000482649,,30,12,2026-03-12_11h13.35.635,2026A_exp2,2022.2.4,59.95829305673547,
1,0,3.7,4.9,1,0,89,89,18,,,,,258.7716884999536,259.4222095001023,259.4222095001023,259.9235676000826,45,45,259.9235676000826,259.9235676000826,259.9235676000826,259.9235676000826,259.9235676000826,259.9235676000826,259.9235676000826,259.9235676000826,259.9235676000826,260.27328369999304,260.27328369999304,260.27328369999304,260.27328369999304,260.27328369999304,260.27328369999304,260.27328369999304,260.27328369999304,260.27328369999304,22,0,,,260.27328369999304,260.4733613000717,4.9,260.4733613000717,0,4.9,1,0,1000,num_1,0.8485747997183353,,30,12,2026-03-12_11h13.35.635,2026A_exp2,2022.2.4,59.95829305673547,
,,,,,,,,,,,,,,,,,,,,,,,,,,,,,,,,,,,,,,,,,,,,,,,,,,,,261.35028039989993,,,,,,,
