validity,detectorcomp,contrastCW,contrastCCW,precueCWorCCW,block_80trials.thisRepN,block_80trials.thisTrialN,block_80trials.thisN,block_80trials.thisIndex,etRecord.started,etRecord.stopped,text.started,text.stopped,text_4.started,text_4.stopped,text_6.started,text_6.stopped,oriCW,oriCCW,roi_2.started,grating_UR.started,grating_UL.started,grating_LR.started,grating_LL.started,noise_UR.started,noise_UL.started,noise_LR.started,noise_LL.started,roi_2.stopped,grating_UR.stopped,grating_UL.stopped,grating_LR.stopped,grating_LL.stopped,noise_UR.stopped,noise_UL.stopped,noise_LR.stopped,noise_LL.stopped,outframe,roi_2.numLooks,roi_2.timesOn,roi_2.timesOff,text_2.started,text_2.stopped,probedcontrast,key_resp.started,respdetect,relevantContrast,correctDetect,TorFdetect,respCWorCCW,key_resp.keys,key_resp.rt,feedback_display_.started,participantNo,blockNo,date,expName,psychopyVersion,frameRate,
1000,1,6.1,0.0,0,0,0,0,68,4.069998976774514e-05,4.069998976774514e-05,44.42110199999297,46.42877040000167,46.42877040000167,47.06628830000409,47.06628830000409,47.57725080000819,315,45,47.57725080000819,47.57725080000819,47.57725080000819,47.57725080000819,47.57725080000819,47.57725080000819,47.57725080000819,47.57725080000819,47.57725080000819,47.9249998999876,47.9249998999876,47.9249998999876,47.9249998999876,47.9249998999876,47.9249998999876,47.9249998999876,47.9249998999876,47.9249998999876,23,0,,,47.9249998999876,48.132795899990015,1000,48.132795899990015,1000,1000,1000,1000,0,num_3,0.5336207000073045,,18,16,2026-03-02_11h33.13.579,2026A_exp2,2022.2.4,60.035360831201004,
1,0,0.0,6.1,0,0,1,1,57,,,,,48.692448199988576,49.34312289999798,49.34312289999798,49.8275262999814,315,315,49.8275262999814,49.8275262999814,49.8275262999814,49.8275262999814,49.8275262999814,49.8275262999814,49.8275262999814,49.8275262999814,49.8275262999814,50.19408580000163,50.19408580000163,50.19408580000163,50.19408580000163,50.19408580000163,50.19408580000163,50.19408580000163,50.19408580000163,50.19408580000163,23,0,,,50.19408580000163,50.394277499988675,0.0,50.394277499988675,0,0.0,0,1,1000,num_1,0.5857248000102118,,18,16,2026-03-02_11h33.13.579,2026A_exp2,2022.2.4,60.035360831201004,
1,0,4.9,0.0,1,0,2,2,15,,,,,51.01137190000736,51.662178700004006,51.662178700004006,52.146394399984274,45,315,52.146394399984274,52.146394399984274,52.146394399984274,52.146394399984274,52.146394399984274,52.146394399984274,52.146394399984274,52.146394399984274,52.146394399984274,52.513043799990555,52.513043799990555,52.513043799990555,52.513043799990555,52.513043799990555,52.513043799990555,52.513043799990555,52.513043799990555,52.513043799990555,23,0,,,52.513043799990555,52.713217199983774,0.0,52.713217199983774,0,0.0,0,1,1000,num_1,0.6657925000181422,,18,16,2026-03-02_11h33.13.579,2026A_exp2,2022.2.4,60.035360831201004,
1000,1,6.1,4.9,0,0,3,3,77,,,,,53.39724500000011,54.047840299987,54.047840299987,54.53222170000663,315,45,54.53222170000663,54.53222170000663,54.53222170000663,54.53222170000663,54.53222170000663,54.53222170000663,54.53222170000663,54.53222170000663,54.53222170000663,54.89855680000619,54.89855680000619,54.89855680000619,54.89855680000619,54.89855680000619,54.89855680000619,54.89855680000619,54.89855680000619,54.89855680000619,23,0,,,54.89855680000619,55.101020300004166,1000,55.101020300004166,1000,1000,1000,1000,0,num_3,0.4946228000044357,,18,16,2026-03-02_11h33.13.579,2026A_exp2,2022.2.4,60.035360831201004,
1,0,0.0,0.0,0,0,4,4,66,,,,,55.616016099986155,56.266712899989216,56.266712899989216,56.76778100000229,45,315,56.76778100000229,56.76778100000229,56.76778100000229,56.76778100000229,56.76778100000229,56.76778100000229,56.76778100000229,56.76778100000229,56.76778100000229,57.11765880000894,57.11765880000894,57.11765880000894,57.11765880000894,57.11765880000894,57.11765880000894,57.11765880000894,57.11765880000894,57.11765880000894,22,0,,,57.11765880000894,57.325828200002434,0.0,57.325828200002434,0,0.0,0,1,1000,num_1,0.48589500001980923,,18,16,2026-03-02_11h33.13.579,2026A_exp2,2022.2.4,60.035360831201004,
1000,1,3.7,3.7,1,0,5,5,88,,,,,57.834981699998025,58.486092899984214,58.486092899984214,58.98670039998251,315,315,58.98670039998251,58.98670039998251,58.98670039998251,58.98670039998251,58.98670039998251,58.98670039998251,58.98670039998251,58.98670039998251,58.98670039998251,59.353145400003996,59.353145400003996,59.353145400003996,59.353145400003996,59.353145400003996,59.353145400003996,59.353145400003996,59.353145400003996,59.353145400003996,23,0,,,59.353145400003996,59.56488299998455,1000,59.56488299998455,1000,1000,1000,1000,0,num_3,0.6217415999853984,,18,16,2026-03-02_11h33.13.579,2026A_exp2,2022.2.4,60.035360831201004,
1000,1,4.9,4.9,1,0,6,6,60,,,,,60.203836800006684,60.85464979999233,60.85464979999233,61.371853199991165,315,45,61.371853199991165,61.371853199991165,61.371853199991165,61.371853199991165,61.371853199991165,61.371853199991165,61.371853199991165,61.371853199991165,61.371853199991165,61.722248200007016,61.722248200007016,61.722248200007016,61.722248200007016,61.722248200007016,61.722248200007016,61.722248200007016,61.722248200007016,61.722248200007016,23,0,,,61.722248200007016,61.93010199998389,1000,61.93010199998389,1000,1000,1000,1000,1,num_2,0.6173479999997653,,18,16,2026-03-02_11h33.13.579,2026A_exp2,2022.2.4,60.035360831201004,
1000,1,0.0,0.0,1,0,7,7,39,,,,,62.57311209998443,63.22353250000742,63.22353250000742,63.709353299986105,45,45,63.709353299986105,63.709353299986105,63.709353299986105,63.709353299986105,63.709353299986105,63.709353299986105,63.709353299986105,63.709353299986105,63.709353299986105,64.07449500000803,64.07449500000803,64.07449500000803,64.07449500000803,64.07449500000803,64.07449500000803,64.07449500000803,64.07449500000803,64.07449500000803,23,0,,,64.07449500000803,64.2765875000041,1000,64.2765875000041,1000,1000,1000,1000,1,num_2,0.6387185000057798,,18,16,2026-03-02_11h33.13.579,2026A_exp2,2022.2.4,60.035360831201004,
1000,1,0.0,0.0,1,0,8,8,40,,,,,64.942037300003,65.59270660000038,65.59270660000038,66.09390750000603,315,315,66.09390750000603,66.09390750000603,66.09390750000603,66.09390750000603,66.09390750000603,66.09390750000603,66.09390750000603,66.09390750000603,66.09390750000603,66.44361019998905,66.44361019998905,66.44361019998905,66.44361019998905,66.44361019998905,66.44361019998905,66.44361019998905,66.44361019998905,66.44361019998905,22,0,,,66.44361019998905,66.64594560000114,1000,66.6603696999955,1000,1000,1000,1000,1,num_2,0.43037400001776405,,18,16,2026-03-02_11h33.13.579,2026A_exp2,2022.2.4,60.035360831201004,
1000,1,4.9,0.0,1,0,9,9,7,,,,,67.11080950000905,67.76899919999414,67.76899919999414,68.26684369999566,45,45,68.26684369999566,68.26684369999566,68.26684369999566,68.26684369999566,68.26684369999566,68.26684369999566,68.26684369999566,68.26684369999566,68.26684369999566,68.62911380000878,68.62911380000878,68.62911380000878,68.62911380000878,68.62911380000878,68.62911380000878,68.62911380000878,68.62911380000878,68.62911380000878,23,0,,,68.62911380000878,68.83196489998954,1000,68.83196489998954,1000,1000,1000,1000,0,num_3,0.4511634999944363,,18,16,2026-03-02_11h33.13.579,2026A_exp2,2022.2.4,60.035360831201004,
1,0,0.0,0.0,0,0,10,10,0,,,,,69.31305820000125,69.963605500001,69.963605500001,70.46512979999534,45,45,70.46512979999534,70.46512979999534,70.46512979999534,70.46512979999534,70.46512979999534,70.46512979999534,70.46512979999534,70.46512979999534,70.46512979999534,70.81476819998352,70.81476819998352,70.81476819998352,70.81476819998352,70.81476819998352,70.81476819998352,70.81476819998352,70.81476819998352,70.81476819998352,22,0,,,70.81476819998352,71.01794439999503,0.0,71.01794439999503,1,0.0,0,0,1000,num_4,0.8411754000117071,,18,16,2026-03-02_11h33.13.579,2026A_exp2,2022.2.4,60.035360831201004,
1000,1,4.9,0.0,0,0,11,11,20,,,,,71.88227259999258,72.51624920000904,72.51624920000904,73.01735129998997,45,45,73.01735129998997,73.01735129998997,73.01735129998997,73.01735129998997,73.01735129998997,73.01735129998997,73.01735129998997,73.01735129998997,73.01735129998997,73.38360719999764,73.38360719999764,73.38360719999764,73.38360719999764,73.38360719999764,73.38360719999764,73.38360719999764,73.38360719999764,73.38360719999764,23,0,,,73.38360719999764,73.5847770999826,1000,73.5847770999826,1000,1000,1000,1000,0,num_3,0.45001139998203143,,18,16,2026-03-02_11h33.13.579,2026A_exp2,2022.2.4,60.035360831201004,
1,0,0.0,3.7,0,0,12,12,22,,,,,74.05090609999024,74.70184570000856,74.70184570000856,75.18620860000374,45,315,75.18620860000374,75.18620860000374,75.18620860000374,75.18620860000374,75.18620860000374,75.18620860000374,75.18620860000374,75.18620860000374,75.18620860000374,75.55271299998276,75.55271299998276,75.55271299998276,75.55271299998276,75.55271299998276,75.55271299998276,75.55271299998276,75.55271299998276,75.55271299998276,23,0,,,75.55271299998276,75.75295460000052,0.0,75.75295460000052,0,0.0,0,1,1000,num_1,1.2495126999856438,,18,16,2026-03-02_11h33.13.579,2026A_exp2,2022.2.4,60.035360831201004,
1000,1,0.0,3.7,0,0,13,13,32,,,,,77.02068769998732,77.65484579998883,77.65484579998883,78.1558737999876,45,45,78.1558737999876,78.1558737999876,78.1558737999876,78.1558737999876,78.1558737999876,78.1558737999876,78.1558737999876,78.1558737999876,78.1558737999876,78.52237859999877,78.52237859999877,78.52237859999877,78.52237859999877,78.52237859999877,78.52237859999877,78.52237859999877,78.52237859999877,78.52237859999877,23,0,,,78.52237859999877,78.72460799998953,1000,78.72460799998953,1000,1000,1000,1000,1,num_2,0.5666328000079375,,18,16,2026-03-02_11h33.13.579,2026A_exp2,2022.2.4,60.035360831201004,
1000,1,0.0,0.0,1,0,14,14,62,,,,,79.3064131999854,79.95705430000089,79.95705430000089,80.45816119998926,45,45,80.45816119998926,80.45816119998926,80.45816119998926,80.45816119998926,80.45816119998926,80.45816119998926,80.45816119998926,80.45816119998926,80.45816119998926,80.82461310000508,80.82461310000508,80.82461310000508,80.82461310000508,80.82461310000508,80.82461310000508,80.82461310000508,80.82461310000508,80.82461310000508,23,0,,,80.82461310000508,81.0270695000072,1000,81.0270695000072,1000,1000,1000,1000,1,num_2,0.5435423000017181,,18,16,2026-03-02_11h33.13.579,2026A_exp2,2022.2.4,60.035360831201004,
1,0,6.1,6.1,0,0,15,15,11,,,,,81.59194439998828,82.24276190000819,82.24276190000819,82.74385339999571,315,45,82.74385339999571,82.74385339999571,82.74385339999571,82.74385339999571,82.74385339999571,82.74385339999571,82.74385339999571,82.74385339999571,82.74385339999571,83.0936020000081,83.0936020000081,83.0936020000081,83.0936020000081,83.0936020000081,83.0936020000081,83.0936020000081,83.0936020000081,83.0936020000081,22,0,,,83.0936020000081,83.29362879999098,6.1,83.29362879999098,1,6.1,1,1,1000,num_4,0.35781459999270737,,18,16,2026-03-02_11h33.13.579,2026A_exp2,2022.2.4,60.035360831201004,
1,0,0.0,0.0,1,0,16,16,82,,,,,83.67738839998492,84.32818439998664,84.32818439998664,84.81260060000932,45,315,84.81260060000932,84.81260060000932,84.81260060000932,84.81260060000932,84.81260060000932,84.81260060000932,84.81260060000932,84.81260060000932,84.81260060000932,85.17902129999129,85.17902129999129,85.17902129999129,85.17902129999129,85.17902129999129,85.17902129999129,85.17902129999129,85.17902129999129,85.17902129999129,23,0,,,85.17902129999129,85.37923009999213,0.0,85.37923009999213,1,0.0,0,0,1000,num_4,0.720238200010499,,18,16,2026-03-02_11h33.13.579,2026A_exp2,2022.2.4,60.035360831201004,
1,0,3.7,4.9,0,0,17,17,31,,,,,86.129955899989,86.78053309998359,86.78053309998359,87.26486579998164,45,45,87.26486579998164,87.26486579998164,87.26486579998164,87.26486579998164,87.26486579998164,87.26486579998164,87.26486579998164,87.26486579998164,87.26486579998164,87.63129369998933,87.63129369998933,87.63129369998933,87.63129369998933,87.63129369998933,87.63129369998933,87.63129369998933,87.63129369998933,87.63129369998933,23,0,,,87.63129369998933,87.8316824999929,3.7,87.8316824999929,1,3.7,1,1,1000,num_4,0.3310983999981545,,18,16,2026-03-02_11h33.13.579,2026A_exp2,2022.2.4,60.035360831201004,
1,0,0.0,4.9,0,0,18,18,35,,,,,88.18182159998105,88.83261139999377,88.83261139999377,89.3171109999821,315,45,89.3171109999821,89.3171109999821,89.3171109999821,89.3171109999821,89.3171109999821,89.3171109999821,89.3171109999821,89.3171109999821,89.3171109999821,89.68342829999165,89.68342829999165,89.68342829999165,89.68342829999165,89.68342829999165,89.68342829999165,89.68342829999165,89.68342829999165,89.68342829999165,23,0,,,89.68342829999165,89.88363999998546,0.0,89.88363999998546,0,0.0,0,1,1000,num_1,0.7440932000172324,,18,16,2026-03-02_11h33.13.579,2026A_exp2,2022.2.4,60.035360831201004,
1,0,3.7,6.1,0,0,19,19,55,,,,,90.6508948999981,91.30179480000515,91.30179480000515,91.7862322999863,45,315,91.7862322999863,91.7862322999863,91.7862322999863,91.7862322999863,91.7862322999863,91.7862322999863,91.7862322999863,91.7862322999863,91.7862322999863,92.15278889998444,92.15278889998444,92.15278889998444,92.15278889998444,92.15278889998444,92.15278889998444,92.15278889998444,92.15278889998444,92.15278889998444,23,0,,,92.15278889998444,92.35280729999067,3.7,92.35280729999067,1,3.7,1,1,1000,num_4,0.306338099995628,,18,16,2026-03-02_11h33.13.579,2026A_exp2,2022.2.4,60.035360831201004,
1000,1,6.1,3.7,1,0,20,20,45,,,,,92.68632179999258,93.33723149998696,93.33723149998696,93.82154129998526,315,45,93.82154129998526,93.82154129998526,93.82154129998526,93.82154129998526,93.82154129998526,93.82154129998526,93.82154129998526,93.82154129998526,93.82154129998526,94.18796379998093,94.18796379998093,94.18796379998093,94.18796379998093,94.18796379998093,94.18796379998093,94.18796379998093,94.18796379998093,94.18796379998093,23,0,,,94.18796379998093,94.4126716000028,1000,94.4126716000028,1000,1000,1000,1000,1,num_2,0.5983941000013147,,18,16,2026-03-02_11h33.13.579,2026A_exp2,2022.2.4,60.035360831201004,
1000,1,3.7,0.0,1,0,21,21,33,,,,,95.03886329999659,95.67286449999665,95.67286449999665,96.17416090000188,315,315,96.17416090000188,96.17416090000188,96.17416090000188,96.17416090000188,96.17416090000188,96.17416090000188,96.17416090000188,96.17416090000188,96.17416090000188,96.54040739999618,96.54040739999618,96.54040739999618,96.54040739999618,96.54040739999618,96.54040739999618,96.54040739999618,96.54040739999618,96.54040739999618,23,0,,,96.54040739999618,96.74328850000165,1000,96.74328850000165,1000,1000,1000,1000,0,num_3,0.43516880000242963,,18,16,2026-03-02_11h33.13.579,2026A_exp2,2022.2.4,60.035360831201004,
1000,1,6.1,0.0,1,0,22,22,79,,,,,97.20760389999487,97.85830419999547,97.85830419999547,98.3593092999945,45,315,98.3593092999945,98.3593092999945,98.3593092999945,98.3593092999945,98.3593092999945,98.3593092999945,98.3593092999945,98.3593092999945,98.3593092999945,98.72586330000195,98.72586330000195,98.72586330000195,98.72586330000195,98.72586330000195,98.72586330000195,98.72586330000195,98.72586330000195,98.72586330000195,23,0,,,98.72586330000195,98.92921820000629,1000,98.92921820000629,1000,1000,1000,1000,0,num_3,0.2971438000095077,,18,16,2026-03-02_11h33.13.579,2026A_exp2,2022.2.4,60.035360831201004,
1000,1,0.0,3.7,1,0,23,23,75,,,,,99.24297590000788,99.89363079998293,99.89363079998293,100.39457400000538,315,45,100.39457400000538,100.39457400000538,100.39457400000538,100.39457400000538,100.39457400000538,100.39457400000538,100.39457400000538,100.39457400000538,100.39457400000538,100.74475919999531,100.74475919999531,100.74475919999531,100.74475919999531,100.74475919999531,100.74475919999531,100.74475919999531,100.74475919999531,100.74475919999531,22,0,,,100.74475919999531,100.94454339999356,1000,100.94454339999356,1000,1000,1000,1000,1,num_2,0.3946283000113908,,18,16,2026-03-02_11h33.13.579,2026A_exp2,2022.2.4,60.035360831201004,
1,0,0.0,3.7,0,0,24,24,1,,,,,101.36168689999613,102.012782899983,102.012782899983,102.49712409998756,45,45,102.49712409998756,102.49712409998756,102.49712409998756,102.49712409998756,102.49712409998756,102.49712409998756,102.49712409998756,102.49712409998756,102.49712409998756,102.86418450000929,102.86418450000929,102.86418450000929,102.86418450000929,102.86418450000929,102.86418450000929,102.86418450000929,102.86418450000929,102.86418450000929,23,0,,,102.86418450000929,103.06449520000024,0.0,103.06449520000024,0,0.0,0,1,1000,num_1,1.12210559999221,,18,16,2026-03-02_11h33.13.579,2026A_exp2,2022.2.4,60.035360831201004,
1000,1,0.0,0.0,1,0,25,25,42,,,,,104.21483169999556,104.86542539999937,104.86542539999937,105.36641739998595,45,45,105.36641739998595,105.36641739998595,105.36641739998595,105.36641739998595,105.36641739998595,105.36641739998595,105.36641739998595,105.36641739998595,105.36641739998595,105.73267319999286,105.73267319999286,105.73267319999286,105.73267319999286,105.73267319999286,105.73267319999286,105.73267319999286,105.73267319999286,105.73267319999286,23,0,,,105.73267319999286,105.93303429998923,1000,105.93303429998923,1000,1000,1000,1000,1,num_2,0.5577226000023074,,18,16,2026-03-02_11h33.13.579,2026A_exp2,2022.2.4,60.035360831201004,
1000,1,4.9,4.9,1,0,26,26,85,,,,,106.51689659999101,107.16754259998561,107.16754259998561,107.65179929998703,45,45,107.65179929998703,107.65179929998703,107.65179929998703,107.65179929998703,107.65179929998703,107.65179929998703,107.65179929998703,107.65179929998703,107.65179929998703,108.01825999998255,108.01825999998255,108.01825999998255,108.01825999998255,108.01825999998255,108.01825999998255,108.01825999998255,108.01825999998255,108.01825999998255,23,0,,,108.01825999998255,108.21864129998721,1000,108.21864129998721,1000,1000,1000,1000,1,num_2,0.46402809998835437,,18,16,2026-03-02_11h33.13.579,2026A_exp2,2022.2.4,60.035360831201004,
1000,1,6.1,0.0,0,0,27,27,80,,,,,108.70227770000929,109.35305289999815,109.35305289999815,109.83739380000043,45,315,109.83739380000043,109.83739380000043,109.83739380000043,109.83739380000043,109.83739380000043,109.83739380000043,109.83739380000043,109.83739380000043,109.83739380000043,110.20386629999848,110.20386629999848,110.20386629999848,110.20386629999848,110.20386629999848,110.20386629999848,110.20386629999848,110.20386629999848,110.20386629999848,23,0,,,110.20386629999848,110.40435179998167,1000,110.40435179998167,1000,1000,1000,1000,0,num_3,0.38248390002991073,,18,16,2026-03-02_11h33.13.579,2026A_exp2,2022.2.4,60.035360831201004,
1000,1,6.1,6.1,0,0,28,28,74,,,,,110.80494289999478,111.45496780000394,111.45496780000394,111.93978749998496,45,45,111.93978749998496,111.93978749998496,111.93978749998496,111.93978749998496,111.93978749998496,111.93978749998496,111.93978749998496,111.93978749998496,111.93978749998496,112.30593199998839,112.30593199998839,112.30593199998839,112.30593199998839,112.30593199998839,112.30593199998839,112.30593199998839,112.30593199998839,112.30593199998839,23,0,,,112.30593199998839,112.50647469999967,1000,112.50647469999967,1000,1000,1000,1000,0,num_3,0.2727697999798693,,18,16,2026-03-02_11h33.13.579,2026A_exp2,2022.2.4,60.035360831201004,
1,0,0.0,4.9,1,0,29,29,65,,,,,112.80768539998098,113.45753439998953,113.45753439998953,113.95844689998194,315,45,113.95844689998194,113.95844689998194,113.95844689998194,113.95844689998194,113.95844689998194,113.95844689998194,113.95844689998194,113.95844689998194,113.95844689998194,114.32436949998373,114.32436949998373,114.32436949998373,114.32436949998373,114.32436949998373,114.32436949998373,114.32436949998373,114.32436949998373,114.32436949998373,23,0,,,114.32436949998373,114.52457969999523,4.9,114.52457969999523,1,4.9,1,1,1000,num_4,0.7337287999980617,,18,16,2026-03-02_11h33.13.579,2026A_exp2,2022.2.4,60.035360831201004,
1000,1,6.1,6.1,0,0,30,30,56,,,,,115.27535589999752,115.90956379999989,115.90956379999989,116.4108917999838,45,315,116.4108917999838,116.4108917999838,116.4108917999838,116.4108917999838,116.4108917999838,116.4108917999838,116.4108917999838,116.4108917999838,116.4108917999838,116.77719279998564,116.77719279998564,116.77719279998564,116.77719279998564,116.77719279998564,116.77719279998564,116.77719279998564,116.77719279998564,116.77719279998564,23,0,,,116.77719279998564,116.98039240000071,1000,116.98039240000071,1000,1000,1000,1000,0,num_3,0.8780637999880128,,18,16,2026-03-02_11h33.13.579,2026A_exp2,2022.2.4,60.035360831201004,
0,0,0.0,0.0,0,0,31,31,4,,,,,117.87832580000395,118.5121780000045,118.5121780000045,119.0300922000024,315,315,119.0300922000024,119.0300922000024,119.0300922000024,119.0300922000024,119.0300922000024,119.0300922000024,119.0300922000024,119.0300922000024,119.0300922000024,119.39652609999757,119.39652609999757,119.39652609999757,119.39652609999757,119.39652609999757,119.39652609999757,119.39652609999757,119.39652609999757,119.39652609999757,23,0,,,119.39652609999757,119.5966611999902,0.0,119.5966611999902,1,0.0,0,0,1000,num_4,0.6788087000022642,,18,16,2026-03-02_11h33.13.579,2026A_exp2,2022.2.4,60.035360831201004,
1000,1,3.7,0.0,1,0,32,32,21,,,,,120.2973256999976,120.94795559998602,120.94795559998602,121.4325089000049,45,315,121.4325089000049,121.4325089000049,121.4325089000049,121.4325089000049,121.4325089000049,121.4325089000049,121.4325089000049,121.4325089000049,121.4325089000049,121.79880240000784,121.79880240000784,121.79880240000784,121.79880240000784,121.79880240000784,121.79880240000784,121.79880240000784,121.79880240000784,121.79880240000784,23,0,,,121.79880240000784,122.00078939998639,1000,122.00078939998639,1000,1000,1000,1000,0,num_3,0.7543888000072911,,18,16,2026-03-02_11h33.13.579,2026A_exp2,2022.2.4,60.035360831201004,
1000,1,4.9,0.0,0,0,33,33,78,,,,,122.78317039998365,123.43386200000532,123.43386200000532,123.9349491999892,315,45,123.9349491999892,123.9349491999892,123.9349491999892,123.9349491999892,123.9349491999892,123.9349491999892,123.9349491999892,123.9349491999892,123.9349491999892,124.28478789998917,124.28478789998917,124.28478789998917,124.28478789998917,124.28478789998917,124.28478789998917,124.28478789998917,124.28478789998917,124.28478789998917,22,0,,,124.28478789998917,124.48715979998815,1000,124.50165699998615,1000,1000,1000,1000,0,num_3,0.3012061000044923,,18,16,2026-03-02_11h33.13.579,2026A_exp2,2022.2.4,60.035360831201004,
1000,1,0.0,6.1,1,0,34,34,3,,,,,124.81861079999362,125.46927929998492,125.46927929998492,125.97029090000433,45,315,125.97029090000433,125.97029090000433,125.97029090000433,125.97029090000433,125.97029090000433,125.97029090000433,125.97029090000433,125.97029090000433,125.97029090000433,126.33684569998877,126.33684569998877,126.33684569998877,126.33684569998877,126.33684569998877,126.33684569998877,126.33684569998877,126.33684569998877,126.33684569998877,23,0,,,126.33684569998877,126.53875119998702,1000,126.53875119998702,1000,1000,1000,1000,1,num_2,0.34416609999607317,,18,16,2026-03-02_11h33.13.579,2026A_exp2,2022.2.4,60.035360831201004,
1,0,6.1,0.0,1,0,35,35,54,,,,,126.9038753999921,127.55461289998493,127.55461289998493,128.05592169999727,45,315,128.05592169999727,128.05592169999727,128.05592169999727,128.05592169999727,128.05592169999727,128.05592169999727,128.05592169999727,128.05592169999727,128.05592169999727,128.42235280000023,128.42235280000023,128.42235280000023,128.42235280000023,128.42235280000023,128.42235280000023,128.42235280000023,128.42235280000023,128.42235280000023,23,0,,,128.42235280000023,128.6224944999849,0.0,128.6224944999849,0,0.0,0,1,1000,num_1,0.7247504999977536,,18,16,2026-03-02_11h33.13.579,2026A_exp2,2022.2.4,60.035360831201004,
1,0,6.1,3.7,0,0,36,36,86,,,,,129.37318409999716,130.0097487999883,130.0097487999883,130.50822630000766,315,315,130.50822630000766,130.50822630000766,130.50822630000766,130.50822630000766,130.50822630000766,130.50822630000766,130.50822630000766,130.50822630000766,130.50822630000766,130.87462270000833,130.87462270000833,130.87462270000833,130.87462270000833,130.87462270000833,130.87462270000833,130.87462270000833,130.87462270000833,130.87462270000833,23,0,,,130.87462270000833,131.0748109999986,6.1,131.0748109999986,1,6.1,1,1,1000,num_4,0.35966270000790246,,18,16,2026-03-02_11h33.13.579,2026A_exp2,2022.2.4,60.035360831201004,
1000,1,4.9,6.1,1,0,37,37,18,,,,,131.4587266999879,132.10896399998455,132.10896399998455,132.59373389999382,315,45,132.59373389999382,132.59373389999382,132.59373389999382,132.59373389999382,132.59373389999382,132.59373389999382,132.59373389999382,132.59373389999382,132.59373389999382,132.95994129998144,132.95994129998144,132.95994129998144,132.95994129998144,132.95994129998144,132.95994129998144,132.95994129998144,132.95994129998144,132.95994129998144,23,0,,,132.95994129998144,133.16035379999084,1000,133.16035379999084,1000,1000,1000,1000,1,num_2,0.4983490000013262,,18,16,2026-03-02_11h33.13.579,2026A_exp2,2022.2.4,60.035360831201004,
1,0,4.9,0.0,1,0,38,38,48,,,,,133.67749050000566,134.32793549998314,134.32793549998314,134.81244999999763,315,315,134.81244999999763,134.81244999999763,134.81244999999763,134.81244999999763,134.81244999999763,134.81244999999763,134.81244999999763,134.81244999999763,134.81244999999763,135.17895100000896,135.17895100000896,135.17895100000896,135.17895100000896,135.17895100000896,135.17895100000896,135.17895100000896,135.17895100000896,135.17895100000896,23,0,,,135.17895100000896,135.37924290000228,0.0,135.37924290000228,0,0.0,0,1,1000,num_1,0.9997027000063099,,18,16,2026-03-02_11h33.13.579,2026A_exp2,2022.2.4,60.035360831201004,
1,0,6.1,6.1,0,0,39,39,51,,,,,136.39670489999116,137.047442399984,137.047442399984,137.5320078000077,315,45,137.5320078000077,137.5320078000077,137.5320078000077,137.5320078000077,137.5320078000077,137.5320078000077,137.5320078000077,137.5320078000077,137.5320078000077,137.8982190999959,137.8982190999959,137.8982190999959,137.8982190999959,137.8982190999959,137.8982190999959,137.8982190999959,137.8982190999959,137.8982190999959,23,0,,,137.8982190999959,138.0986683999945,6.1,138.0986683999945,0,6.1,1,0,1000,num_1,0.4568917000142392,,18,16,2026-03-02_11h33.13.579,2026A_exp2,2022.2.4,60.035360831201004,
0,0,3.7,3.7,0,0,40,40,63,,,,,138.58227300000726,139.23306490000687,139.23306490000687,139.7173702,45,315,139.7173702,139.7173702,139.7173702,139.7173702,139.7173702,139.7173702,139.7173702,139.7173702,139.7173702,140.08400629999232,140.08400629999232,140.08400629999232,140.08400629999232,140.08400629999232,140.08400629999232,140.08400629999232,140.08400629999232,140.08400629999232,22,1,[0.13317829999141395],[0.14991680000093766],140.08400629999232,140.28415540000424,3.7,140.28415540000424,1,3.7,1,1,1000,num_4,0.870660599990515,,18,16,2026-03-02_11h33.13.579,2026A_exp2,2022.2.4,60.035360831201004,
1000,1,3.7,6.1,0,0,41,41,81,,,,,141.18485940000392,141.83559119998245,141.83559119998245,142.33679860000848,315,315,142.33679860000848,142.33679860000848,142.33679860000848,142.33679860000848,142.33679860000848,142.33679860000848,142.33679860000848,142.33679860000848,142.33679860000848,142.6865276999888,142.6865276999888,142.6865276999888,142.6865276999888,142.6865276999888,142.6865276999888,142.6865276999888,142.6865276999888,142.6865276999888,22,0,,,142.6865276999888,142.88881740000215,1000,142.88881740000215,1000,1000,1000,1000,0,num_3,0.7701101999846287,,18,16,2026-03-02_11h33.13.579,2026A_exp2,2022.2.4,60.035360831201004,
1000,1,0.0,4.9,0,0,42,42,27,,,,,143.6874386999989,144.33815369999502,144.33815369999502,144.83919969998533,315,45,144.83919969998533,144.83919969998533,144.83919969998533,144.83919969998533,144.83919969998533,144.83919969998533,144.83919969998533,144.83919969998533,144.83919969998533,145.20570120000048,145.20570120000048,145.20570120000048,145.20570120000048,145.20570120000048,145.20570120000048,145.20570120000048,145.20570120000048,145.20570120000048,23,0,,,145.20570120000048,145.40778549999231,1000,145.40778549999231,1000,1000,1000,1000,1,num_2,0.5150739999953657,,18,16,2026-03-02_11h33.13.579,2026A_exp2,2022.2.4,60.035360831201004,
1,0,6.1,0.0,0,0,43,43,24,,,,,145.93987450000714,146.5905722999887,146.5905722999887,147.09144620000734,315,315,147.09144620000734,147.09144620000734,147.09144620000734,147.09144620000734,147.09144620000734,147.09144620000734,147.09144620000734,147.09144620000734,147.09144620000734,147.45787379998364,147.45787379998364,147.45787379998364,147.45787379998364,147.45787379998364,147.45787379998364,147.45787379998364,147.45787379998364,147.45787379998364,23,0,,,147.45787379998364,147.6581070999964,6.1,147.6581070999964,1,6.1,1,1,1000,num_4,0.5291562000056729,,18,16,2026-03-02_11h33.13.579,2026A_exp2,2022.2.4,60.035360831201004,
1000,1,6.1,0.0,0,0,44,44,8,,,,,148.21045620000223,148.86150790000102,148.86150790000102,149.36573869999847,45,315,149.36573869999847,149.36573869999847,149.36573869999847,149.36573869999847,149.36573869999847,149.36573869999847,149.36573869999847,149.36573869999847,149.36573869999847,149.72670470000594,149.72670470000594,149.72670470000594,149.72670470000594,149.72670470000594,149.72670470000594,149.72670470000594,149.72670470000594,149.72670470000594,23,0,,,149.72670470000594,149.92894620000152,1000,149.92894620000152,1000,1000,1000,1000,0,num_3,0.5142673999944236,,18,16,2026-03-02_11h33.13.579,2026A_exp2,2022.2.4,60.035360831201004,
1000,1,3.7,3.7,0,0,45,45,16,,,,,150.46088609998696,151.11162640000111,151.11162640000111,151.61276699998416,45,45,151.61276699998416,151.61276699998416,151.61276699998416,151.61276699998416,151.61276699998416,151.61276699998416,151.61276699998416,151.61276699998416,151.61276699998416,151.9791399000096,151.9791399000096,151.9791399000096,151.9791399000096,151.9791399000096,151.9791399000096,151.9791399000096,151.9791399000096,151.9791399000096,23,0,,,151.9791399000096,152.18203729999368,1000,152.18203729999368,1000,1000,1000,1000,0,num_3,0.46147059998475015,,18,16,2026-03-02_11h33.13.579,2026A_exp2,2022.2.4,60.035360831201004,
1,0,0.0,3.7,0,0,46,46,2,,,,,152.66301550000207,153.31403730000602,153.31403730000602,153.8148685999913,45,315,153.8148685999913,153.8148685999913,153.8148685999913,153.8148685999913,153.8148685999913,153.8148685999913,153.8148685999913,153.8148685999913,153.8148685999913,154.16469239999424,154.16469239999424,154.16469239999424,154.16469239999424,154.16469239999424,154.16469239999424,154.16469239999424,154.16469239999424,154.16469239999424,22,0,,,154.16469239999424,154.36466009999276,0.0,154.36466009999276,0,0.0,0,1,1000,num_1,0.9262739999976475,,18,16,2026-03-02_11h33.13.579,2026A_exp2,2022.2.4,60.035360831201004,
1000,1,0.0,4.9,0,0,47,47,9,,,,,155.3157296999998,155.96631560000242,155.96631560000242,156.45075719998567,45,315,156.45075719998567,156.45075719998567,156.45075719998567,156.45075719998567,156.45075719998567,156.45075719998567,156.45075719998567,156.45075719998567,156.45075719998567,156.81728920000023,156.81728920000023,156.81728920000023,156.81728920000023,156.81728920000023,156.81728920000023,156.81728920000023,156.81728920000023,156.81728920000023,23,0,,,156.81728920000023,157.0189454999927,1000,157.0189454999927,1000,1000,1000,1000,1,num_2,0.5435943999909796,,18,16,2026-03-02_11h33.13.579,2026A_exp2,2022.2.4,60.035360831201004,
1000,1,0.0,0.0,0,0,48,48,5,,,,,157.5846048000094,158.23526039998978,158.23526039998978,158.73653470000136,45,315,158.73653470000136,158.73653470000136,158.73653470000136,158.73653470000136,158.73653470000136,158.73653470000136,158.73653470000136,158.73653470000136,158.73653470000136,159.10289429998375,159.10289429998375,159.10289429998375,159.10289429998375,159.10289429998375,159.10289429998375,159.10289429998375,159.10289429998375,159.10289429998375,23,0,,,159.10289429998375,159.30504189999192,1000,159.30504189999192,1000,1000,1000,1000,1,num_2,0.7697292999946512,,18,16,2026-03-02_11h33.13.579,2026A_exp2,2022.2.4,60.035360831201004,
1,0,0.0,3.7,1,0,49,49,10,,,,,160.10384399999748,160.76543159998255,160.76543159998255,161.24430089999805,315,45,161.24430089999805,161.24430089999805,161.24430089999805,161.24430089999805,161.24430089999805,161.24430089999805,161.24430089999805,161.24430089999805,161.24430089999805,161.60528519999934,161.60528519999934,161.60528519999934,161.60528519999934,161.60528519999934,161.60528519999934,161.60528519999934,161.60528519999934,161.60528519999934,23,0,,,161.60528519999934,161.80554709999706,3.7,161.80554709999706,1,3.7,1,1,1000,num_4,0.7661282999906689,,18,16,2026-03-02_11h33.13.579,2026A_exp2,2022.2.4,60.035360831201004,
1,0,0.0,6.1,0,0,50,50,72,,,,,162.58954889999586,163.2401053000067,163.2401053000067,163.74149369998486,315,315,163.74149369998486,163.74149369998486,163.74149369998486,163.74149369998486,163.74149369998486,163.74149369998486,163.74149369998486,163.74149369998486,163.74149369998486,164.10826770000858,164.10826770000858,164.10826770000858,164.10826770000858,164.10826770000858,164.10826770000858,164.10826770000858,164.10826770000858,164.10826770000858,23,0,,,164.10826770000858,164.30813980000676,0.0,164.30813980000676,0,0.0,0,1,1000,num_1,1.0151525000110269,,18,16,2026-03-02_11h33.13.579,2026A_exp2,2022.2.4,60.035360831201004,
1,0,3.7,3.7,1,0,51,51,64,,,,,165.34230029999162,165.97642170000472,165.97642170000472,166.47745989999385,315,315,166.47745989999385,166.47745989999385,166.47745989999385,166.47745989999385,166.47745989999385,166.47745989999385,166.47745989999385,166.47745989999385,166.47745989999385,166.84387399998377,166.84387399998377,166.84387399998377,166.84387399998377,166.84387399998377,166.84387399998377,166.84387399998377,166.84387399998377,166.84387399998377,23,0,,,166.84387399998377,167.0441390000051,3.7,167.0441390000051,1,3.7,1,1,1000,num_4,0.38329920000978746,,18,16,2026-03-02_11h33.13.579,2026A_exp2,2022.2.4,60.035360831201004,
1,0,4.9,0.0,0,0,52,52,23,,,,,167.4444542999845,168.09522779998952,168.09522779998952,168.57969349998166,45,315,168.57969349998166,168.57969349998166,168.57969349998166,168.57969349998166,168.57969349998166,168.57969349998166,168.57969349998166,168.57969349998166,168.57969349998166,168.94611900000018,168.94611900000018,168.94611900000018,168.94611900000018,168.94611900000018,168.94611900000018,168.94611900000018,168.94611900000018,168.94611900000018,23,0,,,168.94611900000018,169.1462978000054,4.9,169.1462978000054,1,4.9,1,1,1000,num_4,0.31273969999165274,,18,16,2026-03-02_11h33.13.579,2026A_exp2,2022.2.4,60.035360831201004,
1000,1,3.7,0.0,0,0,53,53,37,,,,,169.47980060000555,170.13060689999838,170.13060689999838,170.61492399999406,45,315,170.61492399999406,170.61492399999406,170.61492399999406,170.61492399999406,170.61492399999406,170.61492399999406,170.61492399999406,170.61492399999406,170.61492399999406,170.98144679999677,170.98144679999677,170.98144679999677,170.98144679999677,170.98144679999677,170.98144679999677,170.98144679999677,170.98144679999677,170.98144679999677,23,0,,,170.98144679999677,171.18342699998175,1000,171.18342699998175,1000,1000,1000,1000,0,num_3,0.6675525000027847,,18,16,2026-03-02_11h33.13.579,2026A_exp2,2022.2.4,60.035360831201004,
1,0,0.0,3.7,1,0,54,54,25,,,,,171.88257640000666,172.5163426999934,172.5163426999934,173.01735079998616,315,45,173.01735079998616,173.01735079998616,173.01735079998616,173.01735079998616,173.01735079998616,173.01735079998616,173.01735079998616,173.01735079998616,173.01735079998616,173.3838684000075,173.3838684000075,173.3838684000075,173.3838684000075,173.3838684000075,173.3838684000075,173.3838684000075,173.3838684000075,173.3838684000075,23,0,,,173.3838684000075,173.58408979998785,3.7,173.58408979998785,1,3.7,1,1,1000,num_4,0.36299910000525415,,18,16,2026-03-02_11h33.13.579,2026A_exp2,2022.2.4,60.035360831201004,
1000,1,6.1,3.7,0,0,55,55,61,,,,,173.9677257000003,174.61847680000938,174.61847680000938,175.1027510999993,45,45,175.1027510999993,175.1027510999993,175.1027510999993,175.1027510999993,175.1027510999993,175.1027510999993,175.1027510999993,175.1027510999993,175.1027510999993,175.4693439999828,175.4693439999828,175.4693439999828,175.4693439999828,175.4693439999828,175.4693439999828,175.4693439999828,175.4693439999828,175.4693439999828,23,0,,,175.4693439999828,175.6712930999929,1000,175.6712930999929,1000,1000,1000,1000,0,num_3,0.4840925000025891,,18,16,2026-03-02_11h33.13.579,2026A_exp2,2022.2.4,60.035360831201004,
1000,1,6.1,4.9,1,0,56,56,76,,,,,176.18675839999923,176.83751350000966,176.83751350000966,177.3216592000099,45,315,177.3216592000099,177.3216592000099,177.3216592000099,177.3216592000099,177.3216592000099,177.3216592000099,177.3216592000099,177.3216592000099,177.3216592000099,177.68815360000008,177.68815360000008,177.68815360000008,177.68815360000008,177.68815360000008,177.68815360000008,177.68815360000008,177.68815360000008,177.68815360000008,23,0,,,177.68815360000008,177.89026549999835,1000,177.89026549999835,1000,1000,1000,1000,1,num_2,0.5934293000027537,,18,16,2026-03-02_11h33.13.579,2026A_exp2,2022.2.4,60.035360831201004,
1000,1,3.7,3.7,1,0,57,57,46,,,,,178.50561819999712,179.1561708000081,179.1561708000081,179.6572610999865,315,45,179.6572610999865,179.6572610999865,179.6572610999865,179.6572610999865,179.6572610999865,179.6572610999865,179.6572610999865,179.6572610999865,179.6572610999865,180.00710109999636,180.00710109999636,180.00710109999636,180.00710109999636,180.00710109999636,180.00710109999636,180.00710109999636,180.00710109999636,180.00710109999636,22,0,,,180.00710109999636,180.20918499998515,1000,180.22418329998618,1000,1000,1000,1000,1,num_2,0.491583900002297,,18,16,2026-03-02_11h33.13.579,2026A_exp2,2022.2.4,60.035360831201004,
1,0,0.0,3.7,1,0,58,58,12,,,,,180.74103370000375,181.39186989999143,181.39186989999143,181.89300799998455,45,315,181.89300799998455,181.89300799998455,181.89300799998455,181.89300799998455,181.89300799998455,181.89300799998455,181.89300799998455,181.89300799998455,181.89300799998455,182.242748699995,182.242748699995,182.242748699995,182.242748699995,182.242748699995,182.242748699995,182.242748699995,182.242748699995,182.242748699995,22,0,,,182.242748699995,182.44280099999742,3.7,182.4595980999875,1,3.7,1,1,1000,num_4,0.6149980000045616,,18,16,2026-03-02_11h33.13.579,2026A_exp2,2022.2.4,60.035360831201004,
1,0,3.7,6.1,1,0,59,59,6,,,,,183.09343219999573,183.74425079999492,183.74425079999492,184.22856069999398,315,315,184.22856069999398,184.22856069999398,184.22856069999398,184.22856069999398,184.22856069999398,184.22856069999398,184.22856069999398,184.22856069999398,184.22856069999398,184.5949988999928,184.5949988999928,184.5949988999928,184.5949988999928,184.5949988999928,184.5949988999928,184.5949988999928,184.5949988999928,184.5949988999928,23,0,,,184.5949988999928,184.79525039999862,6.1,184.79525039999862,1,6.1,1,1,1000,num_4,0.3841174000117462,,18,16,2026-03-02_11h33.13.579,2026A_exp2,2022.2.4,60.035360831201004,
1000,1,4.9,4.9,1,0,60,60,26,,,,,185.1955049999815,185.84634049999295,185.84634049999295,186.33077339999727,45,315,186.33077339999727,186.33077339999727,186.33077339999727,186.33077339999727,186.33077339999727,186.33077339999727,186.33077339999727,186.33077339999727,186.33077339999727,186.69714179998846,186.69714179998846,186.69714179998846,186.69714179998846,186.69714179998846,186.69714179998846,186.69714179998846,186.69714179998846,186.69714179998846,23,0,,,186.69714179998846,186.89748829999007,1000,186.89748829999007,1000,1000,1000,1000,1,num_2,0.6890730000159238,,18,16,2026-03-02_11h33.13.579,2026A_exp2,2022.2.4,60.035360831201004,
1,0,3.7,0.0,1,0,61,61,59,,,,,187.61467569999513,188.26515419999487,188.26515419999487,188.76654640000197,315,315,188.76654640000197,188.76654640000197,188.76654640000197,188.76654640000197,188.76654640000197,188.76654640000197,188.76654640000197,188.76654640000197,188.76654640000197,189.13294350000797,189.13294350000797,189.13294350000797,189.13294350000797,189.13294350000797,189.13294350000797,189.13294350000797,189.13294350000797,189.13294350000797,23,0,,,189.13294350000797,189.33312219998334,0.0,189.33312219998334,1,0.0,0,0,1000,num_4,0.3976648999960162,,18,16,2026-03-02_11h33.13.579,2026A_exp2,2022.2.4,60.035360831201004,
1000,1,4.9,4.9,0,0,62,62,34,,,,,189.75010720000137,190.40082439998514,190.40082439998514,190.8853567999904,45,315,190.8853567999904,190.8853567999904,190.8853567999904,190.8853567999904,190.8853567999904,190.8853567999904,190.8853567999904,190.8853567999904,190.8853567999904,191.251694400009,191.251694400009,191.251694400009,191.251694400009,191.251694400009,191.251694400009,191.251694400009,191.251694400009,191.251694400009,23,0,,,191.251694400009,191.4535813999828,1000,191.4535813999828,1000,1000,1000,1000,0,num_3,0.453078499995172,,18,16,2026-03-02_11h33.13.579,2026A_exp2,2022.2.4,60.035360831201004,
0,0,0.0,0.0,0,0,63,63,67,,,,,191.93581009999616,192.5866538999835,192.5866538999835,193.087483899988,315,45,193.087483899988,193.087483899988,193.087483899988,193.087483899988,193.087483899988,193.087483899988,193.087483899988,193.087483899988,193.087483899988,193.45398379999097,193.45398379999097,193.45398379999097,193.45398379999097,193.45398379999097,193.45398379999097,193.45398379999097,193.45398379999097,193.45398379999097,23,0,,,193.45398379999097,193.65421780000906,0.0,193.65421780000906,0,0.0,0,1,1000,num_1,1.0932342000014614,,18,16,2026-03-02_11h33.13.579,2026A_exp2,2022.2.4,60.035360831201004,
1,0,0.0,0.0,1,0,64,64,53,,,,,194.77185940000345,195.42246860000887,195.42246860000887,195.90704550000373,315,315,195.90704550000373,195.90704550000373,195.90704550000373,195.90704550000373,195.90704550000373,195.90704550000373,195.90704550000373,195.90704550000373,195.90704550000373,196.2733614000026,196.2733614000026,196.2733614000026,196.2733614000026,196.2733614000026,196.2733614000026,196.2733614000026,196.2733614000026,196.2733614000026,23,0,,,196.2733614000026,196.47721670000465,0.0,196.47721670000465,0,0.0,0,1,1000,num_1,0.7252416999835987,,18,16,2026-03-02_11h33.13.579,2026A_exp2,2022.2.4,60.035360831201004,
1000,1,0.0,0.0,1,0,65,65,70,,,,,197.224187099986,197.87499889999162,197.87499889999162,198.35929259998375,315,45,198.35929259998375,198.35929259998375,198.35929259998375,198.35929259998375,198.35929259998375,198.35929259998375,198.35929259998375,198.35929259998375,198.35929259998375,198.72563589998754,198.72563589998754,198.72563589998754,198.72563589998754,198.72563589998754,198.72563589998754,198.72563589998754,198.72563589998754,198.72563589998754,23,0,,,198.72563589998754,198.92839660000755,1000,198.92839660000755,1000,1000,1000,1000,0,num_3,0.8823383999988437,,18,16,2026-03-02_11h33.13.579,2026A_exp2,2022.2.4,60.035360831201004,
1000,1,6.1,6.1,0,0,66,66,50,,,,,199.82689379999647,200.47747610000079,200.47747610000079,200.97880599999917,315,315,200.97880599999917,200.97880599999917,200.97880599999917,200.97880599999917,200.97880599999917,200.97880599999917,200.97880599999917,200.97880599999917,200.97880599999917,201.34523049998097,201.34523049998097,201.34523049998097,201.34523049998097,201.34523049998097,201.34523049998097,201.34523049998097,201.34523049998097,201.34523049998097,23,0,,,201.34523049998097,201.54743380000582,1000,201.54743380000582,1000,1000,1000,1000,0,num_3,0.4388370000233408,,18,16,2026-03-02_11h33.13.579,2026A_exp2,2022.2.4,60.035360831201004,
1000,1,0.0,0.0,0,0,67,67,47,,,,,202.01256509998348,202.66317569999956,202.66317569999956,203.14752450000378,315,45,203.14752450000378,203.14752450000378,203.14752450000378,203.14752450000378,203.14752450000378,203.14752450000378,203.14752450000378,203.14752450000378,203.14752450000378,203.51400989998365,203.51400989998365,203.51400989998365,203.51400989998365,203.51400989998365,203.51400989998365,203.51400989998365,203.51400989998365,203.51400989998365,23,0,,,203.51400989998365,203.71633520000614,1000,203.71633520000614,1000,1000,1000,1000,0,num_3,0.559324400004698,,18,16,2026-03-02_11h33.13.579,2026A_exp2,2022.2.4,60.035360831201004,
1,0,6.1,0.0,1,0,68,68,38,,,,,204.29797260000487,204.94873360000202,204.94873360000202,205.44989200000418,315,45,205.44989200000418,205.44989200000418,205.44989200000418,205.44989200000418,205.44989200000418,205.44989200000418,205.44989200000418,205.44989200000418,205.44989200000418,205.8163493000029,205.8163493000029,205.8163493000029,205.8163493000029,205.8163493000029,205.8163493000029,205.8163493000029,205.8163493000029,205.8163493000029,23,0,,,205.8163493000029,206.01654849998886,0.0,206.01654849998886,0,0.0,0,1,1000,num_1,0.8429591000021901,,18,16,2026-03-02_11h33.13.579,2026A_exp2,2022.2.4,60.035360831201004,
1000,1,0.0,0.0,0,0,69,69,41,,,,,206.88390729998355,207.53455039998516,207.53455039998516,208.0191278999846,315,45,208.0191278999846,208.0191278999846,208.0191278999846,208.0191278999846,208.0191278999846,208.0191278999846,208.0191278999846,208.0191278999846,208.0191278999846,208.38541129999794,208.38541129999794,208.38541129999794,208.38541129999794,208.38541129999794,208.38541129999794,208.38541129999794,208.38541129999794,208.38541129999794,23,0,,,208.38541129999794,208.58753119999892,1000,208.58753119999892,1000,1000,1000,1000,1,num_2,1.08782610000344,,18,16,2026-03-02_11h33.13.579,2026A_exp2,2022.2.4,60.035360831201004,
1000,1,3.7,4.9,0,0,70,70,13,,,,,209.70326149999164,210.35414680000395,210.35414680000395,210.85525160000543,315,45,210.85525160000543,210.85525160000543,210.85525160000543,210.85525160000543,210.85525160000543,210.85525160000543,210.85525160000543,210.85525160000543,210.85525160000543,211.22167639998952,211.22167639998952,211.22167639998952,211.22167639998952,211.22167639998952,211.22167639998952,211.22167639998952,211.22167639998952,211.22167639998952,23,0,,,211.22167639998952,211.4236014999915,1000,211.4236014999915,1000,1000,1000,1000,0,num_3,0.49908439998398535,,18,16,2026-03-02_11h33.13.579,2026A_exp2,2022.2.4,60.035360831201004,
1,0,4.9,0.0,0,0,71,71,87,,,,,211.93925589998253,212.5897549999936,212.5897549999936,213.09088959998917,45,315,213.09088959998917,213.09088959998917,213.09088959998917,213.09088959998917,213.09088959998917,213.09088959998917,213.09088959998917,213.09088959998917,213.09088959998917,213.45720089998213,213.45720089998213,213.45720089998213,213.45720089998213,213.45720089998213,213.45720089998213,213.45720089998213,213.45720089998213,213.45720089998213,23,0,,,213.45720089998213,213.65747879998526,4.9,213.65747879998526,1,4.9,1,1,1000,num_4,0.42629220001981594,,18,16,2026-03-02_11h33.13.579,2026A_exp2,2022.2.4,60.035360831201004,
1000,1,3.7,0.0,1,0,72,72,44,,,,,214.10777879998204,214.75830339998356,214.75830339998356,215.2428616999823,45,315,215.2428616999823,215.2428616999823,215.2428616999823,215.2428616999823,215.2428616999823,215.2428616999823,215.2428616999823,215.2428616999823,215.2428616999823,215.60927680000896,215.60927680000896,215.60927680000896,215.60927680000896,215.60927680000896,215.60927680000896,215.60927680000896,215.60927680000896,215.60927680000896,23,0,,,215.60927680000896,215.82289029998356,1000,215.82289029998356,1000,1000,1000,1000,1,num_2,0.6128496000019368,,18,16,2026-03-02_11h33.13.579,2026A_exp2,2022.2.4,60.035360831201004,
1,0,6.1,4.9,0,0,73,73,30,,,,,216.46020850000787,217.11087269999553,217.11087269999553,217.61194229999091,315,315,217.61194229999091,217.61194229999091,217.61194229999091,217.61194229999091,217.61194229999091,217.61194229999091,217.61194229999091,217.61194229999091,217.61194229999091,217.961819499993,217.961819499993,217.961819499993,217.961819499993,217.961819499993,217.961819499993,217.961819499993,217.961819499993,217.961819499993,22,0,,,217.961819499993,218.16200179999578,6.1,218.17869999998948,1,6.1,1,1,1000,num_4,0.5201541000278667,,18,16,2026-03-02_11h33.13.579,2026A_exp2,2022.2.4,60.035360831201004,
0,0,0.0,0.0,0,0,74,74,69,,,,,218.72909730000538,219.36469990000478,219.36469990000478,219.86822129998473,45,45,219.86822129998473,219.86822129998473,219.86822129998473,219.86822129998473,219.86822129998473,219.86822129998473,219.86822129998473,219.86822129998473,219.86822129998473,220.23063750000438,220.23063750000438,220.23063750000438,220.23063750000438,220.23063750000438,220.23063750000438,220.23063750000438,220.23063750000438,220.23063750000438,23,0,,,220.23063750000438,220.43094839999685,0.0,220.43094839999685,0,0.0,0,1,1000,num_1,0.7554311999992933,,18,16,2026-03-02_11h33.13.579,2026A_exp2,2022.2.4,60.035360831201004,
1,0,0.0,0.0,0,0,75,75,49,,,,,221.21479969998472,221.86556949999067,221.86556949999067,222.34999319998315,45,315,222.34999319998315,222.34999319998315,222.34999319998315,222.34999319998315,222.34999319998315,222.34999319998315,222.34999319998315,222.34999319998315,222.34999319998315,222.71689360000892,222.71689360000892,222.71689360000892,222.71689360000892,222.71689360000892,222.71689360000892,222.71689360000892,222.71689360000892,222.71689360000892,23,0,,,222.71689360000892,222.91654800000833,0.0,222.91654800000833,1,0.0,0,0,1000,num_4,0.9017316000245046,,18,16,2026-03-02_11h33.13.579,2026A_exp2,2022.2.4,60.035360831201004,
1000,1,0.0,3.7,1,0,76,76,43,,,,,223.83520030000363,224.4683129999903,224.4683129999903,224.9694535000017,315,45,224.9694535000017,224.9694535000017,224.9694535000017,224.9694535000017,224.9694535000017,224.9694535000017,224.9694535000017,224.9694535000017,224.9694535000017,225.33564989999286,225.33564989999286,225.33564989999286,225.33564989999286,225.33564989999286,225.33564989999286,225.33564989999286,225.33564989999286,225.33564989999286,23,0,,,225.33564989999286,225.53787969998666,1000,225.53787969998666,1000,1000,1000,1000,1,num_2,0.6009141000104137,,18,16,2026-03-02_11h33.13.579,2026A_exp2,2022.2.4,60.035360831201004,
1,0,0.0,0.0,0,0,77,77,19,,,,,226.16983120000805,226.8206838000042,226.8206838000042,227.32186219998403,45,315,227.32186219998403,227.32186219998403,227.32186219998403,227.32186219998403,227.32186219998403,227.32186219998403,227.32186219998403,227.32186219998403,227.32186219998403,227.68819399998756,227.68819399998756,227.68819399998756,227.68819399998756,227.68819399998756,227.68819399998756,227.68819399998756,227.68819399998756,227.68819399998756,23,0,,,227.68819399998756,227.8884018000099,0.0,227.8884018000099,0,0.0,0,1,1000,num_1,0.3868521999975201,,18,16,2026-03-02_11h33.13.579,2026A_exp2,2022.2.4,60.035360831201004,
1,0,6.1,6.1,1,0,78,78,89,,,,,228.3054439999978,228.9559318999818,228.9559318999818,229.4405174999847,45,45,229.4405174999847,229.4405174999847,229.4405174999847,229.4405174999847,229.4405174999847,229.4405174999847,229.4405174999847,229.4405174999847,229.4405174999847,229.80690830000094,229.80690830000094,229.80690830000094,229.80690830000094,229.80690830000094,229.80690830000094,229.80690830000094,229.80690830000094,229.80690830000094,23,0,,,229.80690830000094,230.00705439999,6.1,230.00705439999,1,6.1,1,1,1000,num_4,0.3715614000102505,,18,16,2026-03-02_11h33.13.579,2026A_exp2,2022.2.4,60.035360831201004,
1000,1,4.9,0.0,1,0,79,79,28,,,,,230.40741049998906,231.05793670000276,231.05793670000276,231.54264229998807,45,45,231.54264229998807,231.54264229998807,231.54264229998807,231.54264229998807,231.54264229998807,231.54264229998807,231.54264229998807,231.54264229998807,231.54264229998807,231.90900029998738,231.90900029998738,231.90900029998738,231.90900029998738,231.90900029998738,231.90900029998738,231.90900029998738,231.90900029998738,231.90900029998738,23,0,,,231.90900029998738,232.11130580000463,1000,232.11130580000463,1000,1000,1000,1000,0,num_3,0.8044200000003912,,18,16,2026-03-02_11h33.13.579,2026A_exp2,2022.2.4,60.035360831201004,
0,0,3.7,6.1,1,0,80,80,17,,,,,232.94330749998335,233.59393179998733,233.59393179998733,234.09518269999535,45,315,234.09518269999535,234.09518269999535,234.09518269999535,234.09518269999535,234.09518269999535,234.09518269999535,234.09518269999535,234.09518269999535,234.09518269999535,234.46169910000754,234.46169910000754,234.46169910000754,234.46169910000754,234.46169910000754,234.46169910000754,234.46169910000754,234.46169910000754,234.46169910000754,23,0,,,234.46169910000754,234.66184590000194,3.7,234.66184590000194,0,3.7,1,0,1000,num_1,0.6292764999961946,,18,16,2026-03-02_11h33.13.579,2026A_exp2,2022.2.4,60.035360831201004,
1000,1,0.0,0.0,1,0,81,81,71,,,,,235.31230499999947,235.96314819998224,235.96314819998224,236.44746490000398,315,45,236.44746490000398,236.44746490000398,236.44746490000398,236.44746490000398,236.44746490000398,236.44746490000398,236.44746490000398,236.44746490000398,236.44746490000398,236.81388770000194,236.81388770000194,236.81388770000194,236.81388770000194,236.81388770000194,236.81388770000194,236.81388770000194,236.81388770000194,236.81388770000194,23,0,,,236.81388770000194,237.01641350000864,1000,237.01641350000864,1000,1000,1000,1000,1,num_2,0.5708173000020906,,18,16,2026-03-02_11h33.13.579,2026A_exp2,2022.2.4,60.035360831201004,
1,0,0.0,4.9,1,0,82,82,36,,,,,237.61466110000038,238.26541449999786,238.26541449999786,238.76625539999804,45,315,238.76625539999804,238.76625539999804,238.76625539999804,238.76625539999804,238.76625539999804,238.76625539999804,238.76625539999804,238.76625539999804,238.76625539999804,239.11609949998092,239.11609949998092,239.11609949998092,239.11609949998092,239.11609949998092,239.11609949998092,239.11609949998092,239.11609949998092,239.11609949998092,22,0,,,239.11609949998092,239.31638460000977,4.9,239.33285209999303,1,4.9,1,1,1000,num_4,0.38249740001629107,,18,16,2026-03-02_11h33.13.579,2026A_exp2,2022.2.4,60.035360831201004,
1000,1,4.9,3.7,1,0,83,83,14,,,,,239.7333595000091,240.3842108999961,240.3842108999961,240.86848309999914,45,45,240.86848309999914,240.86848309999914,240.86848309999914,240.86848309999914,240.86848309999914,240.86848309999914,240.86848309999914,240.86848309999914,240.86848309999914,241.23508189999848,241.23508189999848,241.23508189999848,241.23508189999848,241.23508189999848,241.23508189999848,241.23508189999848,241.23508189999848,241.23508189999848,23,0,,,241.23508189999848,241.43678789999103,1000,241.43678789999103,1000,1000,1000,1000,1,num_2,0.4857183999847621,,18,16,2026-03-02_11h33.13.579,2026A_exp2,2022.2.4,60.035360831201004,
1000,1,6.1,0.0,0,0,84,84,58,,,,,241.93888639999204,242.58643769999617,242.58643769999617,243.08745739998994,315,315,243.08745739998994,243.08745739998994,243.08745739998994,243.08745739998994,243.08745739998994,243.08745739998994,243.08745739998994,243.08745739998994,243.08745739998994,243.45436959998915,243.45436959998915,243.45436959998915,243.45436959998915,243.45436959998915,243.45436959998915,243.45436959998915,243.45436959998915,243.45436959998915,23,0,,,243.45436959998915,243.65607679999084,1000,243.65607679999084,1000,1000,1000,1000,0,num_3,0.3944659999979194,,18,16,2026-03-02_11h33.13.579,2026A_exp2,2022.2.4,60.035360831201004,
1,0,3.7,4.9,0,0,85,85,84,,,,,244.07100629998604,244.72187059998396,244.72187059998396,245.2229136999813,45,45,245.2229136999813,245.2229136999813,245.2229136999813,245.2229136999813,245.2229136999813,245.2229136999813,245.2229136999813,245.2229136999813,245.2229136999813,245.57274959998904,245.57274959998904,245.57274959998904,245.57274959998904,245.57274959998904,245.57274959998904,245.57274959998904,245.57274959998904,245.57274959998904,22,0,,,245.57274959998904,245.77292059999309,3.7,245.77292059999309,1,3.7,1,1,1000,num_4,0.43867050000699237,,18,16,2026-03-02_11h33.13.579,2026A_exp2,2022.2.4,60.035360831201004,
1000,1,6.1,0.0,1,0,86,86,52,,,,,246.2399107000092,246.89065719998325,246.89065719998325,247.37501200000406,315,45,247.37501200000406,247.37501200000406,247.37501200000406,247.37501200000406,247.37501200000406,247.37501200000406,247.37501200000406,247.37501200000406,247.37501200000406,247.74155059998157,247.74155059998157,247.74155059998157,247.74155059998157,247.74155059998157,247.74155059998157,247.74155059998157,247.74155059998157,247.74155059998157,23,0,,,247.74155059998157,247.94316940000863,1000,247.94316940000863,1000,1000,1000,1000,0,num_3,0.5564813999808393,,18,16,2026-03-02_11h33.13.579,2026A_exp2,2022.2.4,60.035360831201004,
1000,1,0.0,4.9,1,0,87,87,73,,,,,248.52555560000474,249.17628949999926,249.17628949999926,249.6775023000082,315,315,249.6775023000082,249.6775023000082,249.6775023000082,249.6775023000082,249.6775023000082,249.6775023000082,249.6775023000082,249.6775023000082,249.6775023000082,250.02718649999588,250.02718649999588,250.02718649999588,250.02718649999588,250.02718649999588,250.02718649999588,250.02718649999588,250.02718649999588,250.02718649999588,22,0,,,250.02718649999588,250.22891629999503,1000,250.24404429999413,1000,1000,1000,1000,1,num_2,0.4794428000168409,,18,16,2026-03-02_11h33.13.579,2026A_exp2,2022.2.4,60.035360831201004,
1000,1,0.0,6.1,0,0,88,88,83,,,,,250.7444242000056,251.39523100000224,251.39523100000224,251.89637719999882,315,45,251.89637719999882,251.89637719999882,251.89637719999882,251.89637719999882,251.89637719999882,251.89637719999882,251.89637719999882,251.89637719999882,251.89637719999882,252.26232720000553,252.26232720000553,252.26232720000553,252.26232720000553,252.26232720000553,252.26232720000553,252.26232720000553,252.26232720000553,252.26232720000553,23,0,,,252.26232720000553,252.46275020000758,1000,252.46275020000758,1000,1000,1000,1000,1,num_2,0.36440330001641996,,18,16,2026-03-02_11h33.13.579,2026A_exp2,2022.2.4,60.035360831201004,
1,0,0.0,0.0,0,0,89,89,29,,,,,252.84659199998714,253.49730270000873,253.49730270000873,253.99824859999353,45,315,253.99824859999353,253.99824859999353,253.99824859999353,253.99824859999353,253.99824859999353,253.99824859999353,253.99824859999353,253.99824859999353,253.99824859999353,254.3479304999928,254.3479304999928,254.3479304999928,254.3479304999928,254.3479304999928,254.3479304999928,254.3479304999928,254.3479304999928,254.3479304999928,22,0,,,254.3479304999928,254.548275499983,0.0,254.548275499983,0,0.0,0,1,1000,num_1,0.7825627000129316,,18,16,2026-03-02_11h33.13.579,2026A_exp2,2022.2.4,60.035360831201004,
,,,,,,,,,,,,,,,,,,,,,,,,,,,,,,,,,,,,,,,,,,,,,,,,,,,,255.3578220999916,,,,,,,
