validity,detectorcomp,contrastCW,contrastCCW,precueCWorCCW,block_80trials.thisRepN,block_80trials.thisTrialN,block_80trials.thisN,block_80trials.thisIndex,etRecord.started,etRecord.stopped,text.started,text.stopped,text_4.started,text_4.stopped,text_6.started,text_6.stopped,oriCW,oriCCW,roi_2.started,grating_UR.started,grating_UL.started,grating_LR.started,grating_LL.started,noise_UR.started,noise_UL.started,noise_LR.started,noise_LL.started,roi_2.stopped,grating_UR.stopped,grating_UL.stopped,grating_LR.stopped,grating_LL.stopped,noise_UR.stopped,noise_UL.stopped,noise_LR.stopped,noise_LL.stopped,outframe,roi_2.numLooks,roi_2.timesOn,roi_2.timesOff,text_2.started,text_2.stopped,probedcontrast,key_resp.started,respdetect,relevantContrast,correctDetect,TorFdetect,respCWorCCW,key_resp.keys,key_resp.rt,feedback_display_.started,participantNo,blockNo,date,expName,psychopyVersion,frameRate,
1000,1,6.1,6.1,0,0,0,0,50,4.630000330507755e-05,4.630000330507755e-05,44.22432300000219,46.22925029997714,46.22925029997714,46.87889210000867,46.87889210000867,47.38587539998116,45,45,47.38587539998116,47.38587539998116,47.38587539998116,47.38587539998116,47.38587539998116,47.38587539998116,47.38587539998116,47.38587539998116,47.38587539998116,47.72900019999361,47.72900019999361,47.72900019999361,47.72900019999361,47.72900019999361,47.72900019999361,47.72900019999361,47.72900019999361,47.72900019999361,23,0,,,47.72900019999361,47.931481099978555,1000,47.931481099978555,1000,1000,1000,1000,1,num_2,0.5617272000527009,,26,16,2026-03-05_11h35.49.353,2026A_exp2,2022.2.4,59.965663657829815,
1,0,0.0,6.1,0,0,1,1,72,,,,,48.51323580002645,49.16376800002763,49.16376800002763,49.66484340000898,45,45,49.66484340000898,49.66484340000898,49.66484340000898,49.66484340000898,49.66484340000898,49.66484340000898,49.66484340000898,49.66484340000898,49.66484340000898,50.031250400003046,50.031250400003046,50.031250400003046,50.031250400003046,50.031250400003046,50.031250400003046,50.031250400003046,50.031250400003046,50.031250400003046,23,0,,,50.031250400003046,50.231298300030176,0.0,50.231298300030176,0,0.0,0,1,1000,num_1,0.7101000999682583,,26,16,2026-03-05_11h35.49.353,2026A_exp2,2022.2.4,59.965663657829815,
1,0,0.0,3.7,0,0,2,2,22,,,,,50.96535610000137,51.59940850001294,51.59940850001294,52.10040250001475,315,315,52.10040250001475,52.10040250001475,52.10040250001475,52.10040250001475,52.10040250001475,52.10040250001475,52.10040250001475,52.10040250001475,52.10040250001475,52.46698050003033,52.46698050003033,52.46698050003033,52.46698050003033,52.46698050003033,52.46698050003033,52.46698050003033,52.46698050003033,52.46698050003033,0,1,[0.00075559999095276],[0.3673335000057705],52.46698050003033,52.66711350000696,0.0,52.66711350000696,0,0.0,0,1,1000,num_1,0.6418743000249378,,26,16,2026-03-05_11h35.49.353,2026A_exp2,2022.2.4,59.965663657829815,
1000,1,0.0,0.0,0,0,3,3,47,,,,,53.33445660001598,53.96894039999461,53.96894039999461,54.46966429997701,45,45,54.46966429997701,54.46966429997701,54.46966429997701,54.46966429997701,54.46966429997701,54.46966429997701,54.46966429997701,54.46966429997701,54.46966429997701,54.835984500008635,54.835984500008635,54.835984500008635,54.835984500008635,54.835984500008635,54.835984500008635,54.835984500008635,54.835984500008635,54.835984500008635,23,0,,,54.835984500008635,55.0364384999848,1000,55.0364384999848,1000,1000,1000,1000,0,num_3,0.5527655000332743,,26,16,2026-03-05_11h35.49.353,2026A_exp2,2022.2.4,59.965663657829815,
1,0,0.0,0.0,0,0,4,4,0,,,,,55.62050920003094,56.270730199990794,56.270730199990794,56.755216900026426,45,315,56.755216900026426,56.755216900026426,56.755216900026426,56.755216900026426,56.755216900026426,56.755216900026426,56.755216900026426,56.755216900026426,56.755216900026426,57.12140040000668,57.12140040000668,57.12140040000668,57.12140040000668,57.12140040000668,57.12140040000668,57.12140040000668,57.12140040000668,57.12140040000668,23,0,,,57.12140040000668,57.321718199993484,0.0,57.321718199993484,1,0.0,0,0,1000,num_4,0.7957986999535933,,26,16,2026-03-05_11h35.49.353,2026A_exp2,2022.2.4,59.965663657829815,
1000,1,0.0,6.1,1,0,5,5,3,,,,,58.13918729999568,58.79025969997747,58.79025969997747,59.27510000002803,45,45,59.27510000002803,59.27510000002803,59.27510000002803,59.27510000002803,59.27510000002803,59.27510000002803,59.27510000002803,59.27510000002803,59.27510000002803,59.640771300008055,59.640771300008055,59.640771300008055,59.640771300008055,59.640771300008055,59.640771300008055,59.640771300008055,59.640771300008055,59.640771300008055,7,6,"[0.0009819999686442316, 0.06733130000066012, 0.11672299995552748, 0.18333899998106062, 0.23381069995230064, 0.3002523999894038]","[0.05125699995551258, 0.10020629997598007, 0.1502621999825351, 0.21679239999502897, 0.2672779999556951, 0.3673515999689698]",59.640771300008055,59.84116200002609,1000,59.84116200002609,1000,1000,1000,1000,1,num_2,0.49245369998971,,26,16,2026-03-05_11h35.49.353,2026A_exp2,2022.2.4,59.965663657829815,
1000,1,0.0,3.7,1,0,6,6,43,,,,,60.35804909997387,61.00898009998491,61.00898009998491,61.49317819997668,315,315,61.49317819997668,61.49317819997668,61.49317819997668,61.49317819997668,61.49317819997668,61.49317819997668,61.49317819997668,61.49317819997668,61.49317819997668,61.859639399976004,61.859639399976004,61.859639399976004,61.859639399976004,61.859639399976004,61.859639399976004,61.859639399976004,61.859639399976004,61.859639399976004,18,3,"[0.133570600009989, 0.18359440000494942, 0.25010020000627264]","[0.1501570999971591, 0.233417899988126, 0.266796899959445]",61.859639399976004,62.059920399973635,1000,62.059920399973635,1000,1000,1000,1000,0,num_3,0.505481600004714,,26,16,2026-03-05_11h35.49.353,2026A_exp2,2022.2.4,59.965663657829815,
1000,1,3.7,0.0,0,0,7,7,37,,,,,62.59396000002744,63.24453429999994,63.24453429999994,63.72911150002619,315,315,63.72911150002619,63.72911150002619,63.72911150002619,63.72911150002619,63.72911150002619,63.72911150002619,63.72911150002619,63.72911150002619,63.72911150002619,64.09549560002051,64.09549560002051,64.09549560002051,64.09549560002051,64.09549560002051,64.09549560002051,64.09549560002051,64.09549560002051,64.09549560002051,21,1,[0.3337012999691069],[0.3671936999890022],64.09549560002051,64.2956758000073,1000,64.2956758000073,1000,1000,1000,1000,0,num_3,0.6535775999655016,,26,16,2026-03-05_11h35.49.353,2026A_exp2,2022.2.4,59.965663657829815,
1000,1,6.1,3.7,1,0,8,8,45,,,,,64.97972980001941,65.6133329999866,65.6133329999866,66.11446910002269,45,45,66.11446910002269,66.11446910002269,66.11446910002269,66.11446910002269,66.11446910002269,66.11446910002269,66.11446910002269,66.11446910002269,66.11446910002269,66.48082340002293,66.48082340002293,66.48082340002293,66.48082340002293,66.48082340002293,66.48082340002293,66.48082340002293,66.48082340002293,66.48082340002293,23,0,,,66.48082340002293,66.68143330002204,1000,66.68143330002204,1000,1000,1000,1000,1,num_2,0.4840224999934435,,26,16,2026-03-05_11h35.49.353,2026A_exp2,2022.2.4,59.965663657829815,
1,0,0.0,3.7,0,0,9,9,2,,,,,67.18162149999989,67.83252140000695,67.83252140000695,68.316882300016,315,315,68.316882300016,68.316882300016,68.316882300016,68.316882300016,68.316882300016,68.316882300016,68.316882300016,68.316882300016,68.316882300016,68.68300550000276,68.68300550000276,68.68300550000276,68.68300550000276,68.68300550000276,68.68300550000276,68.68300550000276,68.68300550000276,68.68300550000276,23,0,,,68.68300550000276,68.88321220001671,0.0,68.88321220001671,1,0.0,0,0,1000,num_4,0.7066720000002533,,26,16,2026-03-05_11h35.49.353,2026A_exp2,2022.2.4,59.965663657829815,
0,0,3.7,3.7,0,0,10,10,63,,,,,69.61743109999225,70.26863509998657,70.26863509998657,70.75244389998261,45,45,70.75244389998261,70.75244389998261,70.75244389998261,70.75244389998261,70.75244389998261,70.75244389998261,70.75244389998261,70.75244389998261,70.75244389998261,71.11913320003077,71.11913320003077,71.11913320003077,71.11913320003077,71.11913320003077,71.11913320003077,71.11913320003077,71.11913320003077,71.11913320003077,23,0,,,71.11913320003077,71.31924330000766,3.7,71.31924330000766,0,3.7,1,0,1000,num_1,0.8303797999978997,,26,16,2026-03-05_11h35.49.353,2026A_exp2,2022.2.4,59.965663657829815,
1000,1,0.0,0.0,1,0,11,11,70,,,,,72.1699123000144,72.80399440001929,72.80399440001929,73.30573449999793,45,315,73.30573449999793,73.30573449999793,73.30573449999793,73.30573449999793,73.30573449999793,73.30573449999793,73.30573449999793,73.30573449999793,73.30573449999793,73.67194400000153,73.67194400000153,73.67194400000153,73.67194400000153,73.67194400000153,73.67194400000153,73.67194400000153,73.67194400000153,73.67194400000153,23,0,,,73.67194400000153,73.87175569997635,1000,73.87175569997635,1000,1000,1000,1000,0,num_3,0.6537783999810927,,26,16,2026-03-05_11h35.49.353,2026A_exp2,2022.2.4,59.965663657829815,
1000,1,0.0,3.7,1,0,12,12,75,,,,,74.55561169999419,75.20638990000589,75.20638990000589,75.69057989999419,315,315,75.69057989999419,75.69057989999419,75.69057989999419,75.69057989999419,75.69057989999419,75.69057989999419,75.69057989999419,75.69057989999419,75.69057989999419,76.05700969998725,76.05700969998725,76.05700969998725,76.05700969998725,76.05700969998725,76.05700969998725,76.05700969998725,76.05700969998725,76.05700969998725,23,0,,,76.05700969998725,76.25731940002879,1000,76.25731940002879,1000,1000,1000,1000,1,num_2,0.45155009999871254,,26,16,2026-03-05_11h35.49.353,2026A_exp2,2022.2.4,59.965663657829815,
1,0,6.1,4.9,0,0,13,13,30,,,,,76.72464540001238,77.35883550002472,77.35883550002472,77.87630850001005,315,45,77.87630850001005,77.87630850001005,77.87630850001005,77.87630850001005,77.87630850001005,77.87630850001005,77.87630850001005,77.87630850001005,77.87630850001005,78.24267469998449,78.24267469998449,78.24267469998449,78.24267469998449,78.24267469998449,78.24267469998449,78.24267469998449,78.24267469998449,78.24267469998449,23,0,,,78.24267469998449,78.44348479999462,6.1,78.44348479999462,1,6.1,1,1,1000,num_4,0.6341852000332437,,26,16,2026-03-05_11h35.49.353,2026A_exp2,2022.2.4,59.965663657829815,
1,0,0.0,6.1,0,0,14,14,57,,,,,79.09392090002075,79.7440387000097,79.7440387000097,80.24546499998542,45,45,80.24546499998542,80.24546499998542,80.24546499998542,80.24546499998542,80.24546499998542,80.24546499998542,80.24546499998542,80.24546499998542,80.24546499998542,80.59529259998817,80.59529259998817,80.59529259998817,80.59529259998817,80.59529259998817,80.59529259998817,80.59529259998817,80.59529259998817,80.59529259998817,22,0,,,80.59529259998817,80.79553629999282,0.0,80.79553629999282,0,0.0,0,1,1000,num_1,0.617928399995435,,26,16,2026-03-05_11h35.49.353,2026A_exp2,2022.2.4,59.965663657829815,
1,0,3.7,6.1,0,0,15,15,55,,,,,81.42956090002554,82.06359179998981,82.06359179998981,82.56441370001994,45,45,82.56441370001994,82.56441370001994,82.56441370001994,82.56441370001994,82.56441370001994,82.56441370001994,82.56441370001994,82.56441370001994,82.56441370001994,82.93060379999224,82.93060379999224,82.93060379999224,82.93060379999224,82.93060379999224,82.93060379999224,82.93060379999224,82.93060379999224,82.93060379999224,22,1,[0.0008917000377550721],[0.017485200020018965],82.93060379999224,83.13089849997777,3.7,83.13089849997777,0,3.7,1,0,1000,num_1,0.6020062000025064,,26,16,2026-03-05_11h35.49.353,2026A_exp2,2022.2.4,59.965663657829815,
1000,1,3.7,3.7,1,0,16,16,46,,,,,83.76494860003004,84.39885920000961,84.39885920000961,84.89997520000907,315,315,84.89997520000907,84.89997520000907,84.89997520000907,84.89997520000907,84.89997520000907,84.89997520000907,84.89997520000907,84.89997520000907,84.89997520000907,85.2663646999863,85.2663646999863,85.2663646999863,85.2663646999863,85.2663646999863,85.2663646999863,85.2663646999863,85.2663646999863,85.2663646999863,23,0,,,85.2663646999863,85.46689849998802,1000,85.46689849998802,1000,1000,1000,1000,1,num_2,0.6187905000406317,,26,16,2026-03-05_11h35.49.353,2026A_exp2,2022.2.4,59.965663657829815,
1000,1,6.1,4.9,0,0,17,17,77,,,,,86.11736450000899,86.76796319999266,86.76796319999266,87.25249270000495,45,315,87.25249270000495,87.25249270000495,87.25249270000495,87.25249270000495,87.25249270000495,87.25249270000495,87.25249270000495,87.25249270000495,87.25249270000495,87.61881030001678,87.61881030001678,87.61881030001678,87.61881030001678,87.61881030001678,87.61881030001678,87.61881030001678,87.61881030001678,87.61881030001678,23,0,,,87.61881030001678,87.81944609998027,1000,87.81944609998027,1000,1000,1000,1000,0,num_3,0.5218155999900773,,26,16,2026-03-05_11h35.49.353,2026A_exp2,2022.2.4,59.965663657829815,
1,0,3.7,4.9,0,0,18,18,31,,,,,88.36966259998735,89.02080150000984,89.02080150000984,89.52136910002446,45,45,89.52136910002446,89.52136910002446,89.52136910002446,89.52136910002446,89.52136910002446,89.52136910002446,89.52136910002446,89.52136910002446,89.52136910002446,89.87117350002518,89.87117350002518,89.87117350002518,89.87117350002518,89.87117350002518,89.87117350002518,89.87117350002518,89.87117350002518,89.87117350002518,22,0,,,89.87117350002518,90.07118039997295,3.7,90.07118039997295,0,3.7,1,0,1000,num_1,0.6144277999992482,,26,16,2026-03-05_11h35.49.353,2026A_exp2,2022.2.4,59.965663657829815,
1,0,4.9,0.0,0,0,19,19,87,,,,,90.70510490000015,91.339165900019,91.339165900019,91.84030410001287,45,45,91.84030410001287,91.84030410001287,91.84030410001287,91.84030410001287,91.84030410001287,91.84030410001287,91.84030410001287,91.84030410001287,91.84030410001287,92.20677599997725,92.20677599997725,92.20677599997725,92.20677599997725,92.20677599997725,92.20677599997725,92.20677599997725,92.20677599997725,92.20677599997725,23,0,,,92.20677599997725,92.40701490000356,4.9,92.40701490000356,1,4.9,1,1,1000,num_4,0.7902310999925248,,26,16,2026-03-05_11h35.49.353,2026A_exp2,2022.2.4,59.965663657829815,
1,0,0.0,4.9,0,0,20,20,35,,,,,93.22426990000531,93.87484180001775,93.87484180001775,94.35956820001593,45,315,94.35956820001593,94.35956820001593,94.35956820001593,94.35956820001593,94.35956820001593,94.35956820001593,94.35956820001593,94.35956820001593,94.35956820001593,94.72599750000518,94.72599750000518,94.72599750000518,94.72599750000518,94.72599750000518,94.72599750000518,94.72599750000518,94.72599750000518,94.72599750000518,23,0,,,94.72599750000518,94.92634150001686,0.0,94.92634150001686,0,0.0,0,1,1000,num_1,0.6311755999922752,,26,16,2026-03-05_11h35.49.353,2026A_exp2,2022.2.4,59.965663657829815,
0,0,3.7,6.1,1,0,21,21,17,,,,,95.57684799999697,96.21098319999874,96.21098319999874,96.71214319998398,45,45,96.71214319998398,96.71214319998398,96.71214319998398,96.71214319998398,96.71214319998398,96.71214319998398,96.71214319998398,96.71214319998398,96.71214319998398,97.07856990001164,97.07856990001164,97.07856990001164,97.07856990001164,97.07856990001164,97.07856990001164,97.07856990001164,97.07856990001164,97.07856990001164,23,0,,,97.07856990001164,97.27922740002396,3.7,97.27922740002396,0,3.7,1,0,1000,num_1,0.6058494999888353,,26,16,2026-03-05_11h35.49.353,2026A_exp2,2022.2.4,59.965663657829815,
1000,1,6.1,0.0,1,0,22,22,79,,,,,97.91253839997808,98.56319469999289,98.56319469999289,99.04767709999578,315,45,99.04767709999578,99.04767709999578,99.04767709999578,99.04767709999578,99.04767709999578,99.04767709999578,99.04767709999578,99.04767709999578,99.04767709999578,99.41417950001778,99.41417950001778,99.41417950001778,99.41417950001778,99.41417950001778,99.41417950001778,99.41417950001778,99.41417950001778,99.41417950001778,23,0,,,99.41417950001778,99.61592289997498,1000,99.61592289997498,1000,1000,1000,1000,0,num_3,0.5343247000128031,,26,16,2026-03-05_11h35.49.353,2026A_exp2,2022.2.4,59.965663657829815,
1000,1,0.0,0.0,0,0,23,23,41,,,,,100.16492700000526,100.81554169999436,100.81554169999436,101.31670259998646,45,45,101.31670259998646,101.31670259998646,101.31670259998646,101.31670259998646,101.31670259998646,101.31670259998646,101.31670259998646,101.31670259998646,101.31670259998646,101.68312579998747,101.68312579998747,101.68312579998747,101.68312579998747,101.68312579998747,101.68312579998747,101.68312579998747,101.68312579998747,101.68312579998747,23,0,,,101.68312579998747,101.88503170001786,1000,101.88503170001786,1000,1000,1000,1000,0,num_3,0.4246089000371285,,26,16,2026-03-05_11h35.49.353,2026A_exp2,2022.2.4,59.965663657829815,
1000,1,0.0,4.9,0,0,24,24,27,,,,,102.33365179999964,102.98445410002023,102.98445410002023,103.48554020002484,45,45,103.48554020002484,103.48554020002484,103.48554020002484,103.48554020002484,103.48554020002484,103.48554020002484,103.48554020002484,103.48554020002484,103.48554020002484,103.85193760000402,103.85193760000402,103.85193760000402,103.85193760000402,103.85193760000402,103.85193760000402,103.85193760000402,103.85193760000402,103.85193760000402,23,0,,,103.85193760000402,104.05303060001461,1000,104.05303060001461,1000,1000,1000,1000,1,num_2,0.44859099999303,,26,16,2026-03-05_11h35.49.353,2026A_exp2,2022.2.4,59.965663657829815,
1,0,4.9,0.0,0,0,25,25,23,,,,,104.51913859997876,105.16999520000536,105.16999520000536,105.67111860000296,45,315,105.67111860000296,105.67111860000296,105.67111860000296,105.67111860000296,105.67111860000296,105.67111860000296,105.67111860000296,105.67111860000296,105.67111860000296,106.03751819999889,106.03751819999889,106.03751819999889,106.03751819999889,106.03751819999889,106.03751819999889,106.03751819999889,106.03751819999889,106.03751819999889,23,0,,,106.03751819999889,106.2376342000207,4.9,106.2376342000207,1,4.9,1,1,1000,num_4,0.687520699982997,,26,16,2026-03-05_11h35.49.353,2026A_exp2,2022.2.4,59.965663657829815,
1,0,3.7,0.0,1,0,26,26,59,,,,,106.9549379000091,107.60579330002656,107.60579330002656,108.09010099997977,45,315,108.09010099997977,108.09010099997977,108.09010099997977,108.09010099997977,108.09010099997977,108.09010099997977,108.09010099997977,108.09010099997977,108.09010099997977,108.45652120001614,108.45652120001614,108.45652120001614,108.45652120001614,108.45652120001614,108.45652120001614,108.45652120001614,108.45652120001614,108.45652120001614,23,0,,,108.45652120001614,108.65681640000548,0.0,108.65681640000548,0,0.0,0,1,1000,num_1,0.652470400033053,,26,16,2026-03-05_11h35.49.353,2026A_exp2,2022.2.4,59.965663657829815,
1000,1,4.9,0.0,0,0,27,27,20,,,,,109.34040360001381,109.97478079999564,109.97478079999564,110.4756536000059,315,45,110.4756536000059,110.4756536000059,110.4756536000059,110.4756536000059,110.4756536000059,110.4756536000059,110.4756536000059,110.4756536000059,110.4756536000059,110.8421793000307,110.8421793000307,110.8421793000307,110.8421793000307,110.8421793000307,110.8421793000307,110.8421793000307,110.8421793000307,110.8421793000307,23,0,,,110.8421793000307,111.04499099997338,1000,111.04499099997338,1000,1000,1000,1000,0,num_3,0.5289756000274792,,26,16,2026-03-05_11h35.49.353,2026A_exp2,2022.2.4,59.965663657829815,
1000,1,6.1,0.0,0,0,28,28,80,,,,,111.59283759997925,112.24371730000712,112.24371730000712,112.74478359997738,45,315,112.74478359997738,112.74478359997738,112.74478359997738,112.74478359997738,112.74478359997738,112.74478359997738,112.74478359997738,112.74478359997738,112.74478359997738,113.11121880001156,113.11121880001156,113.11121880001156,113.11121880001156,113.11121880001156,113.11121880001156,113.11121880001156,113.11121880001156,113.11121880001156,23,0,,,113.11121880001156,113.31323029997293,1000,113.31323029997293,1000,1000,1000,1000,0,num_3,0.46044290001736954,,26,16,2026-03-05_11h35.49.353,2026A_exp2,2022.2.4,59.965663657829815,
1,0,0.0,3.7,0,0,29,29,1,,,,,113.79564820002997,114.44593089999398,114.44593089999398,114.93021700001555,315,315,114.93021700001555,114.93021700001555,114.93021700001555,114.93021700001555,114.93021700001555,114.93021700001555,114.93021700001555,114.93021700001555,114.93021700001555,115.29673960001674,115.29673960001674,115.29673960001674,115.29673960001674,115.29673960001674,115.29673960001674,115.29673960001674,115.29673960001674,115.29673960001674,23,0,,,115.29673960001674,115.49683620000724,0.0,115.49683620000724,1,0.0,0,0,1000,num_4,0.6926466000149958,,26,16,2026-03-05_11h35.49.353,2026A_exp2,2022.2.4,59.965663657829815,
0,0,0.0,0.0,0,0,30,30,69,,,,,116.21410260000266,116.86488260002807,116.86488260002807,117.34941329999128,45,315,117.34941329999128,117.34941329999128,117.34941329999128,117.34941329999128,117.34941329999128,117.34941329999128,117.34941329999128,117.34941329999128,117.34941329999128,117.7158061999944,117.7158061999944,117.7158061999944,117.7158061999944,117.7158061999944,117.7158061999944,117.7158061999944,117.7158061999944,117.7158061999944,23,0,,,117.7158061999944,117.91588719998254,0.0,117.91588719998254,0,0.0,0,1,1000,num_1,0.7372852999833412,,26,16,2026-03-05_11h35.49.353,2026A_exp2,2022.2.4,59.965663657829815,
1,0,0.0,3.7,1,0,31,31,12,,,,,118.68331659998512,119.33411769999657,119.33411769999657,119.81838269997388,315,315,119.81838269997388,119.81838269997388,119.81838269997388,119.81838269997388,119.81838269997388,119.81838269997388,119.81838269997388,119.81838269997388,119.81838269997388,120.18497529998422,120.18497529998422,120.18497529998422,120.18497529998422,120.18497529998422,120.18497529998422,120.18497529998422,120.18497529998422,120.18497529998422,23,0,,,120.18497529998422,120.38519080000697,3.7,120.38519080000697,1,3.7,1,1,1000,num_4,0.8524292999645695,,26,16,2026-03-05_11h35.49.353,2026A_exp2,2022.2.4,59.965663657829815,
0,0,0.0,0.0,0,0,32,32,67,,,,,121.26924569997936,121.91994549997617,121.91994549997617,122.40436470002169,45,45,122.40436470002169,122.40436470002169,122.40436470002169,122.40436470002169,122.40436470002169,122.40436470002169,122.40436470002169,122.40436470002169,122.40436470002169,122.7708980999887,122.7708980999887,122.7708980999887,122.7708980999887,122.7708980999887,122.7708980999887,122.7708980999887,122.7708980999887,122.7708980999887,20,3,"[0.0174855999648571, 0.06710719998227432, 0.36746079998556525]","[0.03368849999969825, 0.08366709999972954, 0.36746530001983047]",122.7708980999887,122.97109349997481,0.0,122.97109349997481,1,0.0,0,0,1000,num_4,0.8901027000392787,,26,16,2026-03-05_11h35.49.353,2026A_exp2,2022.2.4,59.965663657829815,
1000,1,4.9,6.1,1,0,33,33,18,,,,,123.88853430002928,124.53919260000112,124.53919260000112,125.02373219997389,45,315,125.02373219997389,125.02373219997389,125.02373219997389,125.02373219997389,125.02373219997389,125.02373219997389,125.02373219997389,125.02373219997389,125.02373219997389,125.39018340001348,125.39018340001348,125.39018340001348,125.39018340001348,125.39018340001348,125.39018340001348,125.39018340001348,125.39018340001348,125.39018340001348,23,0,,,125.39018340001348,125.59227429999737,1000,125.59227429999737,1000,1000,1000,1000,1,num_2,0.6134799999999814,,26,16,2026-03-05_11h35.49.353,2026A_exp2,2022.2.4,59.965663657829815,
1,0,3.7,4.9,0,0,34,34,84,,,,,126.22425229998771,126.87499620002927,126.87499620002927,127.37614080001367,315,315,127.37614080001367,127.37614080001367,127.37614080001367,127.37614080001367,127.37614080001367,127.37614080001367,127.37614080001367,127.37614080001367,127.37614080001367,127.74248780001653,127.74248780001653,127.74248780001653,127.74248780001653,127.74248780001653,127.74248780001653,127.74248780001653,127.74248780001653,127.74248780001653,23,0,,,127.74248780001653,127.94265079998877,3.7,127.94265079998877,0,3.7,1,0,1000,num_1,1.4714137999690138,,26,16,2026-03-05_11h35.49.353,2026A_exp2,2022.2.4,59.965663657829815,
1,0,0.0,3.7,1,0,35,35,10,,,,,129.44394040002953,130.07823929999722,130.07823929999722,130.57932299998356,315,45,130.57932299998356,130.57932299998356,130.57932299998356,130.57932299998356,130.57932299998356,130.57932299998356,130.57932299998356,130.57932299998356,130.57932299998356,130.9457407000009,130.9457407000009,130.9457407000009,130.9457407000009,130.9457407000009,130.9457407000009,130.9457407000009,130.9457407000009,130.9457407000009,23,0,,,130.9457407000009,131.14588219998404,3.7,131.14588219998404,1,3.7,1,1,1000,num_4,0.7080284999683499,,26,16,2026-03-05_11h35.49.353,2026A_exp2,2022.2.4,59.965663657829815,
1,0,0.0,0.0,0,0,36,36,29,,,,,131.87988850002876,132.5307256000233,132.5307256000233,133.01495949999662,45,315,133.01495949999662,133.01495949999662,133.01495949999662,133.01495949999662,133.01495949999662,133.01495949999662,133.01495949999662,133.01495949999662,133.01495949999662,133.3813305000076,133.3813305000076,133.3813305000076,133.3813305000076,133.3813305000076,133.3813305000076,133.3813305000076,133.3813305000076,133.3813305000076,23,0,,,133.3813305000076,133.58149240002967,0.0,133.58149240002967,1,0.0,0,0,1000,num_4,1.0806945999502204,,26,16,2026-03-05_11h35.49.353,2026A_exp2,2022.2.4,59.965663657829815,
1000,1,0.0,0.0,1,0,37,37,39,,,,,134.6825405000127,135.3334513999871,135.3334513999871,135.81772069999715,45,315,135.81772069999715,135.81772069999715,135.81772069999715,135.81772069999715,135.81772069999715,135.81772069999715,135.81772069999715,135.81772069999715,135.81772069999715,136.18418410001323,136.18418410001323,136.18418410001323,136.18418410001323,136.18418410001323,136.18418410001323,136.18418410001323,136.18418410001323,136.18418410001323,23,0,,,136.18418410001323,136.3864318000269,1000,136.3864318000269,1000,1000,1000,1000,1,num_2,0.7150138000142761,,26,16,2026-03-05_11h35.49.353,2026A_exp2,2022.2.4,59.965663657829815,
1000,1,6.1,0.0,0,0,38,38,58,,,,,137.11846959998365,137.76917819998926,137.76917819998926,138.27036339999177,45,315,138.27036339999177,138.27036339999177,138.27036339999177,138.27036339999177,138.27036339999177,138.27036339999177,138.27036339999177,138.27036339999177,138.27036339999177,138.63675489998423,138.63675489998423,138.63675489998423,138.63675489998423,138.63675489998423,138.63675489998423,138.63675489998423,138.63675489998423,138.63675489998423,23,0,,,138.63675489998423,138.83872820000397,1000,138.83872820000397,1000,1000,1000,1000,0,num_3,0.47895259998040274,,26,16,2026-03-05_11h35.49.353,2026A_exp2,2022.2.4,59.965663657829815,
1000,1,3.7,0.0,1,0,39,39,33,,,,,139.33731530001387,139.9882158000255,139.9882158000255,140.48923690000083,45,315,140.48923690000083,140.48923690000083,140.48923690000083,140.48923690000083,140.48923690000083,140.48923690000083,140.48923690000083,140.48923690000083,140.48923690000083,140.85566920001293,140.85566920001293,140.85566920001293,140.85566920001293,140.85566920001293,140.85566920001293,140.85566920001293,140.85566920001293,140.85566920001293,23,0,,,140.85566920001293,141.05795639997814,1000,141.05795639997814,1000,1000,1000,1000,0,num_3,0.4991145000094548,,26,16,2026-03-05_11h35.49.353,2026A_exp2,2022.2.4,59.965663657829815,
1,0,0.0,0.0,0,0,40,40,66,,,,,141.57292300002882,142.22365459997673,142.22365459997673,142.72477740002796,45,45,142.72477740002796,142.72477740002796,142.72477740002796,142.72477740002796,142.72477740002796,142.72477740002796,142.72477740002796,142.72477740002796,142.72477740002796,143.09103070001584,143.09103070001584,143.09103070001584,143.09103070001584,143.09103070001584,143.09103070001584,143.09103070001584,143.09103070001584,143.09103070001584,23,0,,,143.09103070001584,143.29127390001668,0.0,143.29127390001668,1,0.0,0,0,1000,num_4,0.7066848000395112,,26,16,2026-03-05_11h35.49.353,2026A_exp2,2022.2.4,59.965663657829815,
1000,1,3.7,6.1,0,0,41,41,81,,,,,144.02525379997678,144.67609730002005,144.67609730002005,145.16054620000068,45,315,145.16054620000068,145.16054620000068,145.16054620000068,145.16054620000068,145.16054620000068,145.16054620000068,145.16054620000068,145.16054620000068,145.16054620000068,145.52690579998307,145.52690579998307,145.52690579998307,145.52690579998307,145.52690579998307,145.52690579998307,145.52690579998307,145.52690579998307,145.52690579998307,23,0,,,145.52690579998307,145.7287987000309,1000,145.7287987000309,1000,1000,1000,1000,1,num_2,0.5726956000435166,,26,16,2026-03-05_11h35.49.353,2026A_exp2,2022.2.4,59.965663657829815,
1,0,4.9,0.0,1,0,42,42,15,,,,,146.3276844000211,146.97844829998212,146.97844829998212,147.4793753999984,45,315,147.4793753999984,147.4793753999984,147.4793753999984,147.4793753999984,147.4793753999984,147.4793753999984,147.4793753999984,147.4793753999984,147.4793753999984,147.84584710001945,147.84584710001945,147.84584710001945,147.84584710001945,147.84584710001945,147.84584710001945,147.84584710001945,147.84584710001945,147.84584710001945,17,2,"[0.06674040004145354, 0.2669519000337459]","[0.10018780000973493, 0.33371070004068315]",147.84584710001945,148.04614920000313,0.0,148.04614920000313,1,0.0,0,0,1000,num_4,0.7601820999989286,,26,16,2026-03-05_11h35.49.353,2026A_exp2,2022.2.4,59.965663657829815,
1000,1,0.0,3.7,0,0,43,43,32,,,,,148.83002480003051,149.4809025999857,149.4809025999857,149.96536059997743,315,45,149.96536059997743,149.96536059997743,149.96536059997743,149.96536059997743,149.96536059997743,149.96536059997743,149.96536059997743,149.96536059997743,149.96536059997743,150.33163420000346,150.33163420000346,150.33163420000346,150.33163420000346,150.33163420000346,150.33163420000346,150.33163420000346,150.33163420000346,150.33163420000346,23,0,,,150.33163420000346,150.53404080000473,1000,150.53404080000473,1000,1000,1000,1000,0,num_3,0.4242938000243157,,26,16,2026-03-05_11h35.49.353,2026A_exp2,2022.2.4,59.965663657829815,
1,0,0.0,0.0,1,0,44,44,53,,,,,150.9823240999831,151.63313299999572,151.63313299999572,152.1342588000116,315,45,152.1342588000116,152.1342588000116,152.1342588000116,152.1342588000116,152.1342588000116,152.1342588000116,152.1342588000116,152.1342588000116,152.1342588000116,152.48386239999672,152.48386239999672,152.48386239999672,152.48386239999672,152.48386239999672,152.48386239999672,152.48386239999672,152.48386239999672,152.48386239999672,22,0,,,152.48386239999672,152.68411209998885,0.0,152.68411209998885,1,0.0,0,0,1000,num_4,0.5691009999718517,,26,16,2026-03-05_11h35.49.353,2026A_exp2,2022.2.4,59.965663657829815,
1000,1,6.1,3.7,0,0,45,45,61,,,,,153.2845467000152,153.93524399999296,153.93524399999296,154.41964819998248,315,315,154.41964819998248,154.41964819998248,154.41964819998248,154.41964819998248,154.41964819998248,154.41964819998248,154.41964819998248,154.41964819998248,154.41964819998248,154.78625980002107,154.78625980002107,154.78625980002107,154.78625980002107,154.78625980002107,154.78625980002107,154.78625980002107,154.78625980002107,154.78625980002107,23,0,,,154.78625980002107,154.98834420001367,1000,154.98834420001367,1000,1000,1000,1000,0,num_3,0.33704219997162,,26,16,2026-03-05_11h35.49.353,2026A_exp2,2022.2.4,59.965663657829815,
1,0,0.0,0.0,0,0,46,46,19,,,,,155.3533464000211,156.00408470002003,156.00408470002003,156.50526499998523,315,315,156.50526499998523,156.50526499998523,156.50526499998523,156.50526499998523,156.50526499998523,156.50526499998523,156.50526499998523,156.50526499998523,156.50526499998523,156.8549618999823,156.8549618999823,156.8549618999823,156.8549618999823,156.8549618999823,156.8549618999823,156.8549618999823,156.8549618999823,156.8549618999823,22,0,,,156.8549618999823,157.05520629999228,0.0,157.05520629999228,1,0.0,0,0,1000,num_4,0.9024263999890536,,26,16,2026-03-05_11h35.49.353,2026A_exp2,2022.2.4,59.965663657829815,
1,0,6.1,3.7,0,0,47,47,86,,,,,157.9892931000213,158.6400685000117,158.6400685000117,159.12451779999537,315,315,159.12451779999537,159.12451779999537,159.12451779999537,159.12451779999537,159.12451779999537,159.12451779999537,159.12451779999537,159.12451779999537,159.12451779999537,159.4909561999957,159.4909561999957,159.4909561999957,159.4909561999957,159.4909561999957,159.4909561999957,159.4909561999957,159.4909561999957,159.4909561999957,23,0,,,159.4909561999957,159.6918223000248,6.1,159.6918223000248,1,6.1,1,1,1000,num_4,0.578007299976889,,26,16,2026-03-05_11h35.49.353,2026A_exp2,2022.2.4,59.965663657829815,
1000,1,0.0,0.0,1,0,48,48,62,,,,,160.29155050002737,160.94241359998705,160.94241359998705,161.42667790001724,315,45,161.42667790001724,161.42667790001724,161.42667790001724,161.42667790001724,161.42667790001724,161.42667790001724,161.42667790001724,161.42667790001724,161.42667790001724,161.79325220000464,161.79325220000464,161.79325220000464,161.79325220000464,161.79325220000464,161.79325220000464,161.79325220000464,161.79325220000464,161.79325220000464,23,0,,,161.79325220000464,161.99510400003055,1000,161.99510400003055,1000,1000,1000,1000,0,num_3,0.49801829998614267,,26,16,2026-03-05_11h35.49.353,2026A_exp2,2022.2.4,59.965663657829815,
1000,1,4.9,4.9,0,0,49,49,34,,,,,162.51269409997622,163.16104279999854,163.16104279999854,163.66238300001714,45,45,163.66238300001714,163.66238300001714,163.66238300001714,163.66238300001714,163.66238300001714,163.66238300001714,163.66238300001714,163.66238300001714,163.66238300001714,164.02874620002694,164.02874620002694,164.02874620002694,164.02874620002694,164.02874620002694,164.02874620002694,164.02874620002694,164.02874620002694,164.02874620002694,23,0,,,164.02874620002694,164.2300604999764,1000,164.2300604999764,1000,1000,1000,1000,1,num_2,0.5037834999966435,,26,16,2026-03-05_11h35.49.353,2026A_exp2,2022.2.4,59.965663657829815,
1000,1,6.1,6.1,0,0,50,50,56,,,,,164.76276940002572,165.41351370001212,165.41351370001212,165.91457119997358,45,45,165.91457119997358,165.91457119997358,165.91457119997358,165.91457119997358,165.91457119997358,165.91457119997358,165.91457119997358,165.91457119997358,165.91457119997358,166.26433360000374,166.26433360000374,166.26433360000374,166.26433360000374,166.26433360000374,166.26433360000374,166.26433360000374,166.26433360000374,166.26433360000374,22,0,,,166.26433360000374,166.466498600028,1000,166.466498600028,1000,1000,1000,1000,1,num_2,0.5235680000041611,,26,16,2026-03-05_11h35.49.353,2026A_exp2,2022.2.4,59.965663657829815,
1000,1,3.7,3.7,1,0,51,51,88,,,,,167.01514309999766,167.66571849997854,167.66571849997854,168.15012030000798,45,315,168.15012030000798,168.15012030000798,168.15012030000798,168.15012030000798,168.15012030000798,168.15012030000798,168.15012030000798,168.15012030000798,168.15012030000798,168.5165493999957,168.5165493999957,168.5165493999957,168.5165493999957,168.5165493999957,168.5165493999957,168.5165493999957,168.5165493999957,168.5165493999957,23,0,,,168.5165493999957,168.71687080000993,1000,168.71687080000993,1000,1000,1000,1000,1,num_2,0.4256572999875061,,26,16,2026-03-05_11h35.49.353,2026A_exp2,2022.2.4,59.965663657829815,
1000,1,0.0,0.0,1,0,52,52,40,,,,,169.16713040001923,169.8181016999879,169.8181016999879,170.3189109999803,45,45,170.3189109999803,170.3189109999803,170.3189109999803,170.3189109999803,170.3189109999803,170.3189109999803,170.3189109999803,170.3189109999803,170.3189109999803,170.66866720002145,170.66866720002145,170.66866720002145,170.66866720002145,170.66866720002145,170.66866720002145,170.66866720002145,170.66866720002145,170.66866720002145,2,2,"[0.0011900999816134572, 0.20035999995889142]","[0.18379659997299314, 0.3502739999676123]",170.66866720002145,170.87053770001512,1000,170.8856915999786,1000,1000,1000,1000,1,num_2,0.5200901000062004,,26,16,2026-03-05_11h35.49.353,2026A_exp2,2022.2.4,59.965663657829815,
0,0,0.0,0.0,0,0,53,53,4,,,,,171.43630180001492,172.08684990002075,172.08684990002075,172.5883108000271,315,45,172.5883108000271,172.5883108000271,172.5883108000271,172.5883108000271,172.5883108000271,172.5883108000271,172.5883108000271,172.5883108000271,172.5883108000271,172.95441260002553,172.95441260002553,172.95441260002553,172.95441260002553,172.95441260002553,172.95441260002553,172.95441260002553,172.95441260002553,172.95441260002553,23,0,,,172.95441260002553,173.15446210000664,0.0,173.15446210000664,0,0.0,0,1,1000,num_1,0.786399899981916,,26,16,2026-03-05_11h35.49.353,2026A_exp2,2022.2.4,59.965663657829815,
1000,1,0.0,0.0,0,0,54,54,5,,,,,173.9717551000067,174.60611519997474,174.60611519997474,175.10704169998644,315,315,175.10704169998644,175.10704169998644,175.10704169998644,175.10704169998644,175.10704169998644,175.10704169998644,175.10704169998644,175.10704169998644,175.10704169998644,175.47353550000116,175.47353550000116,175.47353550000116,175.47353550000116,175.47353550000116,175.47353550000116,175.47353550000116,175.47353550000116,175.47353550000116,0,1,[0.001402099966071546],[0.3672787999967113],175.47353550000116,175.67563230002997,1000,175.67563230002997,1000,1000,1000,1000,0,num_3,0.36179059999994934,,26,16,2026-03-05_11h35.49.353,2026A_exp2,2022.2.4,59.965663657829815,
1,0,3.7,3.7,1,0,55,55,64,,,,,176.0573849999928,176.70817980001448,176.70817980001448,177.20916770002805,45,45,177.20916770002805,177.20916770002805,177.20916770002805,177.20916770002805,177.20916770002805,177.20916770002805,177.20916770002805,177.20916770002805,177.20916770002805,177.57560669997474,177.57560669997474,177.57560669997474,177.57560669997474,177.57560669997474,177.57560669997474,177.57560669997474,177.57560669997474,177.57560669997474,23,0,,,177.57560669997474,177.77573799999664,3.7,177.77573799999664,1,3.7,1,1,1000,num_4,0.678560699976515,,26,16,2026-03-05_11h35.49.353,2026A_exp2,2022.2.4,59.965663657829815,
1,0,6.1,6.1,0,0,56,56,51,,,,,178.4765916999895,179.12722389999544,179.12722389999544,179.61149799998384,315,315,179.61149799998384,179.61149799998384,179.61149799998384,179.61149799998384,179.61149799998384,179.61149799998384,179.61149799998384,179.61149799998384,179.61149799998384,179.9780401000171,179.9780401000171,179.9780401000171,179.9780401000171,179.9780401000171,179.9780401000171,179.9780401000171,179.9780401000171,179.9780401000171,13,3,"[0.001604400051292032, 0.1334649000200443, 0.3330895000253804]","[0.10022130003198981, 0.15003509999951348, 0.3667432000511326]",179.9780401000171,180.17828019999433,6.1,180.17828019999433,1,6.1,1,1,1000,num_4,0.931658299989067,,26,16,2026-03-05_11h35.49.353,2026A_exp2,2022.2.4,59.965663657829815,
1000,1,0.0,4.9,1,0,57,57,73,,,,,181.12908260000404,181.7797581999912,181.7797581999912,182.26432339998428,45,315,182.26432339998428,182.26432339998428,182.26432339998428,182.26432339998428,182.26432339998428,182.26432339998428,182.26432339998428,182.26432339998428,182.26432339998428,182.63057769997977,182.63057769997977,182.63057769997977,182.63057769997977,182.63057769997977,182.63057769997977,182.63057769997977,182.63057769997977,182.63057769997977,23,0,,,182.63057769997977,182.83284540002933,1000,182.83284540002933,1000,1000,1000,1000,1,num_2,0.4929759000078775,,26,16,2026-03-05_11h35.49.353,2026A_exp2,2022.2.4,59.965663657829815,
1,0,6.1,6.1,1,0,58,58,89,,,,,183.3481506999815,183.99877190002007,183.99877190002007,184.48324039997533,315,315,184.48324039997533,184.48324039997533,184.48324039997533,184.48324039997533,184.48324039997533,184.48324039997533,184.48324039997533,184.48324039997533,184.48324039997533,184.84954000002472,184.84954000002472,184.84954000002472,184.84954000002472,184.84954000002472,184.84954000002472,184.84954000002472,184.84954000002472,184.84954000002472,22,1,[0.11675620003370568],[0.1333769999910146],184.84954000002472,185.04968260001624,6.1,185.04968260001624,1,6.1,1,1,1000,num_4,0.5637129000388086,,26,16,2026-03-05_11h35.49.353,2026A_exp2,2022.2.4,59.965663657829815,
1000,1,6.1,4.9,1,0,59,59,76,,,,,185.63358909997623,186.28438079997431,186.28438079997431,186.7734308000072,45,45,186.7734308000072,186.7734308000072,186.7734308000072,186.7734308000072,186.7734308000072,186.7734308000072,186.7734308000072,186.7734308000072,186.7734308000072,187.1353674000129,187.1353674000129,187.1353674000129,187.1353674000129,187.1353674000129,187.1353674000129,187.1353674000129,187.1353674000129,187.1353674000129,0,1,[0.0026732999831438065],[0.3673774999915622],187.1353674000129,187.350337699987,1000,187.350337699987,1000,1000,1000,1000,1,num_2,0.40666540001984686,,26,16,2026-03-05_11h35.49.353,2026A_exp2,2022.2.4,59.965663657829815,
1000,1,0.0,0.0,1,0,60,60,42,,,,,187.785752900003,188.43643860000884,188.43643860000884,188.93765749997692,45,45,188.93765749997692,188.93765749997692,188.93765749997692,188.93765749997692,188.93765749997692,188.93765749997692,188.93765749997692,188.93765749997692,188.93765749997692,189.3040839000023,189.3040839000023,189.3040839000023,189.3040839000023,189.3040839000023,189.3040839000023,189.3040839000023,189.3040839000023,189.3040839000023,23,0,,,189.3040839000023,189.5042552999803,1000,189.5042552999803,1000,1000,1000,1000,1,num_2,0.5014388000126928,,26,16,2026-03-05_11h35.49.353,2026A_exp2,2022.2.4,59.965663657829815,
1,0,0.0,3.7,1,0,61,61,25,,,,,190.02146969997557,190.67197660001693,190.67197660001693,191.1566197000211,315,315,191.1566197000211,191.1566197000211,191.1566197000211,191.1566197000211,191.1566197000211,191.1566197000211,191.1566197000211,191.1566197000211,191.1566197000211,191.5226413999917,191.5226413999917,191.5226413999917,191.5226413999917,191.5226413999917,191.5226413999917,191.5226413999917,191.5226413999917,191.5226413999917,23,0,,,191.5226413999917,191.72315049997997,3.7,191.72315049997997,1,3.7,1,1,1000,num_4,0.8507688000099733,,26,16,2026-03-05_11h35.49.353,2026A_exp2,2022.2.4,59.965663657829815,
1,0,6.1,0.0,1,0,62,62,54,,,,,192.59053440002026,193.24125680001453,193.24125680001453,193.75551510002697,45,315,193.75551510002697,193.75551510002697,193.75551510002697,193.75551510002697,193.75551510002697,193.75551510002697,193.75551510002697,193.75551510002697,193.75551510002697,194.09221710002748,194.09221710002748,194.09221710002748,194.09221710002748,194.09221710002748,194.09221710002748,194.09221710002748,194.09221710002748,194.09221710002748,22,0,,,194.09221710002748,194.29234659997746,0.0,194.29234659997746,0,0.0,0,1,1000,num_1,0.8176065000006929,,26,16,2026-03-05_11h35.49.353,2026A_exp2,2022.2.4,59.965663657829815,
1000,1,4.9,4.9,1,0,63,63,60,,,,,195.12644999998156,195.77711899997666,195.77711899997666,196.2616978000151,315,45,196.2616978000151,196.2616978000151,196.2616978000151,196.2616978000151,196.2616978000151,196.2616978000151,196.2616978000151,196.2616978000151,196.2616978000151,196.62803239998175,196.62803239998175,196.62803239998175,196.62803239998175,196.62803239998175,196.62803239998175,196.62803239998175,196.62803239998175,196.62803239998175,20,1,[0.33361940004397184],[0.36714570003096014],196.62803239998175,196.82849669997813,1000,196.82849669997813,1000,1000,1000,1000,1,num_2,0.43279030005214736,,26,16,2026-03-05_11h35.49.353,2026A_exp2,2022.2.4,59.965663657829815,
1000,1,3.7,3.7,0,0,64,64,16,,,,,197.27858600002946,197.9294261999894,197.9294261999894,198.43036709999433,45,45,198.43036709999433,198.43036709999433,198.43036709999433,198.43036709999433,198.43036709999433,198.43036709999433,198.43036709999433,198.43036709999433,198.43036709999433,198.79675500001758,198.79675500001758,198.79675500001758,198.79675500001758,198.79675500001758,198.79675500001758,198.79675500001758,198.79675500001758,198.79675500001758,9,3,"[0.001229400048032403, 0.2004754000226967, 0.36718180001480505]","[0.06702130002668127, 0.35061840002890676, 0.3671866000513546]",198.79675500001758,198.99896230001468,1000,198.99896230001468,1000,1000,1000,1000,1,num_2,0.49401909997686744,,26,16,2026-03-05_11h35.49.353,2026A_exp2,2022.2.4,59.965663657829815,
1000,1,6.1,0.0,0,0,65,65,68,,,,,199.51442810002482,200.1649647000013,200.1649647000013,200.66605840000557,45,315,200.66605840000557,200.66605840000557,200.66605840000557,200.66605840000557,200.66605840000557,200.66605840000557,200.66605840000557,200.66605840000557,200.66605840000557,201.01575740001863,201.01575740001863,201.01575740001863,201.01575740001863,201.01575740001863,201.01575740001863,201.01575740001863,201.01575740001863,201.01575740001863,22,0,,,201.01575740001863,201.21776359999785,1000,201.23273480002536,1000,1000,1000,1000,0,num_3,0.4522149999975227,,26,16,2026-03-05_11h35.49.353,2026A_exp2,2022.2.4,59.965663657829815,
1,0,3.7,6.1,1,0,66,66,6,,,,,201.71644049999304,202.36712529999204,202.36712529999204,202.85258710000198,45,45,202.85258710000198,202.85258710000198,202.85258710000198,202.85258710000198,202.85258710000198,202.85258710000198,202.85258710000198,202.85258710000198,202.85258710000198,203.21797290001996,203.21797290001996,203.21797290001996,203.21797290001996,203.21797290001996,203.21797290001996,203.21797290001996,203.21797290001996,203.21797290001996,23,0,,,203.21797290001996,203.41817939997418,6.1,203.41817939997418,1,6.1,1,1,1000,num_4,0.5475842999876477,,26,16,2026-03-05_11h35.49.353,2026A_exp2,2022.2.4,59.965663657829815,
1000,1,6.1,6.1,0,0,67,67,74,,,,,203.98518910002895,204.61936359998072,204.61936359998072,205.12039709999226,315,45,205.12039709999226,205.12039709999226,205.12039709999226,205.12039709999226,205.12039709999226,205.12039709999226,205.12039709999226,205.12039709999226,205.12039709999226,205.48694919998525,205.48694919998525,205.48694919998525,205.48694919998525,205.48694919998525,205.48694919998525,205.48694919998525,205.48694919998525,205.48694919998525,23,0,,,205.48694919998525,205.68899529997725,1000,205.68899529997725,1000,1000,1000,1000,0,num_3,0.3970829999889247,,26,16,2026-03-05_11h35.49.353,2026A_exp2,2022.2.4,59.965663657829815,
1000,1,3.7,4.9,0,0,68,68,13,,,,,206.10433820000617,206.7547960000229,206.7547960000229,207.2392972999951,315,45,207.2392972999951,207.2392972999951,207.2392972999951,207.2392972999951,207.2392972999951,207.2392972999951,207.2392972999951,207.2392972999951,207.2392972999951,207.6057673000032,207.6057673000032,207.6057673000032,207.6057673000032,207.6057673000032,207.6057673000032,207.6057673000032,207.6057673000032,207.6057673000032,23,0,,,207.6057673000032,207.80759799998486,1000,207.80759799998486,1000,1000,1000,1000,1,num_2,0.4387057999847457,,26,16,2026-03-05_11h35.49.353,2026A_exp2,2022.2.4,59.965663657829815,
1000,1,3.7,0.0,1,0,69,69,44,,,,,208.27296769997338,208.92371140001342,208.92371140001342,209.42475529998774,45,315,209.42475529998774,209.42475529998774,209.42475529998774,209.42475529998774,209.42475529998774,209.42475529998774,209.42475529998774,209.42475529998774,209.42475529998774,209.79120590002276,209.79120590002276,209.79120590002276,209.79120590002276,209.79120590002276,209.79120590002276,209.79120590002276,209.79120590002276,209.79120590002276,23,0,,,209.79120590002276,209.99250270001357,1000,209.99250270001357,1000,1000,1000,1000,0,num_3,0.41243010002654046,,26,16,2026-03-05_11h35.49.353,2026A_exp2,2022.2.4,59.965663657829815,
1,0,4.9,0.0,1,0,70,70,48,,,,,210.4249995999853,211.07590400002664,211.07590400002664,211.5769737000228,315,315,211.5769737000228,211.5769737000228,211.5769737000228,211.5769737000228,211.5769737000228,211.5769737000228,211.5769737000228,211.5769737000228,211.5769737000228,211.9433252000017,211.9433252000017,211.9433252000017,211.9433252000017,211.9433252000017,211.9433252000017,211.9433252000017,211.9433252000017,211.9433252000017,23,0,,,211.9433252000017,212.14344730001176,0.0,212.14344730001176,0,0.0,0,1,1000,num_1,0.9013246000395156,,26,16,2026-03-05_11h35.49.353,2026A_exp2,2022.2.4,59.965663657829815,
1,0,0.0,0.0,0,0,71,71,49,,,,,213.06088120001368,213.71184669999639,213.71184669999639,214.19604499998968,315,315,214.19604499998968,214.19604499998968,214.19604499998968,214.19604499998968,214.19604499998968,214.19604499998968,214.19604499998968,214.19604499998968,214.19604499998968,214.5625276999781,214.5625276999781,214.5625276999781,214.5625276999781,214.5625276999781,214.5625276999781,214.5625276999781,214.5625276999781,214.5625276999781,23,0,,,214.5625276999781,214.76293119997717,0.0,214.76293119997717,1,0.0,0,0,1000,num_4,0.6745220000157133,,26,16,2026-03-05_11h35.49.353,2026A_exp2,2022.2.4,59.965663657829815,
1,0,0.0,4.9,1,0,72,72,36,,,,,215.4634895999916,216.11414479999803,216.11414479999803,216.59854330000235,45,45,216.59854330000235,216.59854330000235,216.59854330000235,216.59854330000235,216.59854330000235,216.59854330000235,216.59854330000235,216.59854330000235,216.59854330000235,216.96500119997654,216.96500119997654,216.96500119997654,216.96500119997654,216.96500119997654,216.96500119997654,216.96500119997654,216.96500119997654,216.96500119997654,23,0,,,216.96500119997654,217.16516670002602,4.9,217.16516670002602,1,4.9,1,1,1000,num_4,0.6878471000236459,,26,16,2026-03-05_11h35.49.353,2026A_exp2,2022.2.4,59.965663657829815,
1000,1,0.0,4.9,0,0,73,73,9,,,,,217.8825115999789,218.53337239997927,218.53337239997927,219.03230989997974,315,45,219.03230989997974,219.03230989997974,219.03230989997974,219.03230989997974,219.03230989997974,219.03230989997974,219.03230989997974,219.03230989997974,219.03230989997974,219.38403389998712,219.38403389998712,219.38403389998712,219.38403389998712,219.38403389998712,219.38403389998712,219.38403389998712,219.38403389998712,219.38403389998712,23,0,,,219.38403389998712,219.58660229999805,1000,219.58660229999805,1000,1000,1000,1000,0,num_3,0.7713451000163332,,26,16,2026-03-05_11h35.49.353,2026A_exp2,2022.2.4,59.965663657829815,
1,0,0.0,4.9,1,0,74,74,65,,,,,220.38507640000898,221.04762600001413,221.04762600001413,221.53680210001767,315,315,221.53680210001767,221.53680210001767,221.53680210001767,221.53680210001767,221.53680210001767,221.53680210001767,221.53680210001767,221.53680210001767,221.53680210001767,221.90337229997385,221.90337229997385,221.90337229997385,221.90337229997385,221.90337229997385,221.90337229997385,221.90337229997385,221.90337229997385,221.90337229997385,23,0,,,221.90337229997385,222.10352140001487,4.9,222.10352140001487,1,4.9,1,1,1000,num_4,0.6058993000187911,,26,16,2026-03-05_11h35.49.353,2026A_exp2,2022.2.4,59.965663657829815,
1,0,0.0,0.0,1,0,75,75,82,,,,,222.73736780002946,223.37145299999975,223.37145299999975,223.8725773000042,45,315,223.8725773000042,223.8725773000042,223.8725773000042,223.8725773000042,223.8725773000042,223.8725773000042,223.8725773000042,223.8725773000042,223.8725773000042,224.23887549998472,224.23887549998472,224.23887549998472,224.23887549998472,224.23887549998472,224.23887549998472,224.23887549998472,224.23887549998472,224.23887549998472,0,1,[0.0012645999668166041],[0.3670173999853432],224.23887549998472,224.43915569997625,0.0,224.43915569997625,0,0.0,0,1,1000,num_1,0.7984564999933355,,26,16,2026-03-05_11h35.49.353,2026A_exp2,2022.2.4,59.965663657829815,
1,0,6.1,0.0,1,0,76,76,38,,,,,225.25652779999655,225.9073610000196,225.9073610000196,226.39183420001063,45,45,226.39183420001063,226.39183420001063,226.39183420001063,226.39183420001063,226.39183420001063,226.39183420001063,226.39183420001063,226.39183420001063,226.39183420001063,226.75811709999107,226.75811709999107,226.75811709999107,226.75811709999107,226.75811709999107,226.75811709999107,226.75811709999107,226.75811709999107,226.75811709999107,0,1,[0.001271400018595159],[0.3671973000164144],226.75811709999107,226.95834469998954,0.0,226.95834469998954,0,0.0,0,1,1000,num_1,0.6226468000095338,,26,16,2026-03-05_11h35.49.353,2026A_exp2,2022.2.4,59.965663657829815,
1000,1,4.9,4.9,1,0,77,77,85,,,,,227.60890140000265,228.25954280002043,228.25954280002043,228.74418129998958,315,315,228.74418129998958,228.74418129998958,228.74418129998958,228.74418129998958,228.74418129998958,228.74418129998958,228.74418129998958,228.74418129998958,228.74418129998958,229.1104522999958,229.1104522999958,229.1104522999958,229.1104522999958,229.1104522999958,229.1104522999958,229.1104522999958,229.1104522999958,229.1104522999958,16,1,[0.0502066999906674],[0.16664589999709278],229.1104522999958,229.3444666999858,1000,229.3444666999858,1000,1000,1000,1000,0,num_3,0.5418117000372149,,26,16,2026-03-05_11h35.49.353,2026A_exp2,2022.2.4,59.965663657829815,
1000,1,6.1,0.0,0,0,78,78,8,,,,,229.91129810002167,230.56201330001932,230.56201330001932,231.06308749999152,45,315,231.06308749999152,231.06308749999152,231.06308749999152,231.06308749999152,231.06308749999152,231.06308749999152,231.06308749999152,231.06308749999152,231.06308749999152,231.42938749998575,231.42938749998575,231.42938749998575,231.42938749998575,231.42938749998575,231.42938749998575,231.42938749998575,231.42938749998575,231.42938749998575,23,0,,,231.42938749998575,231.63151350000408,1000,231.63151350000408,1000,1000,1000,1000,0,num_3,0.40661979996366426,,26,16,2026-03-05_11h35.49.353,2026A_exp2,2022.2.4,59.965663657829815,
1000,1,6.1,0.0,1,0,79,79,52,,,,,232.06353009998566,232.71418329997687,232.71418329997687,233.2152585000149,315,45,233.2152585000149,233.2152585000149,233.2152585000149,233.2152585000149,233.2152585000149,233.2152585000149,233.2152585000149,233.2152585000149,233.2152585000149,233.56494559999555,233.56494559999555,233.56494559999555,233.56494559999555,233.56494559999555,233.56494559999555,233.56494559999555,233.56494559999555,233.56494559999555,1,2,"[0.0011894999770447612, 0.11714759998722002]","[0.1003402000060305, 0.35066170000936836]",233.56494559999555,233.76497519999975,1000,233.78158850001637,1000,1000,1000,1000,0,num_3,0.23943319998215884,,26,16,2026-03-05_11h35.49.353,2026A_exp2,2022.2.4,59.965663657829815,
1000,1,0.0,6.1,0,0,80,80,83,,,,,234.048437200021,234.69947420002427,234.69947420002427,235.1839204999851,315,315,235.1839204999851,235.1839204999851,235.1839204999851,235.1839204999851,235.1839204999851,235.1839204999851,235.1839204999851,235.1839204999851,235.1839204999851,235.5501923999982,235.5501923999982,235.5501923999982,235.5501923999982,235.5501923999982,235.5501923999982,235.5501923999982,235.5501923999982,235.5501923999982,23,0,,,235.5501923999982,235.75226169999223,1000,235.75226169999223,1000,1000,1000,1000,1,num_2,1.0779284000163898,,26,16,2026-03-05_11h35.49.353,2026A_exp2,2022.2.4,59.965663657829815,
1000,1,4.9,0.0,1,0,81,81,28,,,,,236.85146560001886,237.50208810000913,237.50208810000913,238.00343470001826,315,45,238.00343470001826,238.00343470001826,238.00343470001826,238.00343470001826,238.00343470001826,238.00343470001826,238.00343470001826,238.00343470001826,238.00343470001826,238.36970420001308,238.36970420001308,238.36970420001308,238.36970420001308,238.36970420001308,238.36970420001308,238.36970420001308,238.36970420001308,238.36970420001308,21,2,"[0.1335319000063464, 0.16692889999831095]","[0.1501814999501221, 0.18364989996189252]",238.36970420001308,238.57189080002718,1000,238.57189080002718,1000,1000,1000,1000,0,num_3,0.4013875999953598,,26,16,2026-03-05_11h35.49.353,2026A_exp2,2022.2.4,59.965663657829815,
1000,1,3.7,0.0,1,0,82,82,21,,,,,239.00359969999408,239.65432309999596,239.65432309999596,240.15555209998274,315,45,240.15555209998274,240.15555209998274,240.15555209998274,240.15555209998274,240.15555209998274,240.15555209998274,240.15555209998274,240.15555209998274,240.15555209998274,240.52184569998644,240.52184569998644,240.52184569998644,240.52184569998644,240.52184569998644,240.52184569998644,240.52184569998644,240.52184569998644,240.52184569998644,23,0,,,240.52184569998644,240.72394950001035,1000,240.72394950001035,1000,1000,1000,1000,0,num_3,0.4262726999586448,,26,16,2026-03-05_11h35.49.353,2026A_exp2,2022.2.4,59.965663657829815,
1000,1,0.0,0.0,1,0,83,83,71,,,,,241.17245359998196,241.8232734000194,241.8232734000194,242.32432289997814,315,45,242.32432289997814,242.32432289997814,242.32432289997814,242.32432289997814,242.32432289997814,242.32432289997814,242.32432289997814,242.32432289997814,242.32432289997814,242.6907649000059,242.6907649000059,242.6907649000059,242.6907649000059,242.6907649000059,242.6907649000059,242.6907649000059,242.6907649000059,242.6907649000059,23,0,,,242.6907649000059,242.89284699998097,1000,242.89284699998097,1000,1000,1000,1000,0,num_3,0.37673740001628175,,26,16,2026-03-05_11h35.49.353,2026A_exp2,2022.2.4,59.965663657829815,
1,0,6.1,6.1,0,0,84,84,11,,,,,243.29142189997947,243.94191559997853,243.94191559997853,244.42646470002364,315,45,244.42646470002364,244.42646470002364,244.42646470002364,244.42646470002364,244.42646470002364,244.42646470002364,244.42646470002364,244.42646470002364,244.42646470002364,244.7929320000112,244.7929320000112,244.7929320000112,244.7929320000112,244.7929320000112,244.7929320000112,244.7929320000112,244.7929320000112,244.7929320000112,23,0,,,244.7929320000112,244.99305900000036,6.1,244.99305900000036,1,6.1,1,1,1000,num_4,0.829041299992241,,26,16,2026-03-05_11h35.49.353,2026A_exp2,2022.2.4,59.965663657829815,
1000,1,4.9,0.0,0,0,85,85,78,,,,,245.84382339997683,246.49467460002052,246.49467460002052,246.97885369998403,45,315,246.97885369998403,246.97885369998403,246.97885369998403,246.97885369998403,246.97885369998403,246.97885369998403,246.97885369998403,246.97885369998403,246.97885369998403,247.34542819997296,247.34542819997296,247.34542819997296,247.34542819997296,247.34542819997296,247.34542819997296,247.34542819997296,247.34542819997296,247.34542819997296,23,0,,,247.34542819997296,247.54791010002373,1000,247.54791010002373,1000,1000,1000,1000,0,num_3,0.5297857000259683,,26,16,2026-03-05_11h35.49.353,2026A_exp2,2022.2.4,59.965663657829815,
1000,1,4.9,4.9,1,0,86,86,26,,,,,248.09601510001812,248.74681440001586,248.74681440001586,249.24795460002497,315,45,249.24795460002497,249.24795460002497,249.24795460002497,249.24795460002497,249.24795460002497,249.24795460002497,249.24795460002497,249.24795460002497,249.24795460002497,249.5973163000308,249.5973163000308,249.5973163000308,249.5973163000308,249.5973163000308,249.5973163000308,249.5973163000308,249.5973163000308,249.5973163000308,22,0,,,249.5973163000308,249.79930040001636,1000,249.81462159997318,1000,1000,1000,1000,1,num_2,0.3264899000059813,,26,16,2026-03-05_11h35.49.353,2026A_exp2,2022.2.4,59.965663657829815,
1000,1,4.9,3.7,1,0,87,87,14,,,,,250.16470850002952,250.8156095999875,250.8156095999875,251.31670859997394,45,45,251.31670859997394,251.31670859997394,251.31670859997394,251.31670859997394,251.31670859997394,251.31670859997394,251.31670859997394,251.31670859997394,251.31670859997394,251.68270379997557,251.68270379997557,251.68270379997557,251.68270379997557,251.68270379997557,251.68270379997557,251.68270379997557,251.68270379997557,251.68270379997557,23,0,,,251.68270379997557,251.88494219997665,1000,251.88494219997665,1000,1000,1000,1000,0,num_3,0.544612199999392,,26,16,2026-03-05_11h35.49.353,2026A_exp2,2022.2.4,59.965663657829815,
1000,1,4.9,0.0,1,0,88,88,7,,,,,252.4504042000044,253.10110570001416,253.10110570001416,253.60231729998486,315,45,253.60231729998486,253.60231729998486,253.60231729998486,253.60231729998486,253.60231729998486,253.60231729998486,253.60231729998486,253.60231729998486,253.60231729998486,253.9520407000091,253.9520407000091,253.9520407000091,253.9520407000091,253.9520407000091,253.9520407000091,253.9520407000091,253.9520407000091,253.9520407000091,22,0,,,253.9520407000091,254.15241370000876,1000,254.1691202999791,1000,1000,1000,1000,0,num_3,0.3251755999517627,,26,16,2026-03-05_11h35.49.353,2026A_exp2,2022.2.4,59.965663657829815,
1,0,6.1,0.0,0,0,89,89,24,,,,,254.51947609998751,255.1698002999765,255.1698002999765,255.67093249998288,315,45,255.67093249998288,255.67093249998288,255.67093249998288,255.67093249998288,255.67093249998288,255.67093249998288,255.67093249998288,255.67093249998288,255.67093249998288,256.02067860000534,256.02067860000534,256.02067860000534,256.02067860000534,256.02067860000534,256.02067860000534,256.02067860000534,256.02067860000534,256.02067860000534,0,1,[0.0012397999526001513],[0.3505707999574952],256.02067860000534,256.2209450000082,6.1,256.2209450000082,1,6.1,1,1,1000,num_4,0.68848930002423,,26,16,2026-03-05_11h35.49.353,2026A_exp2,2022.2.4,59.965663657829815,
,,,,,,,,,,,,,,,,,,,,,,,,,,,,,,,,,,,,,,,,,,,,,,,,,,,,256.9482410000055,,,,,,,
