validity,detectorcomp,contrastCW,contrastCCW,precueCWorCCW,block_80trials.thisRepN,block_80trials.thisTrialN,block_80trials.thisN,block_80trials.thisIndex,etRecord.started,etRecord.stopped,text.started,text.stopped,text_4.started,text_4.stopped,text_6.started,text_6.stopped,oriCW,oriCCW,roi_2.started,grating_UR.started,grating_UL.started,grating_LR.started,grating_LL.started,noise_UR.started,noise_UL.started,noise_LR.started,noise_LL.started,roi_2.stopped,grating_UR.stopped,grating_UL.stopped,grating_LR.stopped,grating_LL.stopped,noise_UR.stopped,noise_UL.stopped,noise_LR.stopped,noise_LL.stopped,outframe,roi_2.numLooks,roi_2.timesOn,roi_2.timesOff,text_2.started,text_2.stopped,probedcontrast,key_resp.started,respdetect,relevantContrast,correctDetect,TorFdetect,respCWorCCW,key_resp.keys,key_resp.rt,feedback_display_.started,participantNo,blockNo,date,expName,psychopyVersion,frameRate,
1,0,3.7,0.0,1,0,0,0,13,4.229997284710407e-05,4.229997284710407e-05,128.81020890013315,130.8197353000287,130.8197353000287,131.46468410012312,131.46468410012312,131.98317959997803,45,315,131.98317959997803,131.98317959997803,131.98317959997803,131.98317959997803,131.98317959997803,131.98317959997803,131.98317959997803,131.98317959997803,131.98317959997803,132.33214500010945,132.33214500010945,132.33214500010945,132.33214500010945,132.33214500010945,132.33214500010945,132.33214500010945,132.33214500010945,132.33214500010945,14,2,"[0.0009227001573890448, 0.13378010015003383]","[0.10042660008184612, 0.18380450014956295]",132.33214500010945,132.54509770008735,0.0,132.54509770008735,0,0.0,0,1,1000,num_1,1.9365910000633448,,35,9,2026-03-13_14h07.32.015,2026A_exp2,2022.2.4,59.81891616304199,
0,0,6.1,0.0,1,0,1,1,30,,,,,134.50087470002472,135.15168570005335,135.15168570005335,135.63620109995827,315,315,135.63620109995827,135.63620109995827,135.63620109995827,135.63620109995827,135.63620109995827,135.63620109995827,135.63620109995827,135.63620109995827,135.63620109995827,136.00254450016655,136.00254450016655,136.00254450016655,136.00254450016655,136.00254450016655,136.00254450016655,136.00254450016655,136.00254450016655,136.00254450016655,13,2,"[0.0012837001122534275, 0.23370019998401403]","[0.033451300114393234, 0.3504560999572277]",136.00254450016655,136.20278050005436,6.1,136.20278050005436,0,6.1,1,0,1000,num_1,3.8623947000596672,,35,9,2026-03-13_14h07.32.015,2026A_exp2,2022.2.4,59.81891616304199,
1000,1,0.0,0.0,0,0,2,2,37,,,,,140.08992719999515,140.74034190014936,140.74034190014936,141.22509620012715,45,45,141.22509620012715,141.22509620012715,141.22509620012715,141.22509620012715,141.22509620012715,141.22509620012715,141.22509620012715,141.22509620012715,141.22509620012715,141.59150960016996,141.59150960016996,141.59150960016996,141.59150960016996,141.59150960016996,141.59150960016996,141.59150960016996,141.59150960016996,141.59150960016996,14,4,"[0.0012378001119941473, 0.11702760006301105, 0.2503502999898046, 0.33375789993442595]","[0.017457199981436133, 0.13358070002868772, 0.31712569994851947, 0.36703859991393983]",141.59150960016996,141.79644960002042,1000,141.79644960002042,1000,1000,1000,1000,0,num_3,0.8532125998754054,,35,9,2026-03-13_14h07.32.015,2026A_exp2,2022.2.4,59.81891616304199,
1000,1,0.0,0.0,0,0,3,3,72,,,,,142.67579650017433,143.32659450010397,143.32659450010397,143.82758640008979,45,315,143.82758640008979,143.82758640008979,143.82758640008979,143.82758640008979,143.82758640008979,143.82758640008979,143.82758640008979,143.82758640008979,143.82758640008979,144.19406110001728,144.19406110001728,144.19406110001728,144.19406110001728,144.19406110001728,144.19406110001728,144.19406110001728,144.19406110001728,144.19406110001728,22,1,[0.2838309002108872],[0.30053770006634295],144.19406110001728,144.3963178000413,1000,144.3963178000413,1000,1000,1000,1000,0,num_3,0.4526759998407215,,35,9,2026-03-13_14h07.32.015,2026A_exp2,2022.2.4,59.81891616304199,
1000,1,0.0,4.9,1,0,4,4,55,,,,,144.87824240000919,145.52875860012136,145.52875860012136,146.0131853001658,45,315,146.0131853001658,146.0131853001658,146.0131853001658,146.0131853001658,146.0131853001658,146.0131853001658,146.0131853001658,146.0131853001658,146.0131853001658,146.37955680000596,146.37955680000596,146.37955680000596,146.37955680000596,146.37955680000596,146.37955680000596,146.37955680000596,146.37955680000596,146.37955680000596,8,4,"[0.01752589992247522, 0.15001629991456866, 0.23360899998806417, 0.266908299876377]","[0.1166551997885108, 0.16688779997639358, 0.25023959996178746, 0.3672710999380797]",146.37955680000596,146.58192640007474,1000,146.58192640007474,1000,1000,1000,1000,1,num_2,0.4761814000084996,,35,9,2026-03-13_14h07.32.015,2026A_exp2,2022.2.4,59.81891616304199,
1000,1,0.0,6.1,1,0,5,5,19,,,,,147.0801620001439,147.73091850010678,147.73091850010678,148.23196740006097,45,315,148.23196740006097,148.23196740006097,148.23196740006097,148.23196740006097,148.23196740006097,148.23196740006097,148.23196740006097,148.23196740006097,148.23196740006097,148.5818147000391,148.5818147000391,148.5818147000391,148.5818147000391,148.5818147000391,148.5818147000391,148.5818147000391,148.5818147000391,148.5818147000391,0,1,[0.0012142001651227474],[0.35061209998093545],148.5818147000391,148.78367849998176,1000,148.79860730003566,1000,1000,1000,1000,1,num_2,0.33906559995375574,,35,9,2026-03-13_14h07.32.015,2026A_exp2,2022.2.4,59.81891616304199,
1,0,4.9,6.1,0,0,6,6,33,,,,,149.16549880011007,149.81625579996035,149.81625579996035,150.31746329995804,315,315,150.31746329995804,150.31746329995804,150.31746329995804,150.31746329995804,150.31746329995804,150.31746329995804,150.31746329995804,150.31746329995804,150.31746329995804,150.6838438999839,150.6838438999839,150.6838438999839,150.6838438999839,150.6838438999839,150.6838438999839,150.6838438999839,150.6838438999839,150.6838438999839,23,0,,,150.6838438999839,150.88406680012122,4.9,150.88406680012122,0,4.9,1,0,1000,num_1,0.5496201000642031,,35,9,2026-03-13_14h07.32.015,2026A_exp2,2022.2.4,59.81891616304199,
1000,1,3.7,4.9,1,0,7,7,20,,,,,151.45107860001735,152.10198260005563,152.10198260005563,152.58637950010598,315,45,152.58637950010598,152.58637950010598,152.58637950010598,152.58637950010598,152.58637950010598,152.58637950010598,152.58637950010598,152.58637950010598,152.58637950010598,152.95278570009395,152.95278570009395,152.95278570009395,152.95278570009395,152.95278570009395,152.95278570009395,152.95278570009395,152.95278570009395,152.95278570009395,21,1,[0.317098299972713],[0.3504296999890357],152.95278570009395,153.15355390007608,1000,153.15355390007608,1000,1000,1000,1000,0,num_3,0.4082870001439005,,35,9,2026-03-13_14h07.32.015,2026A_exp2,2022.2.4,59.81891616304199,
1000,1,0.0,0.0,1,0,8,8,56,,,,,153.5871649000328,154.2374071001541,154.2374071001541,154.7217282000929,315,315,154.7217282000929,154.7217282000929,154.7217282000929,154.7217282000929,154.7217282000929,154.7217282000929,154.7217282000929,154.7217282000929,154.7217282000929,155.0882423000876,155.0882423000876,155.0882423000876,155.0882423000876,155.0882423000876,155.0882423000876,155.0882423000876,155.0882423000876,155.0882423000876,20,2,"[0.25030509987846017, 0.36707479995675385]","[0.28361969999969006, 0.3670797999948263]",155.0882423000876,155.28850460005924,1000,155.28850460005924,1000,1000,1000,1000,1,num_2,0.6565606000367552,,35,9,2026-03-13_14h07.32.015,2026A_exp2,2022.2.4,59.81891616304199,
0,0,0.0,0.0,1,0,9,9,38,,,,,155.97245830018073,156.62311500008218,156.62311500008218,157.12423740001395,45,45,157.12423740001395,157.12423740001395,157.12423740001395,157.12423740001395,157.12423740001395,157.12423740001395,157.12423740001395,157.12423740001395,157.12423740001395,157.49071290018037,157.49071290018037,157.49071290018037,157.49071290018037,157.49071290018037,157.49071290018037,157.49071290018037,157.49071290018037,157.49071290018037,12,6,"[0.0012805999722331762, 0.05019189999438822, 0.08352799993008375, 0.15050780004821718, 0.21667540003545582, 0.333824000088498]","[0.017266400158405304, 0.06683410005643964, 0.1335347001440823, 0.18296090001240373, 0.24986480013467371, 0.3669281001202762]",157.49071290018037,157.6909680000972,0.0,157.6909680000972,0,0.0,0,1,1000,num_1,0.5102446000091732,,35,9,2026-03-13_14h07.32.015,2026A_exp2,2022.2.4,59.81891616304199,
1,0,0.0,0.0,0,0,10,10,34,,,,,158.22465019999072,158.87538970005699,158.87538970005699,159.35999380005524,315,315,159.35999380005524,159.35999380005524,159.35999380005524,159.35999380005524,159.35999380005524,159.35999380005524,159.35999380005524,159.35999380005524,159.35999380005524,159.72610520012677,159.72610520012677,159.72610520012677,159.72610520012677,159.72610520012677,159.72610520012677,159.72610520012677,159.72610520012677,159.72610520012677,10,6,"[0.01717930007725954, 0.0835122000426054, 0.15038260002620518, 0.18372510001063347, 0.21707900008186698, 0.31706409994512796]","[0.0669676000252366, 0.11686970014125109, 0.1670262000989169, 0.20038169994950294, 0.25038410001434386, 0.3672802001237869]",159.72610520012677,159.92647500010207,0.0,159.92647500010207,1,0.0,0,0,1000,num_4,1.171024100156501,,35,9,2026-03-13_14h07.32.015,2026A_exp2,2022.2.4,59.81891616304199,
1000,1,0.0,4.9,1,0,11,11,78,,,,,161.12758430000395,161.7783350001555,161.7783350001555,162.26258360012434,45,315,162.26258360012434,162.26258360012434,162.26258360012434,162.26258360012434,162.26258360012434,162.26258360012434,162.26258360012434,162.26258360012434,162.26258360012434,162.62919070012867,162.62919070012867,162.62919070012867,162.62919070012867,162.62919070012867,162.62919070012867,162.62919070012867,162.62919070012867,162.62919070012867,10,6,"[0.0012125000357627869, 0.06693150009959936, 0.10028760018758476, 0.18354070000350475, 0.28381419996730983, 0.35037420014850795]","[0.050196400145068765, 0.08364900015294552, 0.16703420015983284, 0.2170969001017511, 0.3172115001361817, 0.3671968001872301]",162.62919070012867,162.8313814001158,1000,162.8313814001158,1000,1000,1000,1000,1,num_2,0.689564700005576,,35,9,2026-03-13_14h07.32.015,2026A_exp2,2022.2.4,59.81891616304199,
1000,1,0.0,0.0,0,0,12,12,87,,,,,163.54713260009885,164.18077610014006,164.18077610014006,164.68180260015652,315,45,164.68180260015652,164.68180260015652,164.68180260015652,164.68180260015652,164.68180260015652,164.68180260015652,164.68180260015652,164.68180260015652,164.68180260015652,165.04839570005424,165.04839570005424,165.04839570005424,165.04839570005424,165.04839570005424,165.04839570005424,165.04839570005424,165.04839570005424,165.04839570005424,7,6,"[0.0012338999658823013, 0.08350250008516014, 0.13377270009368658, 0.2167899999767542, 0.3005203001666814, 0.35052220011129975]","[0.06684950017370284, 0.11686470010317862, 0.1503108001779765, 0.28388650016859174, 0.3338921000249684, 0.36713150003924966]",165.04839570005424,165.25032740016468,1000,165.25032740016468,1000,1000,1000,1000,1,num_2,0.45558429998345673,,35,9,2026-03-13_14h07.32.015,2026A_exp2,2022.2.4,59.81891616304199,
0,0,6.1,6.1,0,0,13,13,42,,,,,165.7321024001576,166.38285590009764,166.38285590009764,166.88404340017587,315,45,166.88404340017587,166.88404340017587,166.88404340017587,166.88404340017587,166.88404340017587,166.88404340017587,166.88404340017587,166.88404340017587,166.88404340017587,167.2504885001108,167.2504885001108,167.2504885001108,167.2504885001108,167.2504885001108,167.2504885001108,167.2504885001108,167.2504885001108,167.2504885001108,22,1,[0.03342210012488067],[0.06670600012876093],167.2504885001108,167.45054790005088,6.1,167.45054790005088,0,6.1,1,0,1000,num_1,1.335415800102055,,35,9,2026-03-13_14h07.32.015,2026A_exp2,2022.2.4,59.81891616304199,
1,0,0.0,0.0,1,0,14,14,24,,,,,168.80202880012803,169.4527276000008,169.4527276000008,169.9369493999984,315,45,169.9369493999984,169.9369493999984,169.9369493999984,169.9369493999984,169.9369493999984,169.9369493999984,169.9369493999984,169.9369493999984,169.9369493999984,170.30358649999835,170.30358649999835,170.30358649999835,170.30358649999835,170.30358649999835,170.30358649999835,170.30358649999835,170.30358649999835,170.30358649999835,23,0,,,170.30358649999835,170.50376200000755,0.0,170.50376200000755,1,0.0,0,0,1000,num_4,0.6262007998302579,,35,9,2026-03-13_14h07.32.015,2026A_exp2,2022.2.4,59.81891616304199,
1000,1,0.0,4.9,0,0,15,15,53,,,,,171.15419170004316,171.8047869000584,171.8047869000584,172.29003989999183,45,45,172.29003989999183,172.29003989999183,172.29003989999183,172.29003989999183,172.29003989999183,172.29003989999183,172.29003989999183,172.29003989999183,172.29003989999183,172.65590220014565,172.65590220014565,172.65590220014565,172.65590220014565,172.65590220014565,172.65590220014565,172.65590220014565,172.65590220014565,172.65590220014565,22,1,[0.33259510016068816],[0.34910900006070733],172.65590220014565,172.85612950008363,1000,172.85612950008363,1000,1000,1000,1000,1,num_2,0.7619218002073467,,35,9,2026-03-13_14h07.32.015,2026A_exp2,2022.2.4,59.81891616304199,
1000,1,0.0,6.1,0,0,16,16,58,,,,,173.64003190002404,174.29081390006468,174.29081390006468,174.79197530006059,315,45,174.79197530006059,174.79197530006059,174.79197530006059,174.79197530006059,174.79197530006059,174.79197530006059,174.79197530006059,174.79197530006059,174.79197530006059,175.15840100008063,175.15840100008063,175.15840100008063,175.15840100008063,175.15840100008063,175.15840100008063,175.15840100008063,175.15840100008063,175.15840100008063,23,0,,,175.15840100008063,175.36022250005044,1000,175.36022250005044,1000,1000,1000,1000,1,num_2,0.48117149993777275,,35,9,2026-03-13_14h07.32.015,2026A_exp2,2022.2.4,59.81891616304199,
1000,1,0.0,0.0,1,0,17,17,40,,,,,175.8590947999619,176.50953170005232,176.50953170005232,177.0107178001199,45,315,177.0107178001199,177.0107178001199,177.0107178001199,177.0107178001199,177.0107178001199,177.0107178001199,177.0107178001199,177.0107178001199,177.0107178001199,177.3771530999802,177.3771530999802,177.3771530999802,177.3771530999802,177.3771530999802,177.3771530999802,177.3771530999802,177.3771530999802,177.3771530999802,6,4,"[0.05031429999507964, 0.15025790012441576, 0.25030339998193085, 0.28373249992728233]","[0.1336699000094086, 0.233744400087744, 0.26705539994873106, 0.3672281999606639]",177.3771530999802,177.57898890017532,1000,177.57898890017532,1000,1000,1000,1000,0,num_3,0.3582189998123795,,35,9,2026-03-13_14h07.32.015,2026A_exp2,2022.2.4,59.81891616304199,
1000,1,0.0,3.7,1,0,18,18,65,,,,,177.961043599993,178.61183529999107,178.61183529999107,179.1129668999929,315,45,179.1129668999929,179.1129668999929,179.1129668999929,179.1129668999929,179.1129668999929,179.1129668999929,179.1129668999929,179.1129668999929,179.1129668999929,179.47928189998493,179.47928189998493,179.47928189998493,179.47928189998493,179.47928189998493,179.47928189998493,179.47928189998493,179.47928189998493,179.47928189998493,5,6,"[0.0012342999689280987, 0.0502660998608917, 0.16696970001794398, 0.21702690003439784, 0.3004339998587966, 0.3671679999679327]","[0.03350030002184212, 0.15046389983035624, 0.20029049995355308, 0.28373189992271364, 0.35046939994208515, 0.3671732998918742]",179.47928189998493,179.68151010014117,1000,179.68151010014117,1000,1000,1000,1000,1,num_2,0.4565983999054879,,35,9,2026-03-13_14h07.32.015,2026A_exp2,2022.2.4,59.81891616304199,
1000,1,0.0,6.1,1,0,19,19,62,,,,,180.16325360001065,180.81401920015924,180.81401920015924,181.31494099996053,45,45,181.31494099996053,181.31494099996053,181.31494099996053,181.31494099996053,181.31494099996053,181.31494099996053,181.31494099996053,181.31494099996053,181.31494099996053,181.68153650010936,181.68153650010936,181.68153650010936,181.68153650010936,181.68153650010936,181.68153650010936,181.68153650010936,181.68153650010936,181.68153650010936,22,1,[0.3167761000804603],[0.33359159994870424],181.68153650010936,181.88336290000007,1000,181.88336290000007,1000,1000,1000,1000,1,num_2,0.4549499999266118,,35,9,2026-03-13_14h07.32.015,2026A_exp2,2022.2.4,59.81891616304199,
1,0,4.9,4.9,0,0,20,20,84,,,,,182.36576770013198,183.01599220000207,183.01599220000207,183.517185700126,315,45,183.517185700126,183.517185700126,183.517185700126,183.517185700126,183.517185700126,183.517185700126,183.517185700126,183.517185700126,183.517185700126,183.88381000002846,183.88381000002846,183.88381000002846,183.88381000002846,183.88381000002846,183.88381000002846,183.88381000002846,183.88381000002846,183.88381000002846,23,0,,,183.88381000002846,184.08388360007666,4.9,184.08388360007666,0,4.9,1,0,1000,num_1,0.5811190998647362,,35,9,2026-03-13_14h07.32.015,2026A_exp2,2022.2.4,59.81891616304199,
1,0,0.0,0.0,0,0,21,21,51,,,,,184.68443430005573,185.3355893001426,185.3355893001426,185.81965890014544,315,315,185.81965890014544,185.81965890014544,185.81965890014544,185.81965890014544,185.81965890014544,185.81965890014544,185.81965890014544,185.81965890014544,185.81965890014544,186.18607400008477,186.18607400008477,186.18607400008477,186.18607400008477,186.18607400008477,186.18607400008477,186.18607400008477,186.18607400008477,186.18607400008477,15,3,"[0.05026329983957112, 0.13369709998369217, 0.2003679999615997]","[0.11686159996315837, 0.16701519978232682, 0.23359579988755286]",186.18607400008477,186.38625500001945,0.0,186.38625500001945,0,0.0,0,1,1000,num_1,0.30307199992239475,,35,9,2026-03-13_14h07.32.015,2026A_exp2,2022.2.4,59.81891616304199,
1,0,4.9,3.7,0,0,22,22,9,,,,,186.70440479996614,187.35388240008615,187.35388240008615,187.85499990009703,315,45,187.85499990009703,187.85499990009703,187.85499990009703,187.85499990009703,187.85499990009703,187.85499990009703,187.85499990009703,187.85499990009703,187.85499990009703,188.22128170006908,188.22128170006908,188.22128170006908,188.22128170006908,188.22128170006908,188.22128170006908,188.22128170006908,188.22128170006908,188.22128170006908,8,5,"[0.033422499895095825, 0.2003122998867184, 0.26714050001464784, 0.3172523998655379, 0.36722629982978106]","[0.16678059985861182, 0.25032679992727935, 0.2838538000360131, 0.3504389999434352, 0.3672312998678535]",188.22128170006908,188.42158229998313,4.9,188.42158229998313,0,4.9,1,0,1000,num_1,0.3795708999969065,,35,9,2026-03-13_14h07.32.015,2026A_exp2,2022.2.4,59.81891616304199,
1000,1,3.7,0.0,0,0,23,23,32,,,,,188.82191810011864,189.4726307000965,189.4726307000965,189.95715330005623,315,45,189.95715330005623,189.95715330005623,189.95715330005623,189.95715330005623,189.95715330005623,189.95715330005623,189.95715330005623,189.95715330005623,189.95715330005623,190.32341850013472,190.32341850013472,190.32341850013472,190.32341850013472,190.32341850013472,190.32341850013472,190.32341850013472,190.32341850013472,190.32341850013472,3,4,"[0.0012757000513374805, 0.15007780003361404, 0.23359650000929832, 0.3337006000801921]","[0.11622050008736551, 0.21700030006468296, 0.31695350003428757, 0.3671854001004249]",190.32341850013472,190.52419190015644,1000,190.52419190015644,1000,1000,1000,1000,1,num_2,0.5102926997933537,,35,9,2026-03-13_14h07.32.015,2026A_exp2,2022.2.4,59.81891616304199,
1,0,0.0,0.0,1,0,24,24,21,,,,,191.05755740008317,191.7082701001782,191.7082701001782,192.2093015999999,315,315,192.2093015999999,192.2093015999999,192.2093015999999,192.2093015999999,192.2093015999999,192.2093015999999,192.2093015999999,192.2093015999999,192.2093015999999,192.5756604000926,192.5756604000926,192.5756604000926,192.5756604000926,192.5756604000926,192.5756604000926,192.5756604000926,192.5756604000926,192.5756604000926,18,5,"[0.10030439984984696, 0.20028349990025163, 0.2667115000076592, 0.33323629992082715, 0.3669832998421043]","[0.11692579998634756, 0.21686619985848665, 0.28316819993779063, 0.34992599999532104, 0.3669884998816997]",192.5756604000926,192.77584709995426,0.0,192.77584709995426,0,0.0,0,1,1000,num_1,0.849641100037843,,35,9,2026-03-13_14h07.32.015,2026A_exp2,2022.2.4,59.81891616304199,
1000,1,0.0,0.0,0,0,25,25,36,,,,,193.6432581001427,194.29419110016897,194.29419110016897,194.7788150999695,315,45,194.7788150999695,194.7788150999695,194.7788150999695,194.7788150999695,194.7788150999695,194.7788150999695,194.7788150999695,194.7788150999695,194.7788150999695,195.14514080015942,195.14514080015942,195.14514080015942,195.14514080015942,195.14514080015942,195.14514080015942,195.14514080015942,195.14514080015942,195.14514080015942,7,4,"[0.0012370999902486801, 0.11811050004325807, 0.151340699987486, 0.2679950001183897]","[0.0542947999201715, 0.1347556000109762, 0.251355400076136, 0.368233900051564]",195.14514080015942,195.3566223999951,1000,195.3566223999951,1000,1000,1000,1000,0,num_3,0.4043219001032412,,35,9,2026-03-13_14h07.32.015,2026A_exp2,2022.2.4,59.81891616304199,
1000,1,4.9,0.0,0,0,26,26,50,,,,,195.77876970008947,196.4296451001428,196.4296451001428,196.93197860009968,315,315,196.93197860009968,196.93197860009968,196.93197860009968,196.93197860009968,196.93197860009968,196.93197860009968,196.93197860009968,196.93197860009968,196.93197860009968,197.29718820005655,197.29718820005655,197.29718820005655,197.29718820005655,197.29718820005655,197.29718820005655,197.29718820005655,197.29718820005655,197.29718820005655,22,1,[0.05025870003737509],[0.06682930001989007],197.29718820005655,197.49916680017486,1000,197.49916680017486,1000,1000,1000,1000,1,num_2,0.2538630999624729,,35,9,2026-03-13_14h07.32.015,2026A_exp2,2022.2.4,59.81891616304199,
1000,1,6.1,0.0,0,0,27,27,89,,,,,197.78091050009243,198.4317250000313,198.4317250000313,198.93279860005714,45,45,198.93279860005714,198.93279860005714,198.93279860005714,198.93279860005714,198.93279860005714,198.93279860005714,198.93279860005714,198.93279860005714,198.93279860005714,199.29918069997802,199.29918069997802,199.29918069997802,199.29918069997802,199.29918069997802,199.29918069997802,199.29918069997802,199.29918069997802,199.29918069997802,13,3,"[0.08337640017271042, 0.2836362000089139, 0.33369060000404716]","[0.1835239001084119, 0.31716890004463494, 0.36719270003959537]",199.29918069997802,199.50063859997317,1000,199.50063859997317,1000,1000,1000,1000,0,num_3,0.42890270007774234,,35,9,2026-03-13_14h07.32.015,2026A_exp2,2022.2.4,59.81891616304199,
1000,1,3.7,0.0,1,0,28,28,54,,,,,199.94961110013537,200.60023910016753,200.60023910016753,201.10149629996158,315,315,201.10149629996158,201.10149629996158,201.10149629996158,201.10149629996158,201.10149629996158,201.10149629996158,201.10149629996158,201.10149629996158,201.10149629996158,201.46782679995522,201.46782679995522,201.46782679995522,201.46782679995522,201.46782679995522,201.46782679995522,201.46782679995522,201.46782679995522,201.46782679995522,17,3,"[0.18365379981696606, 0.26706329989247024, 0.3505215998739004]","[0.2170116000343114, 0.3005311999004334, 0.36714779981411994]",201.46782679995522,201.66999409999698,1000,201.66999409999698,1000,1000,1000,1000,1,num_2,0.6840913000050932,,35,9,2026-03-13_14h07.32.015,2026A_exp2,2022.2.4,59.81891616304199,
0,0,0.0,0.0,0,0,29,29,70,,,,,202.3856259000022,203.0361508000642,203.0361508000642,203.5372002001386,315,315,203.5372002001386,203.5372002001386,203.5372002001386,203.5372002001386,203.5372002001386,203.5372002001386,203.5372002001386,203.5372002001386,203.5372002001386,203.90369880013168,203.90369880013168,203.90369880013168,203.90369880013168,203.90369880013168,203.90369880013168,203.90369880013168,203.90369880013168,203.90369880013168,6,3,"[0.033514800015836954, 0.10014700004830956, 0.1836899002082646]","[0.06689150002785027, 0.1502454001456499, 0.367276499979198]",203.90369880013168,204.10392440017313,0.0,204.10392440017313,0,0.0,0,1,1000,num_1,0.513355600181967,,35,9,2026-03-13_14h07.32.015,2026A_exp2,2022.2.4,59.81891616304199,
1,0,3.7,0.0,1,0,30,30,28,,,,,204.6376877001021,205.28838729998097,205.28838729998097,205.77283710008487,45,315,205.77283710008487,205.77283710008487,205.77283710008487,205.77283710008487,205.77283710008487,205.77283710008487,205.77283710008487,205.77283710008487,205.77283710008487,206.139283800032,206.139283800032,206.139283800032,206.139283800032,206.139283800032,206.139283800032,206.139283800032,206.139283800032,206.139283800032,12,5,"[0.0011979001574218273, 0.0836998000741005, 0.20027120015583932, 0.23373540001921356, 0.2837071001995355]","[0.033446700079366565, 0.18353629997000098, 0.2170721001457423, 0.26730350009165704, 0.3005469001363963]",206.139283800032,206.3394510000944,0.0,206.3394510000944,0,0.0,0,1,1000,num_1,0.8693810000550002,,35,9,2026-03-13_14h07.32.015,2026A_exp2,2022.2.4,59.81891616304199,
1000,1,0.0,0.0,0,0,31,31,67,,,,,207.2402489001397,207.89098150003701,207.89098150003701,208.3755604000762,315,45,208.3755604000762,208.3755604000762,208.3755604000762,208.3755604000762,208.3755604000762,208.3755604000762,208.3755604000762,208.3755604000762,208.3755604000762,208.7415098999627,208.7415098999627,208.7415098999627,208.7415098999627,208.7415098999627,208.7415098999627,208.7415098999627,208.7415098999627,208.7415098999627,23,0,,,208.7415098999627,208.94422610010952,1000,208.94422610010952,1000,1000,1000,1000,1,num_2,0.5209228999447078,,35,9,2026-03-13_14h07.32.015,2026A_exp2,2022.2.4,59.81891616304199,
1,0,3.7,4.9,0,0,32,32,76,,,,,209.4925671000965,210.14325330010615,210.14325330010615,210.644396699965,315,315,210.644396699965,210.644396699965,210.644396699965,210.644396699965,210.644396699965,210.644396699965,210.644396699965,210.644396699965,210.644396699965,210.99419969995506,210.99419969995506,210.99419969995506,210.99419969995506,210.99419969995506,210.99419969995506,210.99419969995506,210.99419969995506,210.99419969995506,21,1,[0.1666979999281466],[0.1835387998726219],210.99419969995506,211.1944931000471,3.7,211.1944931000471,0,3.7,1,0,1000,num_1,0.6079199998639524,,35,9,2026-03-13_14h07.32.015,2026A_exp2,2022.2.4,59.81891616304199,
0,0,0.0,0.0,0,0,33,33,22,,,,,211.82841750001535,212.47907310002483,212.47907310002483,212.98016280005686,45,315,212.98016280005686,212.98016280005686,212.98016280005686,212.98016280005686,212.98016280005686,212.98016280005686,212.98016280005686,212.98016280005686,212.98016280005686,213.34631180018187,213.34631180018187,213.34631180018187,213.34631180018187,213.34631180018187,213.34631180018187,213.34631180018187,213.34631180018187,213.34631180018187,22,1,[0.3665290998760611],[0.36653229990042746],213.34631180018187,213.54650910012424,0.0,213.54650910012424,0,0.0,0,1,1000,num_1,0.7188395999837667,,35,9,2026-03-13_14h07.32.015,2026A_exp2,2022.2.4,59.81891616304199,
1000,1,0.0,3.7,0,0,34,34,57,,,,,214.29747020010836,214.94823600002564,214.94823600002564,215.44045670004562,315,315,215.44045670004562,215.44045670004562,215.44045670004562,215.44045670004562,215.44045670004562,215.44045670004562,215.44045670004562,215.44045670004562,215.44045670004562,215.79901740001515,215.79901740001515,215.79901740001515,215.79901740001515,215.79901740001515,215.79901740001515,215.79901740001515,215.79901740001515,215.79901740001515,15,5,"[0.02519019995816052, 0.06547279981896281, 0.13204239984042943, 0.1653665998019278, 0.21557779982686043]","[0.03978919982910156, 0.0818668999709189, 0.14879029989242554, 0.1821658997796476, 0.2819654999766499]",215.79901740001515,216.00098769995384,1000,216.00098769995384,1000,1000,1000,1000,0,num_3,0.40933299995958805,,35,9,2026-03-13_14h07.32.015,2026A_exp2,2022.2.4,59.81891616304199,
1000,1,0.0,0.0,1,0,35,35,46,,,,,216.43285139999352,217.08362080017105,217.08362080017105,217.5847652000375,315,315,217.5847652000375,217.5847652000375,217.5847652000375,217.5847652000375,217.5847652000375,217.5847652000375,217.5847652000375,217.5847652000375,217.5847652000375,217.9510256999638,217.9510256999638,217.9510256999638,217.9510256999638,217.9510256999638,217.9510256999638,217.9510256999638,217.9510256999638,217.9510256999638,19,3,"[0.06703350017778575, 0.25065300008282065, 0.30056250002235174]","[0.1003715000115335, 0.26722400006838143, 0.3172794000711292]",217.9510256999638,218.15298920008354,1000,218.15298920008354,1000,1000,1000,1000,1,num_2,0.6000588999595493,,35,9,2026-03-13_14h07.32.015,2026A_exp2,2022.2.4,59.81891616304199,
1000,1,6.1,0.0,0,0,36,36,59,,,,,218.76860409998335,219.4190875000786,219.4190875000786,219.92025880003348,45,315,219.92025880003348,219.92025880003348,219.92025880003348,219.92025880003348,219.92025880003348,219.92025880003348,219.92025880003348,219.92025880003348,219.92025880003348,220.2866901999805,220.2866901999805,220.2866901999805,220.2866901999805,220.2866901999805,220.2866901999805,220.2866901999805,220.2866901999805,220.2866901999805,12,3,"[0.05052229994907975, 0.20052539999596775, 0.3004693000111729]","[0.1004333000164479, 0.2503921000752598, 0.3667073999531567]",220.2866901999805,220.48876290000044,1000,220.48876290000044,1000,1000,1000,1000,0,num_3,0.5527051000390202,,35,9,2026-03-13_14h07.32.015,2026A_exp2,2022.2.4,59.81891616304199,
1000,1,0.0,6.1,1,0,37,37,69,,,,,221.07086009997874,221.72165199997835,221.72165199997835,222.20587750012055,45,45,222.20587750012055,222.20587750012055,222.20587750012055,222.20587750012055,222.20587750012055,222.20587750012055,222.20587750012055,222.20587750012055,222.20587750012055,222.57224710006267,222.57224710006267,222.57224710006267,222.57224710006267,222.57224710006267,222.57224710006267,222.57224710006267,222.57224710006267,222.57224710006267,12,5,"[0.01717749983072281, 0.10014469991438091, 0.15012619993649423, 0.2836537000257522, 0.3505188999697566]","[0.08345309994183481, 0.1335871999617666, 0.1669230000115931, 0.3170570000074804, 0.3671928998082876]",222.57224710006267,222.77456190017983,1000,222.77456190017983,1000,1000,1000,1000,1,num_2,0.3311671002302319,,35,9,2026-03-13_14h07.32.015,2026A_exp2,2022.2.4,59.81891616304199,
1000,1,0.0,6.1,0,0,38,38,2,,,,,223.12287650001235,223.77355260006152,223.77355260006152,224.27462240005843,45,315,224.27462240005843,224.27462240005843,224.27462240005843,224.27462240005843,224.27462240005843,224.27462240005843,224.27462240005843,224.27462240005843,224.27462240005843,224.64120600000024,224.64120600000024,224.64120600000024,224.64120600000024,224.64120600000024,224.64120600000024,224.64120600000024,224.64120600000024,224.64120600000024,12,5,"[0.01728580007329583, 0.08359419996850193, 0.2171750001143664, 0.25054300017654896, 0.3505315000656992]","[0.05029000015929341, 0.1670731999911368, 0.2337458000984043, 0.26713180006481707, 0.36727680009789765]",224.64120600000024,224.84317730017938,1000,224.84317730017938,1000,1000,1000,1000,1,num_2,0.5582620000932366,,35,9,2026-03-13_14h07.32.015,2026A_exp2,2022.2.4,59.81891616304199,
1,0,4.9,3.7,1,0,39,39,26,,,,,225.42516920017079,226.07580120000057,226.07580120000057,226.5770780001767,315,315,226.5770780001767,226.5770780001767,226.5770780001767,226.5770780001767,226.5770780001767,226.5770780001767,226.5770780001767,226.5770780001767,226.5770780001767,226.9267331000883,226.9267331000883,226.9267331000883,226.9267331000883,226.9267331000883,226.9267331000883,226.9267331000883,226.9267331000883,226.9267331000883,10,5,"[0.05005080020055175, 0.13325570011511445, 0.16696920013055205, 0.28349040006287396, 0.33326770015992224]","[0.08359960000962019, 0.15026140003465116, 0.2495771001558751, 0.31738540017977357, 0.3501326001714915]",226.9267331000883,227.12704839999788,3.7,227.14364810008556,0,3.7,1,0,1000,num_1,0.5622899001464248,,35,9,2026-03-13_14h07.32.015,2026A_exp2,2022.2.4,59.81891616304199,
1,0,3.7,0.0,1,0,40,40,12,,,,,227.72761290008202,228.36152849998325,228.36152849998325,228.8625698001124,315,45,228.8625698001124,228.8625698001124,228.8625698001124,228.8625698001124,228.8625698001124,228.8625698001124,228.8625698001124,228.8625698001124,228.8625698001124,229.22908860002644,229.22908860002644,229.22908860002644,229.22908860002644,229.22908860002644,229.22908860002644,229.22908860002644,229.22908860002644,229.22908860002644,16,6,"[0.05012589995749295, 0.15019449987448752, 0.1835420997813344, 0.25037229992449284, 0.28326749987900257, 0.3670588999520987]","[0.06653869990259409, 0.16654869983904064, 0.21702250000089407, 0.2670345997903496, 0.3001617998816073, 0.3670648999977857]",229.22908860002644,229.42936550010927,0.0,229.42936550010927,0,0.0,0,1,1000,num_1,0.5959135999437422,,35,9,2026-03-13_14h07.32.015,2026A_exp2,2022.2.4,59.81891616304199,
1000,1,6.1,3.7,0,0,41,41,18,,,,,230.04638210008852,230.69728880003095,230.69728880003095,231.18144539999776,315,45,231.18144539999776,231.18144539999776,231.18144539999776,231.18144539999776,231.18144539999776,231.18144539999776,231.18144539999776,231.18144539999776,231.18144539999776,231.54816869995557,231.54816869995557,231.54816869995557,231.54816869995557,231.54816869995557,231.54816869995557,231.54816869995557,231.54816869995557,231.54816869995557,14,5,"[0.049814899917691946, 0.1334383999928832, 0.16660779993981123, 0.2668993999250233, 0.3337061998900026]","[0.11679170001298189, 0.14969830005429685, 0.18350649997591972, 0.3005472000222653, 0.35027649998664856]",231.54816869995557,231.75006230012514,1000,231.75006230012514,1000,1000,1000,1000,0,num_3,0.37956320005469024,,35,9,2026-03-13_14h07.32.015,2026A_exp2,2022.2.4,59.81891616304199,
1,0,4.9,4.9,0,0,42,42,39,,,,,232.14849789999425,232.79935770016164,232.79935770016164,233.30035890010186,315,45,233.30035890010186,233.30035890010186,233.30035890010186,233.30035890010186,233.30035890010186,233.30035890010186,233.30035890010186,233.30035890010186,233.30035890010186,233.66688170004636,233.66688170004636,233.66688170004636,233.66688170004636,233.66688170004636,233.66688170004636,233.66688170004636,233.66688170004636,233.66688170004636,12,5,"[0.001220199977979064, 0.08340889983810484, 0.11678649997338653, 0.23366199992597103, 0.3003071998246014]","[0.06682419986464083, 0.10000229999423027, 0.1501797998789698, 0.26695999992080033, 0.33376029995270073]",233.66688170004636,233.866816499969,4.9,233.866816499969,0,4.9,1,0,1000,num_1,0.959110900061205,,35,9,2026-03-13_14h07.32.015,2026A_exp2,2022.2.4,59.81891616304199,
0,0,0.0,4.9,0,0,43,43,14,,,,,234.85135690006427,235.5020370001439,235.5020370001439,236.0031544000376,45,315,236.0031544000376,236.0031544000376,236.0031544000376,236.0031544000376,236.0031544000376,236.0031544000376,236.0031544000376,236.0031544000376,236.0031544000376,236.35307519999333,236.35307519999333,236.35307519999333,236.35307519999333,236.35307519999333,236.35307519999333,236.35307519999333,236.35307519999333,236.35307519999333,13,3,"[0.10046620015054941, 0.1505407001823187, 0.2337478999979794]","[0.11714340001344681, 0.21681580017320812, 0.3000810001976788]",236.35307519999333,236.55308199999854,4.9,236.55308199999854,1,4.9,1,1,1000,num_4,0.7524017000105232,,35,9,2026-03-13_14h07.32.015,2026A_exp2,2022.2.4,59.81891616304199,
1,0,0.0,3.7,0,0,44,44,61,,,,,237.33702150010504,237.97083180001937,237.97083180001937,238.4721213001758,315,315,238.4721213001758,238.4721213001758,238.4721213001758,238.4721213001758,238.4721213001758,238.4721213001758,238.4721213001758,238.4721213001758,238.4721213001758,238.83869470003992,238.83869470003992,238.83869470003992,238.83869470003992,238.83869470003992,238.83869470003992,238.83869470003992,238.83869470003992,238.83869470003992,23,0,,,238.83869470003992,239.0387524999678,0.0,239.0387524999678,0,0.0,0,1,1000,num_1,0.6669669998809695,,35,9,2026-03-13_14h07.32.015,2026A_exp2,2022.2.4,59.81891616304199,
1000,1,0.0,4.9,0,0,45,45,5,,,,,239.72293759998865,240.37314040004276,240.37314040004276,240.85787159996107,45,45,240.85787159996107,240.85787159996107,240.85787159996107,240.85787159996107,240.85787159996107,240.85787159996107,240.85787159996107,240.85787159996107,240.85787159996107,241.22444609995,241.22444609995,241.22444609995,241.22444609995,241.22444609995,241.22444609995,241.22444609995,241.22444609995,241.22444609995,23,0,,,241.22444609995,241.42640710016713,1000,241.42640710016713,1000,1000,1000,1000,1,num_2,0.4785000002011657,,35,9,2026-03-13_14h07.32.015,2026A_exp2,2022.2.4,59.81891616304199,
0,0,0.0,3.7,0,0,46,46,83,,,,,241.9251314001158,242.57578730001114,242.57578730001114,243.07686360017397,45,315,243.07686360017397,243.07686360017397,243.07686360017397,243.07686360017397,243.07686360017397,243.07686360017397,243.07686360017397,243.07686360017397,243.07686360017397,243.44325630017556,243.44325630017556,243.44325630017556,243.44325630017556,243.44325630017556,243.44325630017556,243.44325630017556,243.44325630017556,243.44325630017556,23,0,,,243.44325630017556,243.6433713999577,3.7,243.6433713999577,0,3.7,1,0,1000,num_1,0.7663384000770748,,35,9,2026-03-13_14h07.32.015,2026A_exp2,2022.2.4,59.81891616304199,
1,0,3.7,3.7,1,0,47,47,86,,,,,244.42741860006936,245.0782755999826,245.0782755999826,245.5626768001821,315,45,245.5626768001821,245.5626768001821,245.5626768001821,245.5626768001821,245.5626768001821,245.5626768001821,245.5626768001821,245.5626768001821,245.5626768001821,245.92915019998327,245.92915019998327,245.92915019998327,245.92915019998327,245.92915019998327,245.92915019998327,245.92915019998327,245.92915019998327,245.92915019998327,18,3,"[0.2338280000258237, 0.2672341000288725, 0.3339764999691397]","[0.25040360004641116, 0.3171560999471694, 0.35059659997932613]",245.92915019998327,246.12930010003038,3.7,246.12930010003038,1,3.7,1,1,1000,num_4,0.5118190001230687,,35,9,2026-03-13_14h07.32.015,2026A_exp2,2022.2.4,59.81891616304199,
1,0,3.7,4.9,1,0,48,48,71,,,,,246.66299470001832,247.31371490005404,247.31371490005404,247.79809730011038,315,45,247.79809730011038,247.79809730011038,247.79809730011038,247.79809730011038,247.79809730011038,247.79809730011038,247.79809730011038,247.79809730011038,247.79809730011038,248.1646470001433,248.1646470001433,248.1646470001433,248.1646470001433,248.1646470001433,248.1646470001433,248.1646470001433,248.1646470001433,248.1646470001433,11,9,"[0.0012297998182475567, 0.09957510000094771, 0.13308599987067282, 0.16664119996130466, 0.20023539988324046, 0.23360409983433783, 0.26697789994068444, 0.33369340002536774, 0.3670476998668164]","[0.050110199954360723, 0.11637980001978576, 0.14987639989703894, 0.1832247998099774, 0.21679869992658496, 0.2501662999857217, 0.28353859996423125, 0.3501944998279214, 0.36705269990488887]",248.1646470001433,248.36493850010447,4.9,248.36493850010447,1,4.9,1,1,1000,num_4,0.4049025001004338,,35,9,2026-03-13_14h07.32.015,2026A_exp2,2022.2.4,59.81891616304199,
1,0,0.0,4.9,1,0,49,49,1,,,,,248.79851320013404,249.449300999986,249.449300999986,249.93359540007077,45,45,249.93359540007077,249.93359540007077,249.93359540007077,249.93359540007077,249.93359540007077,249.93359540007077,249.93359540007077,249.93359540007077,249.93359540007077,250.3002010001801,250.3002010001801,250.3002010001801,250.3002010001801,250.3002010001801,250.3002010001801,250.3002010001801,250.3002010001801,250.3002010001801,23,0,,,250.3002010001801,250.50011630007066,4.9,250.50011630007066,1,4.9,1,1,1000,num_4,0.44601229997351766,,35,9,2026-03-13_14h07.32.015,2026A_exp2,2022.2.4,59.81891616304199,
1,0,0.0,0.0,0,0,50,50,17,,,,,250.96733420016244,251.61821460002102,251.61821460002102,252.10260990005918,45,315,252.10260990005918,252.10260990005918,252.10260990005918,252.10260990005918,252.10260990005918,252.10260990005918,252.10260990005918,252.10260990005918,252.10260990005918,252.4689438000787,252.4689438000787,252.4689438000787,252.4689438000787,252.4689438000787,252.4689438000787,252.4689438000787,252.4689438000787,252.4689438000787,3,2,"[0.01740630017593503, 0.06674270005896688]","[0.03353020013310015, 0.367041900055483]",252.4689438000787,252.6690456001088,0.0,252.6690456001088,0,0.0,0,1,1000,num_1,0.5565535998903215,,35,9,2026-03-13_14h07.32.015,2026A_exp2,2022.2.4,59.81891616304199,
0,0,3.7,6.1,0,0,51,51,73,,,,,253.25290310010314,253.90371510013938,253.90371510013938,254.38821180001833,315,315,254.38821180001833,254.38821180001833,254.38821180001833,254.38821180001833,254.38821180001833,254.38821180001833,254.38821180001833,254.38821180001833,254.38821180001833,254.7546002001036,254.7546002001036,254.7546002001036,254.7546002001036,254.7546002001036,254.7546002001036,254.7546002001036,254.7546002001036,254.7546002001036,6,3,"[0.0012770998291671276, 0.1168998999055475, 0.31665669986978173]","[0.10020549991168082, 0.26644819998182356, 0.3501617999281734]",254.7546002001036,254.9548125001602,6.1,254.9548125001602,1,6.1,1,1,1000,num_4,0.48703580000437796,,35,9,2026-03-13_14h07.32.015,2026A_exp2,2022.2.4,59.81891616304199,
1,0,4.9,0.0,1,0,52,52,25,,,,,255.47198839997873,256.1226612001192,256.1226612001192,256.60709549998865,315,45,256.60709549998865,256.60709549998865,256.60709549998865,256.60709549998865,256.60709549998865,256.60709549998865,256.60709549998865,256.60709549998865,256.60709549998865,256.9734571001027,256.9734571001027,256.9734571001027,256.9734571001027,256.9734571001027,256.9734571001027,256.9734571001027,256.9734571001027,256.9734571001027,8,4,"[0.0012185999657958746, 0.0838047000579536, 0.15035920008085668, 0.2503096000291407]","[0.017498299945145845, 0.1168990998994559, 0.21700170007534325, 0.3672724000643939]",256.9734571001027,257.17362689995207,0.0,257.17362689995207,0,0.0,0,1,1000,num_1,0.4279269000981003,,35,9,2026-03-13_14h07.32.015,2026A_exp2,2022.2.4,59.81891616304199,
1,0,4.9,3.7,0,0,53,53,63,,,,,257.6240073000081,258.2747017000802,258.2747017000802,258.75918600009754,315,315,258.75918600009754,258.75918600009754,258.75918600009754,258.75918600009754,258.75918600009754,258.75918600009754,258.75918600009754,258.75918600009754,258.75918600009754,259.1254618000239,259.1254618000239,259.1254618000239,259.1254618000239,259.1254618000239,259.1254618000239,259.1254618000239,259.1254618000239,259.1254618000239,16,5,"[0.0009556999430060387, 0.10076449997723103, 0.18424279987812042, 0.23429419985041022, 0.36774689983576536]","[0.03368150000460446, 0.13419139990583062, 0.2009737000335008, 0.2509832000359893, 0.3677522998768836]",259.1254618000239,259.3257502000779,4.9,259.3257502000779,1,4.9,1,1,1000,num_4,0.5954903999809176,,35,9,2026-03-13_14h07.32.015,2026A_exp2,2022.2.4,59.81891616304199,
1,0,0.0,3.7,1,0,54,54,0,,,,,259.9445188001264,260.5935746000614,260.5935746000614,261.0948843001388,45,45,261.0948843001388,261.0948843001388,261.0948843001388,261.0948843001388,261.0948843001388,261.0948843001388,261.0948843001388,261.0948843001388,261.0948843001388,261.46106110000983,261.46106110000983,261.46106110000983,261.46106110000983,261.46106110000983,261.46106110000983,261.46106110000983,261.46106110000983,261.46106110000983,16,5,"[0.03348260000348091, 0.15030290000140667, 0.20033280015923083, 0.30036840005777776, 0.3503416001331061]","[0.05004480015486479, 0.18359820009209216, 0.21695540007203817, 0.3337036999873817, 0.36721769999712706]",261.46106110000983,261.66140240011737,3.7,261.66140240011737,1,3.7,1,1,1000,num_4,0.6285149999894202,,35,9,2026-03-13_14h07.32.015,2026A_exp2,2022.2.4,59.81891616304199,
1000,1,0.0,0.0,1,0,55,55,23,,,,,262.3120397001039,262.9627046000678,262.9627046000678,263.4474142000545,45,315,263.4474142000545,263.4474142000545,263.4474142000545,263.4474142000545,263.4474142000545,263.4474142000545,263.4474142000545,263.4474142000545,263.4474142000545,263.81360720004886,263.81360720004886,263.81360720004886,263.81360720004886,263.81360720004886,263.81360720004886,263.81360720004886,263.81360720004886,263.81360720004886,17,4,"[0.0012151999399065971, 0.05012509995140135, 0.08335999981500208, 0.3502713998313993]","[0.03329089982435107, 0.06682439986616373, 0.10012219985947013, 0.3670691999141127]",263.81360720004886,264.0156268000137,1000,264.0156268000137,1000,1000,1000,1000,0,num_3,0.48996110004372895,,35,9,2026-03-13_14h07.32.015,2026A_exp2,2022.2.4,59.81891616304199,
1,0,4.9,3.7,1,0,56,56,10,,,,,264.5308862000238,265.18176549999043,265.18176549999043,265.6828420001548,45,45,265.6828420001548,265.6828420001548,265.6828420001548,265.6828420001548,265.6828420001548,265.6828420001548,265.6828420001548,265.6828420001548,265.6828420001548,266.04916459997185,266.04916459997185,266.04916459997185,266.04916459997185,266.04916459997185,266.04916459997185,266.04916459997185,266.04916459997185,266.04916459997185,21,2,"[0.11667929985560477, 0.23366769985295832]","[0.1331930998712778, 0.2502106998581439]",266.04916459997185,266.24951330013573,3.7,266.24951330013573,0,3.7,1,0,1000,num_1,0.6249050998594612,,35,9,2026-03-13_14h07.32.015,2026A_exp2,2022.2.4,59.81891616304199,
1,0,6.1,6.1,0,0,57,57,27,,,,,266.8999153999612,267.55060179997236,267.55060179997236,268.0519377000164,315,315,268.0519377000164,268.0519377000164,268.0519377000164,268.0519377000164,268.0519377000164,268.0519377000164,268.0519377000164,268.0519377000164,268.0519377000164,268.4182986000087,268.4182986000087,268.4182986000087,268.4182986000087,268.4182986000087,268.4182986000087,268.4182986000087,268.4182986000087,268.4182986000087,19,2,"[0.0174000000115484, 0.18371530016884208]","[0.050148900132626295, 0.2171756001189351]",268.4182986000087,268.6184104999993,6.1,268.6184104999993,1,6.1,1,1,1000,num_4,0.6633584001101553,,35,9,2026-03-13_14h07.32.015,2026A_exp2,2022.2.4,59.81891616304199,
0,0,0.0,3.7,0,0,58,58,47,,,,,269.30241530016065,269.953114700038,269.953114700038,270.43747270014137,315,315,270.43747270014137,270.43747270014137,270.43747270014137,270.43747270014137,270.43747270014137,270.43747270014137,270.43747270014137,270.43747270014137,270.43747270014137,270.80407080007717,270.80407080007717,270.80407080007717,270.80407080007717,270.80407080007717,270.80407080007717,270.80407080007717,270.80407080007717,270.80407080007717,23,0,,,270.80407080007717,271.004152599955,3.7,271.004152599955,1,3.7,1,1,1000,num_4,0.8934911000542343,,35,9,2026-03-13_14h07.32.015,2026A_exp2,2022.2.4,59.81891616304199,
1000,1,6.1,4.9,0,0,59,59,49,,,,,271.9218419000972,272.5557331000455,272.5557331000455,273.0568032001611,315,315,273.0568032001611,273.0568032001611,273.0568032001611,273.0568032001611,273.0568032001611,273.0568032001611,273.0568032001611,273.0568032001611,273.0568032001611,273.42290360014886,273.42290360014886,273.42290360014886,273.42290360014886,273.42290360014886,273.42290360014886,273.42290360014886,273.42290360014886,273.42290360014886,22,1,[0.266497700009495],[0.2830791000742465],273.42290360014886,273.6256466000341,1000,273.6256466000341,1000,1000,1000,1000,0,num_3,0.6799200000241399,,35,9,2026-03-13_14h07.32.015,2026A_exp2,2022.2.4,59.81891616304199,
1,0,4.9,0.0,0,0,60,60,4,,,,,274.32405479997396,274.97484030015767,274.97484030015767,275.4759436000604,45,45,275.4759436000604,275.4759436000604,275.4759436000604,275.4759436000604,275.4759436000604,275.4759436000604,275.4759436000604,275.4759436000604,275.4759436000604,275.8423846999649,275.8423846999649,275.8423846999649,275.8423846999649,275.8423846999649,275.8423846999649,275.8423846999649,275.8423846999649,275.8423846999649,19,3,"[0.033581600058823824, 0.23358749994076788, 0.3171047999057919]","[0.06689310004003346, 0.2504867999814451, 0.33390179998241365]",275.8423846999649,276.0426954999566,4.9,276.0426954999566,0,4.9,1,0,1000,num_1,0.7590695000253618,,35,9,2026-03-13_14h07.32.015,2026A_exp2,2022.2.4,59.81891616304199,
1000,1,3.7,4.9,0,0,61,61,80,,,,,276.8265752000734,277.4773799001705,277.4773799001705,277.9618170000613,315,315,277.9618170000613,277.9618170000613,277.9618170000613,277.9618170000613,277.9618170000613,277.9618170000613,277.9618170000613,277.9618170000613,277.9618170000613,278.32807260006666,278.32807260006666,278.32807260006666,278.32807260006666,278.32807260006666,278.32807260006666,278.32807260006666,278.32807260006666,278.32807260006666,20,3,"[0.21733599994331598, 0.26727119996212423, 0.3340553999878466]","[0.2340629999525845, 0.2839286997914314, 0.3506886998657137]",278.32807260006666,278.5302236999851,1000,278.5302236999851,1000,1000,1000,1000,1,num_2,0.7756053998600692,,35,9,2026-03-13_14h07.32.015,2026A_exp2,2022.2.4,59.81891616304199,
1000,1,0.0,4.9,1,0,62,62,79,,,,,279.3291611999739,279.97980760014616,279.97980760014616,280.48097320017405,45,315,280.48097320017405,280.48097320017405,280.48097320017405,280.48097320017405,280.48097320017405,280.48097320017405,280.48097320017405,280.48097320017405,280.48097320017405,280.8474407000467,280.8474407000467,280.8474407000467,280.8474407000467,280.8474407000467,280.8474407000467,280.8474407000467,280.8474407000467,280.8474407000467,7,5,"[0.0012285998091101646, 0.1004420998506248, 0.15034379996359348, 0.21661899983882904, 0.3170029998291284]","[0.0501757999882102, 0.13371520000509918, 0.18330349982716143, 0.3000345998443663, 0.36743189999833703]",280.8474407000467,281.04922699998133,1000,281.04922699998133,1000,1000,1000,1000,1,num_2,0.38412900012917817,,35,9,2026-03-13_14h07.32.015,2026A_exp2,2022.2.4,59.81891616304199,
0,0,4.9,4.9,1,0,63,63,48,,,,,281.4646372999996,282.11533570010215,282.11533570010215,282.6163606001064,315,315,282.6163606001064,282.6163606001064,282.6163606001064,282.6163606001064,282.6163606001064,282.6163606001064,282.6163606001064,282.6163606001064,282.6163606001064,282.9661920000799,282.9661920000799,282.9661920000799,282.9661920000799,282.9661920000799,282.9661920000799,282.9661920000799,282.9661920000799,282.9661920000799,5,5,"[0.0011980999261140823, 0.10016870009712875, 0.1835507000796497, 0.23363099992275238, 0.28385320003144443]","[0.08350410009734333, 0.16687020007520914, 0.20036770007573068, 0.2671153999399394, 0.35040029999800026]",282.9661920000799,283.16662070015445,4.9,283.16662070015445,0,4.9,1,0,1000,num_1,0.4587499999906868,,35,9,2026-03-13_14h07.32.015,2026A_exp2,2022.2.4,59.81891616304199,
1000,1,0.0,6.1,0,0,64,64,85,,,,,283.65033850003965,284.2841793000698,284.2841793000698,284.7852835999802,315,45,284.7852835999802,284.7852835999802,284.7852835999802,284.7852835999802,284.7852835999802,284.7852835999802,284.7852835999802,284.7852835999802,284.7852835999802,285.15152240009047,285.15152240009047,285.15152240009047,285.15152240009047,285.15152240009047,285.15152240009047,285.15152240009047,285.15152240009047,285.15152240009047,17,4,"[0.01742219994775951, 0.13361619994975626, 0.25050950003787875, 0.333886899985373]","[0.050166199915111065, 0.16702999989502132, 0.2669617000501603, 0.35028350003995]",285.15152240009047,285.3541886000894,1000,285.3541886000894,1000,1000,1000,1000,1,num_2,0.39921659999527037,,35,9,2026-03-13_14h07.32.015,2026A_exp2,2022.2.4,59.81891616304199,
1000,1,0.0,6.1,0,0,65,65,75,,,,,285.7691399001051,286.41960770008154,286.41960770008154,286.92059450014494,45,45,286.92059450014494,286.92059450014494,286.92059450014494,286.92059450014494,286.92059450014494,286.92059450014494,286.92059450014494,286.92059450014494,286.92059450014494,287.270346299978,287.270346299978,287.270346299978,287.270346299978,287.270346299978,287.270346299978,287.270346299978,287.270346299978,287.270346299978,21,1,[0.0011913999915122986],[0.01727430010214448],287.270346299978,287.47090870002285,1000,287.4873649000656,1000,1000,1000,1000,1,num_2,0.4177743000909686,,35,9,2026-03-13_14h07.32.015,2026A_exp2,2022.2.4,59.81891616304199,
1,0,6.1,4.9,0,0,66,66,81,,,,,287.9209992000833,288.57179130008444,288.57179130008444,289.0728077001404,45,315,289.0728077001404,289.0728077001404,289.0728077001404,289.0728077001404,289.0728077001404,289.0728077001404,289.0728077001404,289.0728077001404,289.0728077001404,289.4393417001702,289.4393417001702,289.4393417001702,289.4393417001702,289.4393417001702,289.4393417001702,289.4393417001702,289.4393417001702,289.4393417001702,22,1,[0.2170979999937117],[0.2337436000816524],289.4393417001702,289.63928829994984,6.1,289.63928829994984,1,6.1,1,1,1000,num_4,0.7145763000007719,,35,9,2026-03-13_14h07.32.015,2026A_exp2,2022.2.4,59.81891616304199,
1000,1,3.7,6.1,1,0,67,67,29,,,,,290.37343950010836,291.0240474001039,291.0240474001039,291.52533950004727,45,315,291.52533950004727,291.52533950004727,291.52533950004727,291.52533950004727,291.52533950004727,291.52533950004727,291.52533950004727,291.52533950004727,291.52533950004727,291.89166860003024,291.89166860003024,291.89166860003024,291.89166860003024,291.89166860003024,291.89166860003024,291.89166860003024,291.89166860003024,291.89166860003024,23,0,,,291.89166860003024,292.09335590014234,1000,292.09335590014234,1000,1000,1000,1000,1,num_2,0.43565559992566705,,35,9,2026-03-13_14h07.32.015,2026A_exp2,2022.2.4,59.81891616304199,
1000,1,0.0,0.0,0,0,68,68,15,,,,,292.55897939996794,293.2096971999854,293.2096971999854,293.71078449999914,45,45,293.71078449999914,293.71078449999914,293.71078449999914,293.71078449999914,293.71078449999914,293.71078449999914,293.71078449999914,293.71078449999914,293.71078449999914,294.07725870003924,294.07725870003924,294.07725870003924,294.07725870003924,294.07725870003924,294.07725870003924,294.07725870003924,294.07725870003924,294.07725870003924,23,0,,,294.07725870003924,294.27910070004873,1000,294.27910070004873,1000,1000,1000,1000,1,num_2,0.4027888998389244,,35,9,2026-03-13_14h07.32.015,2026A_exp2,2022.2.4,59.81891616304199,
1000,1,0.0,0.0,1,0,69,69,60,,,,,294.71111460006796,295.36203770013526,295.36203770013526,295.86305449996144,45,315,295.86305449996144,295.86305449996144,295.86305449996144,295.86305449996144,295.86305449996144,295.86305449996144,295.86305449996144,295.86305449996144,295.86305449996144,296.22947100014426,296.22947100014426,296.22947100014426,296.22947100014426,296.22947100014426,296.22947100014426,296.22947100014426,296.22947100014426,296.22947100014426,20,3,"[0.0012479000724852085, 0.21675370004959404, 0.3005483001470566]","[0.017423999961465597, 0.2334795999340713, 0.31708110007457435]",296.22947100014426,296.43145729997195,1000,296.43145729997195,1000,1000,1000,1000,0,num_3,0.6509666999336332,,35,9,2026-03-13_14h07.32.015,2026A_exp2,2022.2.4,59.81891616304199,
1,0,6.1,3.7,0,0,70,70,31,,,,,297.1136831000913,297.76470310008153,297.76470310008153,298.2653352001216,45,315,298.2653352001216,298.2653352001216,298.2653352001216,298.2653352001216,298.2653352001216,298.2653352001216,298.2653352001216,298.2653352001216,298.2653352001216,298.61518050008453,298.61518050008453,298.61518050008453,298.61518050008453,298.61518050008453,298.61518050008453,298.61518050008453,298.61518050008453,298.61518050008453,7,6,"[0.001002799952402711, 0.08385820011608303, 0.11700080009177327, 0.2340180000755936, 0.28391649993136525, 0.33411239995621145]","[0.05054760002531111, 0.10040290001779795, 0.2172228000126779, 0.25062780012376606, 0.31733909994363785, 0.35078300000168383]",298.61518050008453,298.81537510012276,6.1,298.83209010004066,1,6.1,1,1,1000,num_4,0.5377845999319106,,35,9,2026-03-13_14h07.32.015,2026A_exp2,2022.2.4,59.81891616304199,
1000,1,0.0,4.9,0,0,71,71,74,,,,,299.3990160000976,300.0499521000311,300.0499521000311,300.5343963999767,315,315,300.5343963999767,300.5343963999767,300.5343963999767,300.5343963999767,300.5343963999767,300.5343963999767,300.5343963999767,300.5343963999767,300.5343963999767,300.9005136999767,300.9005136999767,300.9005136999767,300.9005136999767,300.9005136999767,300.9005136999767,300.9005136999767,300.9005136999767,300.9005136999767,3,3,"[0.0012477999553084373, 0.05015189992263913, 0.2503607999533415]","[0.017379199853166938, 0.233661700040102, 0.36650769994594157]",300.9005136999767,301.1026477999985,1000,301.1026477999985,1000,1000,1000,1000,1,num_2,0.6194478999823332,,35,9,2026-03-13_14h07.32.015,2026A_exp2,2022.2.4,59.81891616304199,
1000,1,0.0,0.0,0,0,72,72,6,,,,,301.751591200009,302.4021700001322,302.4021700001322,302.903312999988,315,45,302.903312999988,302.903312999988,302.903312999988,302.903312999988,302.903312999988,302.903312999988,302.903312999988,302.903312999988,302.903312999988,303.2530297001358,303.2530297001358,303.2530297001358,303.2530297001358,303.2530297001358,303.2530297001358,303.2530297001358,303.2530297001358,303.2530297001358,17,2,"[0.03341559995897114, 0.11714900005608797]","[0.08369729993864894, 0.150470299879089]",303.2530297001358,303.4551043000538,1000,303.4699304001406,1000,1000,1000,1000,1,num_2,0.7873013000935316,,35,9,2026-03-13_14h07.32.015,2026A_exp2,2022.2.4,59.81891616304199,
1000,1,0.0,0.0,1,0,73,73,16,,,,,304.2873134999536,304.9381787001621,304.9381787001621,305.4393031001091,45,45,305.4393031001091,305.4393031001091,305.4393031001091,305.4393031001091,305.4393031001091,305.4393031001091,305.4393031001091,305.4393031001091,305.4393031001091,305.80561459995806,305.80561459995806,305.80561459995806,305.80561459995806,305.80561459995806,305.80561459995806,305.80561459995806,305.80561459995806,305.80561459995806,10,8,"[0.001198299927636981, 0.03362979996018112, 0.08368979999795556, 0.13373049977235496, 0.18381249997764826, 0.25047719990834594, 0.3005406998563558, 0.35061419988051057]","[0.01772739994339645, 0.06688929977826774, 0.11699029989540577, 0.16710909991525114, 0.2003744998946786, 0.28378479997627437, 0.3172916998155415, 0.3672706999350339]",305.80561459995806,306.007502600085,1000,306.007502600085,1000,1000,1000,1000,1,num_2,0.425386399962008,,35,9,2026-03-13_14h07.32.015,2026A_exp2,2022.2.4,59.81891616304199,
1,0,0.0,6.1,0,0,74,74,82,,,,,306.45628860010765,307.107021600008,307.107021600008,307.5913595999591,45,315,307.5913595999591,307.5913595999591,307.5913595999591,307.5913595999591,307.5913595999591,307.5913595999591,307.5913595999591,307.5913595999591,307.5913595999591,307.957755099982,307.957755099982,307.957755099982,307.957755099982,307.957755099982,307.957755099982,307.957755099982,307.957755099982,307.957755099982,20,2,"[0.0012076999992132187, 0.04989439994096756]","[0.01736579998396337, 0.08311629993841052]",307.957755099982,308.15807310002856,0.0,308.15807310002856,0,0.0,0,1,1000,num_1,0.772008900064975,,35,9,2026-03-13_14h07.32.015,2026A_exp2,2022.2.4,59.81891616304199,
1,0,0.0,6.1,0,0,75,75,43,,,,,308.95873800013214,309.60947070014663,309.60947070014663,310.09392140014097,45,45,310.09392140014097,310.09392140014097,310.09392140014097,310.09392140014097,310.09392140014097,310.09392140014097,310.09392140014097,310.09392140014097,310.09392140014097,310.46025849995203,310.46025849995203,310.46025849995203,310.46025849995203,310.46025849995203,310.46025849995203,310.46025849995203,310.46025849995203,310.46025849995203,3,4,"[0.0012833001092076302, 0.13359240000136197, 0.20043970015831292, 0.36717290012165904]","[0.11684540007263422, 0.18353689997456968, 0.3504066001623869, 0.3671775001566857]",310.46025849995203,310.66039390000515,0.0,310.66039390000515,0,0.0,0,1,1000,num_1,0.6054058000445366,,35,9,2026-03-13_14h07.32.015,2026A_exp2,2022.2.4,59.81891616304199,
1000,1,3.7,0.0,1,0,76,76,88,,,,,311.2942948001437,311.94513850007206,311.94513850007206,312.42954850010574,315,315,312.42954850010574,312.42954850010574,312.42954850010574,312.42954850010574,312.42954850010574,312.42954850010574,312.42954850010574,312.42954850010574,312.42954850010574,312.79594710003585,312.79594710003585,312.79594710003585,312.79594710003585,312.79594710003585,312.79594710003585,312.79594710003585,312.79594710003585,312.79594710003585,22,1,[0.13340410008095205],[0.15003650006838143],312.79594710003585,312.9978490001522,1000,312.9978490001522,1000,1000,1000,1000,1,num_2,0.4919636999256909,,35,9,2026-03-13_14h07.32.015,2026A_exp2,2022.2.4,59.81891616304199,
1,0,0.0,0.0,1,0,77,77,41,,,,,313.5132828000933,314.16413180017844,314.16413180017844,314.66504320013337,45,315,314.66504320013337,314.66504320013337,314.66504320013337,314.66504320013337,314.66504320013337,314.66504320013337,314.66504320013337,314.66504320013337,314.66504320013337,315.0314642000012,315.0314642000012,315.0314642000012,315.0314642000012,315.0314642000012,315.0314642000012,315.0314642000012,315.0314642000012,315.0314642000012,18,3,"[0.11638579983264208, 0.2002640999853611, 0.33361739991232753]","[0.13311429996974766, 0.233712799847126, 0.350459799868986]",315.0314642000012,315.2316354000941,0.0,315.2316354000941,0,0.0,0,1,1000,num_1,0.5302532000932842,,35,9,2026-03-13_14h07.32.015,2026A_exp2,2022.2.4,59.81891616304199,
1,0,0.0,0.0,0,0,78,78,44,,,,,315.7820276999846,316.43290420016274,316.43290420016274,316.9173086001538,45,315,316.9173086001538,316.9173086001538,316.9173086001538,316.9173086001538,316.9173086001538,316.9173086001538,316.9173086001538,316.9173086001538,316.9173086001538,317.28377189999446,317.28377189999446,317.28377189999446,317.28377189999446,317.28377189999446,317.28377189999446,317.28377189999446,317.28377189999446,317.28377189999446,12,4,"[0.0010393999982625246, 0.10040720016695559, 0.1504836999811232, 0.20039839996024966]","[0.06701100012287498, 0.11720920004881918, 0.18382480018772185, 0.2837665001861751]",317.28377189999446,317.4838860000018,0.0,317.4838860000018,0,0.0,0,1,1000,num_1,0.430768100079149,,35,9,2026-03-13_14h07.32.015,2026A_exp2,2022.2.4,59.81891616304199,
1000,1,0.0,6.1,1,0,79,79,3,,,,,317.9345518001355,318.59051350015216,318.59051350015216,319.09779230016284,45,45,319.09779230016284,319.09779230016284,319.09779230016284,319.09779230016284,319.09779230016284,319.09779230016284,319.09779230016284,319.09779230016284,319.09779230016284,319.4526267000474,319.4526267000474,319.4526267000474,319.4526267000474,319.4526267000474,319.4526267000474,319.4526267000474,319.4526267000474,319.4526267000474,11,4,"[0.027603100053966045, 0.06524210004135966, 0.13086870010010898, 0.3311080001294613]","[0.050654100021347404, 0.09750319994054735, 0.2476790000218898, 0.34774450003169477]",319.4526267000474,319.65448640007526,1000,319.65448640007526,1000,1000,1000,1000,1,num_2,0.89065539999865,,35,9,2026-03-13_14h07.32.015,2026A_exp2,2022.2.4,59.81891616304199,
1,0,3.7,0.0,0,0,80,80,8,,,,,320.5704894999508,321.22099460009485,321.22099460009485,321.72218940011226,315,315,321.72218940011226,321.72218940011226,321.72218940011226,321.72218940011226,321.72218940011226,321.72218940011226,321.72218940011226,321.72218940011226,321.72218940011226,322.0885396001395,322.0885396001395,322.0885396001395,322.0885396001395,322.0885396001395,322.0885396001395,322.0885396001395,322.0885396001395,322.0885396001395,5,3,"[0.0012608999386429787, 0.11693110014311969, 0.33383020013570786]","[0.06682960013858974, 0.31723130005411804, 0.36719240015372634]",322.0885396001395,322.28876070003025,3.7,322.28876070003025,0,3.7,1,0,1000,num_1,0.6004141001030803,,35,9,2026-03-13_14h07.32.015,2026A_exp2,2022.2.4,59.81891616304199,
1000,1,6.1,4.9,0,0,81,81,68,,,,,322.90607660007663,323.55676149996,323.55676149996,324.05808190000243,315,45,324.05808190000243,324.05808190000243,324.05808190000243,324.05808190000243,324.05808190000243,324.05808190000243,324.05808190000243,324.05808190000243,324.05808190000243,324.4075693001505,324.4075693001505,324.4075693001505,324.4075693001505,324.4075693001505,324.4075693001505,324.4075693001505,324.4075693001505,324.4075693001505,11,6,"[0.03303930000402033, 0.06642230018042028, 0.1503102001734078, 0.183606400154531, 0.23358600004576147, 0.3004241001326591]","[0.04983270005322993, 0.11696400004439056, 0.16701050009578466, 0.20025760005228221, 0.2670660000294447, 0.3504906001035124]",324.4075693001505,324.6093892001081,1000,324.6093892001081,1000,1000,1000,1000,1,num_2,0.5360744998324662,,35,9,2026-03-13_14h07.32.015,2026A_exp2,2022.2.4,59.81891616304199,
1000,1,0.0,6.1,1,0,82,82,52,,,,,325.1750752001535,325.8257210000884,325.8257210000884,326.3267874000594,315,45,326.3267874000594,326.3267874000594,326.3267874000594,326.3267874000594,326.3267874000594,326.3267874000594,326.3267874000594,326.3267874000594,326.3267874000594,326.6932083000429,326.6932083000429,326.6932083000429,326.6932083000429,326.6932083000429,326.6932083000429,326.6932083000429,326.6932083000429,326.6932083000429,3,3,"[0.0012019998393952847, 0.18377959984354675, 0.30058509996160865]","[0.16698209987953305, 0.28370469994843006, 0.36713909986428916]",326.6932083000429,326.89493660000153,1000,326.89493660000153,1000,1000,1000,1000,1,num_2,0.3867781001608819,,35,9,2026-03-13_14h07.32.015,2026A_exp2,2022.2.4,59.81891616304199,
1,0,3.7,6.1,1,0,83,83,77,,,,,327.3102753001731,327.94434679998085,327.94434679998085,328.44560370012186,315,45,328.44560370012186,328.44560370012186,328.44560370012186,328.44560370012186,328.44560370012186,328.44560370012186,328.44560370012186,328.44560370012186,328.44560370012186,328.8118770001456,328.8118770001456,328.8118770001456,328.8118770001456,328.8118770001456,328.8118770001456,328.8118770001456,328.8118770001456,328.8118770001456,9,2,"[0.10033019981347024, 0.33372299978509545]","[0.31720069982111454, 0.35058549977838993]",328.8118770001456,329.0122122000903,6.1,329.0122122000903,1,6.1,1,1,1000,num_4,0.9486350000370294,,35,9,2026-03-13_14h07.32.015,2026A_exp2,2022.2.4,59.81891616304199,
1000,1,0.0,0.0,0,0,84,84,7,,,,,329.97974129999056,330.6304719001055,330.6304719001055,331.11504720011726,45,315,331.11504720011726,331.11504720011726,331.11504720011726,331.11504720011726,331.11504720011726,331.11504720011726,331.11504720011726,331.11504720011726,331.11504720011726,331.4813797001261,331.4813797001261,331.4813797001261,331.4813797001261,331.4813797001261,331.4813797001261,331.4813797001261,331.4813797001261,331.4813797001261,12,3,"[0.08406829996965826, 0.16724899993278086, 0.26712759980000556]","[0.10084249987266958, 0.21686859987676144, 0.36759949987754226]",331.4813797001261,331.6831886,1000,331.6831886,1000,1000,1000,1000,0,num_3,0.46989029995165765,,35,9,2026-03-13_14h07.32.015,2026A_exp2,2022.2.4,59.81891616304199,
1,0,3.7,0.0,1,0,85,85,11,,,,,332.1821569001768,332.8326712001581,332.8326712001581,333.3337640000973,315,315,333.3337640000973,333.3337640000973,333.3337640000973,333.3337640000973,333.3337640000973,333.3337640000973,333.3337640000973,333.3337640000973,333.3337640000973,333.7001954000443,333.7001954000443,333.7001954000443,333.7001954000443,333.7001954000443,333.7001954000443,333.7001954000443,333.7001954000443,333.7001954000443,23,0,,,333.7001954000443,333.90031259995885,0.0,333.90031259995885,0,0.0,0,1,1000,num_1,0.501319200033322,,35,9,2026-03-13_14h07.32.015,2026A_exp2,2022.2.4,59.81891616304199,
1000,1,3.7,4.9,0,0,86,86,64,,,,,334.417672800133,335.0683560001198,335.0683560001198,335.56925880000927,315,45,335.56925880000927,335.56925880000927,335.56925880000927,335.56925880000927,335.56925880000927,335.56925880000927,335.56925880000927,335.56925880000927,335.56925880000927,335.9190352000296,335.9190352000296,335.9190352000296,335.9190352000296,335.9190352000296,335.9190352000296,335.9190352000296,335.9190352000296,335.9190352000296,13,4,"[0.001101600006222725, 0.06695550004951656, 0.1835976999718696, 0.3339417001698166]","[0.03379740007221699, 0.10063290013931692, 0.23362690000794828, 0.3507654999848455]",335.9190352000296,336.12099480000325,1000,336.12099480000325,1000,1000,1000,1000,1,num_2,0.42531349998898804,,35,9,2026-03-13_14h07.32.015,2026A_exp2,2022.2.4,59.81891616304199,
1000,1,0.0,0.0,0,0,87,87,45,,,,,336.5698474999517,337.2202675000299,337.2202675000299,337.72154409997165,45,45,337.72154409997165,337.72154409997165,337.72154409997165,337.72154409997165,337.72154409997165,337.72154409997165,337.72154409997165,337.72154409997165,337.72154409997165,338.0879584001377,338.0879584001377,338.0879584001377,338.0879584001377,338.0879584001377,338.0879584001377,338.0879584001377,338.0879584001377,338.0879584001377,23,0,,,338.0879584001377,338.2900954000652,1000,338.2900954000652,1000,1000,1000,1000,0,num_3,0.30382269993424416,,35,9,2026-03-13_14h07.32.015,2026A_exp2,2022.2.4,59.81891616304199,
1000,1,0.0,6.1,0,0,88,88,35,,,,,338.6218600999564,339.2724725001026,339.2724725001026,339.7735850000754,315,315,339.7735850000754,339.7735850000754,339.7735850000754,339.7735850000754,339.7735850000754,339.7735850000754,339.7735850000754,339.7735850000754,339.7735850000754,340.1400023000315,340.1400023000315,340.1400023000315,340.1400023000315,340.1400023000315,340.1400023000315,340.1400023000315,340.1400023000315,340.1400023000315,12,6,"[0.01735249999910593, 0.05020590010099113, 0.11694229999557137, 0.15029940009117126, 0.21715919999405742, 0.2504378000739962]","[0.03349629999138415, 0.10029590013436973, 0.13363509997725487, 0.1836109000723809, 0.23364640004001558, 0.28381050005555153]",340.1400023000315,340.34216130012646,1000,340.34216130012646,1000,1000,1000,1000,1,num_2,0.41081409994512796,,35,9,2026-03-13_14h07.32.015,2026A_exp2,2022.2.4,59.81891616304199,
1000,1,3.7,0.0,0,0,89,89,66,,,,,340.77403710014187,341.4246304000262,341.4246304000262,341.92576280003414,315,45,341.92576280003414,341.92576280003414,341.92576280003414,341.92576280003414,341.92576280003414,341.92576280003414,341.92576280003414,341.92576280003414,341.92576280003414,342.2921198999975,342.2921198999975,342.2921198999975,342.2921198999975,342.2921198999975,342.2921198999975,342.2921198999975,342.2921198999975,342.2921198999975,18,4,"[0.017566299997270107, 0.050407700007781386, 0.08368930011056364, 0.13386940001510084]","[0.0336470000911504, 0.06697389995679259, 0.1170210000127554, 0.15043230005539954]",342.2921198999975,342.4940500999801,1000,342.4940500999801,1000,1000,1000,1000,0,num_3,0.4359359999652952,,35,9,2026-03-13_14h07.32.015,2026A_exp2,2022.2.4,59.81891616304199,
,,,,,,,,,,,,,,,,,,,,,,,,,,,,,,,,,,,,,,,,,,,,,,,,,,,,342.9681283000391,,,,,,,
