validity,detectorcomp,contrastCW,contrastCCW,precueCWorCCW,block_80trials.thisRepN,block_80trials.thisTrialN,block_80trials.thisN,block_80trials.thisIndex,etRecord.started,etRecord.stopped,text.started,text.stopped,text_4.started,text_4.stopped,text_6.started,text_6.stopped,oriCW,oriCCW,roi_2.started,grating_UR.started,grating_UL.started,grating_LR.started,grating_LL.started,noise_UR.started,noise_UL.started,noise_LR.started,noise_LL.started,roi_2.stopped,grating_UR.stopped,grating_UL.stopped,grating_LR.stopped,grating_LL.stopped,noise_UR.stopped,noise_UL.stopped,noise_LR.stopped,noise_LL.stopped,outframe,roi_2.numLooks,roi_2.timesOn,roi_2.timesOff,text_2.started,text_2.stopped,probedcontrast,key_resp.started,respdetect,relevantContrast,correctDetect,TorFdetect,respCWorCCW,key_resp.keys,key_resp.rt,feedback_display_.started,participantNo,blockNo,date,expName,psychopyVersion,frameRate,
1000,1,0.0,0.0,0,0,0,0,15,5.119992420077324e-05,5.119992420077324e-05,53.2048925999552,55.208084099926054,55.208084099926054,55.84198719984852,55.84198719984852,56.36471639992669,315,315,56.36471639992669,56.36471639992669,56.36471639992669,56.36471639992669,56.36471639992669,56.36471639992669,56.36471639992669,56.36471639992669,56.36471639992669,56.709542399970815,56.709542399970815,56.709542399970815,56.709542399970815,56.709542399970815,56.709542399970815,56.709542399970815,56.709542399970815,56.709542399970815,0,1,[0.0009246000554412603],[0.3679887999314815],56.709542399970815,56.916838199831545,1000,56.916838199831545,1000,1000,1000,1000,0,num_3,1.016697200248018,,37,9,2026-03-13_18h13.18.029,2026A_exp2,2022.2.4,59.88777032834242,
1000,1,0.0,0.0,1,0,1,1,23,,,,,57.96107009984553,58.61144579993561,58.61144579993561,59.11273359996267,315,45,59.11273359996267,59.11273359996267,59.11273359996267,59.11273359996267,59.11273359996267,59.11273359996267,59.11273359996267,59.11273359996267,59.11273359996267,59.47909339983016,59.47909339983016,59.47909339983016,59.47909339983016,59.47909339983016,59.47909339983016,59.47909339983016,59.47909339983016,59.47909339983016,0,1,[0.001218500081449747],[0.36715389997698367],59.47909339983016,59.6793508999981,1000,59.6793508999981,1000,1000,1000,1000,1,num_2,0.5113812999334186,,37,9,2026-03-13_18h13.18.029,2026A_exp2,2022.2.4,59.88777032834242,
1000,1,0.0,0.0,1,0,2,2,56,,,,,60.21535969991237,60.86387449991889,60.86387449991889,61.36488439980894,315,315,61.36488439980894,61.36488439980894,61.36488439980894,61.36488439980894,61.36488439980894,61.36488439980894,61.36488439980894,61.36488439980894,61.36488439980894,61.73139359988272,61.73139359988272,61.73139359988272,61.73139359988272,61.73139359988272,61.73139359988272,61.73139359988272,61.73139359988272,61.73139359988272,0,1,[0.0011964000295847654],[0.36740979994647205],61.73139359988272,61.933509700000286,1000,61.933509700000286,1000,1000,1000,1000,1,num_2,0.9451425999868661,,37,9,2026-03-13_18h13.18.029,2026A_exp2,2022.2.4,59.88777032834242,
0,0,0.0,0.0,0,0,3,3,70,,,,,62.8991574998945,63.54969340004027,63.54969340004027,64.05100540001877,45,45,64.05100540001877,64.05100540001877,64.05100540001877,64.05100540001877,64.05100540001877,64.05100540001877,64.05100540001877,64.05100540001877,64.05100540001877,64.40064529981464,64.40064529981464,64.40064529981464,64.40064529981464,64.40064529981464,64.40064529981464,64.40064529981464,64.40064529981464,64.40064529981464,0,1,[0.001210399903357029],[0.3507250000257045],64.40064529981464,64.60075919982046,0.0,64.61766380001791,0,0.0,0,1,1000,num_1,1.0836717002093792,,37,9,2026-03-13_18h13.18.029,2026A_exp2,2022.2.4,59.88777032834242,
1,0,4.9,3.7,0,0,4,4,9,,,,,65.71874679997563,66.36937849991955,66.36937849991955,66.85370059986599,315,45,66.85370059986599,66.85370059986599,66.85370059986599,66.85370059986599,66.85370059986599,66.85370059986599,66.85370059986599,66.85370059986599,66.85370059986599,67.22017899993807,67.22017899993807,67.22017899993807,67.22017899993807,67.22017899993807,67.22017899993807,67.22017899993807,67.22017899993807,67.22017899993807,0,1,[0.0012151000555604696],[0.3672178001143038],67.22017899993807,67.42023779987358,4.9,67.42023779987358,1,4.9,1,1,1000,num_4,0.9850969999097288,,37,9,2026-03-13_18h13.18.029,2026A_exp2,2022.2.4,59.88777032834242,
0,0,6.1,6.1,0,0,5,5,42,,,,,68.4212014998775,69.07172739994712,69.07172739994712,69.55630659987219,315,45,69.55630659987219,69.55630659987219,69.55630659987219,69.55630659987219,69.55630659987219,69.55630659987219,69.55630659987219,69.55630659987219,69.55630659987219,69.92303760000505,69.92303760000505,69.92303760000505,69.92303760000505,69.92303760000505,69.92303760000505,69.92303760000505,69.92303760000505,69.92303760000505,0,1,[0.0012260000221431255],[0.367219400126487],69.92303760000505,70.12304079998285,6.1,70.12304079998285,1,6.1,1,1,1000,num_4,0.9707482999656349,,37,9,2026-03-13_18h13.18.029,2026A_exp2,2022.2.4,59.88777032834242,
1000,1,0.0,0.0,1,0,6,6,46,,,,,71.12394249998033,71.77482019993477,71.77482019993477,72.25900489999913,45,45,72.25900489999913,72.25900489999913,72.25900489999913,72.25900489999913,72.25900489999913,72.25900489999913,72.25900489999913,72.25900489999913,72.25900489999913,72.62552060000598,72.62552060000598,72.62552060000598,72.62552060000598,72.62552060000598,72.62552060000598,72.62552060000598,72.62552060000598,72.62552060000598,0,1,[0.00119750015437603],[0.36702570016495883],72.62552060000598,72.82604289986193,1000,72.82604289986193,1000,1000,1000,1000,0,num_3,0.46786660025827587,,37,9,2026-03-13_18h13.18.029,2026A_exp2,2022.2.4,59.88777032834242,
1000,1,3.7,0.0,0,0,7,7,32,,,,,73.30961479991674,73.96016559982672,73.96016559982672,74.46121219987981,45,315,74.46121219987981,74.46121219987981,74.46121219987981,74.46121219987981,74.46121219987981,74.46121219987981,74.46121219987981,74.46121219987981,74.46121219987981,74.82770499982871,74.82770499982871,74.82770499982871,74.82770499982871,74.82770499982871,74.82770499982871,74.82770499982871,74.82770499982871,74.82770499982871,0,1,[0.001254499889910221],[0.3670236999168992],74.82770499982871,75.02961209998466,1000,75.02961209998466,1000,1000,1000,1000,0,num_3,0.432677699951455,,37,9,2026-03-13_18h13.18.029,2026A_exp2,2022.2.4,59.88777032834242,
1000,1,3.7,4.9,1,0,8,8,20,,,,,75.4789284998551,76.12904069991782,76.12904069991782,76.63015399989672,45,45,76.63015399989672,76.63015399989672,76.63015399989672,76.63015399989672,76.63015399989672,76.63015399989672,76.63015399989672,76.63015399989672,76.63015399989672,76.99664969998412,76.99664969998412,76.99664969998412,76.99664969998412,76.99664969998412,76.99664969998412,76.99664969998412,76.99664969998412,76.99664969998412,0,1,[0.0011938000097870827],[0.36698550009168684],76.99664969998412,77.19853539997712,1000,77.19853539997712,1000,1000,1000,1000,1,num_2,0.5192400000523776,,37,9,2026-03-13_18h13.18.029,2026A_exp2,2022.2.4,59.88777032834242,
1000,1,0.0,3.7,0,0,9,9,57,,,,,77.74727569986135,78.39802469988354,78.39802469988354,78.89895790000446,315,315,78.89895790000446,78.89895790000446,78.89895790000446,78.89895790000446,78.89895790000446,78.89895790000446,78.89895790000446,78.89895790000446,78.89895790000446,79.26556369988248,79.26556369988248,79.26556369988248,79.26556369988248,79.26556369988248,79.26556369988248,79.26556369988248,79.26556369988248,79.26556369988248,0,1,[0.0012459999416023493],[0.3672184001188725],79.26556369988248,79.4674451998435,1000,79.4674451998435,1000,1000,1000,1000,1,num_2,0.5791160000953823,,37,9,2026-03-13_18h13.18.029,2026A_exp2,2022.2.4,59.88777032834242,
1,0,3.7,0.0,1,0,10,10,11,,,,,80.06626109988429,80.71701000002213,80.71701000002213,81.21825279993936,315,45,81.21825279993936,81.21825279993936,81.21825279993936,81.21825279993936,81.21825279993936,81.21825279993936,81.21825279993936,81.21825279993936,81.21825279993936,81.58444079989567,81.58444079989567,81.58444079989567,81.58444079989567,81.58444079989567,81.58444079989567,81.58444079989567,81.58444079989567,81.58444079989567,0,1,[0.0012292000465095043],[0.3685061000287533],81.58444079989567,81.78479499998502,0.0,81.78479499998502,0,0.0,0,1,1000,num_1,1.0685913001652807,,37,9,2026-03-13_18h13.18.029,2026A_exp2,2022.2.4,59.88777032834242,
1,0,4.9,3.7,1,0,11,11,10,,,,,82.86903389985673,83.51977999997325,83.51977999997325,84.00413559982553,45,315,84.00413559982553,84.00413559982553,84.00413559982553,84.00413559982553,84.00413559982553,84.00413559982553,84.00413559982553,84.00413559982553,84.00413559982553,84.37060409993865,84.37060409993865,84.37060409993865,84.37060409993865,84.37060409993865,84.37060409993865,84.37060409993865,84.37060409993865,84.37060409993865,0,1,[0.001245599938556552],[0.3671269998885691],84.37060409993865,84.5707878000103,3.7,84.5707878000103,1,3.7,1,1,1000,num_4,1.0186475000809878,,37,9,2026-03-13_18h13.18.029,2026A_exp2,2022.2.4,59.88777032834242,
1,0,3.7,0.0,1,0,12,12,28,,,,,85.60508589982055,86.25590749992989,86.25590749992989,86.74032889981754,45,315,86.74032889981754,86.74032889981754,86.74032889981754,86.74032889981754,86.74032889981754,86.74032889981754,86.74032889981754,86.74032889981754,86.74032889981754,87.10678489995189,87.10678489995189,87.10678489995189,87.10678489995189,87.10678489995189,87.10678489995189,87.10678489995189,87.10678489995189,87.10678489995189,0,1,[0.0012025998439639807],[0.3672889999579638],87.10678489995189,87.30672939983197,0.0,87.30672939983197,0,0.0,0,1,1000,num_1,0.9794905001763254,,37,9,2026-03-13_18h13.18.029,2026A_exp2,2022.2.4,59.88777032834242,
1000,1,0.0,4.9,0,0,13,13,5,,,,,88.30795809999108,88.94185049994849,88.94185049994849,89.44287479994819,45,315,89.44287479994819,89.44287479994819,89.44287479994819,89.44287479994819,89.44287479994819,89.44287479994819,89.44287479994819,89.44287479994819,89.44287479994819,89.80911819986068,89.80911819986068,89.80911819986068,89.80911819986068,89.80911819986068,89.80911819986068,89.80911819986068,89.80911819986068,89.80911819986068,23,0,,,89.80911819986068,90.01168609992601,1000,90.01168609992601,1000,1000,1000,1000,1,num_2,0.6897810001391917,,37,9,2026-03-13_18h13.18.029,2026A_exp2,2022.2.4,59.88777032834242,
0,0,3.7,6.1,0,0,14,14,73,,,,,90.7269673999399,91.37766440003179,91.37766440003179,91.8786523998715,45,315,91.8786523998715,91.8786523998715,91.8786523998715,91.8786523998715,91.8786523998715,91.8786523998715,91.8786523998715,91.8786523998715,91.8786523998715,92.24500110000372,92.24500110000372,92.24500110000372,92.24500110000372,92.24500110000372,92.24500110000372,92.24500110000372,92.24500110000372,92.24500110000372,9,1,[0.15022359997965395],[0.36724209995009005],92.24500110000372,92.44535429985262,6.1,92.44535429985262,1,6.1,1,1,1000,num_4,0.712860899977386,,37,9,2026-03-13_18h13.18.029,2026A_exp2,2022.2.4,59.88777032834242,
1,0,0.0,6.1,0,0,15,15,82,,,,,93.17934069992043,93.8299793000333,93.8299793000333,94.31454089982435,45,45,94.31454089982435,94.31454089982435,94.31454089982435,94.31454089982435,94.31454089982435,94.31454089982435,94.31454089982435,94.31454089982435,94.31454089982435,94.68096669996157,94.68096669996157,94.68096669996157,94.68096669996157,94.68096669996157,94.68096669996157,94.68096669996157,94.68096669996157,94.68096669996157,12,6,"[0.0012072999961674213, 0.08369049988687038, 0.1504027999471873, 0.1839087000116706, 0.2505226000212133, 0.3340185000561178]","[0.017421900061890483, 0.13360129995271564, 0.16700079990550876, 0.23373780003748834, 0.2672490000259131, 0.36732929991558194]",94.68096669996157,94.88122530002147,0.0,94.88122530002147,0,0.0,0,1,1000,num_1,0.9324650003109127,,37,9,2026-03-13_18h13.18.029,2026A_exp2,2022.2.4,59.88777032834242,
0,0,0.0,4.9,0,0,16,16,14,,,,,95.8320997999981,96.48276549996808,96.48276549996808,96.96721909986809,45,45,96.96721909986809,96.96721909986809,96.96721909986809,96.96721909986809,96.96721909986809,96.96721909986809,96.96721909986809,96.96721909986809,96.96721909986809,97.33346570003778,97.33346570003778,97.33346570003778,97.33346570003778,97.33346570003778,97.33346570003778,97.33346570003778,97.33346570003778,97.33346570003778,0,1,[0.0012125999201089144],[0.3672474001068622],97.33346570003778,97.53368319990113,4.9,97.53368319990113,1,4.9,1,1,1000,num_4,0.7283838002476841,,37,9,2026-03-13_18h13.18.029,2026A_exp2,2022.2.4,59.88777032834242,
1000,1,6.1,4.9,0,0,17,17,49,,,,,98.28445689985529,98.93540299986489,98.93540299986489,99.41969350003637,315,315,99.41969350003637,99.41969350003637,99.41969350003637,99.41969350003637,99.41969350003637,99.41969350003637,99.41969350003637,99.41969350003637,99.41969350003637,99.78603950003162,99.78603950003162,99.78603950003162,99.78603950003162,99.78603950003162,99.78603950003162,99.78603950003162,99.78603950003162,99.78603950003162,0,1,[0.0012552998960018158],[0.36696320003829896],99.78603950003162,99.98637139983475,1000,99.98637139983475,1000,1000,1000,1000,1,num_2,1.5311136001255363,,37,9,2026-03-13_18h13.18.029,2026A_exp2,2022.2.4,59.88777032834242,
1,0,6.1,4.9,0,0,18,18,81,,,,,101.53771119983867,102.1884872999508,102.1884872999508,102.68957619997673,315,45,102.68957619997673,102.68957619997673,102.68957619997673,102.68957619997673,102.68957619997673,102.68957619997673,102.68957619997673,102.68957619997673,102.68957619997673,103.03934359992854,103.03934359992854,103.03934359992854,103.03934359992854,103.03934359992854,103.03934359992854,103.03934359992854,103.03934359992854,103.03934359992854,2,2,"[0.0012081998866051435, 0.18365449993871152]","[0.15030990005470812, 0.3505750000476837]",103.03934359992854,103.23969840002246,6.1,103.23969840002246,1,6.1,1,1,1000,num_4,0.6861635001841933,,37,9,2026-03-13_18h13.18.029,2026A_exp2,2022.2.4,59.88777032834242,
1,0,4.9,0.0,0,0,19,19,4,,,,,103.95691259996966,104.59076119982637,104.59076119982637,105.0918366999831,315,315,105.0918366999831,105.0918366999831,105.0918366999831,105.0918366999831,105.0918366999831,105.0918366999831,105.0918366999831,105.0918366999831,105.0918366999831,105.458383299876,105.458383299876,105.458383299876,105.458383299876,105.458383299876,105.458383299876,105.458383299876,105.458383299876,105.458383299876,0,1,[0.0011933001223951578],[0.36727290018461645],105.458383299876,105.6586956998799,4.9,105.6586956998799,1,4.9,1,1,1000,num_4,0.7233623000793159,,37,9,2026-03-13_18h13.18.029,2026A_exp2,2022.2.4,59.88777032834242,
1000,1,0.0,0.0,0,0,20,20,67,,,,,106.40913119981997,107.06007059989497,107.06007059989497,107.54417419992387,315,315,107.54417419992387,107.54417419992387,107.54417419992387,107.54417419992387,107.54417419992387,107.54417419992387,107.54417419992387,107.54417419992387,107.54417419992387,107.91080079996027,107.91080079996027,107.91080079996027,107.91080079996027,107.91080079996027,107.91080079996027,107.91080079996027,107.91080079996027,107.91080079996027,3,3,"[0.001223500119522214, 0.05019740015268326, 0.20033910009078681]","[0.03350010002031922, 0.16696890001185238, 0.36719999997876585]",107.91080079996027,108.11109609995037,1000,108.11109609995037,1000,1000,1000,1000,1,num_2,1.4867526001762599,,37,9,2026-03-13_18h13.18.029,2026A_exp2,2022.2.4,59.88777032834242,
1000,1,0.0,4.9,1,0,21,21,55,,,,,109.62931280001067,110.2798890999984,110.2798890999984,110.78090419992805,45,45,110.78090419992805,110.78090419992805,110.78090419992805,110.78090419992805,110.78090419992805,110.78090419992805,110.78090419992805,110.78090419992805,110.78090419992805,111.13073439989239,111.13073439989239,111.13073439989239,111.13073439989239,111.13073439989239,111.13073439989239,111.13073439989239,111.13073439989239,111.13073439989239,22,0,,,111.13073439989239,111.33276290004142,1000,111.33276290004142,1000,1000,1000,1000,1,num_2,0.5452077002264559,,37,9,2026-03-13_18h13.18.029,2026A_exp2,2022.2.4,59.88777032834242,
1,0,0.0,0.0,0,0,22,22,51,,,,,111.89794059982523,112.5586015000008,112.5586015000008,113.05509929987602,315,45,113.05509929987602,113.05509929987602,113.05509929987602,113.05509929987602,113.05509929987602,113.05509929987602,113.05509929987602,113.05509929987602,113.05509929987602,113.39964479999617,113.39964479999617,113.39964479999617,113.39964479999617,113.39964479999617,113.39964479999617,113.39964479999617,113.39964479999617,113.39964479999617,16,5,"[0.15041869995184243, 0.1839721999131143, 0.23375830007717013, 0.28255370003171265, 0.3155110999941826]","[0.16702169994823635, 0.20039430004544556, 0.2506027000490576, 0.2985761999152601, 0.34900739998556674]",113.39964479999617,113.59979839995503,0.0,113.6165669998154,0,0.0,0,1,1000,num_1,0.9574247000273317,,37,9,2026-03-13_18h13.18.029,2026A_exp2,2022.2.4,59.88777032834242,
1000,1,3.7,4.9,0,0,23,23,64,,,,,114.60066789994016,115.25140489987098,115.25140489987098,115.73600369994529,315,45,115.73600369994529,115.73600369994529,115.73600369994529,115.73600369994529,115.73600369994529,115.73600369994529,115.73600369994529,115.73600369994529,115.73600369994529,116.10236949985847,116.10236949985847,116.10236949985847,116.10236949985847,116.10236949985847,116.10236949985847,116.10236949985847,116.10236949985847,116.10236949985847,0,1,[0.0012429000344127417],[0.3672718999441713],116.10236949985847,116.30453879991546,1000,116.30453879991546,1000,1000,1000,1000,0,num_3,0.5651438999921083,,37,9,2026-03-13_18h13.18.029,2026A_exp2,2022.2.4,59.88777032834242,
1000,1,0.0,4.9,0,0,24,24,53,,,,,116.88636689982377,117.5371244000271,117.5371244000271,118.03826839989051,315,315,118.03826839989051,118.03826839989051,118.03826839989051,118.03826839989051,118.03826839989051,118.03826839989051,118.03826839989051,118.03826839989051,118.03826839989051,118.40462379995733,118.40462379995733,118.40462379995733,118.40462379995733,118.40462379995733,118.40462379995733,118.40462379995733,118.40462379995733,118.40462379995733,1,2,"[0.0011986000463366508, 0.15033359988592565]","[0.13356529991142452, 0.36675729998387396]",118.40462379995733,118.60487499996088,1000,118.60487499996088,1000,1000,1000,1000,1,num_2,0.27352809999138117,,37,9,2026-03-13_18h13.18.029,2026A_exp2,2022.2.4,59.88777032834242,
1,0,0.0,0.0,1,0,25,25,21,,,,,118.90508739999495,119.55583540000953,119.55583540000953,120.05668389983475,315,315,120.05668389983475,120.05668389983475,120.05668389983475,120.05668389983475,120.05668389983475,120.05668389983475,120.05668389983475,120.05668389983475,120.05668389983475,120.40676939999685,120.40676939999685,120.40676939999685,120.40676939999685,120.40676939999685,120.40676939999685,120.40676939999685,120.40676939999685,120.40676939999685,1,2,"[0.0007088999263942242, 0.08413149998523295]","[0.05058460007421672, 0.3525002000387758]",120.40676939999685,120.60695059993304,0.0,120.62366329994984,0,0.0,0,1,1000,num_1,1.110574400285259,,37,9,2026-03-13_18h13.18.029,2026A_exp2,2022.2.4,59.88777032834242,
1000,1,3.7,0.0,1,0,26,26,54,,,,,121.75813889992423,122.39193759998307,122.39193759998307,122.89308609999716,45,315,122.89308609999716,122.89308609999716,122.89308609999716,122.89308609999716,122.89308609999716,122.89308609999716,122.89308609999716,122.89308609999716,122.89308609999716,123.2594563998282,123.2594563998282,123.2594563998282,123.2594563998282,123.2594563998282,123.2594563998282,123.2594563998282,123.2594563998282,123.2594563998282,5,4,"[0.0012178998440504074, 0.13349729985930026, 0.23362069996073842, 0.33372229989618063]","[0.11682379990816116, 0.2002030999865383, 0.31699209986254573, 0.3674712998326868]",123.2594563998282,123.46004719985649,1000,123.46004719985649,1000,1000,1000,1000,0,num_3,0.44955730019137263,,37,9,2026-03-13_18h13.18.029,2026A_exp2,2022.2.4,59.88777032834242,
1000,1,0.0,6.1,1,0,27,27,52,,,,,123.92676009982824,124.57748219999485,124.57748219999485,125.07865649997257,315,45,125.07865649997257,125.07865649997257,125.07865649997257,125.07865649997257,125.07865649997257,125.07865649997257,125.07865649997257,125.07865649997257,125.07865649997257,125.44502959982492,125.44502959982492,125.44502959982492,125.44502959982492,125.44502959982492,125.44502959982492,125.44502959982492,125.44502959982492,125.44502959982492,6,2,"[0.001223200000822544, 0.2336246999911964]","[0.13366100005805492, 0.3671655000653118]",125.44502959982492,125.6471321999561,1000,125.6471321999561,1000,1000,1000,1000,1,num_2,0.502696700161323,,37,9,2026-03-13_18h13.18.029,2026A_exp2,2022.2.4,59.88777032834242,
1,0,3.7,4.9,1,0,28,28,71,,,,,126.1788975999225,126.82983940001577,126.82983940001577,127.33090699999593,315,315,127.33090699999593,127.33090699999593,127.33090699999593,127.33090699999593,127.33090699999593,127.33090699999593,127.33090699999593,127.33090699999593,127.33090699999593,127.68057289998978,127.68057289998978,127.68057289998978,127.68057289998978,127.68057289998978,127.68057289998978,127.68057289998978,127.68057289998978,127.68057289998978,3,3,"[0.017438000068068504, 0.25042280019260943, 0.35062770009972155]","[0.23378900019451976, 0.33393900003284216, 0.3506329001393169]",127.68057289998978,127.88078819983639,4.9,127.8974550999701,1,4.9,1,1,1000,num_4,0.444946400122717,,37,9,2026-03-13_18h13.18.029,2026A_exp2,2022.2.4,59.88777032834242,
1,0,0.0,0.0,0,0,29,29,44,,,,,128.36447349982336,129.01515370002016,129.01515370002016,129.4996829999145,315,315,129.4996829999145,129.4996829999145,129.4996829999145,129.4996829999145,129.4996829999145,129.4996829999145,129.4996829999145,129.4996829999145,129.4996829999145,129.86611850000918,129.86611850000918,129.86611850000918,129.86611850000918,129.86611850000918,129.86611850000918,129.86611850000918,129.86611850000918,129.86611850000918,3,3,"[0.0012296000495553017, 0.2504143000114709, 0.3504530000500381]","[0.2337499000132084, 0.3336201999336481, 0.3671218999661505]",129.86611850000918,130.06627239985391,0.0,130.06627239985391,1,0.0,0,0,1000,num_4,2.395915700122714,,37,9,2026-03-13_18h13.18.029,2026A_exp2,2022.2.4,59.88777032834242,
1000,1,0.0,4.9,0,0,30,30,74,,,,,132.4852561999578,133.1194440999534,133.1194440999534,133.62039059982635,315,315,133.62039059982635,133.62039059982635,133.62039059982635,133.62039059982635,133.62039059982635,133.62039059982635,133.62039059982635,133.62039059982635,133.62039059982635,133.98694069986232,133.98694069986232,133.98694069986232,133.98694069986232,133.98694069986232,133.98694069986232,133.98694069986232,133.98694069986232,133.98694069986232,23,0,,,133.98694069986232,134.18916690000333,1000,134.18916690000333,1000,1000,1000,1000,1,num_2,0.5526785000693053,,37,9,2026-03-13_18h13.18.029,2026A_exp2,2022.2.4,59.88777032834242,
1,0,6.1,6.1,0,0,31,31,27,,,,,134.77095899987034,135.4216767998878,135.4216767998878,135.92282849992625,315,45,135.92282849992625,135.92282849992625,135.92282849992625,135.92282849992625,135.92282849992625,135.92282849992625,135.92282849992625,135.92282849992625,135.92282849992625,136.2891985999886,136.2891985999886,136.2891985999886,136.2891985999886,136.2891985999886,136.2891985999886,136.2891985999886,136.2891985999886,136.2891985999886,12,4,"[0.0011985998135060072, 0.0834927000105381, 0.1335485999006778, 0.3003467998933047]","[0.01743509992957115, 0.1002030000090599, 0.21690969984047115, 0.3669843999668956]",136.2891985999886,136.48949329997413,6.1,136.48949329997413,1,6.1,1,1,1000,num_4,0.7320678001269698,,37,9,2026-03-13_18h13.18.029,2026A_exp2,2022.2.4,59.88777032834242,
1000,1,0.0,3.7,1,0,32,32,65,,,,,137.24003660003655,137.8908901999239,137.8908901999239,138.3752902999986,315,315,138.3752902999986,138.3752902999986,138.3752902999986,138.3752902999986,138.3752902999986,138.3752902999986,138.3752902999986,138.3752902999986,138.3752902999986,138.74171199998818,138.74171199998818,138.74171199998818,138.74171199998818,138.74171199998818,138.74171199998818,138.74171199998818,138.74171199998818,138.74171199998818,23,0,,,138.74171199998818,138.94371729996055,1000,138.94371729996055,1000,1000,1000,1000,1,num_2,0.45505230012349784,,37,9,2026-03-13_18h13.18.029,2026A_exp2,2022.2.4,59.88777032834242,
1,0,0.0,0.0,0,0,33,33,17,,,,,139.42559390002862,140.0764750998933,140.0764750998933,140.57737659988925,315,315,140.57737659988925,140.57737659988925,140.57737659988925,140.57737659988925,140.57737659988925,140.57737659988925,140.57737659988925,140.57737659988925,140.57737659988925,140.9270983999595,140.9270983999595,140.9270983999595,140.9270983999595,140.9270983999595,140.9270983999595,140.9270983999595,140.9270983999595,140.9270983999595,22,0,,,140.9270983999595,141.12737719994038,0.0,141.1440349998884,0,0.0,0,1,1000,num_1,1.4213020000606775,,37,9,2026-03-13_18h13.18.029,2026A_exp2,2022.2.4,59.88777032834242,
1000,1,0.0,6.1,0,0,34,34,2,,,,,142.5953695999924,143.24624829995446,143.24624829995446,143.73052629991435,45,315,143.73052629991435,143.73052629991435,143.73052629991435,143.73052629991435,143.73052629991435,143.73052629991435,143.73052629991435,143.73052629991435,143.73052629991435,144.09689649986103,144.09689649986103,144.09689649986103,144.09689649986103,144.09689649986103,144.09689649986103,144.09689649986103,144.09689649986103,144.09689649986103,0,1,[0.001205699983984232],[0.36717170011252165],144.09689649986103,144.29919019993395,1000,144.29919019993395,1000,1000,1000,1000,1,num_2,0.37872450007125735,,37,9,2026-03-13_18h13.18.029,2026A_exp2,2022.2.4,59.88777032834242,
1,0,3.7,3.7,1,0,35,35,86,,,,,144.69761809986085,145.35866329981945,145.35866329981945,145.8326769999694,45,315,145.8326769999694,145.8326769999694,145.8326769999694,145.8326769999694,145.8326769999694,145.8326769999694,145.8326769999694,145.8326769999694,145.8326769999694,146.19911509985104,146.19911509985104,146.19911509985104,146.19911509985104,146.19911509985104,146.19911509985104,146.19911509985104,146.19911509985104,146.19911509985104,0,1,[0.0012603001669049263],[0.3673700001090765],146.19911509985104,146.39940380002372,3.7,146.39940380002372,1,3.7,1,1,1000,num_4,0.5818882002495229,,37,9,2026-03-13_18h13.18.029,2026A_exp2,2022.2.4,59.88777032834242,
1000,1,0.0,6.1,1,0,36,36,3,,,,,146.99974219989963,147.65058070002124,147.65058070002124,148.13491160003468,45,45,148.13491160003468,148.13491160003468,148.13491160003468,148.13491160003468,148.13491160003468,148.13491160003468,148.13491160003468,148.13491160003468,148.13491160003468,148.50148570002057,148.50148570002057,148.50148570002057,148.50148570002057,148.50148570002057,148.50148570002057,148.50148570002057,148.50148570002057,148.50148570002057,3,1,[0.05024179979227483],[0.3671661999542266],148.50148570002057,148.70351199992,1000,148.70351199992,1000,1000,1000,1000,1,num_2,0.4231755002401769,,37,9,2026-03-13_18h13.18.029,2026A_exp2,2022.2.4,59.88777032834242,
1000,1,0.0,6.1,0,0,37,37,58,,,,,149.1519990998786,149.80280769988894,149.80280769988894,150.30373859987594,315,45,150.30373859987594,150.30373859987594,150.30373859987594,150.30373859987594,150.30373859987594,150.30373859987594,150.30373859987594,150.30373859987594,150.30373859987594,150.670318499906,150.670318499906,150.670318499906,150.670318499906,150.670318499906,150.670318499906,150.670318499906,150.670318499906,150.670318499906,9,7,"[0.0007576998323202133, 0.06677539995871484, 0.16731479996815324, 0.21742239990271628, 0.2508811999578029, 0.28425899986177683, 0.3509005999658257]","[0.05012079980224371, 0.11721199983730912, 0.20064579998143017, 0.23401999985799193, 0.26725029991939664, 0.31752879987470806, 0.3676115998532623]",150.670318499906,150.8710170998238,1000,150.8710170998238,1000,1000,1000,1000,1,num_2,0.7586529001127928,,37,9,2026-03-13_18h13.18.029,2026A_exp2,2022.2.4,59.88777032834242,
0,0,0.0,3.7,0,0,38,38,83,,,,,151.6545314998366,152.305141299963,152.305141299963,152.80630589998327,45,45,152.80630589998327,152.80630589998327,152.80630589998327,152.80630589998327,152.80630589998327,152.80630589998327,152.80630589998327,152.80630589998327,152.80630589998327,153.15620389999822,153.15620389999822,153.15620389999822,153.15620389999822,153.15620389999822,153.15620389999822,153.15620389999822,153.15620389999822,153.15620389999822,22,0,,,153.15620389999822,153.35630219988525,3.7,153.3730214999523,1,3.7,1,1,1000,num_4,1.832714700140059,,37,9,2026-03-13_18h13.18.029,2026A_exp2,2022.2.4,59.88777032834242,
1000,1,6.1,3.7,0,0,39,39,18,,,,,155.22478749998845,155.8754692999646,155.8754692999646,156.36000399990007,315,315,156.36000399990007,156.36000399990007,156.36000399990007,156.36000399990007,156.36000399990007,156.36000399990007,156.36000399990007,156.36000399990007,156.36000399990007,156.72633669991046,156.72633669991046,156.72633669991046,156.72633669991046,156.72633669991046,156.72633669991046,156.72633669991046,156.72633669991046,156.72633669991046,2,2,"[0.017375099938362837, 0.23385710013099015]","[0.2171010000165552, 0.3670165000949055]",156.72633669991046,156.92832900001667,1000,156.92832900001667,1000,1000,1000,1000,0,num_3,0.4222703000996262,,37,9,2026-03-13_18h13.18.029,2026A_exp2,2022.2.4,59.88777032834242,
1000,1,0.0,0.0,1,0,40,40,40,,,,,157.37681139982305,158.02763179992326,158.02763179992326,158.52872339985333,45,315,158.52872339985333,158.52872339985333,158.52872339985333,158.52872339985333,158.52872339985333,158.52872339985333,158.52872339985333,158.52872339985333,158.52872339985333,158.89518600003794,158.89518600003794,158.89518600003794,158.89518600003794,158.89518600003794,158.89518600003794,158.89518600003794,158.89518600003794,158.89518600003794,23,0,,,158.89518600003794,159.09706850000657,1000,159.09706850000657,1000,1000,1000,1000,1,num_2,0.4853058001026511,,37,9,2026-03-13_18h13.18.029,2026A_exp2,2022.2.4,59.88777032834242,
1000,1,0.0,6.1,0,0,41,41,85,,,,,159.61268939985894,160.2631926999893,160.2631926999893,160.7643641999457,315,45,160.7643641999457,160.7643641999457,160.7643641999457,160.7643641999457,160.7643641999457,160.7643641999457,160.7643641999457,160.7643641999457,160.7643641999457,161.13075909996405,161.13075909996405,161.13075909996405,161.13075909996405,161.13075909996405,161.13075909996405,161.13075909996405,161.13075909996405,161.13075909996405,0,1,[0.0012051998637616634],[0.367129199905321],161.13075909996405,161.33273879997432,1000,161.33273879997432,1000,1000,1000,1000,1,num_2,0.2888697001617402,,37,9,2026-03-13_18h13.18.029,2026A_exp2,2022.2.4,59.88777032834242,
1000,1,0.0,0.0,0,0,42,42,36,,,,,161.6479036998935,162.2986303998623,162.2986303998623,162.7997087999247,45,45,162.7997087999247,162.7997087999247,162.7997087999247,162.7997087999247,162.7997087999247,162.7997087999247,162.7997087999247,162.7997087999247,162.7997087999247,163.16610829997808,163.16610829997808,163.16610829997808,163.16610829997808,163.16610829997808,163.16610829997808,163.16610829997808,163.16610829997808,163.16610829997808,0,1,[0.0011940000113099813],[0.36716990009881556],163.16610829997808,163.36799479997717,1000,163.36799479997717,1000,1000,1000,1000,0,num_3,0.38190479995682836,,37,9,2026-03-13_18h13.18.029,2026A_exp2,2022.2.4,59.88777032834242,
1000,1,0.0,6.1,0,0,43,43,35,,,,,163.76664269994944,164.41736599989235,164.41736599989235,164.91847359994426,45,45,164.91847359994426,164.91847359994426,164.91847359994426,164.91847359994426,164.91847359994426,164.91847359994426,164.91847359994426,164.91847359994426,164.91847359994426,165.28527849982493,165.28527849982493,165.28527849982493,165.28527849982493,165.28527849982493,165.28527849982493,165.28527849982493,165.28527849982493,165.28527849982493,20,1,[0.20029620011337101],[0.2504089002031833],165.28527849982493,165.48700369987637,1000,165.48700369987637,1000,1000,1000,1000,1,num_2,0.31869699992239475,,37,9,2026-03-13_18h13.18.029,2026A_exp2,2022.2.4,59.88777032834242,
1,0,0.0,0.0,1,0,44,44,41,,,,,165.83532679989003,166.4860398999881,166.4860398999881,166.98707100003958,315,45,166.98707100003958,166.98707100003958,166.98707100003958,166.98707100003958,166.98707100003958,166.98707100003958,166.98707100003958,166.98707100003958,166.98707100003958,167.3367922999896,167.3367922999896,167.3367922999896,167.3367922999896,167.3367922999896,167.3367922999896,167.3367922999896,167.3367922999896,167.3367922999896,0,1,[0.0012467000633478165],[0.3504745999816805],167.3367922999896,167.5371721999254,0.0,167.5538716998417,1,0.0,0,0,1000,num_4,1.1485542000737041,,37,9,2026-03-13_18h13.18.029,2026A_exp2,2022.2.4,59.88777032834242,
1,0,3.7,0.0,0,0,45,45,8,,,,,168.72134429984726,169.3556933000218,169.3556933000218,169.85675629996695,315,315,169.85675629996695,169.85675629996695,169.85675629996695,169.85675629996695,169.85675629996695,169.85675629996695,169.85675629996695,169.85675629996695,169.85675629996695,170.22309669991955,170.22309669991955,170.22309669991955,170.22309669991955,170.22309669991955,170.22309669991955,170.22309669991955,170.22309669991955,170.22309669991955,0,1,[0.0011937001254409552],[0.36713599995709956],170.22309669991955,170.4232530000154,3.7,170.4232530000154,1,3.7,1,1,1000,num_4,0.8549746002536267,,37,9,2026-03-13_18h13.18.029,2026A_exp2,2022.2.4,59.88777032834242,
1000,1,0.0,0.0,0,0,46,46,7,,,,,171.30760659999214,171.95828179991804,171.95828179991804,172.4428012999706,45,315,172.4428012999706,172.4428012999706,172.4428012999706,172.4428012999706,172.4428012999706,172.4428012999706,172.4428012999706,172.4428012999706,172.4428012999706,172.8090663999319,172.8090663999319,172.8090663999319,172.8090663999319,172.8090663999319,172.8090663999319,172.8090663999319,172.8090663999319,172.8090663999319,0,1,[0.000725800171494484],[0.36746110022068024],172.8090663999319,173.01126299984753,1000,173.01126299984753,1000,1000,1000,1000,0,num_3,1.1300739999860525,,37,9,2026-03-13_18h13.18.029,2026A_exp2,2022.2.4,59.88777032834242,
0,0,0.0,0.0,1,0,47,47,38,,,,,174.16036849981174,174.81137979985215,174.81137979985215,175.31209279992618,315,315,175.31209279992618,175.31209279992618,175.31209279992618,175.31209279992618,175.31209279992618,175.31209279992618,175.31209279992618,175.31209279992618,175.31209279992618,175.67863509990275,175.67863509990275,175.67863509990275,175.67863509990275,175.67863509990275,175.67863509990275,175.67863509990275,175.67863509990275,175.67863509990275,0,1,[0.0012372999917715788],[0.3670711999293417],175.67863509990275,175.87860629986972,0.0,175.87860629986972,0,0.0,0,1,1000,num_1,1.2718368000350893,,37,9,2026-03-13_18h13.18.029,2026A_exp2,2022.2.4,59.88777032834242,
1000,1,0.0,6.1,1,0,48,48,62,,,,,177.17999610002153,177.83079060004093,177.83079060004093,178.31524549983442,315,45,178.31524549983442,178.31524549983442,178.31524549983442,178.31524549983442,178.31524549983442,178.31524549983442,178.31524549983442,178.31524549983442,178.31524549983442,178.6817701999098,178.6817701999098,178.6817701999098,178.6817701999098,178.6817701999098,178.6817701999098,178.6817701999098,178.6817701999098,178.6817701999098,23,0,,,178.6817701999098,178.88354509999044,1000,178.88354509999044,1000,1000,1000,1000,1,num_2,0.40269299992360175,,37,9,2026-03-13_18h13.18.029,2026A_exp2,2022.2.4,59.88777032834242,
1000,1,0.0,0.0,0,0,49,49,87,,,,,179.31547129992396,179.966258399887,179.966258399887,180.4670877000317,45,315,180.4670877000317,180.4670877000317,180.4670877000317,180.4670877000317,180.4670877000317,180.4670877000317,180.4670877000317,180.4670877000317,180.4670877000317,180.83377949986607,180.83377949986607,180.83377949986607,180.83377949986607,180.83377949986607,180.83377949986607,180.83377949986607,180.83377949986607,180.83377949986607,12,2,"[0.016920599853619933, 0.15043499995954335]","[0.1337412998545915, 0.21731560002081096]",180.83377949986607,181.03564709983766,1000,181.03564709983766,1000,1000,1000,1000,0,num_3,0.5939947001170367,,37,9,2026-03-13_18h13.18.029,2026A_exp2,2022.2.4,59.88777032834242,
1000,1,3.7,4.9,0,0,50,50,80,,,,,181.6511641999241,182.30163510004058,182.30163510004058,182.80292619997635,45,45,182.80292619997635,182.80292619997635,182.80292619997635,182.80292619997635,182.80292619997635,182.80292619997635,182.80292619997635,182.80292619997635,182.80292619997635,183.16935470001772,183.16935470001772,183.16935470001772,183.16935470001772,183.16935470001772,183.16935470001772,183.16935470001772,183.16935470001772,183.16935470001772,23,0,,,183.16935470001772,183.37168330000713,1000,183.37168330000713,1000,1000,1000,1000,1,num_2,0.5142213001381606,,37,9,2026-03-13_18h13.18.029,2026A_exp2,2022.2.4,59.88777032834242,
1,0,4.9,4.9,0,0,51,51,84,,,,,183.90334329986945,184.55428369995207,184.55428369995207,185.0552844000049,45,45,185.0552844000049,185.0552844000049,185.0552844000049,185.0552844000049,185.0552844000049,185.0552844000049,185.0552844000049,185.0552844000049,185.0552844000049,185.42171339993365,185.42171339993365,185.42171339993365,185.42171339993365,185.42171339993365,185.42171339993365,185.42171339993365,185.42171339993365,185.42171339993365,0,1,[0.0011865999549627304],[0.3673663998488337],185.42171339993365,185.62183759990148,4.9,185.62183759990148,1,4.9,1,1,1000,num_4,0.744914100272581,,37,9,2026-03-13_18h13.18.029,2026A_exp2,2022.2.4,59.88777032834242,
0,0,4.9,4.9,1,0,52,52,48,,,,,186.3890498999972,187.0400409998838,187.0400409998838,187.52448959997855,45,315,187.52448959997855,187.52448959997855,187.52448959997855,187.52448959997855,187.52448959997855,187.52448959997855,187.52448959997855,187.52448959997855,187.52448959997855,187.89086689986289,187.89086689986289,187.89086689986289,187.89086689986289,187.89086689986289,187.89086689986289,187.89086689986289,187.89086689986289,187.89086689986289,5,2,"[0.06689889985136688, 0.2834866000339389]","[0.2668347000144422, 0.36672389996238053]",187.89086689986289,188.09105579997413,4.9,188.09105579997413,1,4.9,1,1,1000,num_4,1.1864797002635896,,37,9,2026-03-13_18h13.18.029,2026A_exp2,2022.2.4,59.88777032834242,
1000,1,6.1,0.0,0,0,53,53,59,,,,,189.30892560002394,189.95951969991438,189.95951969991438,190.44387069996446,45,315,190.44387069996446,190.44387069996446,190.44387069996446,190.44387069996446,190.44387069996446,190.44387069996446,190.44387069996446,190.44387069996446,190.44387069996446,190.8102668998763,190.8102668998763,190.8102668998763,190.8102668998763,190.8102668998763,190.8102668998763,190.8102668998763,190.8102668998763,190.8102668998763,2,3,"[0.001237599877640605, 0.05020119994878769, 0.1667118000332266]","[0.033522999845445156, 0.14949149987660348, 0.36724759987555444]",190.8102668998763,191.01225839997642,1000,191.01225839997642,1000,1000,1000,1000,0,num_3,0.5054473001509905,,37,9,2026-03-13_18h13.18.029,2026A_exp2,2022.2.4,59.88777032834242,
1,0,3.7,0.0,1,0,54,54,12,,,,,191.54467979981564,192.17832649988122,192.17832649988122,192.67955160001293,45,45,192.67955160001293,192.67955160001293,192.67955160001293,192.67955160001293,192.67955160001293,192.67955160001293,192.67955160001293,192.67955160001293,192.67955160001293,193.04588450002484,193.04588450002484,193.04588450002484,193.04588450002484,193.04588450002484,193.04588450002484,193.04588450002484,193.04588450002484,193.04588450002484,22,1,[0.15027870004996657],[0.16694870009087026],193.04588450002484,193.24631950003095,0.0,193.24631950003095,0,0.0,0,1,1000,num_1,0.7193337001372129,,37,9,2026-03-13_18h13.18.029,2026A_exp2,2022.2.4,59.88777032834242,
1,0,4.9,3.7,0,0,55,55,63,,,,,193.99669739999808,194.64741929993033,194.64741929993033,195.1319050998427,45,45,195.1319050998427,195.1319050998427,195.1319050998427,195.1319050998427,195.1319050998427,195.1319050998427,195.1319050998427,195.1319050998427,195.1319050998427,195.498321400024,195.498321400024,195.498321400024,195.498321400024,195.498321400024,195.498321400024,195.498321400024,195.498321400024,195.498321400024,23,0,,,195.498321400024,195.6985948998481,4.9,195.6985948998481,1,4.9,1,1,1000,num_4,0.8121693001594394,,37,9,2026-03-13_18h13.18.029,2026A_exp2,2022.2.4,59.88777032834242,
1000,1,0.0,0.0,0,0,56,56,37,,,,,196.53268139995635,197.18344479985535,197.18344479985535,197.66793989995494,45,315,197.66793989995494,197.66793989995494,197.66793989995494,197.66793989995494,197.66793989995494,197.66793989995494,197.66793989995494,197.66793989995494,197.66793989995494,198.03423919994384,198.03423919994384,198.03423919994384,198.03423919994384,198.03423919994384,198.03423919994384,198.03423919994384,198.03423919994384,198.03423919994384,9,1,[0.0008472998160868883],[0.23389129992574453],198.03423919994384,198.23698379984125,1000,198.23698379984125,1000,1000,1000,1000,0,num_3,0.4644675001036376,,37,9,2026-03-13_18h13.18.029,2026A_exp2,2022.2.4,59.88777032834242,
1000,1,4.9,0.0,0,0,57,57,50,,,,,198.71828439994715,199.36867859982885,199.36867859982885,199.87008869997226,315,45,199.87008869997226,199.87008869997226,199.87008869997226,199.87008869997226,199.87008869997226,199.87008869997226,199.87008869997226,199.87008869997226,199.87008869997226,200.23651319998316,200.23651319998316,200.23651319998316,200.23651319998316,200.23651319998316,200.23651319998316,200.23651319998316,200.23651319998316,200.23651319998316,23,0,,,200.23651319998316,200.43826349987648,1000,200.43826349987648,1000,1000,1000,1000,0,num_3,0.2951357001438737,,37,9,2026-03-13_18h13.18.029,2026A_exp2,2022.2.4,59.88777032834242,
1,0,0.0,0.0,1,0,58,58,24,,,,,200.75353089999408,201.4043419000227,201.4043419000227,201.9054407000076,45,45,201.9054407000076,201.9054407000076,201.9054407000076,201.9054407000076,201.9054407000076,201.9054407000076,201.9054407000076,201.9054407000076,201.9054407000076,202.27192589989863,202.27192589989863,202.27192589989863,202.27192589989863,202.27192589989863,202.27192589989863,202.27192589989863,202.27192589989863,202.27192589989863,6,2,"[0.0011906998697668314, 0.31700999988242984]","[0.26686730002984405, 0.3503091998863965]",202.27192589989863,202.4719736999832,0.0,202.4719736999832,0,0.0,0,1,1000,num_1,1.9664325001649559,,37,9,2026-03-13_18h13.18.029,2026A_exp2,2022.2.4,59.88777032834242,
1,0,6.1,3.7,0,0,59,59,31,,,,,204.45727449981496,205.1080944999121,205.1080944999121,205.60956939985044,45,315,205.60956939985044,205.60956939985044,205.60956939985044,205.60956939985044,205.60956939985044,205.60956939985044,205.60956939985044,205.60956939985044,205.60956939985044,205.9755337999668,205.9755337999668,205.9755337999668,205.9755337999668,205.9755337999668,205.9755337999668,205.9755337999668,205.9755337999668,205.9755337999668,2,2,"[0.0012256000190973282, 0.08326549991033971]","[0.04978840006515384, 0.3671915999148041]",205.9755337999668,206.1757392999716,6.1,206.1757392999716,1,6.1,1,1,1000,num_4,0.9020943001378328,,37,9,2026-03-13_18h13.18.029,2026A_exp2,2022.2.4,59.88777032834242,
0,0,6.1,0.0,1,0,60,60,30,,,,,207.09324049996212,207.7438331998419,207.7438331998419,208.2449107998982,45,45,208.2449107998982,208.2449107998982,208.2449107998982,208.2449107998982,208.2449107998982,208.2449107998982,208.2449107998982,208.2449107998982,208.2449107998982,208.61153749981895,208.61153749981895,208.61153749981895,208.61153749981895,208.61153749981895,208.61153749981895,208.61153749981895,208.61153749981895,208.61153749981895,0,1,[0.0012308000586926937],[0.3672649001237005],208.61153749981895,208.81166859995574,6.1,208.81166859995574,1,6.1,1,1,1000,num_4,1.1298390999436378,,37,9,2026-03-13_18h13.18.029,2026A_exp2,2022.2.4,59.88777032834242,
1000,1,0.0,0.0,0,0,61,61,6,,,,,209.96272700000554,210.61341669992544,210.61341669992544,211.09796139993705,45,315,211.09796139993705,211.09796139993705,211.09796139993705,211.09796139993705,211.09796139993705,211.09796139993705,211.09796139993705,211.09796139993705,211.09796139993705,211.46442879992537,211.46442879992537,211.46442879992537,211.46442879992537,211.46442879992537,211.46442879992537,211.46442879992537,211.46442879992537,211.46442879992537,5,3,"[0.017369200009852648, 0.2503705001436174, 0.31710380013100803]","[0.23381180013529956, 0.2671796001959592, 0.3671580001246184]",211.46442879992537,211.66633649985306,1000,211.66633649985306,1000,1000,1000,1000,1,num_2,1.4279816001653671,,37,9,2026-03-13_18h13.18.029,2026A_exp2,2022.2.4,59.88777032834242,
0,0,0.0,3.7,0,0,62,62,47,,,,,213.11595040000975,213.76670589996502,213.76670589996502,214.26763699995354,45,315,214.26763699995354,214.26763699995354,214.26763699995354,214.26763699995354,214.26763699995354,214.26763699995354,214.26763699995354,214.26763699995354,214.26763699995354,214.61747639998794,214.61747639998794,214.61747639998794,214.61747639998794,214.61747639998794,214.61747639998794,214.61747639998794,214.61747639998794,214.61747639998794,22,0,,,214.61747639998794,214.8250799998641,3.7,214.8250799998641,1,3.7,1,1,1000,num_4,0.764903400093317,,37,9,2026-03-13_18h13.18.029,2026A_exp2,2022.2.4,59.88777032834242,
1,0,3.7,0.0,1,0,63,63,13,,,,,215.61854940000921,216.2691823998466,216.2691823998466,216.7704514998477,315,45,216.7704514998477,216.7704514998477,216.7704514998477,216.7704514998477,216.7704514998477,216.7704514998477,216.7704514998477,216.7704514998477,216.7704514998477,217.13672890001908,217.13672890001908,217.13672890001908,217.13672890001908,217.13672890001908,217.13672890001908,217.13672890001908,217.13672890001908,217.13672890001908,23,0,,,217.13672890001908,217.33683689986356,0.0,217.33683689986356,0,0.0,0,1,1000,num_1,0.85251190001145,,37,9,2026-03-13_18h13.18.029,2026A_exp2,2022.2.4,59.88777032834242,
1000,1,6.1,0.0,0,0,64,64,89,,,,,218.2208991998341,218.87174039985985,218.87174039985985,219.35617439984344,315,45,219.35617439984344,219.35617439984344,219.35617439984344,219.35617439984344,219.35617439984344,219.35617439984344,219.35617439984344,219.35617439984344,219.35617439984344,219.72259909985587,219.72259909985587,219.72259909985587,219.72259909985587,219.72259909985587,219.72259909985587,219.72259909985587,219.72259909985587,219.72259909985587,23,0,,,219.72259909985587,219.92485569999553,1000,219.92485569999553,1000,1000,1000,1000,0,num_3,0.6259139999747276,,37,9,2026-03-13_18h13.18.029,2026A_exp2,2022.2.4,59.88777032834242,
1000,1,0.0,0.0,0,0,65,65,45,,,,,220.57361099985428,221.22420149995014,221.22420149995014,221.7251344998367,45,45,221.7251344998367,221.7251344998367,221.7251344998367,221.7251344998367,221.7251344998367,221.7251344998367,221.7251344998367,221.7251344998367,221.7251344998367,222.09146020002663,222.09146020002663,222.09146020002663,222.09146020002663,222.09146020002663,222.09146020002663,222.09146020002663,222.09146020002663,222.09146020002663,18,2,"[0.0015690999571233988, 0.2166782000567764]","[0.05006360006518662, 0.24998510000295937]",222.09146020002663,222.29417079989798,1000,222.29417079989798,1000,1000,1000,1000,1,num_2,0.6880900000687689,,37,9,2026-03-13_18h13.18.029,2026A_exp2,2022.2.4,59.88777032834242,
1,0,4.9,4.9,0,0,66,66,39,,,,,223.00915389996953,223.65987699991092,223.65987699991092,224.16106859990396,315,45,224.16106859990396,224.16106859990396,224.16106859990396,224.16106859990396,224.16106859990396,224.16106859990396,224.16106859990396,224.16106859990396,224.16106859990396,224.51071910001338,224.51071910001338,224.51071910001338,224.51071910001338,224.51071910001338,224.51071910001338,224.51071910001338,224.51071910001338,224.51071910001338,22,0,,,224.51071910001338,224.7109311998356,4.9,224.72769770002924,1,4.9,1,1,1000,num_4,0.6700318001676351,,37,9,2026-03-13_18h13.18.029,2026A_exp2,2022.2.4,59.88777032834242,
1,0,0.0,6.1,0,0,67,67,43,,,,,225.42836619983427,226.07904569990933,226.07904569990933,226.56350449984893,315,45,226.56350449984893,226.56350449984893,226.56350449984893,226.56350449984893,226.56350449984893,226.56350449984893,226.56350449984893,226.56350449984893,226.56350449984893,226.93000399996527,226.93000399996527,226.93000399996527,226.93000399996527,226.93000399996527,226.93000399996527,226.93000399996527,226.93000399996527,226.93000399996527,23,0,,,226.93000399996527,227.13009749981575,0.0,227.13009749981575,0,0.0,0,1,1000,num_1,0.9639063000213355,,37,9,2026-03-13_18h13.18.029,2026A_exp2,2022.2.4,59.88777032834242,
1000,1,0.0,0.0,0,0,68,68,72,,,,,228.11423239996657,228.76472909981385,228.76472909981385,229.2494961998891,45,45,229.2494961998891,229.2494961998891,229.2494961998891,229.2494961998891,229.2494961998891,229.2494961998891,229.2494961998891,229.2494961998891,229.2494961998891,229.61585639999248,229.61585639999248,229.61585639999248,229.61585639999248,229.61585639999248,229.61585639999248,229.61585639999248,229.61585639999248,229.61585639999248,22,1,[0.0012006000615656376],[0.017420500051230192],229.61585639999248,229.81851449981332,1000,229.81851449981332,1000,1000,1000,1000,0,num_3,0.5884188001509756,,37,9,2026-03-13_18h13.18.029,2026A_exp2,2022.2.4,59.88777032834242,
1000,1,0.0,6.1,1,0,69,69,69,,,,,230.43323810002767,231.08396349987015,231.08396349987015,231.58501629997045,45,45,231.58501629997045,231.58501629997045,231.58501629997045,231.58501629997045,231.58501629997045,231.58501629997045,231.58501629997045,231.58501629997045,231.58501629997045,231.95139970001765,231.95139970001765,231.95139970001765,231.95139970001765,231.95139970001765,231.95139970001765,231.95139970001765,231.95139970001765,231.95139970001765,0,1,[0.0012098001316189766],[0.3673986999783665],231.95139970001765,232.15372719988227,1000,232.15372719988227,1000,1000,1000,1000,1,num_2,1.2204819000326097,,37,9,2026-03-13_18h13.18.029,2026A_exp2,2022.2.4,59.88777032834242,
1000,1,6.1,4.9,0,0,70,70,68,,,,,233.40289419982582,234.05360179999843,234.05360179999843,234.55493450001813,45,315,234.55493450001813,234.55493450001813,234.55493450001813,234.55493450001813,234.55493450001813,234.55493450001813,234.55493450001813,234.55493450001813,234.55493450001813,234.92120799981058,234.92120799981058,234.92120799981058,234.92120799981058,234.92120799981058,234.92120799981058,234.92120799981058,234.92120799981058,234.92120799981058,0,1,[0.0009171999990940094],[0.3675031999591738],234.92120799981058,235.12138489983045,1000,235.12138489983045,1000,1000,1000,1000,0,num_3,1.3413889999501407,,37,9,2026-03-13_18h13.18.029,2026A_exp2,2022.2.4,59.88777032834242,
1,0,3.7,6.1,1,0,71,71,77,,,,,236.4892859000247,237.14004289987497,237.14004289987497,237.64121799985878,45,315,237.64121799985878,237.64121799985878,237.64121799985878,237.64121799985878,237.64121799985878,237.64121799985878,237.64121799985878,237.64121799985878,237.64121799985878,238.00758600002155,238.00758600002155,238.00758600002155,238.00758600002155,238.00758600002155,238.00758600002155,238.00758600002155,238.00758600002155,238.00758600002155,0,1,[0.0012227999977767467],[0.36718860012479126],238.00758600002155,238.20784349995665,6.1,238.20784349995665,0,6.1,1,0,1000,num_1,0.4460001999977976,,37,9,2026-03-13_18h13.18.029,2026A_exp2,2022.2.4,59.88777032834242,
1000,1,0.0,6.1,1,0,72,72,19,,,,,238.67480010003783,239.3194213998504,239.3194213998504,239.8099250998348,315,315,239.8099250998348,239.8099250998348,239.8099250998348,239.8099250998348,239.8099250998348,239.8099250998348,239.8099250998348,239.8099250998348,239.8099250998348,240.17630419996567,240.17630419996567,240.17630419996567,240.17630419996567,240.17630419996567,240.17630419996567,240.17630419996567,240.17630419996567,240.17630419996567,0,1,[0.0012862998992204666],[0.3671844999771565],240.17630419996567,240.37860849988647,1000,240.37860849988647,1000,1000,1000,1000,1,num_2,0.29085850017145276,,37,9,2026-03-13_18h13.18.029,2026A_exp2,2022.2.4,59.88777032834242,
1000,1,3.7,0.0,1,0,73,73,88,,,,,240.6935036999639,241.3443576998543,241.3443576998543,241.84537420002744,45,315,241.84537420002744,241.84537420002744,241.84537420002744,241.84537420002744,241.84537420002744,241.84537420002744,241.84537420002744,241.84537420002744,241.84537420002744,242.21163129992783,242.21163129992783,242.21163129992783,242.21163129992783,242.21163129992783,242.21163129992783,242.21163129992783,242.21163129992783,242.21163129992783,0,1,[0.001200599828734994],[0.36718179984018207],242.21163129992783,242.41390329995193,1000,242.41390329995193,1000,1000,1000,1000,1,num_2,1.8475824003107846,,37,9,2026-03-13_18h13.18.029,2026A_exp2,2022.2.4,59.88777032834242,
1000,1,0.0,6.1,0,0,74,74,75,,,,,244.28050799993798,244.93123939982615,244.93123939982615,245.43234239984304,315,45,245.43234239984304,245.43234239984304,245.43234239984304,245.43234239984304,245.43234239984304,245.43234239984304,245.43234239984304,245.43234239984304,245.43234239984304,245.79870429984294,245.79870429984294,245.79870429984294,245.79870429984294,245.79870429984294,245.79870429984294,245.79870429984294,245.79870429984294,245.79870429984294,0,1,[0.0012069998774677515],[0.36723969993181527],245.79870429984294,246.00090559991077,1000,246.00090559991077,1000,1000,1000,1000,1,num_2,0.26142090023495257,,37,9,2026-03-13_18h13.18.029,2026A_exp2,2022.2.4,59.88777032834242,
1000,1,3.7,0.0,0,0,75,75,66,,,,,246.28255839995109,246.93323659989983,246.93323659989983,247.43434129981324,45,45,247.43434129981324,247.43434129981324,247.43434129981324,247.43434129981324,247.43434129981324,247.43434129981324,247.43434129981324,247.43434129981324,247.43434129981324,247.80073329992592,247.80073329992592,247.80073329992592,247.80073329992592,247.80073329992592,247.80073329992592,247.80073329992592,247.80073329992592,247.80073329992592,0,1,[0.001206899993121624],[0.3672150999773294],247.80073329992592,248.00298630003817,1000,248.00298630003817,1000,1000,1000,1000,0,num_3,0.3716944002080709,,37,9,2026-03-13_18h13.18.029,2026A_exp2,2022.2.4,59.88777032834242,
1000,1,0.0,0.0,1,0,76,76,16,,,,,248.4012490999885,249.05196109996177,249.05196109996177,249.55307079991326,315,315,249.55307079991326,249.55307079991326,249.55307079991326,249.55307079991326,249.55307079991326,249.55307079991326,249.55307079991326,249.55307079991326,249.55307079991326,249.9028176998254,249.9028176998254,249.9028176998254,249.9028176998254,249.9028176998254,249.9028176998254,249.9028176998254,249.9028176998254,249.9028176998254,0,1,[0.0012181999627500772],[0.35053829988464713],249.9028176998254,250.1047706999816,1000,250.1197632998228,1000,1000,1000,1000,1,num_2,1.246569300070405,,37,9,2026-03-13_18h13.18.029,2026A_exp2,2022.2.4,59.88777032834242,
1000,1,0.0,4.9,1,0,77,77,79,,,,,251.38750199996866,252.03826779988594,252.03826779988594,252.5393427000381,315,315,252.5393427000381,252.5393427000381,252.5393427000381,252.5393427000381,252.5393427000381,252.5393427000381,252.5393427000381,252.5393427000381,252.5393427000381,252.9058844000101,252.9058844000101,252.9058844000101,252.9058844000101,252.9058844000101,252.9058844000101,252.9058844000101,252.9058844000101,252.9058844000101,19,3,"[0.25023520016111434, 0.3003987001720816, 0.3503627001773566]","[0.26705120014958084, 0.3338439001236111, 0.3670118001755327]",252.9058844000101,253.10773669998161,1000,253.10773669998161,1000,1000,1000,1000,1,num_2,0.594121300149709,,37,9,2026-03-13_18h13.18.029,2026A_exp2,2022.2.4,59.88777032834242,
1,0,4.9,3.7,1,0,78,78,26,,,,,253.72342119994573,254.37395919999108,254.37395919999108,254.87508489983156,315,45,254.87508489983156,254.87508489983156,254.87508489983156,254.87508489983156,254.87508489983156,254.87508489983156,254.87508489983156,254.87508489983156,254.87508489983156,255.2248108999338,255.2248108999338,255.2248108999338,255.2248108999338,255.2248108999338,255.2248108999338,255.2248108999338,255.2248108999338,255.2248108999338,22,0,,,255.2248108999338,255.42494999989867,3.7,255.44160379981622,0,3.7,1,0,1000,num_1,1.013002300169319,,37,9,2026-03-13_18h13.18.029,2026A_exp2,2022.2.4,59.88777032834242,
1000,1,0.0,0.0,1,0,79,79,60,,,,,256.4757725999225,257.12670429982245,257.12670429982245,257.61107849981636,315,45,257.61107849981636,257.61107849981636,257.61107849981636,257.61107849981636,257.61107849981636,257.61107849981636,257.61107849981636,257.61107849981636,257.61107849981636,257.97747569996864,257.97747569996864,257.97747569996864,257.97747569996864,257.97747569996864,257.97747569996864,257.97747569996864,257.97747569996864,257.97747569996864,16,1,[0.26705590006895363],[0.36726199998520315],257.97747569996864,258.1796824999619,1000,258.1796824999619,1000,1000,1000,1000,0,num_3,0.9465479000937194,,37,9,2026-03-13_18h13.18.029,2026A_exp2,2022.2.4,59.88777032834242,
1000,1,3.7,6.1,1,0,80,80,29,,,,,259.14548840001225,259.79612850002013,259.79612850002013,260.2805633000098,45,315,260.2805633000098,260.2805633000098,260.2805633000098,260.2805633000098,260.2805633000098,260.2805633000098,260.2805633000098,260.2805633000098,260.2805633000098,260.6469596000388,260.6469596000388,260.6469596000388,260.6469596000388,260.6469596000388,260.6469596000388,260.6469596000388,260.6469596000388,260.6469596000388,23,0,,,260.6469596000388,260.84869979997166,1000,260.84869979997166,1000,1000,1000,1000,1,num_2,0.7409613002091646,,37,9,2026-03-13_18h13.18.029,2026A_exp2,2022.2.4,59.88777032834242,
1,0,4.9,6.1,0,0,81,81,33,,,,,261.614489399828,262.2652292998973,262.2652292998973,262.7662593999412,45,45,262.7662593999412,262.7662593999412,262.7662593999412,262.7662593999412,262.7662593999412,262.7662593999412,262.7662593999412,262.7662593999412,262.7662593999412,263.13275459990837,263.13275459990837,263.13275459990837,263.13275459990837,263.13275459990837,263.13275459990837,263.13275459990837,263.13275459990837,263.13275459990837,23,0,,,263.13275459990837,263.3328907999676,4.9,263.3328907999676,1,4.9,1,1,1000,num_4,0.9851665000896901,,37,9,2026-03-13_18h13.18.029,2026A_exp2,2022.2.4,59.88777032834242,
1,0,0.0,4.9,1,0,82,82,1,,,,,264.33380669984035,264.9844802999869,264.9844802999869,265.4689213000238,315,315,265.4689213000238,265.4689213000238,265.4689213000238,265.4689213000238,265.4689213000238,265.4689213000238,265.4689213000238,265.4689213000238,265.4689213000238,265.83556249993853,265.83556249993853,265.83556249993853,265.83556249993853,265.83556249993853,265.83556249993853,265.83556249993853,265.83556249993853,265.83556249993853,1,1,[0.0013504999224096537],[0.3668632998596877],265.83556249993853,266.0355095998384,4.9,266.0355095998384,1,4.9,1,1,1000,num_4,1.8338580999989063,,37,9,2026-03-13_18h13.18.029,2026A_exp2,2022.2.4,59.88777032834242,
1,0,0.0,3.7,0,0,83,83,61,,,,,267.8874678998254,268.5214392999187,268.5214392999187,269.02245549997315,45,315,269.02245549997315,269.02245549997315,269.02245549997315,269.02245549997315,269.02245549997315,269.02245549997315,269.02245549997315,269.02245549997315,269.02245549997315,269.38898689998314,269.38898689998314,269.38898689998314,269.38898689998314,269.38898689998314,269.38898689998314,269.38898689998314,269.38898689998314,269.38898689998314,16,2,"[0.0011903000995516777, 0.10026370012201369]","[0.0669216001406312, 0.1501501000020653]",269.38898689998314,269.58925729990005,0.0,269.58925729990005,0,0.0,0,1,1000,num_1,1.600180600071326,,37,9,2026-03-13_18h13.18.029,2026A_exp2,2022.2.4,59.88777032834242,
0,0,0.0,0.0,0,0,84,84,22,,,,,271.2073869998567,271.8414745000191,271.8414745000191,272.3426483999938,315,45,272.3426483999938,272.3426483999938,272.3426483999938,272.3426483999938,272.3426483999938,272.3426483999938,272.3426483999938,272.3426483999938,272.3426483999938,272.7089793998748,272.7089793998748,272.7089793998748,272.7089793998748,272.7089793998748,272.7089793998748,272.7089793998748,272.7089793998748,272.7089793998748,23,0,,,272.7089793998748,272.9092496999074,0.0,272.9092496999074,0,0.0,0,1,1000,num_1,1.0801560000982136,,37,9,2026-03-13_18h13.18.029,2026A_exp2,2022.2.4,59.88777032834242,
1,0,0.0,0.0,0,0,85,85,34,,,,,274.01020989986137,274.660891499836,274.660891499836,275.14529039990157,45,315,275.14529039990157,275.14529039990157,275.14529039990157,275.14529039990157,275.14529039990157,275.14529039990157,275.14529039990157,275.14529039990157,275.14529039990157,275.51161039993167,275.51161039993167,275.51161039993167,275.51161039993167,275.51161039993167,275.51161039993167,275.51161039993167,275.51161039993167,275.51161039993167,23,0,,,275.51161039993167,275.7119405998383,0.0,275.7119405998383,1,0.0,0,0,1000,num_4,3.406386600108817,,37,9,2026-03-13_18h13.18.029,2026A_exp2,2022.2.4,59.88777032834242,
1,0,4.9,0.0,1,0,86,86,25,,,,,279.1485735999886,279.7827471999917,279.7827471999917,280.28366609988734,315,315,280.28366609988734,280.28366609988734,280.28366609988734,280.28366609988734,280.28366609988734,280.28366609988734,280.28366609988734,280.28366609988734,280.28366609988734,280.650146599859,280.650146599859,280.650146599859,280.650146599859,280.650146599859,280.650146599859,280.650146599859,280.650146599859,280.650146599859,23,0,,,280.650146599859,280.85055069997907,0.0,280.85055069997907,0,0.0,0,1,1000,num_1,0.9399342001415789,,37,9,2026-03-13_18h13.18.029,2026A_exp2,2022.2.4,59.88777032834242,
1000,1,0.0,4.9,1,0,87,87,78,,,,,281.8180125998333,282.46879039984196,282.46879039984196,282.95319309993647,315,45,282.95319309993647,282.95319309993647,282.95319309993647,282.95319309993647,282.95319309993647,282.95319309993647,282.95319309993647,282.95319309993647,282.95319309993647,283.31956179998815,283.31956179998815,283.31956179998815,283.31956179998815,283.31956179998815,283.31956179998815,283.31956179998815,283.31956179998815,283.31956179998815,0,1,[0.0012278999201953411],[0.36703169997781515],283.31956179998815,283.5217587000225,1000,283.5217587000225,1000,1000,1000,1000,1,num_2,0.620466300053522,,37,9,2026-03-13_18h13.18.029,2026A_exp2,2022.2.4,59.88777032834242,
1,0,3.7,4.9,0,0,88,88,76,,,,,284.1705046999268,284.821205599932,284.821205599932,285.32229599985294,315,315,285.32229599985294,285.32229599985294,285.32229599985294,285.32229599985294,285.32229599985294,285.32229599985294,285.32229599985294,285.32229599985294,285.32229599985294,285.6719847000204,285.6719847000204,285.6719847000204,285.6719847000204,285.6719847000204,285.6719847000204,285.6719847000204,285.6719847000204,285.6719847000204,0,1,[0.000865899957716465],[0.3509864001534879],285.6719847000204,285.8720894998405,3.7,285.88887539994903,0,3.7,1,0,1000,num_1,0.7812453000806272,,37,9,2026-03-13_18h13.18.029,2026A_exp2,2022.2.4,59.88777032834242,
1,0,0.0,3.7,1,0,89,89,0,,,,,286.6896430000197,287.34024579986,287.34024579986,287.82465089997277,45,315,287.82465089997277,287.82465089997277,287.82465089997277,287.82465089997277,287.82465089997277,287.82465089997277,287.82465089997277,287.82465089997277,287.82465089997277,288.1911195998546,288.1911195998546,288.1911195998546,288.1911195998546,288.1911195998546,288.1911195998546,288.1911195998546,288.1911195998546,288.1911195998546,0,1,[0.0012284999247640371],[0.3674174000043422],288.1911195998546,288.3913037998136,3.7,288.3913037998136,1,3.7,1,1,1000,num_4,1.3102336002048105,,37,9,2026-03-13_18h13.18.029,2026A_exp2,2022.2.4,59.88777032834242,
,,,,,,,,,,,,,,,,,,,,,,,,,,,,,,,,,,,,,,,,,,,,,,,,,,,,289.7354949999135,,,,,,,
