validity,detectorcomp,contrastCW,contrastCCW,precueCWorCCW,block_80trials.thisRepN,block_80trials.thisTrialN,block_80trials.thisN,block_80trials.thisIndex,etRecord.started,etRecord.stopped,text.started,text.stopped,text_4.started,text_4.stopped,text_6.started,text_6.stopped,oriCW,oriCCW,roi_2.started,grating_UR.started,grating_UL.started,grating_LR.started,grating_LL.started,noise_UR.started,noise_UL.started,noise_LR.started,noise_LL.started,roi_2.stopped,grating_UR.stopped,grating_UL.stopped,grating_LR.stopped,grating_LL.stopped,noise_UR.stopped,noise_UL.stopped,noise_LR.stopped,noise_LL.stopped,outframe,roi_2.numLooks,roi_2.timesOn,roi_2.timesOff,text_2.started,text_2.stopped,probedcontrast,key_resp.started,respdetect,relevantContrast,correctDetect,TorFdetect,respCWorCCW,key_resp.keys,key_resp.rt,feedback_display_.started,participantNo,blockNo,date,expName,psychopyVersion,frameRate,
1,0,3.7,4.9,1,0,0,0,71,6.29001297056675e-05,6.29001297056675e-05,56.69801040017046,58.70021200017072,58.70021200017072,59.33557810005732,59.33557810005732,59.859642000170425,45,315,59.859642000170425,59.859642000170425,59.859642000170425,59.859642000170425,59.859642000170425,59.859642000170425,59.859642000170425,59.859642000170425,59.859642000170425,60.2016524001956,60.2016524001956,60.2016524001956,60.2016524001956,60.2016524001956,60.2016524001956,60.2016524001956,60.2016524001956,60.2016524001956,18,1,[0.0009220000356435776],[0.08470840007066727],60.2016524001956,60.40197220002301,4.9,60.40197220002301,1,4.9,1,1,1000,num_4,2.819361000088975,,31,1,2026-03-12_13h19.03.512,2026A_exp2,2022.2.4,59.83960598059939,
1000,1,6.1,0.0,0,0,1,1,89,,,,,63.2384650001768,63.87221140018664,63.87221140018664,64.37341840006411,315,45,64.37341840006411,64.37341840006411,64.37341840006411,64.37341840006411,64.37341840006411,64.37341840006411,64.37341840006411,64.37341840006411,64.37341840006411,64.73981559998356,64.73981559998356,64.73981559998356,64.73981559998356,64.73981559998356,64.73981559998356,64.73981559998356,64.73981559998356,64.73981559998356,23,0,,,64.73981559998356,64.93984090001322,1000,64.93984090001322,1000,1000,1000,1000,0,num_3,1.073892300017178,,31,1,2026-03-12_13h19.03.512,2026A_exp2,2022.2.4,59.83960598059939,
1000,1,6.1,4.9,0,0,2,2,49,,,,,66.04096020013094,66.67477500019595,66.67477500019595,67.17597270011902,45,45,67.17597270011902,67.17597270011902,67.17597270011902,67.17597270011902,67.17597270011902,67.17597270011902,67.17597270011902,67.17597270011902,67.17597270011902,67.54241530015133,67.54241530015133,67.54241530015133,67.54241530015133,67.54241530015133,67.54241530015133,67.54241530015133,67.54241530015133,67.54241530015133,15,2,"[0.0008183000609278679, 0.13344789994880557]","[0.10025499993935227, 0.1669244000222534]",67.54241530015133,67.74255480011925,1000,67.74255480011925,1000,1000,1000,1000,0,num_3,1.4309580000117421,,31,1,2026-03-12_13h19.03.512,2026A_exp2,2022.2.4,59.83960598059939,
1000,1,0.0,0.0,0,0,3,3,7,,,,,69.19417280005291,69.8446931000799,69.8446931000799,70.32932920008898,45,315,70.32932920008898,70.32932920008898,70.32932920008898,70.32932920008898,70.32932920008898,70.32932920008898,70.32932920008898,70.32932920008898,70.32932920008898,70.69545120000839,70.69545120000839,70.69545120000839,70.69545120000839,70.69545120000839,70.69545120000839,70.69545120000839,70.69545120000839,70.69545120000839,23,0,,,70.69545120000839,70.89596660016105,1000,70.89596660016105,1000,1000,1000,1000,1,num_2,1.0135425000917166,,31,1,2026-03-12_13h19.03.512,2026A_exp2,2022.2.4,59.83960598059939,
1000,1,0.0,6.1,1,0,4,4,3,,,,,71.93073050002567,72.580727300141,72.580727300141,73.06526350020431,45,45,73.06526350020431,73.06526350020431,73.06526350020431,73.06526350020431,73.06526350020431,73.06526350020431,73.06526350020431,73.06526350020431,73.06526350020431,73.43219309998676,73.43219309998676,73.43219309998676,73.43219309998676,73.43219309998676,73.43219309998676,73.43219309998676,73.43219309998676,73.43219309998676,23,0,,,73.43219309998676,73.63225200003944,1000,73.63225200003944,1000,1000,1000,1000,1,num_2,0.8213039999827743,,31,1,2026-03-12_13h19.03.512,2026A_exp2,2022.2.4,59.83960598059939,
0,0,4.9,4.9,1,0,5,5,48,,,,,74.48308430006728,75.13351850002073,75.13351850002073,75.63440800015815,45,45,75.63440800015815,75.63440800015815,75.63440800015815,75.63440800015815,75.63440800015815,75.63440800015815,75.63440800015815,75.63440800015815,75.63440800015815,75.98411700013094,75.98411700013094,75.98411700013094,75.98411700013094,75.98411700013094,75.98411700013094,75.98411700013094,75.98411700013094,75.98411700013094,7,1,[0.0007780999876558781],[0.2505280999466777],75.98411700013094,76.18433550000191,4.9,76.18433550000191,0,4.9,1,0,1000,num_1,1.6056429001037031,,31,1,2026-03-12_13h19.03.512,2026A_exp2,2022.2.4,59.83960598059939,
1000,1,0.0,0.0,1,0,6,6,56,,,,,77.81925719999708,78.45346150011756,78.45346150011756,78.95439660013653,45,45,78.95439660013653,78.95439660013653,78.95439660013653,78.95439660013653,78.95439660013653,78.95439660013653,78.95439660013653,78.95439660013653,78.95439660013653,79.32064290018752,79.32064290018752,79.32064290018752,79.32064290018752,79.32064290018752,79.32064290018752,79.32064290018752,79.32064290018752,79.32064290018752,23,0,,,79.32064290018752,79.52127670007758,1000,79.52127670007758,1000,1000,1000,1000,1,num_2,1.6280354000627995,,31,1,2026-03-12_13h19.03.512,2026A_exp2,2022.2.4,59.83960598059939,
1,0,0.0,0.0,1,0,7,7,41,,,,,81.17263810010627,81.82311130012386,81.82311130012386,82.3078489000909,45,45,82.3078489000909,82.3078489000909,82.3078489000909,82.3078489000909,82.3078489000909,82.3078489000909,82.3078489000909,82.3078489000909,82.3078489000909,82.67417240003124,82.67417240003124,82.67417240003124,82.67417240003124,82.67417240003124,82.67417240003124,82.67417240003124,82.67417240003124,82.67417240003124,6,1,[0.0009527998045086861],[0.28436029981821775],82.67417240003124,82.87424620008096,0.0,82.87424620008096,1,0.0,0,0,1000,num_4,2.371011900017038,,31,1,2026-03-12_13h19.03.512,2026A_exp2,2022.2.4,59.83960598059939,
1,0,3.7,6.1,1,0,8,8,77,,,,,85.27686240011826,85.9275762999896,85.9275762999896,86.41216910001822,45,315,86.41216910001822,86.41216910001822,86.41216910001822,86.41216910001822,86.41216910001822,86.41216910001822,86.41216910001822,86.41216910001822,86.41216910001822,86.77850370015949,86.77850370015949,86.77850370015949,86.77850370015949,86.77850370015949,86.77850370015949,86.77850370015949,86.77850370015949,86.77850370015949,23,0,,,86.77850370015949,86.97854080004618,6.1,86.97854080004618,1,6.1,1,1,1000,num_4,1.1309086999390274,,31,1,2026-03-12_13h19.03.512,2026A_exp2,2022.2.4,59.83960598059939,
1000,1,6.1,0.0,0,0,9,9,59,,,,,88.12965590017848,88.78046090016142,88.78046090016142,89.26486680004746,315,315,89.26486680004746,89.26486680004746,89.26486680004746,89.26486680004746,89.26486680004746,89.26486680004746,89.26486680004746,89.26486680004746,89.26486680004746,89.63130250014365,89.63130250014365,89.63130250014365,89.63130250014365,89.63130250014365,89.63130250014365,89.63130250014365,89.63130250014365,89.63130250014365,23,0,,,89.63130250014365,89.83343430003151,1000,89.83343430003151,1000,1000,1000,1000,0,num_3,0.628844500053674,,31,1,2026-03-12_13h19.03.512,2026A_exp2,2022.2.4,59.83960598059939,
1,0,4.9,6.1,0,0,10,10,33,,,,,90.48241190006956,91.13299560011365,91.13299560011365,91.63398370007053,45,45,91.63398370007053,91.63398370007053,91.63398370007053,91.63398370007053,91.63398370007053,91.63398370007053,91.63398370007053,91.63398370007053,91.63398370007053,92.00085220020264,92.00085220020264,92.00085220020264,92.00085220020264,92.00085220020264,92.00085220020264,92.00085220020264,92.00085220020264,92.00085220020264,23,0,,,92.00085220020264,92.20053240004927,4.9,92.20053240004927,1,4.9,1,1,1000,num_4,3.3089473000727594,,31,1,2026-03-12_13h19.03.512,2026A_exp2,2022.2.4,59.83960598059939,
1000,1,3.7,4.9,1,0,11,11,20,,,,,95.53817760013044,96.18796530016698,96.18796530016698,96.68908330006525,45,45,96.68908330006525,96.68908330006525,96.68908330006525,96.68908330006525,96.68908330006525,96.68908330006525,96.68908330006525,96.68908330006525,96.68908330006525,97.05551930004731,97.05551930004731,97.05551930004731,97.05551930004731,97.05551930004731,97.05551930004731,97.05551930004731,97.05551930004731,97.05551930004731,23,0,,,97.05551930004731,97.25759400008246,1000,97.25759400008246,1000,1000,1000,1000,1,num_2,1.115718899993226,,31,1,2026-03-12_13h19.03.512,2026A_exp2,2022.2.4,59.83960598059939,
1,0,0.0,4.9,1,0,12,12,1,,,,,98.38997440016828,99.04097640002146,99.04097640002146,99.52520160004497,45,315,99.52520160004497,99.52520160004497,99.52520160004497,99.52520160004497,99.52520160004497,99.52520160004497,99.52520160004497,99.52520160004497,99.52520160004497,99.89124450017698,99.89124450017698,99.89124450017698,99.89124450017698,99.89124450017698,99.89124450017698,99.89124450017698,99.89124450017698,99.89124450017698,23,0,,,99.89124450017698,100.09184030001052,4.9,100.09184030001052,1,4.9,1,1,1000,num_4,0.8818532000295818,,31,1,2026-03-12_13h19.03.512,2026A_exp2,2022.2.4,59.83960598059939,
1,0,3.7,0.0,1,0,13,13,13,,,,,100.99252110021189,101.6434038002044,101.6434038002044,102.1442635001149,315,45,102.1442635001149,102.1442635001149,102.1442635001149,102.1442635001149,102.1442635001149,102.1442635001149,102.1442635001149,102.1442635001149,102.1442635001149,102.49466080009006,102.49466080009006,102.49466080009006,102.49466080009006,102.49466080009006,102.49466080009006,102.49466080009006,102.49466080009006,102.49466080009006,22,0,,,102.49466080009006,102.6952657001093,0.0,102.6952657001093,0,0.0,0,1,1000,num_1,1.4620929001830518,,31,1,2026-03-12_13h19.03.512,2026A_exp2,2022.2.4,59.83960598059939,
1000,1,0.0,4.9,0,0,14,14,5,,,,,104.179163900204,104.81328150001355,104.81328150001355,105.31553730019368,45,315,105.31553730019368,105.31553730019368,105.31553730019368,105.31553730019368,105.31553730019368,105.31553730019368,105.31553730019368,105.31553730019368,105.31553730019368,105.68038650020026,105.68038650020026,105.68038650020026,105.68038650020026,105.68038650020026,105.68038650020026,105.68038650020026,105.68038650020026,105.68038650020026,23,0,,,105.68038650020026,105.88075630017556,1000,105.88075630017556,1000,1000,1000,1000,1,num_2,1.1325672999955714,,31,1,2026-03-12_13h19.03.512,2026A_exp2,2022.2.4,59.83960598059939,
0,0,0.0,0.0,0,0,15,15,70,,,,,107.03188760019839,107.68281710008159,107.68281710008159,108.16700110002421,315,45,108.16700110002421,108.16700110002421,108.16700110002421,108.16700110002421,108.16700110002421,108.16700110002421,108.16700110002421,108.16700110002421,108.16700110002421,108.53351019998081,108.53351019998081,108.53351019998081,108.53351019998081,108.53351019998081,108.53351019998081,108.53351019998081,108.53351019998081,108.53351019998081,23,0,,,108.53351019998081,108.7337696000468,0.0,108.7337696000468,1,0.0,0,0,1000,num_4,2.944851499982178,,31,1,2026-03-12_13h19.03.512,2026A_exp2,2022.2.4,59.83960598059939,
0,0,6.1,6.1,0,0,16,16,42,,,,,111.70327619998716,112.35406849998981,112.35406849998981,112.8383975001052,45,315,112.8383975001052,112.8383975001052,112.8383975001052,112.8383975001052,112.8383975001052,112.8383975001052,112.8383975001052,112.8383975001052,112.8383975001052,113.20497140008956,113.20497140008956,113.20497140008956,113.20497140008956,113.20497140008956,113.20497140008956,113.20497140008956,113.20497140008956,113.20497140008956,23,0,,,113.20497140008956,113.40507400012575,6.1,113.40507400012575,1,6.1,1,1,1000,num_4,1.224324599839747,,31,1,2026-03-12_13h19.03.512,2026A_exp2,2022.2.4,59.83960598059939,
1,0,4.9,3.7,1,0,17,17,26,,,,,114.65622830018401,115.30720400018618,115.30720400018618,115.79130830010399,45,315,115.79130830010399,115.79130830010399,115.79130830010399,115.79130830010399,115.79130830010399,115.79130830010399,115.79130830010399,115.79130830010399,115.79130830010399,116.15786180016585,116.15786180016585,116.15786180016585,116.15786180016585,116.15786180016585,116.15786180016585,116.15786180016585,116.15786180016585,116.15786180016585,23,0,,,116.15786180016585,116.35810330021195,3.7,116.35810330021195,1,3.7,1,1,1000,num_4,1.528160500107333,,31,1,2026-03-12_13h19.03.512,2026A_exp2,2022.2.4,59.83960598059939,
1000,1,6.1,4.9,0,0,18,18,68,,,,,117.90948510007001,118.5602289000526,118.5602289000526,119.0447258001659,45,45,119.0447258001659,119.0447258001659,119.0447258001659,119.0447258001659,119.0447258001659,119.0447258001659,119.0447258001659,119.0447258001659,119.0447258001659,119.41123070009053,119.41123070009053,119.41123070009053,119.41123070009053,119.41123070009053,119.41123070009053,119.41123070009053,119.41123070009053,119.41123070009053,23,0,,,119.41123070009053,119.61131840012968,1000,119.61131840012968,1000,1000,1000,1000,0,num_3,0.9300955000799149,,31,1,2026-03-12_13h19.03.512,2026A_exp2,2022.2.4,59.83960598059939,
1,0,0.0,0.0,0,0,19,19,34,,,,,120.56209340016358,121.2130257000681,121.2130257000681,121.71397130005062,45,45,121.71397130005062,121.71397130005062,121.71397130005062,121.71397130005062,121.71397130005062,121.71397130005062,121.71397130005062,121.71397130005062,121.71397130005062,122.06387060019188,122.06387060019188,122.06387060019188,122.06387060019188,122.06387060019188,122.06387060019188,122.06387060019188,122.06387060019188,122.06387060019188,22,0,,,122.06387060019188,122.26392620010301,0.0,122.28059350000694,1,0.0,0,0,1000,num_4,2.1257345001213253,,31,1,2026-03-12_13h19.03.512,2026A_exp2,2022.2.4,59.83960598059939,
1000,1,3.7,0.0,1,0,20,20,54,,,,,124.43256930005737,125.07591070001945,125.07591070001945,125.56777020008303,315,315,125.56777020008303,125.56777020008303,125.56777020008303,125.56777020008303,125.56777020008303,125.56777020008303,125.56777020008303,125.56777020008303,125.56777020008303,125.934297000058,125.934297000058,125.934297000058,125.934297000058,125.934297000058,125.934297000058,125.934297000058,125.934297000058,125.934297000058,23,0,,,125.934297000058,126.13645480014384,1000,126.13645480014384,1000,1000,1000,1000,0,num_3,1.0616043999325484,,31,1,2026-03-12_13h19.03.512,2026A_exp2,2022.2.4,59.83960598059939,
1,0,6.1,3.7,0,0,21,21,31,,,,,127.21907490002923,127.86945610004477,127.86945610004477,128.35395920020528,45,45,128.35395920020528,128.35395920020528,128.35395920020528,128.35395920020528,128.35395920020528,128.35395920020528,128.35395920020528,128.35395920020528,128.35395920020528,128.7202858000528,128.7202858000528,128.7202858000528,128.7202858000528,128.7202858000528,128.7202858000528,128.7202858000528,128.7202858000528,128.7202858000528,23,0,,,128.7202858000528,128.92055080016144,6.1,128.92055080016144,1,6.1,1,1,1000,num_4,1.0214556998107582,,31,1,2026-03-12_13h19.03.512,2026A_exp2,2022.2.4,59.83960598059939,
1000,1,0.0,3.7,1,0,22,22,65,,,,,129.97150460002013,130.62223380012438,130.62223380012438,131.10675500007346,315,315,131.10675500007346,131.10675500007346,131.10675500007346,131.10675500007346,131.10675500007346,131.10675500007346,131.10675500007346,131.10675500007346,131.10675500007346,131.47319270018488,131.47319270018488,131.47319270018488,131.47319270018488,131.47319270018488,131.47319270018488,131.47319270018488,131.47319270018488,131.47319270018488,23,0,,,131.47319270018488,131.6887645001989,1000,131.6887645001989,1000,1000,1000,1000,1,num_2,1.1417474001646042,,31,1,2026-03-12_13h19.03.512,2026A_exp2,2022.2.4,59.83960598059939,
1000,1,0.0,0.0,1,0,23,23,40,,,,,132.85786650003865,133.50856730015948,133.50856730015948,134.00967960013077,45,315,134.00967960013077,134.00967960013077,134.00967960013077,134.00967960013077,134.00967960013077,134.00967960013077,134.00967960013077,134.00967960013077,134.00967960013077,134.35933470004238,134.35933470004238,134.35933470004238,134.35933470004238,134.35933470004238,134.35933470004238,134.35933470004238,134.35933470004238,134.35933470004238,22,0,,,134.35933470004238,134.56127930013463,1000,134.57644340000115,1000,1000,1000,1000,1,num_2,1.0781260998919606,,31,1,2026-03-12_13h19.03.512,2026A_exp2,2022.2.4,59.83960598059939,
1000,1,0.0,6.1,1,0,24,24,52,,,,,135.67732980009168,136.32803279999644,136.32803279999644,136.82921840017661,45,315,136.82921840017661,136.82921840017661,136.82921840017661,136.82921840017661,136.82921840017661,136.82921840017661,136.82921840017661,136.82921840017661,136.82921840017661,137.1955501001794,137.1955501001794,137.1955501001794,137.1955501001794,137.1955501001794,137.1955501001794,137.1955501001794,137.1955501001794,137.1955501001794,23,0,,,137.1955501001794,137.3977115000598,1000,137.3977115000598,1000,1000,1000,1000,1,num_2,0.9128407000098377,,31,1,2026-03-12_13h19.03.512,2026A_exp2,2022.2.4,59.83960598059939,
1000,1,3.7,4.9,0,0,25,25,64,,,,,138.329902500147,138.98065000004135,138.98065000004135,139.48182510002516,45,45,139.48182510002516,139.48182510002516,139.48182510002516,139.48182510002516,139.48182510002516,139.48182510002516,139.48182510002516,139.48182510002516,139.48182510002516,139.8317146000918,139.8317146000918,139.8317146000918,139.8317146000918,139.8317146000918,139.8317146000918,139.8317146000918,139.8317146000918,139.8317146000918,22,0,,,139.8317146000918,140.03597630001605,1000,140.03597630001605,1000,1000,1000,1000,1,num_2,1.5780148999765515,,31,1,2026-03-12_13h19.03.512,2026A_exp2,2022.2.4,59.83960598059939,
1,0,3.7,0.0,1,0,26,26,28,,,,,141.63324220012873,142.2840052000247,142.2840052000247,142.7851488001179,45,315,142.7851488001179,142.7851488001179,142.7851488001179,142.7851488001179,142.7851488001179,142.7851488001179,142.7851488001179,142.7851488001179,142.7851488001179,143.13482110016048,143.13482110016048,143.13482110016048,143.13482110016048,143.13482110016048,143.13482110016048,143.13482110016048,143.13482110016048,143.13482110016048,22,0,,,143.13482110016048,143.33510740008205,0.0,143.33510740008205,1,0.0,0,0,1000,num_4,1.511446899967268,,31,1,2026-03-12_13h19.03.512,2026A_exp2,2022.2.4,59.83960598059939,
1,0,0.0,0.0,0,0,27,27,17,,,,,144.86979640019126,145.52043720008805,145.52043720008805,146.00501810014248,315,315,146.00501810014248,146.00501810014248,146.00501810014248,146.00501810014248,146.00501810014248,146.00501810014248,146.00501810014248,146.00501810014248,146.00501810014248,146.371276400052,146.371276400052,146.371276400052,146.371276400052,146.371276400052,146.371276400052,146.371276400052,146.371276400052,146.371276400052,23,0,,,146.371276400052,146.57158600003459,0.0,146.57158600003459,0,0.0,0,1,1000,num_1,1.6020338998641819,,31,1,2026-03-12_13h19.03.512,2026A_exp2,2022.2.4,59.83960598059939,
1000,1,0.0,0.0,0,0,28,28,37,,,,,148.18999650003389,148.82389420014806,148.82389420014806,149.32484300015494,45,315,149.32484300015494,149.32484300015494,149.32484300015494,149.32484300015494,149.32484300015494,149.32484300015494,149.32484300015494,149.32484300015494,149.32484300015494,149.69141780002974,149.69141780002974,149.69141780002974,149.69141780002974,149.69141780002974,149.69141780002974,149.69141780002974,149.69141780002974,149.69141780002974,23,0,,,149.69141780002974,149.89380339998752,1000,149.89380339998752,1000,1000,1000,1000,0,num_3,1.9036619001999497,,31,1,2026-03-12_13h19.03.512,2026A_exp2,2022.2.4,59.83960598059939,
1,0,6.1,6.1,0,0,29,29,27,,,,,151.8267841001507,152.48594490019605,152.48594490019605,152.97870980016887,45,45,152.97870980016887,152.97870980016887,152.97870980016887,152.97870980016887,152.97870980016887,152.97870980016887,152.97870980016887,152.97870980016887,152.97870980016887,153.34503219998442,153.34503219998442,153.34503219998442,153.34503219998442,153.34503219998442,153.34503219998442,153.34503219998442,153.34503219998442,153.34503219998442,23,0,,,153.34503219998442,153.54511890001595,6.1,153.54511890001595,1,6.1,1,1,1000,num_4,1.3968101998325437,,31,1,2026-03-12_13h19.03.512,2026A_exp2,2022.2.4,59.83960598059939,
1000,1,6.1,3.7,0,0,30,30,18,,,,,154.96294870018028,155.59718510019593,155.59718510019593,156.0984596000053,315,315,156.0984596000053,156.0984596000053,156.0984596000053,156.0984596000053,156.0984596000053,156.0984596000053,156.0984596000053,156.0984596000053,156.0984596000053,156.46490580006503,156.46490580006503,156.46490580006503,156.46490580006503,156.46490580006503,156.46490580006503,156.46490580006503,156.46490580006503,156.46490580006503,23,0,,,156.46490580006503,156.66735980007797,1000,156.66735980007797,1000,1000,1000,1000,0,num_3,1.5384670998901129,,31,1,2026-03-12_13h19.03.512,2026A_exp2,2022.2.4,59.83960598059939,
1,0,0.0,0.0,0,0,31,31,51,,,,,158.23309760005213,158.88393440004438,158.88393440004438,159.384961000178,45,45,159.384961000178,159.384961000178,159.384961000178,159.384961000178,159.384961000178,159.384961000178,159.384961000178,159.384961000178,159.384961000178,159.7512693000026,159.7512693000026,159.7512693000026,159.7512693000026,159.7512693000026,159.7512693000026,159.7512693000026,159.7512693000026,159.7512693000026,23,0,,,159.7512693000026,159.95168260019273,0.0,159.95168260019273,0,0.0,0,1,1000,num_1,1.0629008000250906,,31,1,2026-03-12_13h19.03.512,2026A_exp2,2022.2.4,59.83960598059939,
1000,1,0.0,4.9,1,0,32,32,78,,,,,161.03609070018865,161.68680880009197,161.68680880009197,162.17110630008392,315,315,162.17110630008392,162.17110630008392,162.17110630008392,162.17110630008392,162.17110630008392,162.17110630008392,162.17110630008392,162.17110630008392,162.17110630008392,162.53754580020905,162.53754580020905,162.53754580020905,162.53754580020905,162.53754580020905,162.53754580020905,162.53754580020905,162.53754580020905,162.53754580020905,23,0,,,162.53754580020905,162.73950280016288,1000,162.73950280016288,1000,1000,1000,1000,1,num_2,1.0104563999921083,,31,1,2026-03-12_13h19.03.512,2026A_exp2,2022.2.4,59.83960598059939,
1,0,0.0,6.1,0,0,33,33,43,,,,,163.77204570011236,164.42274780012667,164.42274780012667,164.92407720000483,315,45,164.92407720000483,164.92407720000483,164.92407720000483,164.92407720000483,164.92407720000483,164.92407720000483,164.92407720000483,164.92407720000483,164.92407720000483,165.27377820014954,165.27377820014954,165.27377820014954,165.27377820014954,165.27377820014954,165.27377820014954,165.27377820014954,165.27377820014954,165.27377820014954,22,0,,,165.27377820014954,165.47639520000666,0.0,165.47639520000666,0,0.0,0,1,1000,num_1,1.1293247998692095,,31,1,2026-03-12_13h19.03.512,2026A_exp2,2022.2.4,59.83960598059939,
1000,1,0.0,4.9,1,0,34,34,55,,,,,166.62485480005853,167.2755850001704,167.2755850001704,167.76014620019123,45,315,167.76014620019123,167.76014620019123,167.76014620019123,167.76014620019123,167.76014620019123,167.76014620019123,167.76014620019123,167.76014620019123,167.76014620019123,168.12655590008944,168.12655590008944,168.12655590008944,168.12655590008944,168.12655590008944,168.12655590008944,168.12655590008944,168.12655590008944,168.12655590008944,23,0,,,168.12655590008944,168.32872830005363,1000,168.32872830005363,1000,1000,1000,1000,1,num_2,0.773248199839145,,31,1,2026-03-12_13h19.03.512,2026A_exp2,2022.2.4,59.83960598059939,
1000,1,0.0,6.1,1,0,35,35,62,,,,,169.1279319000896,169.77826930000447,169.77826930000447,170.27924230019562,45,45,170.27924230019562,170.27924230019562,170.27924230019562,170.27924230019562,170.27924230019562,170.27924230019562,170.27924230019562,170.27924230019562,170.27924230019562,170.64529980020598,170.64529980020598,170.64529980020598,170.64529980020598,170.64529980020598,170.64529980020598,170.64529980020598,170.64529980020598,170.64529980020598,23,0,,,170.64529980020598,170.8479171001818,1000,170.8479171001818,1000,1000,1000,1000,1,num_2,0.6059320999775082,,31,1,2026-03-12_13h19.03.512,2026A_exp2,2022.2.4,59.83960598059939,
1,0,4.9,4.9,0,0,36,36,84,,,,,171.47973820008337,172.13051869999617,172.13051869999617,172.63163270009682,315,315,172.63163270009682,172.63163270009682,172.63163270009682,172.63163270009682,172.63163270009682,172.63163270009682,172.63163270009682,172.63163270009682,172.63163270009682,172.98141210014,172.98141210014,172.98141210014,172.98141210014,172.98141210014,172.98141210014,172.98141210014,172.98141210014,172.98141210014,22,0,,,172.98141210014,173.18155540013686,4.9,173.18155540013686,1,4.9,1,1,1000,num_4,1.512811299879104,,31,1,2026-03-12_13h19.03.512,2026A_exp2,2022.2.4,59.83960598059939,
1000,1,0.0,0.0,1,0,37,37,46,,,,,174.71624179999344,175.36713340017013,175.36713340017013,175.85139700002037,45,315,175.85139700002037,175.85139700002037,175.85139700002037,175.85139700002037,175.85139700002037,175.85139700002037,175.85139700002037,175.85139700002037,175.85139700002037,176.2179361002054,176.2179361002054,176.2179361002054,176.2179361002054,176.2179361002054,176.2179361002054,176.2179361002054,176.2179361002054,176.2179361002054,23,0,,,176.2179361002054,176.42005940014496,1000,176.42005940014496,1000,1000,1000,1000,1,num_2,1.9222923000343144,,31,1,2026-03-12_13h19.03.512,2026A_exp2,2022.2.4,59.83960598059939,
1,0,4.9,0.0,0,0,38,38,4,,,,,178.37003800016828,179.0208024000749,179.0208024000749,179.52170490007848,315,45,179.52170490007848,179.52170490007848,179.52170490007848,179.52170490007848,179.52170490007848,179.52170490007848,179.52170490007848,179.52170490007848,179.52170490007848,179.88822289998643,179.88822289998643,179.88822289998643,179.88822289998643,179.88822289998643,179.88822289998643,179.88822289998643,179.88822289998643,179.88822289998643,23,0,,,179.88822289998643,180.08848810009658,4.9,180.08848810009658,1,4.9,1,1,1000,num_4,1.1102639001328498,,31,1,2026-03-12_13h19.03.512,2026A_exp2,2022.2.4,59.83960598059939,
1,0,4.9,3.7,0,0,39,39,9,,,,,181.2227311001625,181.8736082999967,181.8736082999967,182.3578876000829,315,315,182.3578876000829,182.3578876000829,182.3578876000829,182.3578876000829,182.3578876000829,182.3578876000829,182.3578876000829,182.3578876000829,182.3578876000829,182.72433460014872,182.72433460014872,182.72433460014872,182.72433460014872,182.72433460014872,182.72433460014872,182.72433460014872,182.72433460014872,182.72433460014872,23,0,,,182.72433460014872,182.92467610002495,4.9,182.92467610002495,1,4.9,1,1,1000,num_4,1.4493582998402417,,31,1,2026-03-12_13h19.03.512,2026A_exp2,2022.2.4,59.83960598059939,
1000,1,0.0,0.0,1,0,40,40,60,,,,,184.3928599001374,185.03237070003524,185.03237070003524,185.52768080006354,315,315,185.52768080006354,185.52768080006354,185.52768080006354,185.52768080006354,185.52768080006354,185.52768080006354,185.52768080006354,185.52768080006354,185.52768080006354,185.8943313001655,185.8943313001655,185.8943313001655,185.8943313001655,185.8943313001655,185.8943313001655,185.8943313001655,185.8943313001655,185.8943313001655,23,0,,,185.8943313001655,186.09600850008428,1000,186.09600850008428,1000,1000,1000,1000,1,num_2,0.8614584000315517,,31,1,2026-03-12_13h19.03.512,2026A_exp2,2022.2.4,59.83960598059939,
1000,1,0.0,0.0,0,0,41,41,87,,,,,186.9785666000098,187.62934090010822,187.62934090010822,188.1304972001817,315,315,188.1304972001817,188.1304972001817,188.1304972001817,188.1304972001817,188.1304972001817,188.1304972001817,188.1304972001817,188.1304972001817,188.1304972001817,188.48025720007718,188.48025720007718,188.48025720007718,188.48025720007718,188.48025720007718,188.48025720007718,188.48025720007718,188.48025720007718,188.48025720007718,22,0,,,188.48025720007718,188.68229690007865,1000,188.68229690007865,1000,1000,1000,1000,0,num_3,1.0517692998982966,,31,1,2026-03-12_13h19.03.512,2026A_exp2,2022.2.4,59.83960598059939,
1000,1,0.0,0.0,0,0,42,42,72,,,,,189.76493290020153,190.41546760010533,190.41546760010533,190.89981280011125,45,315,190.89981280011125,190.89981280011125,190.89981280011125,190.89981280011125,190.89981280011125,190.89981280011125,190.89981280011125,190.89981280011125,190.89981280011125,191.26625360012986,191.26625360012986,191.26625360012986,191.26625360012986,191.26625360012986,191.26625360012986,191.26625360012986,191.26625360012986,191.26625360012986,23,0,,,191.26625360012986,191.46668780012988,1000,191.46668780012988,1000,1000,1000,1000,0,num_3,1.3792491999920458,,31,1,2026-03-12_13h19.03.512,2026A_exp2,2022.2.4,59.83960598059939,
1000,1,3.7,6.1,1,0,43,43,29,,,,,192.8680357001722,193.51844470016658,193.51844470016658,194.0030284000095,315,45,194.0030284000095,194.0030284000095,194.0030284000095,194.0030284000095,194.0030284000095,194.0030284000095,194.0030284000095,194.0030284000095,194.0030284000095,194.36939460015856,194.36939460015856,194.36939460015856,194.36939460015856,194.36939460015856,194.36939460015856,194.36939460015856,194.36939460015856,194.36939460015856,23,0,,,194.36939460015856,194.5695027001202,1000,194.5695027001202,1000,1000,1000,1000,1,num_2,0.7244907999411225,,31,1,2026-03-12_13h19.03.512,2026A_exp2,2022.2.4,59.83960598059939,
1000,1,0.0,6.1,1,0,44,44,69,,,,,195.32027720008045,195.9709691000171,195.9709691000171,196.47216270002536,45,315,196.47216270002536,196.47216270002536,196.47216270002536,196.47216270002536,196.47216270002536,196.47216270002536,196.47216270002536,196.47216270002536,196.47216270002536,196.82170470012352,196.82170470012352,196.82170470012352,196.82170470012352,196.82170470012352,196.82170470012352,196.82170470012352,196.82170470012352,196.82170470012352,22,0,,,196.82170470012352,197.02408380014822,1000,197.02408380014822,1000,1000,1000,1000,1,num_2,0.6057862001471221,,31,1,2026-03-12_13h19.03.512,2026A_exp2,2022.2.4,59.83960598059939,
1000,1,0.0,0.0,0,0,45,45,36,,,,,197.65607680007815,198.30671350006014,198.30671350006014,198.7911036000587,315,315,198.7911036000587,198.7911036000587,198.7911036000587,198.7911036000587,198.7911036000587,198.7911036000587,198.7911036000587,198.7911036000587,198.7911036000587,199.1575641001109,199.1575641001109,199.1575641001109,199.1575641001109,199.1575641001109,199.1575641001109,199.1575641001109,199.1575641001109,199.1575641001109,23,0,,,199.1575641001109,199.35951830004342,1000,199.35951830004342,1000,1000,1000,1000,0,num_3,1.4068266998510808,,31,1,2026-03-12_13h19.03.512,2026A_exp2,2022.2.4,59.83960598059939,
1,0,4.9,0.0,1,0,46,46,25,,,,,200.79239550000057,201.44302320014685,201.44302320014685,201.9442818001844,45,45,201.9442818001844,201.9442818001844,201.9442818001844,201.9442818001844,201.9442818001844,201.9442818001844,201.9442818001844,201.9442818001844,201.9442818001844,202.3106641001068,202.3106641001068,202.3106641001068,202.3106641001068,202.3106641001068,202.3106641001068,202.3106641001068,202.3106641001068,202.3106641001068,8,1,[0.1336445000488311],[0.36712540010921657],202.3106641001068,202.51075170002878,0.0,202.51075170002878,0,0.0,0,1,1000,num_1,1.0950031001120806,,31,1,2026-03-12_13h19.03.512,2026A_exp2,2022.2.4,59.83960598059939,
0,0,0.0,0.0,0,0,47,47,22,,,,,203.62846160004847,204.2793792001903,204.2793792001903,204.763828500174,45,315,204.763828500174,204.763828500174,204.763828500174,204.763828500174,204.763828500174,204.763828500174,204.763828500174,204.763828500174,204.763828500174,205.13021800015122,205.13021800015122,205.13021800015122,205.13021800015122,205.13021800015122,205.13021800015122,205.13021800015122,205.13021800015122,205.13021800015122,23,0,,,205.13021800015122,205.33029230008833,0.0,205.33029230008833,1,0.0,0,0,1000,num_4,1.6914198000449687,,31,1,2026-03-12_13h19.03.512,2026A_exp2,2022.2.4,59.83960598059939,
1,0,6.1,4.9,0,0,48,48,81,,,,,207.05035430006683,207.69928120006807,207.69928120006807,208.2164412001148,45,45,208.2164412001148,208.2164412001148,208.2164412001148,208.2164412001148,208.2164412001148,208.2164412001148,208.2164412001148,208.2164412001148,208.2164412001148,208.56693920004182,208.56693920004182,208.56693920004182,208.56693920004182,208.56693920004182,208.56693920004182,208.56693920004182,208.56693920004182,208.56693920004182,23,0,,,208.56693920004182,208.76721790013835,6.1,208.76721790013835,1,6.1,1,1,1000,num_4,1.3753551000263542,,31,1,2026-03-12_13h19.03.512,2026A_exp2,2022.2.4,59.83960598059939,
1000,1,0.0,6.1,0,0,49,49,85,,,,,210.16863210010342,210.80253680003807,210.80253680003807,211.30349440011196,45,315,211.30349440011196,211.30349440011196,211.30349440011196,211.30349440011196,211.30349440011196,211.30349440011196,211.30349440011196,211.30349440011196,211.30349440011196,211.6699171999935,211.6699171999935,211.6699171999935,211.6699171999935,211.6699171999935,211.6699171999935,211.6699171999935,211.6699171999935,211.6699171999935,23,0,,,211.6699171999935,211.8722117000725,1000,211.8722117000725,1000,1000,1000,1000,1,num_2,0.9972333998885006,,31,1,2026-03-12_13h19.03.512,2026A_exp2,2022.2.4,59.83960598059939,
1000,1,3.7,0.0,1,0,50,50,88,,,,,212.88776980014518,213.53854940016754,213.53854940016754,214.03972530015744,315,315,214.03972530015744,214.03972530015744,214.03972530015744,214.03972530015744,214.03972530015744,214.03972530015744,214.03972530015744,214.03972530015744,214.03972530015744,214.40607070014812,214.40607070014812,214.40607070014812,214.40607070014812,214.40607070014812,214.40607070014812,214.40607070014812,214.40607070014812,214.40607070014812,23,0,,,214.40607070014812,214.6061123001855,1000,214.6061123001855,1000,1000,1000,1000,0,num_3,0.9440675000660121,,31,1,2026-03-12_13h19.03.512,2026A_exp2,2022.2.4,59.83960598059939,
1,0,4.9,3.7,1,0,51,51,10,,,,,215.5763093000278,216.22611839999445,216.22611839999445,216.72578490013257,45,45,216.72578490013257,216.72578490013257,216.72578490013257,216.72578490013257,216.72578490013257,216.72578490013257,216.72578490013257,216.72578490013257,216.72578490013257,217.09199260012247,217.09199260012247,217.09199260012247,217.09199260012247,217.09199260012247,217.09199260012247,217.09199260012247,217.09199260012247,217.09199260012247,23,0,,,217.09199260012247,217.2922842002008,3.7,217.2922842002008,1,3.7,1,1,1000,num_4,1.3298792000859976,,31,1,2026-03-12_13h19.03.512,2026A_exp2,2022.2.4,59.83960598059939,
1,0,0.0,0.0,1,0,52,52,24,,,,,218.6435789000243,219.29431720008142,219.29431720008142,219.77863680012524,315,45,219.77863680012524,219.77863680012524,219.77863680012524,219.77863680012524,219.77863680012524,219.77863680012524,219.77863680012524,219.77863680012524,219.77863680012524,220.14519509999081,220.14519509999081,220.14519509999081,220.14519509999081,220.14519509999081,220.14519509999081,220.14519509999081,220.14519509999081,220.14519509999081,0,1,[0.0012026999611407518],[0.3671559998765588],220.14519509999081,220.34531290014274,0.0,220.34531290014274,0,0.0,0,1,1000,num_1,0.8930669999681413,,31,1,2026-03-12_13h19.03.512,2026A_exp2,2022.2.4,59.83960598059939,
1000,1,0.0,0.0,1,0,53,53,23,,,,,221.26299970014952,221.91359740006737,221.91359740006737,222.39793560002,45,45,222.39793560002,222.39793560002,222.39793560002,222.39793560002,222.39793560002,222.39793560002,222.39793560002,222.39793560002,222.39793560002,222.76439860020764,222.76439860020764,222.76439860020764,222.76439860020764,222.76439860020764,222.76439860020764,222.76439860020764,222.76439860020764,222.76439860020764,23,0,,,222.76439860020764,222.96662910003215,1000,222.96662910003215,1000,1000,1000,1000,1,num_2,1.023623799905181,,31,1,2026-03-12_13h19.03.512,2026A_exp2,2022.2.4,59.83960598059939,
1,0,3.7,0.0,1,0,54,54,11,,,,,224.01557909999974,224.66760829999112,224.66760829999112,225.18102300004102,45,315,225.18102300004102,225.18102300004102,225.18102300004102,225.18102300004102,225.18102300004102,225.18102300004102,225.18102300004102,225.18102300004102,225.18102300004102,225.5338402001653,225.5338402001653,225.5338402001653,225.5338402001653,225.5338402001653,225.5338402001653,225.5338402001653,225.5338402001653,225.5338402001653,23,0,,,225.5338402001653,225.74110930017196,0.0,225.74110930017196,1,0.0,0,0,1000,num_4,1.4176632999442518,,31,1,2026-03-12_13h19.03.512,2026A_exp2,2022.2.4,59.83960598059939,
1000,1,0.0,0.0,1,0,55,55,16,,,,,227.18558010016568,227.81946360017173,227.81946360017173,228.32047160016373,315,315,228.32047160016373,228.32047160016373,228.32047160016373,228.32047160016373,228.32047160016373,228.32047160016373,228.32047160016373,228.32047160016373,228.32047160016373,228.68706610007212,228.68706610007212,228.68706610007212,228.68706610007212,228.68706610007212,228.68706610007212,228.68706610007212,228.68706610007212,228.68706610007212,23,0,,,228.68706610007212,228.89855170017108,1000,228.89855170017108,1000,1000,1000,1000,1,num_2,3.0917837999295443,,31,1,2026-03-12_13h19.03.512,2026A_exp2,2022.2.4,59.83960598059939,
1000,1,0.0,6.1,1,0,56,56,19,,,,,232.00696939998306,232.65771370008588,232.65771370008588,233.1588709000498,315,45,233.1588709000498,233.1588709000498,233.1588709000498,233.1588709000498,233.1588709000498,233.1588709000498,233.1588709000498,233.1588709000498,233.1588709000498,233.52521230001003,233.52521230001003,233.52521230001003,233.52521230001003,233.52521230001003,233.52521230001003,233.52521230001003,233.52521230001003,233.52521230001003,23,0,,,233.52521230001003,233.7256916000042,1000,233.7256916000042,1000,1000,1000,1000,1,num_2,0.6879109002184123,,31,1,2026-03-12_13h19.03.512,2026A_exp2,2022.2.4,59.83960598059939,
0,0,6.1,0.0,1,0,57,57,30,,,,,234.44392200000584,235.09343220014125,235.09343220014125,235.594832100207,315,315,235.594832100207,235.594832100207,235.594832100207,235.594832100207,235.594832100207,235.594832100207,235.594832100207,235.594832100207,235.594832100207,235.94435950019397,235.94435950019397,235.94435950019397,235.94435950019397,235.94435950019397,235.94435950019397,235.94435950019397,235.94435950019397,235.94435950019397,22,0,,,235.94435950019397,236.14443980017677,6.1,236.14443980017677,1,6.1,1,1,1000,num_4,1.3890950998757035,,31,1,2026-03-12_13h19.03.512,2026A_exp2,2022.2.4,59.83960598059939,
1,0,3.7,4.9,0,0,58,58,76,,,,,237.56274890014902,238.21333160018548,238.21333160018548,238.69751149998046,315,315,238.69751149998046,238.69751149998046,238.69751149998046,238.69751149998046,238.69751149998046,238.69751149998046,238.69751149998046,238.69751149998046,238.69751149998046,239.064098500181,239.064098500181,239.064098500181,239.064098500181,239.064098500181,239.064098500181,239.064098500181,239.064098500181,239.064098500181,23,0,,,239.064098500181,239.26425010012463,3.7,239.26425010012463,0,3.7,1,0,1000,num_1,2.8055757998954505,,31,1,2026-03-12_13h19.03.512,2026A_exp2,2022.2.4,59.83960598059939,
1000,1,0.0,0.0,0,0,59,59,45,,,,,242.10030060005374,242.75102650001645,242.75102650001645,243.2355861000251,315,45,243.2355861000251,243.2355861000251,243.2355861000251,243.2355861000251,243.2355861000251,243.2355861000251,243.2355861000251,243.2355861000251,243.2355861000251,243.60181000013836,243.60181000013836,243.60181000013836,243.60181000013836,243.60181000013836,243.60181000013836,243.60181000013836,243.60181000013836,243.60181000013836,23,0,,,243.60181000013836,243.80824870010838,1000,243.80824870010838,1000,1000,1000,1000,1,num_2,1.0380981999915093,,31,1,2026-03-12_13h19.03.512,2026A_exp2,2022.2.4,59.83960598059939,
1,0,0.0,3.7,1,0,60,60,0,,,,,244.86981890001334,245.52058290014975,245.52058290014975,246.00489840004593,315,45,246.00489840004593,246.00489840004593,246.00489840004593,246.00489840004593,246.00489840004593,246.00489840004593,246.00489840004593,246.00489840004593,246.00489840004593,246.37146190018393,246.37146190018393,246.37146190018393,246.37146190018393,246.37146190018393,246.37146190018393,246.37146190018393,246.37146190018393,246.37146190018393,23,0,,,246.37146190018393,246.57147710002027,3.7,246.57147710002027,1,3.7,1,1,1000,num_4,0.9304896998219192,,31,1,2026-03-12_13h19.03.512,2026A_exp2,2022.2.4,59.83960598059939,
1,0,4.9,4.9,0,0,61,61,39,,,,,247.5225439001806,248.1565929001663,248.1565929001663,248.65754889999516,45,315,248.65754889999516,248.65754889999516,248.65754889999516,248.65754889999516,248.65754889999516,248.65754889999516,248.65754889999516,248.65754889999516,248.65754889999516,249.02407440007664,249.02407440007664,249.02407440007664,249.02407440007664,249.02407440007664,249.02407440007664,249.02407440007664,249.02407440007664,249.02407440007664,23,0,,,249.02407440007664,249.22423609998077,4.9,249.22423609998077,1,4.9,1,1,1000,num_4,1.1572536998428404,,31,1,2026-03-12_13h19.03.512,2026A_exp2,2022.2.4,59.83960598059939,
1000,1,0.0,6.1,0,0,62,62,75,,,,,250.40867610019632,251.05941660003737,251.05941660003737,251.54378639999777,45,45,251.54378639999777,251.54378639999777,251.54378639999777,251.54378639999777,251.54378639999777,251.54378639999777,251.54378639999777,251.54378639999777,251.54378639999777,251.91030069999397,251.91030069999397,251.91030069999397,251.91030069999397,251.91030069999397,251.91030069999397,251.91030069999397,251.91030069999397,251.91030069999397,23,0,,,251.91030069999397,252.1121152001433,1000,252.1121152001433,1000,1000,1000,1000,1,num_2,0.6373684999998659,,31,1,2026-03-12_13h19.03.512,2026A_exp2,2022.2.4,59.83960598059939,
1000,1,3.7,4.9,0,0,63,63,80,,,,,252.7777818001341,253.428539799992,253.428539799992,253.92942850012332,315,315,253.92942850012332,253.92942850012332,253.92942850012332,253.92942850012332,253.92942850012332,253.92942850012332,253.92942850012332,253.92942850012332,253.92942850012332,254.29598590009846,254.29598590009846,254.29598590009846,254.29598590009846,254.29598590009846,254.29598590009846,254.29598590009846,254.29598590009846,254.29598590009846,23,0,,,254.29598590009846,254.49846839997917,1000,254.49846839997917,1000,1000,1000,1000,1,num_2,0.5148060999345034,,31,1,2026-03-12_13h19.03.512,2026A_exp2,2022.2.4,59.83960598059939,
1,0,0.0,0.0,1,0,64,64,21,,,,,255.03003830020316,255.68554900004528,255.68554900004528,256.1818931000307,315,45,256.1818931000307,256.1818931000307,256.1818931000307,256.1818931000307,256.1818931000307,256.1818931000307,256.1818931000307,256.1818931000307,256.1818931000307,256.5483645000495,256.5483645000495,256.5483645000495,256.5483645000495,256.5483645000495,256.5483645000495,256.5483645000495,256.5483645000495,256.5483645000495,23,0,,,256.5483645000495,256.74856340000406,0.0,256.74856340000406,1,0.0,0,0,1000,num_4,0.9452998000197113,,31,1,2026-03-12_13h19.03.512,2026A_exp2,2022.2.4,59.83960598059939,
1000,1,0.0,6.1,0,0,65,65,35,,,,,257.71586610004306,258.3602736000903,258.3602736000903,258.85105480020866,45,315,258.85105480020866,258.85105480020866,258.85105480020866,258.85105480020866,258.85105480020866,258.85105480020866,258.85105480020866,258.85105480020866,258.85105480020866,259.2175871001091,259.2175871001091,259.2175871001091,259.2175871001091,259.2175871001091,259.2175871001091,259.2175871001091,259.2175871001091,259.2175871001091,23,0,,,259.2175871001091,259.41952300001867,1000,259.41952300001867,1000,1000,1000,1000,1,num_2,0.6177813999820501,,31,1,2026-03-12_13h19.03.512,2026A_exp2,2022.2.4,59.83960598059939,
1,0,0.0,0.0,0,0,66,66,44,,,,,260.0683372002095,260.7191133000888,260.7191133000888,261.20350990002044,315,45,261.20350990002044,261.20350990002044,261.20350990002044,261.20350990002044,261.20350990002044,261.20350990002044,261.20350990002044,261.20350990002044,261.20350990002044,261.56979570002295,261.56979570002295,261.56979570002295,261.56979570002295,261.56979570002295,261.56979570002295,261.56979570002295,261.56979570002295,261.56979570002295,23,0,,,261.56979570002295,261.7701282000635,0.0,261.7701282000635,0,0.0,0,1,1000,num_1,1.163535499945283,,31,1,2026-03-12_13h19.03.512,2026A_exp2,2022.2.4,59.83960598059939,
0,0,3.7,6.1,0,0,67,67,73,,,,,262.95447290013544,263.60535070020705,263.60535070020705,264.08975100005046,315,45,264.08975100005046,264.08975100005046,264.08975100005046,264.08975100005046,264.08975100005046,264.08975100005046,264.08975100005046,264.08975100005046,264.08975100005046,264.45615220000036,264.45615220000036,264.45615220000036,264.45615220000036,264.45615220000036,264.45615220000036,264.45615220000036,264.45615220000036,264.45615220000036,23,0,,,264.45615220000036,264.6563517001923,6.1,264.6563517001923,1,6.1,1,1,1000,num_4,1.4058004000689834,,31,1,2026-03-12_13h19.03.512,2026A_exp2,2022.2.4,59.83960598059939,
1,0,4.9,3.7,0,0,68,68,63,,,,,266.0911181999836,266.7417079000734,266.7417079000734,267.2262829001993,315,45,267.2262829001993,267.2262829001993,267.2262829001993,267.2262829001993,267.2262829001993,267.2262829001993,267.2262829001993,267.2262829001993,267.2262829001993,267.59263440012,267.59263440012,267.59263440012,267.59263440012,267.59263440012,267.59263440012,267.59263440012,267.59263440012,267.59263440012,23,0,,,267.59263440012,267.7929020000156,4.9,267.7929020000156,1,4.9,1,1,1000,num_4,1.261832999996841,,31,1,2026-03-12_13h19.03.512,2026A_exp2,2022.2.4,59.83960598059939,
1000,1,3.7,0.0,0,0,69,69,32,,,,,269.0773409001995,269.7281178000849,269.7281178000849,270.2132129999809,45,315,270.2132129999809,270.2132129999809,270.2132129999809,270.2132129999809,270.2132129999809,270.2132129999809,270.2132129999809,270.2132129999809,270.2132129999809,270.579060100019,270.579060100019,270.579060100019,270.579060100019,270.579060100019,270.579060100019,270.579060100019,270.579060100019,270.579060100019,23,0,,,270.579060100019,270.7811800001655,1000,270.7811800001655,1000,1000,1000,1000,0,num_3,0.777348899981007,,31,1,2026-03-12_13h19.03.512,2026A_exp2,2022.2.4,59.83960598059939,
1000,1,0.0,4.9,0,0,70,70,53,,,,,271.57985840016045,272.2309932000935,272.2309932000935,272.7317437999882,45,45,272.7317437999882,272.7317437999882,272.7317437999882,272.7317437999882,272.7317437999882,272.7317437999882,272.7317437999882,272.7317437999882,272.7317437999882,273.0816103001125,273.0816103001125,273.0816103001125,273.0816103001125,273.0816103001125,273.0816103001125,273.0816103001125,273.0816103001125,273.0816103001125,22,0,,,273.0816103001125,273.2833589001093,1000,273.2983783001546,1000,1000,1000,1000,1,num_2,0.5072294001001865,,31,1,2026-03-12_13h19.03.512,2026A_exp2,2022.2.4,59.83960598059939,
1,0,0.0,3.7,0,0,71,71,61,,,,,273.8320832999889,274.48284630011767,274.48284630011767,274.9972889001947,315,45,274.9972889001947,274.9972889001947,274.9972889001947,274.9972889001947,274.9972889001947,274.9972889001947,274.9972889001947,274.9972889001947,274.9972889001947,275.3502653001342,275.3502653001342,275.3502653001342,275.3502653001342,275.3502653001342,275.3502653001342,275.3502653001342,275.3502653001342,275.3502653001342,23,0,,,275.3502653001342,275.5505131999962,0.0,275.5505131999962,1,0.0,0,0,1000,num_4,1.0792435000184923,,31,1,2026-03-12_13h19.03.512,2026A_exp2,2022.2.4,59.83960598059939,
1,0,3.7,0.0,1,0,72,72,12,,,,,276.6518623000011,277.2856901001651,277.2856901001651,277.7867839001119,45,45,277.7867839001119,277.7867839001119,277.7867839001119,277.7867839001119,277.7867839001119,277.7867839001119,277.7867839001119,277.7867839001119,277.7867839001119,278.1531402000692,278.1531402000692,278.1531402000692,278.1531402000692,278.1531402000692,278.1531402000692,278.1531402000692,278.1531402000692,278.1531402000692,18,2,"[0.0012042999733239412, 0.033589799888432026]","[0.017469999846071005, 0.10030080005526543]",278.1531402000692,278.35331990011036,0.0,278.35331990011036,0,0.0,0,1,1000,num_1,0.9004353999625891,,31,1,2026-03-12_13h19.03.512,2026A_exp2,2022.2.4,59.83960598059939,
1000,1,0.0,0.0,0,0,73,73,6,,,,,279.27094840002246,279.9050090999808,279.9050090999808,280.40609900001436,45,45,280.40609900001436,280.40609900001436,280.40609900001436,280.40609900001436,280.40609900001436,280.40609900001436,280.40609900001436,280.40609900001436,280.40609900001436,280.7722008000128,280.7722008000128,280.7722008000128,280.7722008000128,280.7722008000128,280.7722008000128,280.7722008000128,280.7722008000128,280.7722008000128,23,0,,,280.7722008000128,280.9744955000933,1000,280.9744955000933,1000,1000,1000,1000,1,num_2,1.6636851001530886,,31,1,2026-03-12_13h19.03.512,2026A_exp2,2022.2.4,59.83960598059939,
1,0,3.7,0.0,0,0,74,74,8,,,,,282.65758600016125,283.3079871002119,283.3079871002119,283.80935870017856,45,45,283.80935870017856,283.80935870017856,283.80935870017856,283.80935870017856,283.80935870017856,283.80935870017856,283.80935870017856,283.80935870017856,283.80935870017856,284.1759668001905,284.1759668001905,284.1759668001905,284.1759668001905,284.1759668001905,284.1759668001905,284.1759668001905,284.1759668001905,284.1759668001905,12,2,"[0.18286149995401502, 0.23354989988729358]","[0.21660229982808232, 0.367133199935779]",284.1759668001905,284.3761061001569,3.7,284.3761061001569,1,3.7,1,1,1000,num_4,0.9730954000260681,,31,1,2026-03-12_13h19.03.512,2026A_exp2,2022.2.4,59.83960598059939,
1,0,0.0,6.1,0,0,75,75,82,,,,,285.3767441001255,286.02740000002086,286.02740000002086,286.51213910011575,45,315,286.51213910011575,286.51213910011575,286.51213910011575,286.51213910011575,286.51213910011575,286.51213910011575,286.51213910011575,286.51213910011575,286.51213910011575,286.8786183001939,286.8786183001939,286.8786183001939,286.8786183001939,286.8786183001939,286.8786183001939,286.8786183001939,286.8786183001939,286.8786183001939,23,0,,,286.8786183001939,287.07873599999584,0.0,287.07873599999584,0,0.0,0,1,1000,num_1,1.038770099868998,,31,1,2026-03-12_13h19.03.512,2026A_exp2,2022.2.4,59.83960598059939,
1000,1,0.0,4.9,1,0,76,76,79,,,,,288.14640490012243,288.7971171999816,288.7971171999816,289.28156790020876,45,45,289.28156790020876,289.28156790020876,289.28156790020876,289.28156790020876,289.28156790020876,289.28156790020876,289.28156790020876,289.28156790020876,289.28156790020876,289.64812460006215,289.64812460006215,289.64812460006215,289.64812460006215,289.64812460006215,289.64812460006215,289.64812460006215,289.64812460006215,289.64812460006215,18,1,[0.0012171000707894564],[0.0666539000812918],289.64812460006215,289.8501742000226,1000,289.8501742000226,1000,1000,1000,1000,1,num_2,0.8678343000356108,,31,1,2026-03-12_13h19.03.512,2026A_exp2,2022.2.4,59.83960598059939,
0,0,0.0,0.0,1,0,77,77,38,,,,,290.74898240016773,291.39973080018535,291.39973080018535,291.8841179001611,45,45,291.8841179001611,291.8841179001611,291.8841179001611,291.8841179001611,291.8841179001611,291.8841179001611,291.8841179001611,291.8841179001611,291.8841179001611,292.25047010020353,292.25047010020353,292.25047010020353,292.25047010020353,292.25047010020353,292.25047010020353,292.25047010020353,292.25047010020353,292.25047010020353,18,1,[0.0012429000344127417],[0.0667468998581171],292.25047010020353,292.45074560004286,0.0,292.45074560004286,0,0.0,0,1,1000,num_1,1.0117669999599457,,31,1,2026-03-12_13h19.03.512,2026A_exp2,2022.2.4,59.83960598059939,
0,0,0.0,3.7,0,0,78,78,47,,,,,293.4849921001587,294.13573360000737,294.13573360000737,294.6202601001132,45,315,294.6202601001132,294.6202601001132,294.6202601001132,294.6202601001132,294.6202601001132,294.6202601001132,294.6202601001132,294.6202601001132,294.6202601001132,294.9866899000481,294.9866899000481,294.9866899000481,294.9866899000481,294.9866899000481,294.9866899000481,294.9866899000481,294.9866899000481,294.9866899000481,23,0,,,294.9866899000481,295.18692630017176,3.7,295.18692630017176,1,3.7,1,1,1000,num_4,0.8833336001262069,,31,1,2026-03-12_13h19.03.512,2026A_exp2,2022.2.4,59.83960598059939,
1000,1,3.7,0.0,0,0,79,79,66,,,,,296.08753900020383,296.7383858000394,296.7383858000394,297.2228771999944,45,315,297.2228771999944,297.2228771999944,297.2228771999944,297.2228771999944,297.2228771999944,297.2228771999944,297.2228771999944,297.2228771999944,297.2228771999944,297.5888743000105,297.5888743000105,297.5888743000105,297.5888743000105,297.5888743000105,297.5888743000105,297.5888743000105,297.5888743000105,297.5888743000105,23,0,,,297.5888743000105,297.79115370009094,1000,297.79115370009094,1000,1000,1000,1000,0,num_3,0.6942590998951346,,31,1,2026-03-12_13h19.03.512,2026A_exp2,2022.2.4,59.83960598059939,
1,0,3.7,3.7,1,0,80,80,86,,,,,298.50688280002214,299.1575866001658,299.1575866001658,299.6588932001032,45,45,299.6588932001032,299.6588932001032,299.6588932001032,299.6588932001032,299.6588932001032,299.6588932001032,299.6588932001032,299.6588932001032,299.6588932001032,300.00839900015853,300.00839900015853,300.00839900015853,300.00839900015853,300.00839900015853,300.00839900015853,300.00839900015853,300.00839900015853,300.00839900015853,22,0,,,300.00839900015853,300.2085373001173,3.7,300.2085373001173,1,3.7,1,1,1000,num_4,1.5503591999877244,,31,1,2026-03-12_13h19.03.512,2026A_exp2,2022.2.4,59.83960598059939,
1000,1,0.0,0.0,0,0,81,81,15,,,,,301.776676800102,302.42739870003425,302.42739870003425,302.91178930015303,315,315,302.91178930015303,302.91178930015303,302.91178930015303,302.91178930015303,302.91178930015303,302.91178930015303,302.91178930015303,302.91178930015303,302.91178930015303,303.2781115001999,303.2781115001999,303.2781115001999,303.2781115001999,303.2781115001999,303.2781115001999,303.2781115001999,303.2781115001999,303.2781115001999,23,0,,,303.2781115001999,303.4804911999963,1000,303.4804911999963,1000,1000,1000,1000,1,num_2,0.9579022999387234,,31,1,2026-03-12_13h19.03.512,2026A_exp2,2022.2.4,59.83960598059939,
1000,1,0.0,4.9,0,0,82,82,74,,,,,304.46288050012663,305.12216770020314,305.12216770020314,305.6143312000204,45,45,305.6143312000204,305.6143312000204,305.6143312000204,305.6143312000204,305.6143312000204,305.6143312000204,305.6143312000204,305.6143312000204,305.6143312000204,305.9809452001937,305.9809452001937,305.9809452001937,305.9809452001937,305.9809452001937,305.9809452001937,305.9809452001937,305.9809452001937,305.9809452001937,23,0,,,305.9809452001937,306.1819137001876,1000,306.1819137001876,1000,1000,1000,1000,1,num_2,0.751834100112319,,31,1,2026-03-12_13h19.03.512,2026A_exp2,2022.2.4,59.83960598059939,
1000,1,0.0,6.1,0,0,83,83,2,,,,,306.96531840017997,307.6159064001404,307.6159064001404,308.11712970002554,315,45,308.11712970002554,308.11712970002554,308.11712970002554,308.11712970002554,308.11712970002554,308.11712970002554,308.11712970002554,308.11712970002554,308.11712970002554,308.4668543001171,308.4668543001171,308.4668543001171,308.4668543001171,308.4668543001171,308.4668543001171,308.4668543001171,308.4668543001171,308.4668543001171,22,0,,,308.4668543001171,308.6687390001025,1000,308.6687390001025,1000,1000,1000,1000,1,num_2,0.5613567000254989,,31,1,2026-03-12_13h19.03.512,2026A_exp2,2022.2.4,59.83960598059939,
1000,1,0.0,6.1,0,0,84,84,58,,,,,309.25084350002,309.90161230019294,309.90161230019294,310.4026395000983,45,45,310.4026395000983,310.4026395000983,310.4026395000983,310.4026395000983,310.4026395000983,310.4026395000983,310.4026395000983,310.4026395000983,310.4026395000983,310.76915270020254,310.76915270020254,310.76915270020254,310.76915270020254,310.76915270020254,310.76915270020254,310.76915270020254,310.76915270020254,310.76915270020254,23,0,,,310.76915270020254,310.9695337000303,1000,310.9695337000303,1000,1000,1000,1000,1,num_2,0.5324572999961674,,31,1,2026-03-12_13h19.03.512,2026A_exp2,2022.2.4,59.83960598059939,
1000,1,0.0,0.0,0,0,85,85,67,,,,,311.51975420000963,312.1705612000078,312.1705612000078,312.67167770001106,315,45,312.67167770001106,312.67167770001106,312.67167770001106,312.67167770001106,312.67167770001106,312.67167770001106,312.67167770001106,312.67167770001106,312.67167770001106,313.0379164000042,313.0379164000042,313.0379164000042,313.0379164000042,313.0379164000042,313.0379164000042,313.0379164000042,313.0379164000042,313.0379164000042,23,0,,,313.0379164000042,313.24011760018766,1000,313.24011760018766,1000,1000,1000,1000,0,num_3,0.7015054000075907,,31,1,2026-03-12_13h19.03.512,2026A_exp2,2022.2.4,59.83960598059939,
1000,1,4.9,0.0,0,0,86,86,50,,,,,313.9723316000309,314.62287060008384,314.62287060008384,315.1074418001808,315,45,315.1074418001808,315.1074418001808,315.1074418001808,315.1074418001808,315.1074418001808,315.1074418001808,315.1074418001808,315.1074418001808,315.1074418001808,315.4739008001052,315.4739008001052,315.4739008001052,315.4739008001052,315.4739008001052,315.4739008001052,315.4739008001052,315.4739008001052,315.4739008001052,23,0,,,315.4739008001052,315.6757748001255,1000,315.6757748001255,1000,1000,1000,1000,0,num_3,0.5385466001462191,,31,1,2026-03-12_13h19.03.512,2026A_exp2,2022.2.4,59.83960598059939,
1000,1,0.0,3.7,0,0,87,87,57,,,,,316.24126889999025,316.89192630001344,316.89192630001344,317.3930954001844,315,315,317.3930954001844,317.3930954001844,317.3930954001844,317.3930954001844,317.3930954001844,317.3930954001844,317.3930954001844,317.3930954001844,317.3930954001844,317.7427829001099,317.7427829001099,317.7427829001099,317.7427829001099,317.7427829001099,317.7427829001099,317.7427829001099,317.7427829001099,317.7427829001099,22,0,,,317.7427829001099,317.9448987999931,1000,317.9448987999931,1000,1000,1000,1000,1,num_2,0.7968272999860346,,31,1,2026-03-12_13h19.03.512,2026A_exp2,2022.2.4,59.83960598059939,
0,0,0.0,3.7,0,0,88,88,83,,,,,318.76035000011325,319.39440720016137,319.39440720016137,319.895599800162,315,45,319.895599800162,319.895599800162,319.895599800162,319.895599800162,319.895599800162,319.895599800162,319.895599800162,319.895599800162,319.895599800162,320.262010600185,320.262010600185,320.262010600185,320.262010600185,320.262010600185,320.262010600185,320.262010600185,320.262010600185,320.262010600185,23,0,,,320.262010600185,320.4620568000246,3.7,320.4620568000246,1,3.7,1,1,1000,num_4,0.7923338999971747,,31,1,2026-03-12_13h19.03.512,2026A_exp2,2022.2.4,59.83960598059939,
0,0,0.0,4.9,0,0,89,89,14,,,,,321.27959560020827,321.9301517000422,321.9301517000422,322.4310992001556,45,45,322.4310992001556,322.4310992001556,322.4310992001556,322.4310992001556,322.4310992001556,322.4310992001556,322.4310992001556,322.4310992001556,322.4310992001556,322.7813005000353,322.7813005000353,322.7813005000353,322.7813005000353,322.7813005000353,322.7813005000353,322.7813005000353,322.7813005000353,322.7813005000353,23,0,,,322.7813005000353,322.9815559000708,4.9,322.9815559000708,1,4.9,1,1,1000,num_4,0.8321583000943065,,31,1,2026-03-12_13h19.03.512,2026A_exp2,2022.2.4,59.83960598059939,
,,,,,,,,,,,,,,,,,,,,,,,,,,,,,,,,,,,,,,,,,,,,,,,,,,,,323.8412613000255,,,,,,,
