validity,detectorcomp,contrastCW,contrastCCW,precueCWorCCW,block_80trials.thisRepN,block_80trials.thisTrialN,block_80trials.thisN,block_80trials.thisIndex,etRecord.started,etRecord.stopped,text.started,text.stopped,text_4.started,text_4.stopped,text_6.started,text_6.stopped,oriCW,oriCCW,roi_2.started,grating_UR.started,grating_UL.started,grating_LR.started,grating_LL.started,noise_UR.started,noise_UL.started,noise_LR.started,noise_LL.started,roi_2.stopped,grating_UR.stopped,grating_UL.stopped,grating_LR.stopped,grating_LL.stopped,noise_UR.stopped,noise_UL.stopped,noise_LR.stopped,noise_LL.stopped,outframe,roi_2.numLooks,roi_2.timesOn,roi_2.timesOff,text_2.started,text_2.stopped,probedcontrast,key_resp.started,respdetect,relevantContrast,correctDetect,TorFdetect,respCWorCCW,key_resp.keys,key_resp.rt,feedback_display_.started,participantNo,blockNo,date,expName,psychopyVersion,frameRate,
1,0,3.7,0.0,1,0,0,0,30,3.570003900676966e-05,3.570003900676966e-05,50.92118649999611,52.92360829998506,52.92360829998506,53.55776229995536,53.55776229995536,54.0772667999845,45,315,54.0772667999845,54.0772667999845,54.0772667999845,54.0772667999845,54.0772667999845,54.0772667999845,54.0772667999845,54.0772667999845,54.0772667999845,54.42522579996148,54.42522579996148,54.42522579996148,54.42522579996148,54.42522579996148,54.42522579996148,54.42522579996148,54.42522579996148,54.42522579996148,19,2,"[0.09866370004601777, 0.13227020000340417]","[0.11565970000810921, 0.18280890001915395]",54.42522579996148,54.62548519996926,0.0,54.62548519996926,0,0.0,0,1,1000,num_1,0.23104049998801202,,25,13,2026-03-04_18h24.25.326,2026A_exp2,2022.2.4,59.96009055998488,
1000,1,6.1,3.7,1,0,1,1,11,,,,,54.87563969998155,55.52631499996642,55.52631499996642,56.01084050000645,45,315,56.01084050000645,56.01084050000645,56.01084050000645,56.01084050000645,56.01084050000645,56.01084050000645,56.01084050000645,56.01084050000645,56.01084050000645,56.37716559995897,56.37716559995897,56.37716559995897,56.37716559995897,56.37716559995897,56.37716559995897,56.37716559995897,56.37716559995897,56.37716559995897,23,0,,,56.37716559995897,56.58273259998532,1000,56.58273259998532,1000,1000,1000,1000,0,num_3,0.14591309998650104,,25,13,2026-03-04_18h24.25.326,2026A_exp2,2022.2.4,59.96009055998488,
1000,1,0.0,4.9,1,0,2,2,37,,,,,56.74425170000177,57.39451769995503,57.39451769995503,57.895789699978195,315,315,57.895789699978195,57.895789699978195,57.895789699978195,57.895789699978195,57.895789699978195,57.895789699978195,57.895789699978195,57.895789699978195,57.895789699978195,58.26235639996594,58.26235639996594,58.26235639996594,58.26235639996594,58.26235639996594,58.26235639996594,58.26235639996594,58.26235639996594,58.26235639996594,23,0,,,58.26235639996594,58.46478549996391,1000,58.46478549996391,1000,1000,1000,1000,0,num_3,0.06328589998884127,,25,13,2026-03-04_18h24.25.326,2026A_exp2,2022.2.4,59.96009055998488,
1000,1,6.1,4.9,0,0,3,3,81,,,,,58.54589769995073,59.19662619999144,59.19662619999144,59.69771399995079,315,315,59.69771399995079,59.69771399995079,59.69771399995079,59.69771399995079,59.69771399995079,59.69771399995079,59.69771399995079,59.69771399995079,59.69771399995079,60.04753659997368,60.04753659997368,60.04753659997368,60.04753659997368,60.04753659997368,60.04753659997368,60.04753659997368,60.04753659997368,60.04753659997368,22,0,,,60.04753659997368,60.25021889997879,1000,60.25021889997879,1000,1000,1000,1000,0,num_3,0.46222929999930784,,25,13,2026-03-04_18h24.25.326,2026A_exp2,2022.2.4,59.96009055998488,
1000,1,0.0,0.0,0,0,4,4,62,,,,,60.73159839998698,61.3822552000056,61.3822552000056,61.88320099998964,45,315,61.88320099998964,61.88320099998964,61.88320099998964,61.88320099998964,61.88320099998964,61.88320099998964,61.88320099998964,61.88320099998964,61.88320099998964,62.23303589998977,62.23303589998977,62.23303589998977,62.23303589998977,62.23303589998977,62.23303589998977,62.23303589998977,62.23303589998977,62.23303589998977,22,0,,,62.23303589998977,62.433181200001854,1000,62.433181200001854,1000,1000,1000,1000,0,num_3,0.3116320999688469,,25,13,2026-03-04_18h24.25.326,2026A_exp2,2022.2.4,59.96009055998488,
1,0,0.0,4.9,0,0,5,5,32,,,,,62.76681559998542,63.4173729000031,63.4173729000031,63.91866919997847,315,315,63.91866919997847,63.91866919997847,63.91866919997847,63.91866919997847,63.91866919997847,63.91866919997847,63.91866919997847,63.91866919997847,63.91866919997847,64.28512149996823,64.28512149996823,64.28512149996823,64.28512149996823,64.28512149996823,64.28512149996823,64.28512149996823,64.28512149996823,64.28512149996823,23,0,,,64.28512149996823,64.48525599995628,0.0,64.48525599995628,1,0.0,0,0,1000,num_4,0.6667033999692649,,25,13,2026-03-04_18h24.25.326,2026A_exp2,2022.2.4,59.96009055998488,
1000,1,3.7,6.1,1,0,6,6,75,,,,,65.16925759997685,65.80327879998367,65.80327879998367,66.30438539996976,45,315,66.30438539996976,66.30438539996976,66.30438539996976,66.30438539996976,66.30438539996976,66.30438539996976,66.30438539996976,66.30438539996976,66.30438539996976,66.67089769995073,66.67089769995073,66.67089769995073,66.67089769995073,66.67089769995073,66.67089769995073,66.67089769995073,66.67089769995073,66.67089769995073,23,0,,,66.67089769995073,66.8729131,1000,66.8729131,1000,1000,1000,1000,0,num_3,0.19941840000683442,,25,13,2026-03-04_18h24.25.326,2026A_exp2,2022.2.4,59.96009055998488,
1000,1,0.0,0.0,1,0,7,7,73,,,,,67.08799889998045,67.74946510000154,67.74946510000154,68.24523309996584,45,315,68.24523309996584,68.24523309996584,68.24523309996584,68.24523309996584,68.24523309996584,68.24523309996584,68.24523309996584,68.24523309996584,68.24523309996584,68.58917449996807,68.58917449996807,68.58917449996807,68.58917449996807,68.58917449996807,68.58917449996807,68.58917449996807,68.58917449996807,68.58917449996807,22,0,,,68.58917449996807,68.79157919995487,1000,68.80627509998158,1000,1000,1000,1000,1,num_2,0.02033329999540001,,25,13,2026-03-04_18h24.25.326,2026A_exp2,2022.2.4,59.96009055998488,
1000,1,0.0,3.7,1,0,8,8,4,,,,,68.85653419996379,69.50700979999965,69.50700979999965,69.9914385000011,45,315,69.9914385000011,69.9914385000011,69.9914385000011,69.9914385000011,69.9914385000011,69.9914385000011,69.9914385000011,69.9914385000011,69.9914385000011,70.35771929996554,70.35771929996554,70.35771929996554,70.35771929996554,70.35771929996554,70.35771929996554,70.35771929996554,70.35771929996554,70.35771929996554,23,0,,,70.35771929996554,70.56003709998913,1000,70.56003709998913,1000,1000,1000,1000,1,num_2,0.02495039999485016,,25,13,2026-03-04_18h24.25.326,2026A_exp2,2022.2.4,59.96009055998488,
1,0,3.7,0.0,0,0,9,9,10,,,,,70.6082885999931,71.25874279998243,71.25874279998243,71.74311639997177,315,315,71.74311639997177,71.74311639997177,71.74311639997177,71.74311639997177,71.74311639997177,71.74311639997177,71.74311639997177,71.74311639997177,71.74311639997177,72.10965219995705,72.10965219995705,72.10965219995705,72.10965219995705,72.10965219995705,72.10965219995705,72.10965219995705,72.10965219995705,72.10965219995705,23,0,,,72.10965219995705,72.30973609996727,3.7,72.30973609996727,1,3.7,1,1,1000,num_4,0.47525419999146834,,25,13,2026-03-04_18h24.25.326,2026A_exp2,2022.2.4,59.96009055998488,
1000,1,6.1,0.0,0,0,10,10,27,,,,,72.81035339995287,73.46083259995794,73.46083259995794,73.94540999998571,315,45,73.94540999998571,73.94540999998571,73.94540999998571,73.94540999998571,73.94540999998571,73.94540999998571,73.94540999998571,73.94540999998571,73.94540999998571,74.31176289997529,74.31176289997529,74.31176289997529,74.31176289997529,74.31176289997529,74.31176289997529,74.31176289997529,74.31176289997529,74.31176289997529,23,0,,,74.31176289997529,74.5135292999912,1000,74.5135292999912,1000,1000,1000,1000,0,num_3,0.19867290003458038,,25,13,2026-03-04_18h24.25.326,2026A_exp2,2022.2.4,59.96009055998488,
1000,1,6.1,0.0,0,0,11,11,58,,,,,74.72903729998507,75.37918719998561,75.37918719998561,75.88070849998621,315,45,75.88070849998621,75.88070849998621,75.88070849998621,75.88070849998621,75.88070849998621,75.88070849998621,75.88070849998621,75.88070849998621,75.88070849998621,76.2471028,76.2471028,76.2471028,76.2471028,76.2471028,76.2471028,76.2471028,76.2471028,76.2471028,23,0,,,76.2471028,76.44931589998305,1000,76.44931589998305,1000,1000,1000,1000,0,num_3,0.28716730000451207,,25,13,2026-03-04_18h24.25.326,2026A_exp2,2022.2.4,59.96009055998488,
1000,1,3.7,3.7,0,0,12,12,59,,,,,76.76434759999393,77.41482229996473,77.41482229996473,77.91605060000438,315,45,77.91605060000438,77.91605060000438,77.91605060000438,77.91605060000438,77.91605060000438,77.91605060000438,77.91605060000438,77.91605060000438,77.91605060000438,78.28237309999531,78.28237309999531,78.28237309999531,78.28237309999531,78.28237309999531,78.28237309999531,78.28237309999531,78.28237309999531,78.28237309999531,23,0,,,78.28237309999531,78.48468939994927,1000,78.48468939994927,1000,1000,1000,1000,0,num_3,0.29123910004273057,,25,13,2026-03-04_18h24.25.326,2026A_exp2,2022.2.4,59.96009055998488,
1,0,0.0,4.9,0,0,13,13,70,,,,,78.79965810000431,79.45020119997207,79.45020119997207,79.95143049996113,315,45,79.95143049996113,79.95143049996113,79.95143049996113,79.95143049996113,79.95143049996113,79.95143049996113,79.95143049996113,79.95143049996113,79.95143049996113,80.31785699998727,80.31785699998727,80.31785699998727,80.31785699998727,80.31785699998727,80.31785699998727,80.31785699998727,80.31785699998727,80.31785699998727,23,0,,,80.31785699998727,80.51809179998236,0.0,80.51809179998236,1,0.0,0,0,1000,num_4,0.2901966000208631,,25,13,2026-03-04_18h24.25.326,2026A_exp2,2022.2.4,59.96009055998488,
1,0,6.1,0.0,1,0,14,14,17,,,,,80.83503939997172,81.48555639997358,81.48555639997358,81.9699888000032,45,315,81.9699888000032,81.9699888000032,81.9699888000032,81.9699888000032,81.9699888000032,81.9699888000032,81.9699888000032,81.9699888000032,81.9699888000032,82.33652129996335,82.33652129996335,82.33652129996335,82.33652129996335,82.33652129996335,82.33652129996335,82.33652129996335,82.33652129996335,82.33652129996335,17,5,"[0.10031840001465753, 0.13391919998684898, 0.23408210003981367, 0.267143200035207, 0.30064339999808]","[0.11720949999289587, 0.15048479998949915, 0.25073369999881834, 0.28409820003435016, 0.3340036000008695]",82.33652129996335,82.53656419995241,0.0,82.53656419995241,0,0.0,0,1,1000,num_1,0.16036629996960983,,25,13,2026-03-04_18h24.25.326,2026A_exp2,2022.2.4,59.96009055998488,
1,0,4.9,0.0,0,0,15,15,66,,,,,82.72026499995263,83.37087859999156,83.37087859999156,83.85537049995037,45,315,83.85537049995037,83.85537049995037,83.85537049995037,83.85537049995037,83.85537049995037,83.85537049995037,83.85537049995037,83.85537049995037,83.85537049995037,84.22162749996642,84.22162749996642,84.22162749996642,84.22162749996642,84.22162749996642,84.22162749996642,84.22162749996642,84.22162749996642,84.22162749996642,23,0,,,84.22162749996642,84.42179849999957,4.9,84.42179849999957,1,4.9,1,1,1000,num_4,0.06603980000363663,,25,13,2026-03-04_18h24.25.326,2026A_exp2,2022.2.4,59.96009055998488,
1000,1,3.7,4.9,1,0,16,16,71,,,,,84.505319399992,85.15587649994995,85.15587649994995,85.64043759997003,45,45,85.64043759997003,85.64043759997003,85.64043759997003,85.64043759997003,85.64043759997003,85.64043759997003,85.64043759997003,85.64043759997003,85.64043759997003,86.00688989995979,86.00688989995979,86.00688989995979,86.00688989995979,86.00688989995979,86.00688989995979,86.00688989995979,86.00688989995979,86.00688989995979,23,0,,,86.00688989995979,86.20893129997421,1000,86.20893129997421,1000,1000,1000,1000,1,num_2,0.20808710000710562,,25,13,2026-03-04_18h24.25.326,2026A_exp2,2022.2.4,59.96009055998488,
1000,1,0.0,3.7,0,0,17,17,43,,,,,86.44066699995892,87.09131839999463,87.09131839999463,87.59235339995939,45,45,87.59235339995939,87.59235339995939,87.59235339995939,87.59235339995939,87.59235339995939,87.59235339995939,87.59235339995939,87.59235339995939,87.59235339995939,87.95873559999745,87.95873559999745,87.95873559999745,87.95873559999745,87.95873559999745,87.95873559999745,87.95873559999745,87.95873559999745,87.95873559999745,23,0,,,87.95873559999745,88.16093670000555,1000,88.16093670000555,1000,1000,1000,1000,0,num_3,0.2715794999967329,,25,13,2026-03-04_18h24.25.326,2026A_exp2,2022.2.4,59.96009055998488,
1000,1,6.1,6.1,1,0,18,18,22,,,,,88.45943319995422,89.1099172999966,89.1099172999966,89.61115959996823,315,315,89.61115959996823,89.61115959996823,89.61115959996823,89.61115959996823,89.61115959996823,89.61115959996823,89.61115959996823,89.61115959996823,89.61115959996823,89.97735259996261,89.97735259996261,89.97735259996261,89.97735259996261,89.97735259996261,89.97735259996261,89.97735259996261,89.97735259996261,89.97735259996261,23,0,,,89.97735259996261,90.18023569998331,1000,90.18023569998331,1000,1000,1000,1000,1,num_2,0.20348339999327436,,25,13,2026-03-04_18h24.25.326,2026A_exp2,2022.2.4,59.96009055998488,
1,0,0.0,0.0,0,0,19,19,80,,,,,90.4113217999693,91.06196439999621,91.06196439999621,91.5631669999566,45,45,91.5631669999566,91.5631669999566,91.5631669999566,91.5631669999566,91.5631669999566,91.5631669999566,91.5631669999566,91.5631669999566,91.5631669999566,91.9294698999729,91.9294698999729,91.9294698999729,91.9294698999729,91.9294698999729,91.9294698999729,91.9294698999729,91.9294698999729,91.9294698999729,23,0,,,91.9294698999729,92.12955309997778,0.0,92.12955309997778,1,0.0,0,0,1000,num_4,0.07880779996048659,,25,13,2026-03-04_18h24.25.326,2026A_exp2,2022.2.4,59.96009055998488,
1000,1,4.9,0.0,1,0,20,20,12,,,,,92.22972639999352,92.88040989998262,92.88040989998262,93.38119919999735,315,45,93.38119919999735,93.38119919999735,93.38119919999735,93.38119919999735,93.38119919999735,93.38119919999735,93.38119919999735,93.38119919999735,93.38119919999735,93.73125899996376,93.73125899996376,93.73125899996376,93.73125899996376,93.73125899996376,93.73125899996376,93.73125899996376,93.73125899996376,93.73125899996376,22,0,,,93.73125899996376,93.93445459997747,1000,93.93445459997747,1000,1000,1000,1000,1,num_2,0.12110699998447672,,25,13,2026-03-04_18h24.25.326,2026A_exp2,2022.2.4,59.96009055998488,
1000,1,4.9,3.7,1,0,21,21,78,,,,,94.08172389998799,94.73216679994948,94.73216679994948,95.21652509999694,315,315,95.21652509999694,95.21652509999694,95.21652509999694,95.21652509999694,95.21652509999694,95.21652509999694,95.21652509999694,95.21652509999694,95.21652509999694,95.5830875999527,95.5830875999527,95.5830875999527,95.5830875999527,95.5830875999527,95.5830875999527,95.5830875999527,95.5830875999527,95.5830875999527,23,0,,,95.5830875999527,95.78314509999473,1000,95.78314509999473,1000,1000,1000,1000,1,num_2,0.09654240001691505,,25,13,2026-03-04_18h24.25.326,2026A_exp2,2022.2.4,59.96009055998488,
1000,1,0.0,0.0,1,0,22,22,3,,,,,95.90024069999345,96.55075219995342,96.55075219995342,97.0518929999671,45,45,97.0518929999671,97.0518929999671,97.0518929999671,97.0518929999671,97.0518929999671,97.0518929999671,97.0518929999671,97.0518929999671,97.0518929999671,97.40158299996983,97.40158299996983,97.40158299996983,97.40158299996983,97.40158299996983,97.40158299996983,97.40158299996983,97.40158299996983,97.40158299996983,22,0,,,97.40158299996983,97.60415189998457,1000,97.60415189998457,1000,1000,1000,1000,1,num_2,0.17971850000321865,,25,13,2026-03-04_18h24.25.326,2026A_exp2,2022.2.4,59.96009055998488,
1000,1,4.9,3.7,0,0,23,23,28,,,,,97.80201579997083,98.43593449995387,98.43593449995387,98.93698609998683,315,45,98.93698609998683,98.93698609998683,98.93698609998683,98.93698609998683,98.93698609998683,98.93698609998683,98.93698609998683,98.93698609998683,98.93698609998683,99.30352489999495,99.30352489999495,99.30352489999495,99.30352489999495,99.30352489999495,99.30352489999495,99.30352489999495,99.30352489999495,99.30352489999495,23,0,,,99.30352489999495,99.50501199997962,1000,99.50501199997962,1000,1000,1000,1000,0,num_3,0.17481739999493584,,25,13,2026-03-04_18h24.25.326,2026A_exp2,2022.2.4,59.96009055998488,
1,0,4.9,6.1,0,0,24,24,82,,,,,99.70379339996725,100.35446249996312,100.35446249996312,100.85551470000064,45,315,100.85551470000064,100.85551470000064,100.85551470000064,100.85551470000064,100.85551470000064,100.85551470000064,100.85551470000064,100.85551470000064,100.85551470000064,101.22205579996808,101.22205579996808,101.22205579996808,101.22205579996808,101.22205579996808,101.22205579996808,101.22205579996808,101.22205579996808,101.22205579996808,23,0,,,101.22205579996808,101.42231910000555,4.9,101.42231910000555,1,4.9,1,1,1000,num_4,0.08159439999144524,,25,13,2026-03-04_18h24.25.326,2026A_exp2,2022.2.4,59.96009055998488,
0,0,0.0,3.7,1,0,25,25,53,,,,,101.52227719995426,102.1729970999877,102.1729970999877,102.65736399998423,45,315,102.65736399998423,102.65736399998423,102.65736399998423,102.65736399998423,102.65736399998423,102.65736399998423,102.65736399998423,102.65736399998423,102.65736399998423,103.02383759996155,103.02383759996155,103.02383759996155,103.02383759996155,103.02383759996155,103.02383759996155,103.02383759996155,103.02383759996155,103.02383759996155,23,0,,,103.02383759996155,103.22404780000215,0.0,103.22404780000215,1,0.0,0,0,1000,num_4,0.47298329998739064,,25,13,2026-03-04_18h24.25.326,2026A_exp2,2022.2.4,59.96009055998488,
0,0,0.0,0.0,1,0,26,26,44,,,,,103.72467109997524,104.37506599997869,104.37506599997869,104.85968989995308,315,45,104.85968989995308,104.85968989995308,104.85968989995308,104.85968989995308,104.85968989995308,104.85968989995308,104.85968989995308,104.85968989995308,104.85968989995308,105.22599679999985,105.22599679999985,105.22599679999985,105.22599679999985,105.22599679999985,105.22599679999985,105.22599679999985,105.22599679999985,105.22599679999985,23,0,,,105.22599679999985,105.42599949997384,0.0,105.42599949997384,0,0.0,0,1,1000,num_1,0.35063160001300275,,25,13,2026-03-04_18h24.25.326,2026A_exp2,2022.2.4,59.96009055998488,
0,0,6.1,0.0,0,0,27,27,41,,,,,105.79302479996113,106.44383349997224,106.44383349997224,106.94513859995641,45,45,106.94513859995641,106.94513859995641,106.94513859995641,106.94513859995641,106.94513859995641,106.94513859995641,106.94513859995641,106.94513859995641,106.94513859995641,107.29465269995853,107.29465269995853,107.29465269995853,107.29465269995853,107.29465269995853,107.29465269995853,107.29465269995853,107.29465269995853,107.29465269995853,22,0,,,107.29465269995853,107.49486449995311,0.0,107.51150019996567,0,0.0,0,1,1000,num_1,0.000775099964812398,,25,13,2026-03-04_18h24.25.326,2026A_exp2,2022.2.4,59.96009055998488,
1000,1,4.9,6.1,1,0,28,28,5,,,,,107.52836449997267,108.17899709998164,108.17899709998164,108.6801404999569,315,315,108.6801404999569,108.6801404999569,108.6801404999569,108.6801404999569,108.6801404999569,108.6801404999569,108.6801404999569,108.6801404999569,108.6801404999569,109.0466048999806,109.0466048999806,109.0466048999806,109.0466048999806,109.0466048999806,109.0466048999806,109.0466048999806,109.0466048999806,109.0466048999806,23,0,,,109.0466048999806,109.24906329996884,1000,109.24906329996884,1000,1000,1000,1000,0,num_3,0.48662809998495504,,25,13,2026-03-04_18h24.25.326,2026A_exp2,2022.2.4,59.96009055998488,
1000,1,0.0,0.0,1,0,29,29,55,,,,,109.76402259996394,110.41465249995235,110.41465249995235,110.91572789999191,315,315,110.91572789999191,110.91572789999191,110.91572789999191,110.91572789999191,110.91572789999191,110.91572789999191,110.91572789999191,110.91572789999191,110.91572789999191,111.28189489996294,111.28189489996294,111.28189489996294,111.28189489996294,111.28189489996294,111.28189489996294,111.28189489996294,111.28189489996294,111.28189489996294,23,0,,,111.28189489996294,111.4839710999513,1000,111.4839710999513,1000,1000,1000,1000,1,num_2,0.1409783000126481,,25,13,2026-03-04_18h24.25.326,2026A_exp2,2022.2.4,59.96009055998488,
0,0,4.9,0.0,0,0,30,30,40,,,,,111.64922809996642,112.29968179995194,112.29968179995194,112.80094859999372,45,315,112.80094859999372,112.80094859999372,112.80094859999372,112.80094859999372,112.80094859999372,112.80094859999372,112.80094859999372,112.80094859999372,112.80094859999372,113.16738509997958,113.16738509997958,113.16738509997958,113.16738509997958,113.16738509997958,113.16738509997958,113.16738509997958,113.16738509997958,113.16738509997958,23,0,,,113.16738509997958,113.36745570000494,0.0,113.36745570000494,0,0.0,0,1,1000,num_1,0.31313339999178424,,25,13,2026-03-04_18h24.25.326,2026A_exp2,2022.2.4,59.96009055998488,
1000,1,0.0,6.1,0,0,31,31,20,,,,,113.70123839995358,114.35200019995682,114.35200019995682,114.83623669994995,315,45,114.83623669994995,114.83623669994995,114.83623669994995,114.83623669994995,114.83623669994995,114.83623669994995,114.83623669994995,114.83623669994995,114.83623669994995,115.2025570999831,115.2025570999831,115.2025570999831,115.2025570999831,115.2025570999831,115.2025570999831,115.2025570999831,115.2025570999831,115.2025570999831,23,0,,,115.2025570999831,115.40468919998966,1000,115.40468919998966,1000,1000,1000,1000,1,num_2,0.2110180999734439,,25,13,2026-03-04_18h24.25.326,2026A_exp2,2022.2.4,59.96009055998488,
0,0,6.1,0.0,1,0,32,32,52,,,,,115.63652000000002,116.28705439995974,116.28705439995974,116.78832059999695,315,315,116.78832059999695,116.78832059999695,116.78832059999695,116.78832059999695,116.78832059999695,116.78832059999695,116.78832059999695,116.78832059999695,116.78832059999695,117.13780579995364,117.13780579995364,117.13780579995364,117.13780579995364,117.13780579995364,117.13780579995364,117.13780579995364,117.13780579995364,117.13780579995364,22,0,,,117.13780579995364,117.33801819995278,6.1,117.35486419999506,1,6.1,1,1,1000,num_4,0.2213640999980271,,25,13,2026-03-04_18h24.25.326,2026A_exp2,2022.2.4,59.96009055998488,
1000,1,0.0,3.7,0,0,33,33,21,,,,,117.60506619996158,118.25583619996905,118.25583619996905,118.74025259999325,315,45,118.74025259999325,118.74025259999325,118.74025259999325,118.74025259999325,118.74025259999325,118.74025259999325,118.74025259999325,118.74025259999325,118.74025259999325,119.10668409999926,119.10668409999926,119.10668409999926,119.10668409999926,119.10668409999926,119.10668409999926,119.10668409999926,119.10668409999926,119.10668409999926,23,0,,,119.10668409999926,119.30838129995391,1000,119.30838129995391,1000,1000,1000,1000,0,num_3,0.2044711000053212,,25,13,2026-03-04_18h24.25.326,2026A_exp2,2022.2.4,59.96009055998488,
1,0,0.0,0.0,1,0,34,34,83,,,,,119.54047839995474,120.19105549994856,120.19105549994856,120.69217019999633,315,315,120.69217019999633,120.69217019999633,120.69217019999633,120.69217019999633,120.69217019999633,120.69217019999633,120.69217019999633,120.69217019999633,120.69217019999633,121.05867329996545,121.05867329996545,121.05867329996545,121.05867329996545,121.05867329996545,121.05867329996545,121.05867329996545,121.05867329996545,121.05867329996545,23,0,,,121.05867329996545,121.25863080000272,0.0,121.25863080000272,1,0.0,0,0,1000,num_4,0.25350769999204203,,25,13,2026-03-04_18h24.25.326,2026A_exp2,2022.2.4,59.96009055998488,
1,0,0.0,6.1,1,0,35,35,19,,,,,121.54224189999513,122.19299660000252,122.19299660000252,122.67760049999924,45,45,122.67760049999924,122.67760049999924,122.67760049999924,122.67760049999924,122.67760049999924,122.67760049999924,122.67760049999924,122.67760049999924,122.67760049999924,123.0437557999976,123.0437557999976,123.0437557999976,123.0437557999976,123.0437557999976,123.0437557999976,123.0437557999976,123.0437557999976,123.0437557999976,23,0,,,123.0437557999976,123.24398109997855,6.1,123.24398109997855,1,6.1,1,1,1000,num_4,0.1728286999859847,,25,13,2026-03-04_18h24.25.326,2026A_exp2,2022.2.4,59.96009055998488,
1,0,4.9,0.0,1,0,36,36,34,,,,,123.44420209998498,124.09484399994835,124.09484399994835,124.57916279998608,315,315,124.57916279998608,124.57916279998608,124.57916279998608,124.57916279998608,124.57916279998608,124.57916279998608,124.57916279998608,124.57916279998608,124.57916279998608,124.9456979999668,124.9456979999668,124.9456979999668,124.9456979999668,124.9456979999668,124.9456979999668,124.9456979999668,124.9456979999668,124.9456979999668,23,0,,,124.9456979999668,125.14603929995792,0.0,125.14603929995792,1,0.0,0,0,1000,num_4,0.09396309999283403,,25,13,2026-03-04_18h24.25.326,2026A_exp2,2022.2.4,59.96009055998488,
1000,1,4.9,0.0,1,0,37,37,48,,,,,125.26317569997627,125.9134924999671,125.9134924999671,126.39791479997803,45,315,126.39791479997803,126.39791479997803,126.39791479997803,126.39791479997803,126.39791479997803,126.39791479997803,126.39791479997803,126.39791479997803,126.39791479997803,126.76410999998916,126.76410999998916,126.76410999998916,126.76410999998916,126.76410999998916,126.76410999998916,126.76410999998916,126.76410999998916,126.76410999998916,23,0,,,126.76410999998916,126.9663259999943,1000,126.9663259999943,1000,1000,1000,1000,1,num_2,0.06677499995566905,,25,13,2026-03-04_18h24.25.326,2026A_exp2,2022.2.4,59.96009055998488,
1000,1,0.0,6.1,0,0,38,38,61,,,,,127.0644926999812,127.71521379996557,127.71521379996557,128.21625679999124,45,315,128.21625679999124,128.21625679999124,128.21625679999124,128.21625679999124,128.21625679999124,128.21625679999124,128.21625679999124,128.21625679999124,128.21625679999124,128.58275249996223,128.58275249996223,128.58275249996223,128.58275249996223,128.58275249996223,128.58275249996223,128.58275249996223,128.58275249996223,128.58275249996223,23,0,,,128.58275249996223,128.78293719998328,1000,128.78293719998328,1000,1000,1000,1000,0,num_3,0.6087758999783546,,25,13,2026-03-04_18h24.25.326,2026A_exp2,2022.2.4,59.96009055998488,
1,0,0.0,6.1,1,0,39,39,46,,,,,129.41700620000483,130.06744749995414,130.06744749995414,130.56859179999446,45,45,130.56859179999446,130.56859179999446,130.56859179999446,130.56859179999446,130.56859179999446,130.56859179999446,130.56859179999446,130.56859179999446,130.56859179999446,130.93514600000344,130.93514600000344,130.93514600000344,130.93514600000344,130.93514600000344,130.93514600000344,130.93514600000344,130.93514600000344,130.93514600000344,23,0,,,130.93514600000344,131.1353228999651,6.1,131.1353228999651,1,6.1,1,1,1000,num_4,0.048185399966314435,,25,13,2026-03-04_18h24.25.326,2026A_exp2,2022.2.4,59.96009055998488,
1,0,0.0,0.0,1,0,40,40,6,,,,,131.20206329994835,131.8527322000009,131.8527322000009,132.3369010000024,45,45,132.3369010000024,132.3369010000024,132.3369010000024,132.3369010000024,132.3369010000024,132.3369010000024,132.3369010000024,132.3369010000024,132.3369010000024,132.7034118999727,132.7034118999727,132.7034118999727,132.7034118999727,132.7034118999727,132.7034118999727,132.7034118999727,132.7034118999727,132.7034118999727,23,0,,,132.7034118999727,132.90347939997446,0.0,132.90347939997446,1,0.0,0,0,1000,num_4,0.08912150003015995,,25,13,2026-03-04_18h24.25.326,2026A_exp2,2022.2.4,59.96009055998488,
0,0,4.9,0.0,0,0,41,41,84,,,,,133.0205073999823,133.6712053999654,133.6712053999654,134.15553349995753,315,315,134.15553349995753,134.15553349995753,134.15553349995753,134.15553349995753,134.15553349995753,134.15553349995753,134.15553349995753,134.15553349995753,134.15553349995753,134.52210259996355,134.52210259996355,134.52210259996355,134.52210259996355,134.52210259996355,134.52210259996355,134.52210259996355,134.52210259996355,134.52210259996355,23,0,,,134.52210259996355,134.72228299995186,0.0,134.72228299995186,0,0.0,0,1,1000,num_1,0.11019829998258501,,25,13,2026-03-04_18h24.25.326,2026A_exp2,2022.2.4,59.96009055998488,
1000,1,3.7,0.0,0,0,42,42,86,,,,,134.8557069999515,135.5101373999496,135.5101373999496,135.99067119997926,315,45,135.99067119997926,135.99067119997926,135.99067119997926,135.99067119997926,135.99067119997926,135.99067119997926,135.99067119997926,135.99067119997926,135.99067119997926,136.35726419999264,136.35726419999264,136.35726419999264,136.35726419999264,136.35726419999264,136.35726419999264,136.35726419999264,136.35726419999264,136.35726419999264,23,0,,,136.35726419999264,136.56019739998737,1000,136.56019739998737,1000,1000,1000,1000,0,num_3,0.5284379999502562,,25,13,2026-03-04_18h24.25.326,2026A_exp2,2022.2.4,59.96009055998488,
1000,1,3.7,0.0,0,0,43,43,69,,,,,137.10794560000068,137.75886179995723,137.75886179995723,138.2429734999896,315,315,138.2429734999896,138.2429734999896,138.2429734999896,138.2429734999896,138.2429734999896,138.2429734999896,138.2429734999896,138.2429734999896,138.2429734999896,138.60944649996236,138.60944649996236,138.60944649996236,138.60944649996236,138.60944649996236,138.60944649996236,138.60944649996236,138.60944649996236,138.60944649996236,23,0,,,138.60944649996236,138.8119620999787,1000,138.8119620999787,1000,1000,1000,1000,0,num_3,0.004289900010917336,,25,13,2026-03-04_18h24.25.326,2026A_exp2,2022.2.4,59.96009055998488,
0,0,6.1,0.0,1,0,44,44,25,,,,,138.84305769996718,139.4938738999772,139.4938738999772,139.99473809998017,315,45,139.99473809998017,139.99473809998017,139.99473809998017,139.99473809998017,139.99473809998017,139.99473809998017,139.99473809998017,139.99473809998017,139.99473809998017,140.34455869998783,140.34455869998783,140.34455869998783,140.34455869998783,140.34455869998783,140.34455869998783,140.34455869998783,140.34455869998783,140.34455869998783,22,0,,,140.34455869998783,140.54469660000177,6.1,140.54469660000177,1,6.1,1,1,1000,num_4,0.030868099944200367,,25,13,2026-03-04_18h24.25.326,2026A_exp2,2022.2.4,59.96009055998488,
1,0,6.1,6.1,1,0,45,45,47,,,,,140.59483679995174,141.22879209998064,141.22879209998064,141.72986429999582,45,45,141.72986429999582,141.72986429999582,141.72986429999582,141.72986429999582,141.72986429999582,141.72986429999582,141.72986429999582,141.72986429999582,141.72986429999582,142.09623419999843,142.09623419999843,142.09623419999843,142.09623419999843,142.09623419999843,142.09623419999843,142.09623419999843,142.09623419999843,142.09623419999843,23,0,,,142.09623419999843,142.29652869998245,6.1,142.29652869998245,0,6.1,1,0,1000,num_1,0.2476848999504,,25,13,2026-03-04_18h24.25.326,2026A_exp2,2022.2.4,59.96009055998488,
1,0,0.0,4.9,1,0,46,46,54,,,,,142.56331569998292,143.1972315000021,143.1972315000021,143.6984502999694,45,45,143.6984502999694,143.6984502999694,143.6984502999694,143.6984502999694,143.6984502999694,143.6984502999694,143.6984502999694,143.6984502999694,143.6984502999694,144.06476419995306,144.06476419995306,144.06476419995306,144.06476419995306,144.06476419995306,144.06476419995306,144.06476419995306,144.06476419995306,144.06476419995306,23,0,,,144.06476419995306,144.26515579997795,4.9,144.26515579997795,1,4.9,1,1,1000,num_4,0.2548687999951653,,25,13,2026-03-04_18h24.25.326,2026A_exp2,2022.2.4,59.96009055998488,
1,0,3.7,0.0,0,0,47,47,26,,,,,144.5487822999712,145.19925199996214,145.19925199996214,145.68378009996377,45,45,145.68378009996377,145.68378009996377,145.68378009996377,145.68378009996377,145.68378009996377,145.68378009996377,145.68378009996377,145.68378009996377,145.68378009996377,146.0502337999642,146.0502337999642,146.0502337999642,146.0502337999642,146.0502337999642,146.0502337999642,146.0502337999642,146.0502337999642,146.0502337999642,23,0,,,146.0502337999642,146.25041639996925,3.7,146.25041639996925,0,3.7,1,0,1000,num_1,0.5903902999707498,,25,13,2026-03-04_18h24.25.326,2026A_exp2,2022.2.4,59.96009055998488,
1,0,0.0,0.0,1,0,48,48,31,,,,,146.86760729999514,147.5182820999762,147.5182820999762,148.00264510000125,45,45,148.00264510000125,148.00264510000125,148.00264510000125,148.00264510000125,148.00264510000125,148.00264510000125,148.00264510000125,148.00264510000125,148.00264510000125,148.36921739997342,148.36921739997342,148.36921739997342,148.36921739997342,148.36921739997342,148.36921739997342,148.36921739997342,148.36921739997342,148.36921739997342,23,0,,,148.36921739997342,148.5692700999789,0.0,148.5692700999789,1,0.0,0,0,1000,num_4,0.4794114000396803,,25,13,2026-03-04_18h24.25.326,2026A_exp2,2022.2.4,59.96009055998488,
1000,1,0.0,6.1,0,0,49,49,16,,,,,149.06981759995688,149.72068169998238,149.72068169998238,150.20496699999785,45,315,150.20496699999785,150.20496699999785,150.20496699999785,150.20496699999785,150.20496699999785,150.20496699999785,150.20496699999785,150.20496699999785,150.20496699999785,150.57143179996638,150.57143179996638,150.57143179996638,150.57143179996638,150.57143179996638,150.57143179996638,150.57143179996638,150.57143179996638,150.57143179996638,23,0,,,150.57143179996638,150.77326319995336,1000,150.77326319995336,1000,1000,1000,1000,0,num_3,0.058466200018301606,,25,13,2026-03-04_18h24.25.326,2026A_exp2,2022.2.4,59.96009055998488,
1000,1,3.7,6.1,0,0,50,50,60,,,,,150.85508079995634,151.50532830000157,151.50532830000157,152.00683159998152,315,315,152.00683159998152,152.00683159998152,152.00683159998152,152.00683159998152,152.00683159998152,152.00683159998152,152.00683159998152,152.00683159998152,152.00683159998152,152.37322999996832,152.37322999996832,152.37322999996832,152.37322999996832,152.37322999996832,152.37322999996832,152.37322999996832,152.37322999996832,152.37322999996832,23,0,,,152.37322999996832,152.57587309996597,1000,152.57587309996597,1000,1000,1000,1000,0,num_3,0.6244654000038281,,25,13,2026-03-04_18h24.25.326,2026A_exp2,2022.2.4,59.96009055998488,
1000,1,0.0,0.0,0,0,51,51,89,,,,,153.22402480000164,153.8579749999917,153.8579749999917,154.35907059995225,45,315,154.35907059995225,154.35907059995225,154.35907059995225,154.35907059995225,154.35907059995225,154.35907059995225,154.35907059995225,154.35907059995225,154.35907059995225,154.7255552999559,154.7255552999559,154.7255552999559,154.7255552999559,154.7255552999559,154.7255552999559,154.7255552999559,154.7255552999559,154.7255552999559,23,0,,,154.7255552999559,154.9275133999763,1000,154.9275133999763,1000,1000,1000,1000,0,num_3,0.20821389998309314,,25,13,2026-03-04_18h24.25.326,2026A_exp2,2022.2.4,59.96009055998488,
1000,1,0.0,3.7,0,0,52,52,76,,,,,155.1593070999952,155.8102069000015,155.8102069000015,156.3110735999653,315,45,156.3110735999653,156.3110735999653,156.3110735999653,156.3110735999653,156.3110735999653,156.3110735999653,156.3110735999653,156.3110735999653,156.3110735999653,156.66079589998117,156.66079589998117,156.66079589998117,156.66079589998117,156.66079589998117,156.66079589998117,156.66079589998117,156.66079589998117,156.66079589998117,22,0,,,156.66079589998117,156.86090159998275,1000,156.87759609997738,1000,1000,1000,1000,0,num_3,0.21136690001003444,,25,13,2026-03-04_18h24.25.326,2026A_exp2,2022.2.4,59.96009055998488,
0,0,3.7,0.0,0,0,53,53,18,,,,,157.11131089995615,157.76188489998458,157.76188489998458,158.26281569997082,45,315,158.26281569997082,158.26281569997082,158.26281569997082,158.26281569997082,158.26281569997082,158.26281569997082,158.26281569997082,158.26281569997082,158.26281569997082,158.62920899997698,158.62920899997698,158.62920899997698,158.62920899997698,158.62920899997698,158.62920899997698,158.62920899997698,158.62920899997698,158.62920899997698,23,0,,,158.62920899997698,158.82954609999433,0.0,158.82954609999433,0,0.0,0,1,1000,num_1,0.2910748000140302,,25,13,2026-03-04_18h24.25.326,2026A_exp2,2022.2.4,59.96009055998488,
1000,1,0.0,0.0,0,0,54,54,7,,,,,159.1466403999948,159.79723119997652,159.79723119997652,160.28177589998813,45,315,160.28177589998813,160.28177589998813,160.28177589998813,160.28177589998813,160.28177589998813,160.28177589998813,160.28177589998813,160.28177589998813,160.28177589998813,160.64805839996552,160.64805839996552,160.64805839996552,160.64805839996552,160.64805839996552,160.64805839996552,160.64805839996552,160.64805839996552,160.64805839996552,23,0,,,160.64805839996552,160.85015099996235,1000,160.85015099996235,1000,1000,1000,1000,0,num_3,0.35052499995799735,,25,13,2026-03-04_18h24.25.326,2026A_exp2,2022.2.4,59.96009055998488,
1000,1,0.0,6.1,1,0,55,55,13,,,,,161.23213329998543,161.88275499996962,161.88275499996962,162.38383819995215,45,45,162.38383819995215,162.38383819995215,162.38383819995215,162.38383819995215,162.38383819995215,162.38383819995215,162.38383819995215,162.38383819995215,162.38383819995215,162.75028499995824,162.75028499995824,162.75028499995824,162.75028499995824,162.75028499995824,162.75028499995824,162.75028499995824,162.75028499995824,162.75028499995824,23,0,,,162.75028499995824,162.95244819996879,1000,162.95244819996879,1000,1000,1000,1000,1,num_2,0.287416499981191,,25,13,2026-03-04_18h24.25.326,2026A_exp2,2022.2.4,59.96009055998488,
0,0,3.7,4.9,0,0,56,56,77,,,,,163.2675043999916,163.9179601999931,163.9179601999931,164.41922129999148,315,315,164.41922129999148,164.41922129999148,164.41922129999148,164.41922129999148,164.41922129999148,164.41922129999148,164.41922129999148,164.41922129999148,164.41922129999148,164.7855828999891,164.7855828999891,164.7855828999891,164.7855828999891,164.7855828999891,164.7855828999891,164.7855828999891,164.7855828999891,164.7855828999891,23,0,,,164.7855828999891,164.98569419997511,4.9,164.98569419997511,0,4.9,1,0,1000,num_1,0.3024460999877192,,25,13,2026-03-04_18h24.25.326,2026A_exp2,2022.2.4,59.96009055998488,
1000,1,4.9,6.1,0,0,57,57,36,,,,,165.31953819998307,165.97034929995425,165.97034929995425,166.45887420000508,315,315,166.45887420000508,166.45887420000508,166.45887420000508,166.45887420000508,166.45887420000508,166.45887420000508,166.45887420000508,166.45887420000508,166.45887420000508,166.82115559995873,166.82115559995873,166.82115559995873,166.82115559995873,166.82115559995873,166.82115559995873,166.82115559995873,166.82115559995873,166.82115559995873,23,0,,,166.82115559995873,167.02143329998944,1000,167.02143329998944,1000,1000,1000,1000,0,num_3,0.25956169998971745,,25,13,2026-03-04_18h24.25.326,2026A_exp2,2022.2.4,59.96009055998488,
1000,1,0.0,3.7,0,0,58,58,23,,,,,167.30483449995518,167.95543549995637,167.95543549995637,168.4565284999553,45,315,168.4565284999553,168.4565284999553,168.4565284999553,168.4565284999553,168.4565284999553,168.4565284999553,168.4565284999553,168.4565284999553,168.4565284999553,168.82301289995667,168.82301289995667,168.82301289995667,168.82301289995667,168.82301289995667,168.82301289995667,168.82301289995667,168.82301289995667,168.82301289995667,23,0,,,168.82301289995667,169.02575039997464,1000,169.02575039997464,1000,1000,1000,1000,0,num_3,0.2626801999867894,,25,13,2026-03-04_18h24.25.326,2026A_exp2,2022.2.4,59.96009055998488,
0,0,3.7,0.0,1,0,59,59,1,,,,,169.30693899997277,169.9573298000032,169.9573298000032,170.45858609996503,45,315,170.45858609996503,170.45858609996503,170.45858609996503,170.45858609996503,170.45858609996503,170.45858609996503,170.45858609996503,170.45858609996503,170.45858609996503,170.82495669997297,170.82495669997297,170.82495669997297,170.82495669997297,170.82495669997297,170.82495669997297,170.82495669997297,170.82495669997297,170.82495669997297,23,0,,,170.82495669997297,171.02512399997795,3.7,171.02512399997795,1,3.7,1,1,1000,num_4,0.13535549998050556,,25,13,2026-03-04_18h24.25.326,2026A_exp2,2022.2.4,59.96009055998488,
0,0,6.1,3.7,0,0,60,60,49,,,,,171.1920892999624,171.84266079997178,171.84266079997178,172.34361139999237,315,315,172.34361139999237,172.34361139999237,172.34361139999237,172.34361139999237,172.34361139999237,172.34361139999237,172.34361139999237,172.34361139999237,172.34361139999237,172.71020979998866,172.71020979998866,172.71020979998866,172.71020979998866,172.71020979998866,172.71020979998866,172.71020979998866,172.71020979998866,172.71020979998866,23,0,,,172.71020979998866,172.91029279999202,3.7,172.91029279999202,0,3.7,1,0,1000,num_1,0.2898968000081368,,25,13,2026-03-04_18h24.25.326,2026A_exp2,2022.2.4,59.96009055998488,
1000,1,0.0,0.0,0,0,61,61,64,,,,,173.22750419995282,173.86127439996926,173.86127439996926,174.36250419996213,45,315,174.36250419996213,174.36250419996213,174.36250419996213,174.36250419996213,174.36250419996213,174.36250419996213,174.36250419996213,174.36250419996213,174.36250419996213,174.72896699997364,174.72896699997364,174.72896699997364,174.72896699997364,174.72896699997364,174.72896699997364,174.72896699997364,174.72896699997364,174.72896699997364,23,0,,,174.72896699997364,174.9311215999769,1000,174.9311215999769,1000,1000,1000,1000,0,num_3,0.14901480003027245,,25,13,2026-03-04_18h24.25.326,2026A_exp2,2022.2.4,59.96009055998488,
1000,1,0.0,0.0,0,0,62,62,65,,,,,175.09598189999815,175.74661849997938,175.74661849997938,176.2475262999651,45,315,176.2475262999651,176.2475262999651,176.2475262999651,176.2475262999651,176.2475262999651,176.2475262999651,176.2475262999651,176.2475262999651,176.2475262999651,176.597338499967,176.597338499967,176.597338499967,176.597338499967,176.597338499967,176.597338499967,176.597338499967,176.597338499967,176.597338499967,22,0,,,176.597338499967,176.79946569999447,1000,176.81436999997823,1000,1000,1000,1000,0,num_3,0.06622719997540116,,25,13,2026-03-04_18h24.25.326,2026A_exp2,2022.2.4,59.96009055998488,
1000,1,0.0,0.0,0,0,63,63,72,,,,,176.89773229998536,177.54839919996448,177.54839919996448,178.04952179995598,315,315,178.04952179995598,178.04952179995598,178.04952179995598,178.04952179995598,178.04952179995598,178.04952179995598,178.04952179995598,178.04952179995598,178.04952179995598,178.41589539998677,178.41589539998677,178.41589539998677,178.41589539998677,178.41589539998677,178.41589539998677,178.41589539998677,178.41589539998677,178.41589539998677,23,0,,,178.41589539998677,178.61610089999158,1000,178.61610089999158,1000,1000,1000,1000,0,num_3,0.22425509995082393,,25,13,2026-03-04_18h24.25.326,2026A_exp2,2022.2.4,59.96009055998488,
1000,1,6.1,4.9,0,0,64,64,51,,,,,178.86897700000554,179.516984899994,179.516984899994,180.0181508999667,45,45,180.0181508999667,180.0181508999667,180.0181508999667,180.0181508999667,180.0181508999667,180.0181508999667,180.0181508999667,180.0181508999667,180.0181508999667,180.3845614999882,180.3845614999882,180.3845614999882,180.3845614999882,180.3845614999882,180.3845614999882,180.3845614999882,180.3845614999882,180.3845614999882,23,0,,,180.3845614999882,180.58667609997792,1000,180.58667609997792,1000,1000,1000,1000,0,num_3,0.12513749999925494,,25,13,2026-03-04_18h24.25.326,2026A_exp2,2022.2.4,59.96009055998488,
0,0,0.0,0.0,0,0,65,65,15,,,,,180.73506099998485,181.38558000000194,181.38558000000194,181.8699493999593,315,45,181.8699493999593,181.8699493999593,181.8699493999593,181.8699493999593,181.8699493999593,181.8699493999593,181.8699493999593,181.8699493999593,181.8699493999593,182.2363456999883,182.2363456999883,182.2363456999883,182.2363456999883,182.2363456999883,182.2363456999883,182.2363456999883,182.2363456999883,182.2363456999883,23,0,,,182.2363456999883,182.43655699997908,0.0,182.43655699997908,0,0.0,0,1,1000,num_1,0.2590000999625772,,25,13,2026-03-04_18h24.25.326,2026A_exp2,2022.2.4,59.96009055998488,
1,0,0.0,0.0,0,0,66,66,87,,,,,182.7200663999538,183.3709860999952,183.3709860999952,183.85530080000171,315,45,183.85530080000171,183.85530080000171,183.85530080000171,183.85530080000171,183.85530080000171,183.85530080000171,183.85530080000171,183.85530080000171,183.85530080000171,184.23828569997568,184.23828569997568,184.23828569997568,184.23828569997568,184.23828569997568,184.23828569997568,184.23828569997568,184.23828569997568,184.23828569997568,24,0,,,184.23828569997568,184.43860539997695,0.0,184.43860539997695,0,0.0,0,1,1000,num_1,0.22569079999811947,,25,13,2026-03-04_18h24.25.326,2026A_exp2,2022.2.4,59.96009055998488,
1000,1,0.0,3.7,0,0,67,67,63,,,,,184.6888942999649,185.33942609996302,185.33942609996302,185.8237043999834,315,315,185.8237043999834,185.8237043999834,185.8237043999834,185.8237043999834,185.8237043999834,185.8237043999834,185.8237043999834,185.8237043999834,185.8237043999834,186.190286499972,186.190286499972,186.190286499972,186.190286499972,186.190286499972,186.190286499972,186.190286499972,186.190286499972,186.190286499972,23,0,,,186.190286499972,186.39235489995917,1000,186.39235489995917,1000,1000,1000,1000,0,num_3,0.3364034999976866,,25,13,2026-03-04_18h24.25.326,2026A_exp2,2022.2.4,59.96009055998488,
1000,1,0.0,0.0,0,0,68,68,45,,,,,186.75766559998738,187.40820429997984,187.40820429997984,187.9094538000063,315,315,187.9094538000063,187.9094538000063,187.9094538000063,187.9094538000063,187.9094538000063,187.9094538000063,187.9094538000063,187.9094538000063,187.9094538000063,188.2590644999873,188.2590644999873,188.2590644999873,188.2590644999873,188.2590644999873,188.2590644999873,188.2590644999873,188.2590644999873,188.2590644999873,22,0,,,188.2590644999873,188.4612044999958,1000,188.4761055999552,1000,1000,1000,1000,0,num_3,0.23549489997094497,,25,13,2026-03-04_18h24.25.326,2026A_exp2,2022.2.4,59.96009055998488,
1000,1,0.0,6.1,1,0,69,69,42,,,,,188.74298379995162,189.39359839999815,189.39359839999815,189.89458649995504,315,315,189.89458649995504,189.89458649995504,189.89458649995504,189.89458649995504,189.89458649995504,189.89458649995504,189.89458649995504,189.89458649995504,189.89458649995504,190.24427729996387,190.24427729996387,190.24427729996387,190.24427729996387,190.24427729996387,190.24427729996387,190.24427729996387,190.24427729996387,190.24427729996387,22,0,,,190.24427729996387,190.4473108999664,1000,190.4473108999664,1000,1000,1000,1000,1,num_2,0.26483469997765496,,25,13,2026-03-04_18h24.25.326,2026A_exp2,2022.2.4,59.96009055998488,
1,0,6.1,0.0,0,0,70,70,85,,,,,190.72834829997737,191.37880319997203,191.37880319997203,191.8800379000022,315,315,191.8800379000022,191.8800379000022,191.8800379000022,191.8800379000022,191.8800379000022,191.8800379000022,191.8800379000022,191.8800379000022,191.8800379000022,192.24648119998164,192.24648119998164,192.24648119998164,192.24648119998164,192.24648119998164,192.24648119998164,192.24648119998164,192.24648119998164,192.24648119998164,23,0,,,192.24648119998164,192.44660359999398,6.1,192.44660359999398,0,6.1,1,0,1000,num_1,0.2891195999691263,,25,13,2026-03-04_18h24.25.326,2026A_exp2,2022.2.4,59.96009055998488,
1000,1,0.0,0.0,1,0,71,71,56,,,,,192.7635919000022,193.4142232000013,193.4142232000013,193.89869709999766,315,45,193.89869709999766,193.89869709999766,193.89869709999766,193.89869709999766,193.89869709999766,193.89869709999766,193.89869709999766,193.89869709999766,193.89869709999766,194.2655184000032,194.2655184000032,194.2655184000032,194.2655184000032,194.2655184000032,194.2655184000032,194.2655184000032,194.2655184000032,194.2655184000032,23,0,,,194.2655184000032,194.46775479998905,1000,194.46775479998905,1000,1000,1000,1000,0,num_3,0.5411602999665774,,25,13,2026-03-04_18h24.25.326,2026A_exp2,2022.2.4,59.96009055998488,
1000,1,0.0,0.0,0,0,72,72,57,,,,,195.03257009998197,195.6832116000005,195.6832116000005,196.18447099998593,315,315,196.18447099998593,196.18447099998593,196.18447099998593,196.18447099998593,196.18447099998593,196.18447099998593,196.18447099998593,196.18447099998593,196.18447099998593,196.5505630999687,196.5505630999687,196.5505630999687,196.5505630999687,196.5505630999687,196.5505630999687,196.5505630999687,196.5505630999687,196.5505630999687,23,0,,,196.5505630999687,196.75295140000526,1000,196.75295140000526,1000,1000,1000,1000,0,num_3,0.4392391000292264,,25,13,2026-03-04_18h24.25.326,2026A_exp2,2022.2.4,59.96009055998488,
1000,1,4.9,0.0,0,0,73,73,50,,,,,197.21797519997926,197.86871829995653,197.86871829995653,198.3699043999659,315,45,198.3699043999659,198.3699043999659,198.3699043999659,198.3699043999659,198.3699043999659,198.3699043999659,198.3699043999659,198.3699043999659,198.3699043999659,198.73612689995207,198.73612689995207,198.73612689995207,198.73612689995207,198.73612689995207,198.73612689995207,198.73612689995207,198.73612689995207,198.73612689995207,23,0,,,198.73612689995207,198.9555779999937,1000,198.9555779999937,1000,1000,1000,1000,0,num_3,0.2525574999745004,,25,13,2026-03-04_18h24.25.326,2026A_exp2,2022.2.4,59.96009055998488,
1000,1,4.9,0.0,1,0,74,74,67,,,,,199.2368220000062,199.88747229997534,199.88747229997534,200.38825459999498,315,315,200.38825459999498,200.38825459999498,200.38825459999498,200.38825459999498,200.38825459999498,200.38825459999498,200.38825459999498,200.38825459999498,200.38825459999498,200.7547664999729,200.7547664999729,200.7547664999729,200.7547664999729,200.7547664999729,200.7547664999729,200.7547664999729,200.7547664999729,200.7547664999729,23,0,,,200.7547664999729,200.95710439997492,1000,200.95710439997492,1000,1000,1000,1000,1,num_2,0.10746530001051724,,25,13,2026-03-04_18h24.25.326,2026A_exp2,2022.2.4,59.96009055998488,
1000,1,0.0,6.1,1,0,75,75,74,,,,,201.08855539996875,201.73929379996844,201.73929379996844,202.24031589995138,45,315,202.24031589995138,202.24031589995138,202.24031589995138,202.24031589995138,202.24031589995138,202.24031589995138,202.24031589995138,202.24031589995138,202.24031589995138,202.60680799995316,202.60680799995316,202.60680799995316,202.60680799995316,202.60680799995316,202.60680799995316,202.60680799995316,202.60680799995316,202.60680799995316,23,0,,,202.60680799995316,202.80865899997298,1000,202.80865899997298,1000,1000,1000,1000,1,num_2,0.10432619997300208,,25,13,2026-03-04_18h24.25.326,2026A_exp2,2022.2.4,59.96009055998488,
1000,1,0.0,4.9,0,0,76,76,8,,,,,202.94049899996025,203.5910087999655,203.5910087999655,204.09210469998652,315,315,204.09210469998652,204.09210469998652,204.09210469998652,204.09210469998652,204.09210469998652,204.09210469998652,204.09210469998652,204.09210469998652,204.09210469998652,204.45855429995572,204.45855429995572,204.45855429995572,204.45855429995572,204.45855429995572,204.45855429995572,204.45855429995572,204.45855429995572,204.45855429995572,23,0,,,204.45855429995572,204.66086319996975,1000,204.66086319996975,1000,1000,1000,1000,0,num_3,0.16357630002312362,,25,13,2026-03-04_18h24.25.326,2026A_exp2,2022.2.4,59.96009055998488,
1000,1,0.0,3.7,1,0,77,77,88,,,,,204.8425220999634,205.47625700000208,205.47625700000208,205.97753129998455,315,315,205.97753129998455,205.97753129998455,205.97753129998455,205.97753129998455,205.97753129998455,205.97753129998455,205.97753129998455,205.97753129998455,205.97753129998455,206.3438671999611,206.3438671999611,206.3438671999611,206.3438671999611,206.3438671999611,206.3438671999611,206.3438671999611,206.3438671999611,206.3438671999611,23,0,,,206.3438671999611,206.54564510000637,1000,206.54564510000637,1000,1000,1000,1000,1,num_2,0.18267299997387454,,25,13,2026-03-04_18h24.25.326,2026A_exp2,2022.2.4,59.96009055998488,
1000,1,0.0,4.9,0,0,78,78,0,,,,,206.7443282000022,207.39486929995473,207.39486929995473,207.89603449997958,45,315,207.89603449997958,207.89603449997958,207.89603449997958,207.89603449997958,207.89603449997958,207.89603449997958,207.89603449997958,207.89603449997958,207.89603449997958,208.26229039998725,208.26229039998725,208.26229039998725,208.26229039998725,208.26229039998725,208.26229039998725,208.26229039998725,208.26229039998725,208.26229039998725,23,0,,,208.26229039998725,208.46443019999424,1000,208.46443019999424,1000,1000,1000,1000,0,num_3,0.23172340000746772,,25,13,2026-03-04_18h24.25.326,2026A_exp2,2022.2.4,59.96009055998488,
1,0,0.0,0.0,1,0,79,79,33,,,,,208.7130049999687,209.36353209998924,209.36353209998924,209.8647388999816,45,315,209.8647388999816,209.8647388999816,209.8647388999816,209.8647388999816,209.8647388999816,209.8647388999816,209.8647388999816,209.8647388999816,209.8647388999816,210.2310940999887,210.2310940999887,210.2310940999887,210.2310940999887,210.2310940999887,210.2310940999887,210.2310940999887,210.2310940999887,210.2310940999887,23,0,,,210.2310940999887,210.43128499999875,0.0,210.43128499999875,1,0.0,0,0,1000,num_4,0.816581099992618,,25,13,2026-03-04_18h24.25.326,2026A_exp2,2022.2.4,59.96009055998488,
1000,1,6.1,0.0,1,0,80,80,79,,,,,211.26534469996113,211.91597659996478,211.91597659996478,212.40041559998645,45,45,212.40041559998645,212.40041559998645,212.40041559998645,212.40041559998645,212.40041559998645,212.40041559998645,212.40041559998645,212.40041559998645,212.40041559998645,212.76702400000067,212.76702400000067,212.76702400000067,212.76702400000067,212.76702400000067,212.76702400000067,212.76702400000067,212.76702400000067,212.76702400000067,23,0,,,212.76702400000067,212.9694249999593,1000,212.9694249999593,1000,1000,1000,1000,1,num_2,0.16663340001832694,,25,13,2026-03-04_18h24.25.326,2026A_exp2,2022.2.4,59.96009055998488,
1,0,0.0,0.0,1,0,81,81,38,,,,,213.167059600004,213.80135239998344,213.80135239998344,214.30243929999415,315,315,214.30243929999415,214.30243929999415,214.30243929999415,214.30243929999415,214.30243929999415,214.30243929999415,214.30243929999415,214.30243929999415,214.30243929999415,214.66880839999067,214.66880839999067,214.66880839999067,214.66880839999067,214.66880839999067,214.66880839999067,214.66880839999067,214.66880839999067,214.66880839999067,23,0,,,214.66880839999067,214.8689956999733,0.0,214.8689956999733,1,0.0,0,0,1000,num_4,0.4273755999747664,,25,13,2026-03-04_18h24.25.326,2026A_exp2,2022.2.4,59.96009055998488,
1000,1,3.7,0.0,0,0,82,82,35,,,,,215.31950339995092,215.97015959996497,215.97015959996497,216.45462489995407,315,45,216.45462489995407,216.45462489995407,216.45462489995407,216.45462489995407,216.45462489995407,216.45462489995407,216.45462489995407,216.45462489995407,216.45462489995407,216.82080190000124,216.82080190000124,216.82080190000124,216.82080190000124,216.82080190000124,216.82080190000124,216.82080190000124,216.82080190000124,216.82080190000124,23,0,,,216.82080190000124,217.02294559997972,1000,217.02294559997972,1000,1000,1000,1000,0,num_3,0.3207503000157885,,25,13,2026-03-04_18h24.25.326,2026A_exp2,2022.2.4,59.96009055998488,
1,0,0.0,4.9,0,0,83,83,14,,,,,217.37163529999088,218.02222879999317,218.02222879999317,218.52331799996318,315,315,218.52331799996318,218.52331799996318,218.52331799996318,218.52331799996318,218.52331799996318,218.52331799996318,218.52331799996318,218.52331799996318,218.52331799996318,218.88974620000226,218.88974620000226,218.88974620000226,218.88974620000226,218.88974620000226,218.88974620000226,218.88974620000226,218.88974620000226,218.88974620000226,23,0,,,218.88974620000226,219.08975389995612,0.0,219.08975389995612,0,0.0,0,1,1000,num_1,0.630398300010711,,25,13,2026-03-04_18h24.25.326,2026A_exp2,2022.2.4,59.96009055998488,
1,0,4.9,4.9,1,0,84,84,9,,,,,219.7406242999714,220.39121400000295,220.39121400000295,220.87551969999913,45,315,220.87551969999913,220.87551969999913,220.87551969999913,220.87551969999913,220.87551969999913,220.87551969999913,220.87551969999913,220.87551969999913,220.87551969999913,221.24258639995242,221.24258639995242,221.24258639995242,221.24258639995242,221.24258639995242,221.24258639995242,221.24258639995242,221.24258639995242,221.24258639995242,23,0,,,221.24258639995242,221.44214429997373,4.9,221.44214429997373,1,4.9,1,1,1000,num_4,0.5735020999563858,,25,13,2026-03-04_18h24.25.326,2026A_exp2,2022.2.4,59.96009055998488,
1000,1,0.0,0.0,1,0,85,85,2,,,,,222.04290669999318,222.69352479994996,222.69352479994996,223.1778810999822,45,45,223.1778810999822,223.1778810999822,223.1778810999822,223.1778810999822,223.1778810999822,223.1778810999822,223.1778810999822,223.1778810999822,223.1778810999822,223.54437449999386,223.54437449999386,223.54437449999386,223.54437449999386,223.54437449999386,223.54437449999386,223.54437449999386,223.54437449999386,223.54437449999386,23,0,,,223.54437449999386,223.74694499996258,1000,223.74694499996258,1000,1000,1000,1000,1,num_2,0.101327600015793,,25,13,2026-03-04_18h24.25.326,2026A_exp2,2022.2.4,59.96009055998488,
1000,1,0.0,0.0,1,0,86,86,29,,,,,223.87807999999495,224.52852209995035,224.52852209995035,225.02984699996887,45,45,225.02984699996887,225.02984699996887,225.02984699996887,225.02984699996887,225.02984699996887,225.02984699996887,225.02984699996887,225.02984699996887,225.02984699996887,225.39606800000183,225.39606800000183,225.39606800000183,225.39606800000183,225.39606800000183,225.39606800000183,225.39606800000183,225.39606800000183,225.39606800000183,23,0,,,225.39606800000183,225.59829809999792,1000,225.59829809999792,1000,1000,1000,1000,0,num_3,0.1694615999585949,,25,13,2026-03-04_18h24.25.326,2026A_exp2,2022.2.4,59.96009055998488,
1,0,0.0,6.1,0,0,87,87,24,,,,,225.79659769998398,226.4471874999581,226.4471874999581,226.94826209999155,315,45,226.94826209999155,226.94826209999155,226.94826209999155,226.94826209999155,226.94826209999155,226.94826209999155,226.94826209999155,226.94826209999155,226.94826209999155,227.31475849996787,227.31475849996787,227.31475849996787,227.31475849996787,227.31475849996787,227.31475849996787,227.31475849996787,227.31475849996787,227.31475849996787,23,0,,,227.31475849996787,227.51496259996202,0.0,227.51496259996202,1,0.0,0,0,1000,num_4,0.6287449999945238,,25,13,2026-03-04_18h24.25.326,2026A_exp2,2022.2.4,59.96009055998488,
1000,1,3.7,0.0,0,0,88,88,39,,,,,228.16568360000383,228.81620899995323,228.81620899995323,229.30063839996,45,315,229.30063839996,229.30063839996,229.30063839996,229.30063839996,229.30063839996,229.30063839996,229.30063839996,229.30063839996,229.30063839996,229.66701979999198,229.66701979999198,229.66701979999198,229.66701979999198,229.66701979999198,229.66701979999198,229.66701979999198,229.66701979999198,229.66701979999198,23,0,,,229.66701979999198,229.86934719997225,1000,229.86934719997225,1000,1000,1000,1000,0,num_3,0.2505172999808565,,25,13,2026-03-04_18h24.25.326,2026A_exp2,2022.2.4,59.96009055998488,
1,0,3.7,6.1,1,0,89,89,68,,,,,230.15085689997068,230.80168139998568,230.80168139998568,231.30272129998775,45,45,231.30272129998775,231.30272129998775,231.30272129998775,231.30272129998775,231.30272129998775,231.30272129998775,231.30272129998775,231.30272129998775,231.30272129998775,231.65250969998306,231.65250969998306,231.65250969998306,231.65250969998306,231.65250969998306,231.65250969998306,231.65250969998306,231.65250969998306,231.65250969998306,22,0,,,231.65250969998306,231.85276149999117,6.1,231.85276149999117,1,6.1,1,1,1000,num_4,0.539703999995254,,25,13,2026-03-04_18h24.25.326,2026A_exp2,2022.2.4,59.96009055998488,
,,,,,,,,,,,,,,,,,,,,,,,,,,,,,,,,,,,,,,,,,,,,,,,,,,,,232.42806409997866,,,,,,,
