validity,detectorcomp,contrastCW,contrastCCW,precueCWorCCW,block_80trials.thisRepN,block_80trials.thisTrialN,block_80trials.thisN,block_80trials.thisIndex,etRecord.started,etRecord.stopped,text.started,text.stopped,text_4.started,text_4.stopped,text_6.started,text_6.stopped,oriCW,oriCCW,roi_2.started,grating_UR.started,grating_UL.started,grating_LR.started,grating_LL.started,noise_UR.started,noise_UL.started,noise_LR.started,noise_LL.started,roi_2.stopped,grating_UR.stopped,grating_UL.stopped,grating_LR.stopped,grating_LL.stopped,noise_UR.stopped,noise_UL.stopped,noise_LR.stopped,noise_LL.stopped,outframe,roi_2.numLooks,roi_2.timesOn,roi_2.timesOff,text_2.started,text_2.stopped,probedcontrast,key_resp.started,respdetect,relevantContrast,correctDetect,TorFdetect,respCWorCCW,key_resp.keys,key_resp.rt,feedback_display_.started,participantNo,blockNo,date,expName,psychopyVersion,frameRate,
1,0,3.7,0.0,1,0,0,0,13,3.5800039768218994e-05,3.5800039768218994e-05,52.82906139997067,54.83159929997055,54.83159929997055,55.465848699968774,55.465848699968774,55.98813509999309,315,45,55.98813509999309,55.98813509999309,55.98813509999309,55.98813509999309,55.98813509999309,55.98813509999309,55.98813509999309,55.98813509999309,55.98813509999309,56.33339909999631,56.33339909999631,56.33339909999631,56.33339909999631,56.33339909999631,56.33339909999631,56.33339909999631,56.33339909999631,56.33339909999631,23,0,,,56.33339909999631,56.53370559995528,0.0,56.53370559995528,1,0.0,0,0,1000,num_4,1.8256219000322744,,28,9,2026-03-05_16h15.17.067,2026A_exp2,2022.2.4,59.997288129865375,
1000,1,0.0,6.1,1,0,1,1,19,,,,,58.38534629996866,59.03614729997935,59.03614729997935,59.5206222999841,45,45,59.5206222999841,59.5206222999841,59.5206222999841,59.5206222999841,59.5206222999841,59.5206222999841,59.5206222999841,59.5206222999841,59.5206222999841,59.88704519998282,59.88704519998282,59.88704519998282,59.88704519998282,59.88704519998282,59.88704519998282,59.88704519998282,59.88704519998282,59.88704519998282,20,1,[0.06691609998233616],[0.11716269998578355],59.88704519998282,60.08711550000589,1000,60.08711550000589,1000,1000,1000,1000,0,num_3,0.616032499994617,,28,9,2026-03-05_16h15.17.067,2026A_exp2,2022.2.4,59.997288129865375,
1,0,3.7,4.9,1,0,2,2,71,,,,,60.72121019999031,61.37206339999102,61.37206339999102,61.87294619996101,45,315,61.87294619996101,61.87294619996101,61.87294619996101,61.87294619996101,61.87294619996101,61.87294619996101,61.87294619996101,61.87294619996101,61.87294619996101,62.2227190999547,62.2227190999547,62.2227190999547,62.2227190999547,62.2227190999547,62.2227190999547,62.2227190999547,62.2227190999547,62.2227190999547,22,0,,,62.2227190999547,62.42282049998175,4.9,62.42282049998175,1,4.9,1,1,1000,num_4,0.8796291000326164,,28,9,2026-03-05_16h15.17.067,2026A_exp2,2022.2.4,59.997288129865375,
1000,1,0.0,4.9,0,0,3,3,74,,,,,63.32361550000496,63.97442809998756,63.97442809998756,64.45858989999397,45,315,64.45858989999397,64.45858989999397,64.45858989999397,64.45858989999397,64.45858989999397,64.45858989999397,64.45858989999397,64.45858989999397,64.45858989999397,64.82527079997817,64.82527079997817,64.82527079997817,64.82527079997817,64.82527079997817,64.82527079997817,64.82527079997817,64.82527079997817,64.82527079997817,23,0,,,64.82527079997817,65.02729919995181,1000,65.02729919995181,1000,1000,1000,1000,0,num_3,0.5638023000210524,,28,9,2026-03-05_16h15.17.067,2026A_exp2,2022.2.4,59.997288129865375,
1000,1,6.1,4.9,0,0,4,4,49,,,,,65.60947179998038,66.26014269998996,66.26014269998996,66.74453599995468,45,315,66.74453599995468,66.74453599995468,66.74453599995468,66.74453599995468,66.74453599995468,66.74453599995468,66.74453599995468,66.74453599995468,66.74453599995468,67.11081230000127,67.11081230000127,67.11081230000127,67.11081230000127,67.11081230000127,67.11081230000127,67.11081230000127,67.11081230000127,67.11081230000127,23,0,,,67.11081230000127,67.31256619998021,1000,67.31256619998021,1000,1000,1000,1000,0,num_3,0.6784266000031494,,28,9,2026-03-05_16h15.17.067,2026A_exp2,2022.2.4,59.997288129865375,
1000,1,0.0,6.1,0,0,5,5,35,,,,,68.01182439998956,68.66246079996927,68.66246079996927,69.1633245999692,45,315,69.1633245999692,69.1633245999692,69.1633245999692,69.1633245999692,69.1633245999692,69.1633245999692,69.1633245999692,69.1633245999692,69.1633245999692,69.52992279996397,69.52992279996397,69.52992279996397,69.52992279996397,69.52992279996397,69.52992279996397,69.52992279996397,69.52992279996397,69.52992279996397,23,0,,,69.52992279996397,69.73212429997511,1000,69.73212429997511,1000,1000,1000,1000,1,num_2,0.49030070001026616,,28,9,2026-03-05_16h15.17.067,2026A_exp2,2022.2.4,59.997288129865375,
1,0,3.7,0.0,1,0,6,6,11,,,,,70.24719129997538,70.8980387999909,70.8980387999909,71.39919629995711,315,45,71.39919629995711,71.39919629995711,71.39919629995711,71.39919629995711,71.39919629995711,71.39919629995711,71.39919629995711,71.39919629995711,71.39919629995711,71.76559059997089,71.76559059997089,71.76559059997089,71.76559059997089,71.76559059997089,71.76559059997089,71.76559059997089,71.76559059997089,71.76559059997089,23,0,,,71.76559059997089,71.96580780000659,0.0,71.96580780000659,1,0.0,0,0,1000,num_4,0.5375791999977082,,28,9,2026-03-05_16h15.17.067,2026A_exp2,2022.2.4,59.997288129865375,
1000,1,6.1,0.0,0,0,7,7,59,,,,,72.53277509997133,73.18358609999996,73.18358609999996,73.66802419995656,315,45,73.66802419995656,73.66802419995656,73.66802419995656,73.66802419995656,73.66802419995656,73.66802419995656,73.66802419995656,73.66802419995656,73.66802419995656,74.03447640000377,74.03447640000377,74.03447640000377,74.03447640000377,74.03447640000377,74.03447640000377,74.03447640000377,74.03447640000377,74.03447640000377,23,0,,,74.03447640000377,74.23669099999825,1000,74.23669099999825,1000,1000,1000,1000,0,num_3,1.1226247000158764,,28,9,2026-03-05_16h15.17.067,2026A_exp2,2022.2.4,59.997288129865375,
1,0,0.0,3.7,0,0,8,8,61,,,,,75.38573989999713,76.0365199999651,76.0365199999651,76.537485799985,45,45,76.537485799985,76.537485799985,76.537485799985,76.537485799985,76.537485799985,76.537485799985,76.537485799985,76.537485799985,76.537485799985,76.90399309998611,76.90399309998611,76.90399309998611,76.90399309998611,76.90399309998611,76.90399309998611,76.90399309998611,76.90399309998611,76.90399309998611,23,0,,,76.90399309998611,77.10407719999785,0.0,77.10407719999785,0,0.0,0,1,1000,num_1,0.726904499984812,,28,9,2026-03-05_16h15.17.067,2026A_exp2,2022.2.4,59.997288129865375,
1,0,6.1,4.9,0,0,9,9,81,,,,,77.85477299999911,78.50561389996437,78.50561389996437,78.99008419999154,315,315,78.99008419999154,78.99008419999154,78.99008419999154,78.99008419999154,78.99008419999154,78.99008419999154,78.99008419999154,78.99008419999154,78.99008419999154,79.35644020000473,79.35644020000473,79.35644020000473,79.35644020000473,79.35644020000473,79.35644020000473,79.35644020000473,79.35644020000473,79.35644020000473,23,0,,,79.35644020000473,79.5565968999872,6.1,79.5565968999872,1,6.1,1,1,1000,num_4,0.8429251000052318,,28,9,2026-03-05_16h15.17.067,2026A_exp2,2022.2.4,59.997288129865375,
1000,1,3.7,0.0,0,0,10,10,66,,,,,80.42402859998401,81.07490959996358,81.07490959996358,81.55930089997128,45,45,81.55930089997128,81.55930089997128,81.55930089997128,81.55930089997128,81.55930089997128,81.55930089997128,81.55930089997128,81.55930089997128,81.55930089997128,81.9257612999645,81.9257612999645,81.9257612999645,81.9257612999645,81.9257612999645,81.9257612999645,81.9257612999645,81.9257612999645,81.9257612999645,23,0,,,81.9257612999645,82.1279072999605,1000,82.1279072999605,1000,1000,1000,1000,0,num_3,0.7503058000002056,,28,9,2026-03-05_16h15.17.067,2026A_exp2,2022.2.4,59.997288129865375,
1000,1,0.0,4.9,1,0,11,11,55,,,,,82.89333349996014,83.54405219998443,83.54405219998443,84.05232769995928,315,315,84.05232769995928,84.05232769995928,84.05232769995928,84.05232769995928,84.05232769995928,84.05232769995928,84.05232769995928,84.05232769995928,84.05232769995928,84.41159039997729,84.41159039997729,84.41159039997729,84.41159039997729,84.41159039997729,84.41159039997729,84.41159039997729,84.41159039997729,84.41159039997729,23,0,,,84.41159039997729,84.61414560000412,1000,84.61414560000412,1000,1000,1000,1000,1,num_2,1.1367963000084274,,28,9,2026-03-05_16h15.17.067,2026A_exp2,2022.2.4,59.997288129865375,
1000,1,0.0,0.0,1,0,12,12,16,,,,,85.76623579999432,86.413935199962,86.413935199962,86.91467189998366,45,315,86.91467189998366,86.91467189998366,86.91467189998366,86.91467189998366,86.91467189998366,86.91467189998366,86.91467189998366,86.91467189998366,86.91467189998366,87.28109479998238,87.28109479998238,87.28109479998238,87.28109479998238,87.28109479998238,87.28109479998238,87.28109479998238,87.28109479998238,87.28109479998238,23,0,,,87.28109479998238,87.48292519996176,1000,87.48292519996176,1000,1000,1000,1000,0,num_3,0.04347189998952672,,28,9,2026-03-05_16h15.17.067,2026A_exp2,2022.2.4,59.997288129865375,
1,0,0.0,0.0,0,0,13,13,17,,,,,87.54780679999385,88.19868489995133,88.19868489995133,88.6996427999693,315,315,88.6996427999693,88.6996427999693,88.6996427999693,88.6996427999693,88.6996427999693,88.6996427999693,88.6996427999693,88.6996427999693,88.6996427999693,89.04953319998458,89.04953319998458,89.04953319998458,89.04953319998458,89.04953319998458,89.04953319998458,89.04953319998458,89.04953319998458,89.04953319998458,22,0,,,89.04953319998458,89.24964389996603,0.0,89.24964389996603,0,0.0,0,1,1000,num_1,0.5966762999887578,,28,9,2026-03-05_16h15.17.067,2026A_exp2,2022.2.4,59.997288129865375,
1,0,4.9,4.9,0,0,14,14,39,,,,,89.86686379997991,90.51770699996268,90.51770699996268,91.01855849998537,45,315,91.01855849998537,91.01855849998537,91.01855849998537,91.01855849998537,91.01855849998537,91.01855849998537,91.01855849998537,91.01855849998537,91.01855849998537,91.3684994999785,91.3684994999785,91.3684994999785,91.3684994999785,91.3684994999785,91.3684994999785,91.3684994999785,91.3684994999785,91.3684994999785,22,0,,,91.3684994999785,91.56866109999828,4.9,91.56866109999828,0,4.9,1,0,1000,num_1,0.390459300018847,,28,9,2026-03-05_16h15.17.067,2026A_exp2,2022.2.4,59.997288129865375,
1,0,0.0,0.0,1,0,15,15,41,,,,,91.98562029999448,92.63637659995584,92.63637659995584,93.1208864999935,45,315,93.1208864999935,93.1208864999935,93.1208864999935,93.1208864999935,93.1208864999935,93.1208864999935,93.1208864999935,93.1208864999935,93.1208864999935,93.48725619999459,93.48725619999459,93.48725619999459,93.48725619999459,93.48725619999459,93.48725619999459,93.48725619999459,93.48725619999459,93.48725619999459,23,0,,,93.48725619999459,93.6873819999746,0.0,93.6873819999746,1,0.0,0,0,1000,num_4,0.3510702000348829,,28,9,2026-03-05_16h15.17.067,2026A_exp2,2022.2.4,59.997288129865375,
1000,1,0.0,0.0,1,0,16,16,56,,,,,94.05432929995004,94.70519009995041,94.70519009995041,95.18957960000262,45,45,95.18957960000262,95.18957960000262,95.18957960000262,95.18957960000262,95.18957960000262,95.18957960000262,95.18957960000262,95.18957960000262,95.18957960000262,95.55600139999297,95.55600139999297,95.55600139999297,95.55600139999297,95.55600139999297,95.55600139999297,95.55600139999297,95.55600139999297,95.55600139999297,23,0,,,95.55600139999297,95.75803619995713,1000,95.75803619995713,1000,1000,1000,1000,1,num_2,0.7846257999772206,,28,9,2026-03-05_16h15.17.067,2026A_exp2,2022.2.4,59.997288129865375,
1000,1,0.0,6.1,1,0,17,17,3,,,,,96.57360780000454,97.22430729999905,97.22430729999905,97.72530259995256,315,45,97.72530259995256,97.72530259995256,97.72530259995256,97.72530259995256,97.72530259995256,97.72530259995256,97.72530259995256,97.72530259995256,97.72530259995256,98.09184039995307,98.09184039995307,98.09184039995307,98.09184039995307,98.09184039995307,98.09184039995307,98.09184039995307,98.09184039995307,98.09184039995307,23,0,,,98.09184039995307,98.29396439995617,1000,98.29396439995617,1000,1000,1000,1000,0,num_3,0.624840900010895,,28,9,2026-03-05_16h15.17.067,2026A_exp2,2022.2.4,59.997288129865375,
1,0,3.7,3.7,1,0,18,18,86,,,,,98.94259389996296,99.5935385999619,99.5935385999619,100.09448619995965,315,315,100.09448619995965,100.09448619995965,100.09448619995965,100.09448619995965,100.09448619995965,100.09448619995965,100.09448619995965,100.09448619995965,100.09448619995965,100.46086549997563,100.46086549997563,100.46086549997563,100.46086549997563,100.46086549997563,100.46086549997563,100.46086549997563,100.46086549997563,100.46086549997563,23,0,,,100.46086549997563,100.66117360000499,3.7,100.66117360000499,0,3.7,1,0,1000,num_1,0.2810549999703653,,28,9,2026-03-05_16h15.17.067,2026A_exp2,2022.2.4,59.997288129865375,
1,0,4.9,3.7,0,0,19,19,63,,,,,100.9615116000059,101.59533329994883,101.59533329994883,102.09651929995744,45,315,102.09651929995744,102.09651929995744,102.09651929995744,102.09651929995744,102.09651929995744,102.09651929995744,102.09651929995744,102.09651929995744,102.09651929995744,102.46273989998735,102.46273989998735,102.46273989998735,102.46273989998735,102.46273989998735,102.46273989998735,102.46273989998735,102.46273989998735,102.46273989998735,23,0,,,102.46273989998735,102.66308440000284,4.9,102.66308440000284,0,4.9,1,0,1000,num_1,0.2401022000121884,,28,9,2026-03-05_16h15.17.067,2026A_exp2,2022.2.4,59.997288129865375,
1,0,4.9,3.7,1,0,20,20,26,,,,,102.9300439999788,103.58056069997838,103.58056069997838,104.06507680000504,45,45,104.06507680000504,104.06507680000504,104.06507680000504,104.06507680000504,104.06507680000504,104.06507680000504,104.06507680000504,104.06507680000504,104.06507680000504,104.4315757000004,104.4315757000004,104.4315757000004,104.4315757000004,104.4315757000004,104.4315757000004,104.4315757000004,104.4315757000004,104.4315757000004,23,0,,,104.4315757000004,104.63174709997838,3.7,104.63174709997838,1,3.7,1,1,1000,num_4,0.5353383000474423,,28,9,2026-03-05_16h15.17.067,2026A_exp2,2022.2.4,59.997288129865375,
1,0,4.9,0.0,1,0,21,21,25,,,,,105.1990026999847,105.84960749995662,105.84960749995662,106.3339082999737,315,315,106.3339082999737,106.3339082999737,106.3339082999737,106.3339082999737,106.3339082999737,106.3339082999737,106.3339082999737,106.3339082999737,106.3339082999737,106.70050929998979,106.70050929998979,106.70050929998979,106.70050929998979,106.70050929998979,106.70050929998979,106.70050929998979,106.70050929998979,106.70050929998979,23,0,,,106.70050929998979,106.90070669999113,0.0,106.90070669999113,0,0.0,0,1,1000,num_1,0.9943405999802053,,28,9,2026-03-05_16h15.17.067,2026A_exp2,2022.2.4,59.997288129865375,
1,0,0.0,0.0,0,0,22,22,34,,,,,107.91821859998163,108.56907159998082,108.56907159998082,109.05328249995364,45,315,109.05328249995364,109.05328249995364,109.05328249995364,109.05328249995364,109.05328249995364,109.05328249995364,109.05328249995364,109.05328249995364,109.05328249995364,109.4198791999952,109.4198791999952,109.4198791999952,109.4198791999952,109.4198791999952,109.4198791999952,109.4198791999952,109.4198791999952,109.4198791999952,23,0,,,109.4198791999952,109.62011889996938,0.0,109.62011889996938,1,0.0,0,0,1000,num_4,0.31407890003174543,,28,9,2026-03-05_16h15.17.067,2026A_exp2,2022.2.4,59.997288129865375,
0,0,0.0,3.7,0,0,23,23,47,,,,,109.9536986000021,110.60438350000186,110.60438350000186,111.08874819998164,315,315,111.08874819998164,111.08874819998164,111.08874819998164,111.08874819998164,111.08874819998164,111.08874819998164,111.08874819998164,111.08874819998164,111.08874819998164,111.45516439998755,111.45516439998755,111.45516439998755,111.45516439998755,111.45516439998755,111.45516439998755,111.45516439998755,111.45516439998755,111.45516439998755,23,0,,,111.45516439998755,111.65547439997317,3.7,111.65547439997317,0,3.7,1,0,1000,num_1,0.8552477000048384,,28,9,2026-03-05_16h15.17.067,2026A_exp2,2022.2.4,59.997288129865375,
1000,1,0.0,4.9,0,0,24,24,5,,,,,112.53962919994956,113.19016169995302,113.19016169995302,113.67460809997283,315,45,113.67460809997283,113.67460809997283,113.67460809997283,113.67460809997283,113.67460809997283,113.67460809997283,113.67460809997283,113.67460809997283,113.67460809997283,114.04116029996658,114.04116029996658,114.04116029996658,114.04116029996658,114.04116029996658,114.04116029996658,114.04116029996658,114.04116029996658,114.04116029996658,23,0,,,114.04116029996658,114.24304709996795,1000,114.24304709996795,1000,1000,1000,1000,0,num_3,0.5797852000105195,,28,9,2026-03-05_16h15.17.067,2026A_exp2,2022.2.4,59.997288129865375,
1,0,0.0,0.0,0,0,25,25,44,,,,,114.84206080000149,115.49259639997035,115.49259639997035,115.99362379999366,315,315,115.99362379999366,115.99362379999366,115.99362379999366,115.99362379999366,115.99362379999366,115.99362379999366,115.99362379999366,115.99362379999366,115.99362379999366,116.36004489997867,116.36004489997867,116.36004489997867,116.36004489997867,116.36004489997867,116.36004489997867,116.36004489997867,116.36004489997867,116.36004489997867,23,0,,,116.36004489997867,116.56034539995017,0.0,116.56034539995017,0,0.0,0,1,1000,num_1,0.6703749999869615,,28,9,2026-03-05_16h15.17.067,2026A_exp2,2022.2.4,59.997288129865375,
1,0,6.1,6.1,0,0,26,26,27,,,,,117.2609171999502,117.91199459997006,117.91199459997006,118.39619449997554,45,315,118.39619449997554,118.39619449997554,118.39619449997554,118.39619449997554,118.39619449997554,118.39619449997554,118.39619449997554,118.39619449997554,118.39619449997554,118.76246820000233,118.76246820000233,118.76246820000233,118.76246820000233,118.76246820000233,118.76246820000233,118.76246820000233,118.76246820000233,118.76246820000233,23,0,,,118.76246820000233,118.96272819995647,6.1,118.96272819995647,0,6.1,1,0,1000,num_1,0.8517735000350513,,28,9,2026-03-05_16h15.17.067,2026A_exp2,2022.2.4,59.997288129865375,
1000,1,0.0,0.0,0,0,27,27,45,,,,,119.8470608999487,120.48079469997901,120.48079469997901,120.9976279999828,45,315,120.9976279999828,120.9976279999828,120.9976279999828,120.9976279999828,120.9976279999828,120.9976279999828,120.9976279999828,120.9976279999828,120.9976279999828,121.3484890999971,121.3484890999971,121.3484890999971,121.3484890999971,121.3484890999971,121.3484890999971,121.3484890999971,121.3484890999971,121.3484890999971,23,0,,,121.3484890999971,121.55027639999753,1000,121.55027639999753,1000,1000,1000,1000,0,num_3,1.2164072000305168,,28,9,2026-03-05_16h15.17.067,2026A_exp2,2022.2.4,59.997288129865375,
0,0,6.1,6.1,0,0,28,28,42,,,,,122.78334289998747,123.43394259997876,123.43394259997876,123.9181112999795,45,45,123.9181112999795,123.9181112999795,123.9181112999795,123.9181112999795,123.9181112999795,123.9181112999795,123.9181112999795,123.9181112999795,123.9181112999795,124.28464179998264,124.28464179998264,124.28464179998264,124.28464179998264,124.28464179998264,124.28464179998264,124.28464179998264,124.28464179998264,124.28464179998264,23,0,,,124.28464179998264,124.48491679999279,6.1,124.48491679999279,1,6.1,1,1,1000,num_4,0.5378439999767579,,28,9,2026-03-05_16h15.17.067,2026A_exp2,2022.2.4,59.997288129865375,
1000,1,0.0,6.1,0,0,29,29,85,,,,,125.05222369998228,125.70283929997822,125.70283929997822,126.18730679998407,45,315,126.18730679998407,126.18730679998407,126.18730679998407,126.18730679998407,126.18730679998407,126.18730679998407,126.18730679998407,126.18730679998407,126.18730679998407,126.55363739997847,126.55363739997847,126.55363739997847,126.55363739997847,126.55363739997847,126.55363739997847,126.55363739997847,126.55363739997847,126.55363739997847,23,0,,,126.55363739997847,126.75581030000467,1000,126.75581030000467,1000,1000,1000,1000,0,num_3,0.5397460000240244,,28,9,2026-03-05_16h15.17.067,2026A_exp2,2022.2.4,59.997288129865375,
1000,1,0.0,6.1,0,0,30,30,58,,,,,127.32113880000543,127.97181779996026,127.97181779996026,128.47283409995725,315,315,128.47283409995725,128.47283409995725,128.47283409995725,128.47283409995725,128.47283409995725,128.47283409995725,128.47283409995725,128.47283409995725,128.47283409995725,128.8391408000025,128.8391408000025,128.8391408000025,128.8391408000025,128.8391408000025,128.8391408000025,128.8391408000025,128.8391408000025,128.8391408000025,23,0,,,128.8391408000025,129.040405799984,1000,129.040405799984,1000,1000,1000,1000,0,num_3,0.5824721999815665,,28,9,2026-03-05_16h15.17.067,2026A_exp2,2022.2.4,59.997288129865375,
1,0,0.0,0.0,1,0,31,31,24,,,,,129.64022329996806,130.29073959996458,130.29073959996458,130.79196820000652,45,315,130.79196820000652,130.79196820000652,130.79196820000652,130.79196820000652,130.79196820000652,130.79196820000652,130.79196820000652,130.79196820000652,130.79196820000652,131.1425961999921,131.1425961999921,131.1425961999921,131.1425961999921,131.1425961999921,131.1425961999921,131.1425961999921,131.1425961999921,131.1425961999921,22,0,,,131.1425961999921,131.3416612999863,0.0,131.35841169999912,0,0.0,0,1,1000,num_1,0.6968771000392735,,28,9,2026-03-05_16h15.17.067,2026A_exp2,2022.2.4,59.997288129865375,
1000,1,0.0,6.1,1,0,32,32,52,,,,,132.07573869999032,132.72659939998994,132.72659939998994,133.21107969997684,315,45,133.21107969997684,133.21107969997684,133.21107969997684,133.21107969997684,133.21107969997684,133.21107969997684,133.21107969997684,133.21107969997684,133.21107969997684,133.57736779999686,133.57736779999686,133.57736779999686,133.57736779999686,133.57736779999686,133.57736779999686,133.57736779999686,133.57736779999686,133.57736779999686,23,0,,,133.57736779999686,133.77767759998096,1000,133.77767759998096,1000,1000,1000,1000,1,num_2,0.8689297999953851,,28,9,2026-03-05_16h15.17.067,2026A_exp2,2022.2.4,59.997288129865375,
1000,1,6.1,0.0,0,0,33,33,89,,,,,134.6619690999505,135.31240209995303,135.31240209995303,135.8135444999789,315,45,135.8135444999789,135.8135444999789,135.8135444999789,135.8135444999789,135.8135444999789,135.8135444999789,135.8135444999789,135.8135444999789,135.8135444999789,136.17998739995528,136.17998739995528,136.17998739995528,136.17998739995528,136.17998739995528,136.17998739995528,136.17998739995528,136.17998739995528,136.17998739995528,23,0,,,136.17998739995528,136.3818109999993,1000,136.3818109999993,1000,1000,1000,1000,0,num_3,0.8323263999773189,,28,9,2026-03-05_16h15.17.067,2026A_exp2,2022.2.4,59.997288129865375,
1000,1,0.0,0.0,1,0,34,34,40,,,,,137.23074639996048,137.88172649999615,137.88172649999615,138.38280479999958,315,315,138.38280479999958,138.38280479999958,138.38280479999958,138.38280479999958,138.38280479999958,138.38280479999958,138.38280479999958,138.38280479999958,138.38280479999958,138.74918489996344,138.74918489996344,138.74918489996344,138.74918489996344,138.74918489996344,138.74918489996344,138.74918489996344,138.74918489996344,138.74918489996344,23,0,,,138.74918489996344,138.95117129996652,1000,138.95117129996652,1000,1000,1000,1000,1,num_2,0.767120199976489,,28,9,2026-03-05_16h15.17.067,2026A_exp2,2022.2.4,59.997288129865375,
0,0,0.0,0.0,0,0,35,35,22,,,,,139.7335503999493,140.3841673999559,140.3841673999559,140.88531789998524,315,45,140.88531789998524,140.88531789998524,140.88531789998524,140.88531789998524,140.88531789998524,140.88531789998524,140.88531789998524,140.88531789998524,140.88531789998524,141.23537449998548,141.23537449998548,141.23537449998548,141.23537449998548,141.23537449998548,141.23537449998548,141.23537449998548,141.23537449998548,141.23537449998548,0,1,[0.0012352000339888036],[0.35086850001243874],141.23537449998548,141.43517339997925,0.0,141.45200049999403,1,0.0,0,0,1000,num_4,1.3476296000299044,,28,9,2026-03-05_16h15.17.067,2026A_exp2,2022.2.4,59.997288129865375,
1,0,3.7,0.0,1,0,36,36,12,,,,,142.81999409996206,143.47048049996374,143.47048049996374,143.97137679997832,45,315,143.97137679997832,143.97137679997832,143.97137679997832,143.97137679997832,143.97137679997832,143.97137679997832,143.97137679997832,143.97137679997832,143.97137679997832,144.32146569999168,144.32146569999168,144.32146569999168,144.32146569999168,144.32146569999168,144.32146569999168,144.32146569999168,144.32146569999168,144.32146569999168,22,0,,,144.32146569999168,144.52164719998837,0.0,144.52164719998837,0,0.0,0,1,1000,num_1,1.3253273000009358,,28,9,2026-03-05_16h15.17.067,2026A_exp2,2022.2.4,59.997288129865375,
1000,1,6.1,3.7,0,0,37,37,18,,,,,145.87304649996804,146.52372050000122,146.52372050000122,147.0079151999671,315,45,147.0079151999671,147.0079151999671,147.0079151999671,147.0079151999671,147.0079151999671,147.0079151999671,147.0079151999671,147.0079151999671,147.0079151999671,147.3744941999903,147.3744941999903,147.3744941999903,147.3744941999903,147.3744941999903,147.3744941999903,147.3744941999903,147.3744941999903,147.3744941999903,20,3,"[0.21682530001271516, 0.28370969998650253, 0.3668255999800749]","[0.23352130001876503, 0.30025820003356785, 0.36682930000824854]",147.3744941999903,147.57671759999357,1000,147.57671759999357,1000,1000,1000,1000,0,num_3,0.7664023999823257,,28,9,2026-03-05_16h15.17.067,2026A_exp2,2022.2.4,59.997288129865375,
1000,1,0.0,6.1,0,0,38,38,75,,,,,148.35883879999164,149.0094020999968,149.0094020999968,149.51045739999972,45,315,149.51045739999972,149.51045739999972,149.51045739999972,149.51045739999972,149.51045739999972,149.51045739999972,149.51045739999972,149.51045739999972,149.51045739999972,149.8770045999554,149.8770045999554,149.8770045999554,149.8770045999554,149.8770045999554,149.8770045999554,149.8770045999554,149.8770045999554,149.8770045999554,8,1,[0.00120009999955073],[0.25017459999071434],149.8770045999554,150.07909189997008,1000,150.07909189997008,1000,1000,1000,1000,1,num_2,0.7197253000340424,,28,9,2026-03-05_16h15.17.067,2026A_exp2,2022.2.4,59.997288129865375,
1,0,4.9,3.7,1,0,39,39,10,,,,,150.82802109996555,151.4786697999807,151.4786697999807,151.97961409995332,45,315,151.97961409995332,151.97961409995332,151.97961409995332,151.97961409995332,151.97961409995332,151.97961409995332,151.97961409995332,151.97961409995332,151.97961409995332,152.3460541999666,152.3460541999666,152.3460541999666,152.3460541999666,152.3460541999666,152.3460541999666,152.3460541999666,152.3460541999666,152.3460541999666,23,0,,,152.3460541999666,152.54635939997388,3.7,152.54635939997388,1,3.7,1,1,1000,num_4,0.7961594999651425,,28,9,2026-03-05_16h15.17.067,2026A_exp2,2022.2.4,59.997288129865375,
1,0,0.0,6.1,0,0,40,40,82,,,,,153.36385709996102,154.01439819997177,154.01439819997177,154.49878789996728,45,45,154.49878789996728,154.49878789996728,154.49878789996728,154.49878789996728,154.49878789996728,154.49878789996728,154.49878789996728,154.49878789996728,154.49878789996728,154.86515819997294,154.86515819997294,154.86515819997294,154.86515819997294,154.86515819997294,154.86515819997294,154.86515819997294,154.86515819997294,154.86515819997294,23,0,,,154.86515819997294,155.06551899999613,0.0,155.06551899999613,0,0.0,0,1,1000,num_1,0.517620500002522,,28,9,2026-03-05_16h15.17.067,2026A_exp2,2022.2.4,59.997288129865375,
0,0,6.1,0.0,1,0,41,41,30,,,,,155.599229799991,156.24995399999898,156.24995399999898,156.73448970000027,45,45,156.73448970000027,156.73448970000027,156.73448970000027,156.73448970000027,156.73448970000027,156.73448970000027,156.73448970000027,156.73448970000027,156.73448970000027,157.10073439998087,157.10073439998087,157.10073439998087,157.10073439998087,157.10073439998087,157.10073439998087,157.10073439998087,157.10073439998087,157.10073439998087,23,0,,,157.10073439998087,157.30094379995717,6.1,157.30094379995717,0,6.1,1,0,1000,num_1,0.8098145999829285,,28,9,2026-03-05_16h15.17.067,2026A_exp2,2022.2.4,59.997288129865375,
1,0,4.9,6.1,0,0,42,42,33,,,,,158.13530409999657,158.78591879998567,158.78591879998567,159.27021950000199,45,45,159.27021950000199,159.27021950000199,159.27021950000199,159.27021950000199,159.27021950000199,159.27021950000199,159.27021950000199,159.27021950000199,159.27021950000199,159.63658429996576,159.63658429996576,159.63658429996576,159.63658429996576,159.63658429996576,159.63658429996576,159.63658429996576,159.63658429996576,159.63658429996576,0,1,[0.0011996999965049326],[0.36736009997548535],159.63658429996576,159.8369024999556,4.9,159.8369024999556,1,4.9,1,1,1000,num_4,0.1703099999576807,,28,9,2026-03-05_16h15.17.067,2026A_exp2,2022.2.4,59.997288129865375,
1000,1,0.0,4.9,1,0,43,43,78,,,,,160.03700489999028,160.67113029997563,160.67113029997563,161.17217039997922,315,45,161.17217039997922,161.17217039997922,161.17217039997922,161.17217039997922,161.17217039997922,161.17217039997922,161.17217039997922,161.17217039997922,161.17217039997922,161.53859479998937,161.53859479998937,161.53859479998937,161.53859479998937,161.53859479998937,161.53859479998937,161.53859479998937,161.53859479998937,161.53859479998937,15,4,"[0.06702880002558231, 0.09976160002406687, 0.21770360000664368, 0.25009139999747276]","[0.08317160001024604, 0.18456359999254346, 0.23443710000719875, 0.26660929998615757]",161.53859479998937,161.74086379999062,1000,161.74086379999062,1000,1000,1000,1000,0,num_3,0.5616702999686822,,28,9,2026-03-05_16h15.17.067,2026A_exp2,2022.2.4,59.997288129865375,
1000,1,0.0,3.7,0,0,44,44,57,,,,,162.3228901999537,162.97340459999396,162.97340459999396,163.47457219997887,315,315,163.47457219997887,163.47457219997887,163.47457219997887,163.47457219997887,163.47457219997887,163.47457219997887,163.47457219997887,163.47457219997887,163.47457219997887,163.8408421999775,163.8408421999775,163.8408421999775,163.8408421999775,163.8408421999775,163.8408421999775,163.8408421999775,163.8408421999775,163.8408421999775,0,1,[0.0011959999683313072],[0.3671868999954313],163.8408421999775,164.04273649997776,1000,164.04273649997776,1000,1000,1000,1000,0,num_3,0.5484654000028968,,28,9,2026-03-05_16h15.17.067,2026A_exp2,2022.2.4,59.997288129865375,
1000,1,6.1,4.9,0,0,45,45,68,,,,,164.60840799997095,165.25893519999227,165.25893519999227,165.76020560000325,315,315,165.76020560000325,165.76020560000325,165.76020560000325,165.76020560000325,165.76020560000325,165.76020560000325,165.76020560000325,165.76020560000325,165.76020560000325,166.12671969999792,166.12671969999792,166.12671969999792,166.12671969999792,166.12671969999792,166.12671969999792,166.12671969999792,166.12671969999792,166.12671969999792,7,2,"[0.08361260005040094, 0.20360070001333952]","[0.1836604000418447, 0.3683946000528522]",166.12671969999792,166.32687879999867,1000,166.32687879999867,1000,1000,1000,1000,0,num_3,0.5914443000219762,,28,9,2026-03-05_16h15.17.067,2026A_exp2,2022.2.4,59.997288129865375,
1,0,4.9,0.0,0,0,46,46,4,,,,,166.9442084999755,167.59466239996254,167.59466239996254,168.09579409996513,315,45,168.09579409996513,168.09579409996513,168.09579409996513,168.09579409996513,168.09579409996513,168.09579409996513,168.09579409996513,168.09579409996513,168.09579409996513,168.4621852999553,168.4621852999553,168.4621852999553,168.4621852999553,168.4621852999553,168.4621852999553,168.4621852999553,168.4621852999553,168.4621852999553,20,2,"[0.2503479999722913, 0.3169700999860652]","[0.2831669999868609, 0.33363439998356625]",168.4621852999553,168.6621596000041,4.9,168.6621596000041,0,4.9,1,0,1000,num_1,0.5292992999893613,,28,9,2026-03-05_16h15.17.067,2026A_exp2,2022.2.4,59.997288129865375,
1,0,0.0,0.0,1,0,47,47,21,,,,,169.2129128999659,169.86378269997658,169.86378269997658,170.34811399999307,45,45,170.34811399999307,170.34811399999307,170.34811399999307,170.34811399999307,170.34811399999307,170.34811399999307,170.34811399999307,170.34811399999307,170.34811399999307,170.71438329998637,170.71438329998637,170.71438329998637,170.71438329998637,170.71438329998637,170.71438329998637,170.71438329998637,170.71438329998637,170.71438329998637,1,2,"[0.001200700004119426, 0.11632949998602271]","[0.10002640000311658, 0.3671621999819763]",170.71438329998637,170.91473009996116,0.0,170.91473009996116,1,0.0,0,0,1000,num_4,0.49210089998086914,,28,9,2026-03-05_16h15.17.067,2026A_exp2,2022.2.4,59.997288129865375,
1000,1,3.7,0.0,1,0,48,48,88,,,,,171.43212089996086,172.06583399994997,172.06583399994997,172.56700669997372,45,45,172.56700669997372,172.56700669997372,172.56700669997372,172.56700669997372,172.56700669997372,172.56700669997372,172.56700669997372,172.56700669997372,172.56700669997372,172.93337419995805,172.93337419995805,172.93337419995805,172.93337419995805,172.93337419995805,172.93337419995805,172.93337419995805,172.93337419995805,172.93337419995805,20,3,"[0.05040830001235008, 0.10051359998760745, 0.1505032000131905]","[0.0837531000142917, 0.11702649999642745, 0.16723899997305125]",172.93337419995805,173.1353937999811,1000,173.1353937999811,1000,1000,1000,1000,0,num_3,0.6315965999965556,,28,9,2026-03-05_16h15.17.067,2026A_exp2,2022.2.4,59.997288129865375,
1000,1,0.0,3.7,1,0,49,49,65,,,,,173.78425219998462,174.43476489995373,174.43476489995373,174.93600970000261,315,45,174.93600970000261,174.93600970000261,174.93600970000261,174.93600970000261,174.93600970000261,174.93600970000261,174.93600970000261,174.93600970000261,174.93600970000261,175.30243929999415,175.30243929999415,175.30243929999415,175.30243929999415,175.30243929999415,175.30243929999415,175.30243929999415,175.30243929999415,175.30243929999415,23,0,,,175.30243929999415,175.5042650999967,1000,175.5042650999967,1000,1000,1000,1000,0,num_3,0.6138491000165232,,28,9,2026-03-05_16h15.17.067,2026A_exp2,2022.2.4,59.997288129865375,
1,0,3.7,0.0,1,0,50,50,28,,,,,176.13663659995655,176.78721009998117,176.78721009998117,177.28837229998317,315,45,177.28837229998317,177.28837229998317,177.28837229998317,177.28837229998317,177.28837229998317,177.28837229998317,177.28837229998317,177.28837229998317,177.28837229998317,177.6546644999762,177.6546644999762,177.6546644999762,177.6546644999762,177.6546644999762,177.6546644999762,177.6546644999762,177.6546644999762,177.6546644999762,20,2,"[0.3171506999642588, 0.36720450001303107]","[0.35056739998981357, 0.36720969999441877]",177.6546644999762,177.85502229997655,0.0,177.85502229997655,0,0.0,0,1,1000,num_1,0.8720959999482147,,28,9,2026-03-05_16h15.17.067,2026A_exp2,2022.2.4,59.997288129865375,
1000,1,3.7,4.9,0,0,51,51,80,,,,,178.7556740999571,179.4065891999635,179.4065891999635,179.89081399998395,45,45,179.89081399998395,179.89081399998395,179.89081399998395,179.89081399998395,179.89081399998395,179.89081399998395,179.89081399998395,179.89081399998395,179.89081399998395,180.25748929998372,180.25748929998372,180.25748929998372,180.25748929998372,180.25748929998372,180.25748929998372,180.25748929998372,180.25748929998372,180.25748929998372,12,6,"[0.0012256000190973282, 0.06706339999800548, 0.13359819998731837, 0.16703860001871362, 0.21719220001250505, 0.2505568999913521]","[0.050169299996923655, 0.10041469999123365, 0.1504661000217311, 0.18382799997925758, 0.233704200014472, 0.2672321000136435]",180.25748929998372,180.4591545999865,1000,180.4591545999865,1000,1000,1000,1000,0,num_3,0.5242548999958672,,28,9,2026-03-05_16h15.17.067,2026A_exp2,2022.2.4,59.997288129865375,
1000,1,4.9,0.0,0,0,52,52,50,,,,,181.00815129996045,181.6587225999683,181.6587225999683,182.159759400005,315,315,182.159759400005,182.159759400005,182.159759400005,182.159759400005,182.159759400005,182.159759400005,182.159759400005,182.159759400005,182.159759400005,182.52618549996987,182.52618549996987,182.52618549996987,182.52618549996987,182.52618549996987,182.52618549996987,182.52618549996987,182.52618549996987,182.52618549996987,19,1,[0.0012106999638490379],[0.0669484999962151],182.52618549996987,182.72817289998056,1000,182.72817289998056,1000,1000,1000,1000,1,num_2,0.5907997000031173,,28,9,2026-03-05_16h15.17.067,2026A_exp2,2022.2.4,59.997288129865375,
1000,1,0.0,0.0,1,0,53,53,46,,,,,183.34384089999367,183.9944241999765,183.9944241999765,184.49537829996552,45,315,184.49537829996552,184.49537829996552,184.49537829996552,184.49537829996552,184.49537829996552,184.49537829996552,184.49537829996552,184.49537829996552,184.49537829996552,184.86199760000454,184.86199760000454,184.86199760000454,184.86199760000454,184.86199760000454,184.86199760000454,184.86199760000454,184.86199760000454,184.86199760000454,0,1,[0.0012009000056423247],[0.3668026000377722],184.86199760000454,185.06387869996252,1000,185.06387869996252,1000,1000,1000,1000,0,num_3,0.607128500007093,,28,9,2026-03-05_16h15.17.067,2026A_exp2,2022.2.4,59.997288129865375,
1000,1,0.0,0.0,1,0,54,54,60,,,,,185.6964076999575,186.34672089997912,186.34672089997912,186.83125190000283,45,315,186.83125190000283,186.83125190000283,186.83125190000283,186.83125190000283,186.83125190000283,186.83125190000283,186.83125190000283,186.83125190000283,186.83125190000283,187.19763389998116,187.19763389998116,187.19763389998116,187.19763389998116,187.19763389998116,187.19763389998116,187.19763389998116,187.19763389998116,187.19763389998116,21,1,[0.3497161000268534],[0.3666832000017166],187.19763389998116,187.39955219998956,1000,187.39955219998956,1000,1000,1000,1000,0,num_3,1.7989288000389934,,28,9,2026-03-05_16h15.17.067,2026A_exp2,2022.2.4,59.997288129865375,
0,0,3.7,6.1,0,0,55,55,73,,,,,189.21632409997983,189.86695339996368,189.86695339996368,190.36796929995762,315,315,190.36796929995762,190.36796929995762,190.36796929995762,190.36796929995762,190.36796929995762,190.36796929995762,190.36796929995762,190.36796929995762,190.36796929995762,190.7178462999873,190.7178462999873,190.7178462999873,190.7178462999873,190.7178462999873,190.7178462999873,190.7178462999873,190.7178462999873,190.7178462999873,7,1,[0.0012388000031933188],[0.2502723000361584],190.7178462999873,190.91801459999988,6.1,190.91801459999988,0,6.1,1,0,1000,num_1,0.7845165000180714,,28,9,2026-03-05_16h15.17.067,2026A_exp2,2022.2.4,59.997288129865375,
1000,1,0.0,0.0,1,0,56,56,23,,,,,191.71874139999272,192.3694787999848,192.3694787999848,192.85391549998894,315,315,192.85391549998894,192.85391549998894,192.85391549998894,192.85391549998894,192.85391549998894,192.85391549998894,192.85391549998894,192.85391549998894,192.85391549998894,193.22019009996438,193.22019009996438,193.22019009996438,193.22019009996438,193.22019009996438,193.22019009996438,193.22019009996438,193.22019009996438,193.22019009996438,21,2,"[0.0012043000315316021, 0.03374680003616959]","[0.017457999987527728, 0.050387100025545806]",193.22019009996438,193.4222317999811,1000,193.4222317999811,1000,1000,1000,1000,0,num_3,0.5844380999915302,,28,9,2026-03-05_16h15.17.067,2026A_exp2,2022.2.4,59.997288129865375,
0,0,0.0,0.0,1,0,57,57,38,,,,,194.037723299989,194.6883775999886,194.6883775999886,195.189595200005,45,45,195.189595200005,195.189595200005,195.189595200005,195.189595200005,195.189595200005,195.189595200005,195.189595200005,195.189595200005,195.189595200005,195.55584509996697,195.55584509996697,195.55584509996697,195.55584509996697,195.55584509996697,195.55584509996697,195.55584509996697,195.55584509996697,195.55584509996697,23,0,,,195.55584509996697,195.75605329999235,0.0,195.75605329999235,0,0.0,0,1,1000,num_1,1.3940855999826454,,28,9,2026-03-05_16h15.17.067,2026A_exp2,2022.2.4,59.997288129865375,
1,0,3.7,0.0,0,0,58,58,8,,,,,197.17422919999808,197.82496219995664,197.82496219995664,198.32591789995786,315,45,198.32591789995786,198.32591789995786,198.32591789995786,198.32591789995786,198.32591789995786,198.32591789995786,198.32591789995786,198.32591789995786,198.32591789995786,198.67570409999462,198.67570409999462,198.67570409999462,198.67570409999462,198.67570409999462,198.67570409999462,198.67570409999462,198.67570409999462,198.67570409999462,23,0,,,198.67570409999462,198.8760542999953,3.7,198.8760542999953,0,3.7,1,0,1000,num_1,0.6509642999735661,,28,9,2026-03-05_16h15.17.067,2026A_exp2,2022.2.4,59.997288129865375,
1000,1,0.0,4.9,0,0,59,59,53,,,,,199.54329979995964,200.19400659995154,200.19400659995154,200.67830009997124,45,315,200.67830009997124,200.67830009997124,200.67830009997124,200.67830009997124,200.67830009997124,200.67830009997124,200.67830009997124,200.67830009997124,200.67830009997124,201.0448141999659,201.0448141999659,201.0448141999659,201.0448141999659,201.0448141999659,201.0448141999659,201.0448141999659,201.0448141999659,201.0448141999659,23,0,,,201.0448141999659,201.24650399998063,1000,201.24650399998063,1000,1000,1000,1000,1,num_2,1.4090077999862842,,28,9,2026-03-05_16h15.17.067,2026A_exp2,2022.2.4,59.997288129865375,
1,0,0.0,0.0,0,0,60,60,51,,,,,202.67971719999332,203.33038319996558,203.33038319996558,203.81489909999073,315,45,203.81489909999073,203.81489909999073,203.81489909999073,203.81489909999073,203.81489909999073,203.81489909999073,203.81489909999073,203.81489909999073,203.81489909999073,204.18131789995823,204.18131789995823,204.18131789995823,204.18131789995823,204.18131789995823,204.18131789995823,204.18131789995823,204.18131789995823,204.18131789995823,23,0,,,204.18131789995823,204.38145019998774,0.0,204.38145019998774,0,0.0,0,1,1000,num_1,0.9781939000240527,,28,9,2026-03-05_16h15.17.067,2026A_exp2,2022.2.4,59.997288129865375,
1000,1,3.7,0.0,1,0,61,61,54,,,,,205.38258619996486,206.03314239997417,206.03314239997417,206.51759219996165,45,45,206.51759219996165,206.51759219996165,206.51759219996165,206.51759219996165,206.51759219996165,206.51759219996165,206.51759219996165,206.51759219996165,206.51759219996165,206.88399609999033,206.88399609999033,206.88399609999033,206.88399609999033,206.88399609999033,206.88399609999033,206.88399609999033,206.88399609999033,206.88399609999033,23,0,,,206.88399609999033,207.0861327999737,1000,207.0861327999737,1000,1000,1000,1000,1,num_2,0.6484994000056759,,28,9,2026-03-05_16h15.17.067,2026A_exp2,2022.2.4,59.997288129865375,
1000,1,0.0,0.0,0,0,62,62,67,,,,,207.75168889999622,208.4022184999776,208.4022184999776,208.9033131999895,45,315,208.9033131999895,208.9033131999895,208.9033131999895,208.9033131999895,208.9033131999895,208.9033131999895,208.9033131999895,208.9033131999895,208.9033131999895,209.253094899992,209.253094899992,209.253094899992,209.253094899992,209.253094899992,209.253094899992,209.253094899992,209.253094899992,209.253094899992,22,0,,,209.253094899992,209.4551342999912,1000,209.4551342999912,1000,1000,1000,1000,0,num_3,0.3992522999760695,,28,9,2026-03-05_16h15.17.067,2026A_exp2,2022.2.4,59.997288129865375,
1000,1,3.7,4.9,1,0,63,63,20,,,,,209.87025999999605,210.52081679995172,210.52081679995172,211.00543259998085,45,315,211.00543259998085,211.00543259998085,211.00543259998085,211.00543259998085,211.00543259998085,211.00543259998085,211.00543259998085,211.00543259998085,211.00543259998085,211.37171310000122,211.37171310000122,211.37171310000122,211.37171310000122,211.37171310000122,211.37171310000122,211.37171310000122,211.37171310000122,211.37171310000122,23,0,,,211.37171310000122,211.5738683999516,1000,211.5738683999516,1000,1000,1000,1000,1,num_2,0.6161898000282235,,28,9,2026-03-05_16h15.17.067,2026A_exp2,2022.2.4,59.997288129865375,
1000,1,0.0,4.9,1,0,64,64,79,,,,,212.20596329995897,212.85664219997125,212.85664219997125,213.3575475999969,315,315,213.3575475999969,213.3575475999969,213.3575475999969,213.3575475999969,213.3575475999969,213.3575475999969,213.3575475999969,213.3575475999969,213.3575475999969,213.70750509999925,213.70750509999925,213.70750509999925,213.70750509999925,213.70750509999925,213.70750509999925,213.70750509999925,213.70750509999925,213.70750509999925,22,0,,,213.70750509999925,213.90926369995577,1000,213.9242438999936,1000,1000,1000,1000,1,num_2,0.7061471000197344,,28,9,2026-03-05_16h15.17.067,2026A_exp2,2022.2.4,59.997288129865375,
1,0,4.9,4.9,0,0,65,65,84,,,,,214.65835459996015,215.3090455000056,215.3090455000056,215.8102280999883,315,315,215.8102280999883,215.8102280999883,215.8102280999883,215.8102280999883,215.8102280999883,215.8102280999883,215.8102280999883,215.8102280999883,215.8102280999883,216.17665529996157,216.17665529996157,216.17665529996157,216.17665529996157,216.17665529996157,216.17665529996157,216.17665529996157,216.17665529996157,216.17665529996157,23,0,,,216.17665529996157,216.37668489996577,4.9,216.37668489996577,0,4.9,1,0,1000,num_1,0.9663146999664605,,28,9,2026-03-05_16h15.17.067,2026A_exp2,2022.2.4,59.997288129865375,
1000,1,0.0,0.0,0,0,66,66,7,,,,,217.3609637999907,217.99498389998917,217.99498389998917,218.49608949996764,315,45,218.49608949996764,218.49608949996764,218.49608949996764,218.49608949996764,218.49608949996764,218.49608949996764,218.49608949996764,218.49608949996764,218.49608949996764,218.8626007999992,218.8626007999992,218.8626007999992,218.8626007999992,218.8626007999992,218.8626007999992,218.8626007999992,218.8626007999992,218.8626007999992,23,0,,,218.8626007999992,219.06447709997883,1000,219.06447709997883,1000,1000,1000,1000,0,num_3,0.5987513000145555,,28,9,2026-03-05_16h15.17.067,2026A_exp2,2022.2.4,59.997288129865375,
1,0,0.0,6.1,0,0,67,67,43,,,,,219.68022259999998,220.33036979997996,220.33036979997996,220.8319059999776,315,45,220.8319059999776,220.8319059999776,220.8319059999776,220.8319059999776,220.8319059999776,220.8319059999776,220.8319059999776,220.8319059999776,220.8319059999776,221.1983242999995,221.1983242999995,221.1983242999995,221.1983242999995,221.1983242999995,221.1983242999995,221.1983242999995,221.1983242999995,221.1983242999995,23,0,,,221.1983242999995,221.39857299998403,0.0,221.39857299998403,0,0.0,0,1,1000,num_1,0.6241448000073433,,28,9,2026-03-05_16h15.17.067,2026A_exp2,2022.2.4,59.997288129865375,
1000,1,0.0,0.0,0,0,68,68,72,,,,,222.04898959997809,222.69977899995865,222.69977899995865,223.18418329994893,315,45,223.18418329994893,223.18418329994893,223.18418329994893,223.18418329994893,223.18418329994893,223.18418329994893,223.18418329994893,223.18418329994893,223.18418329994893,223.55052309995517,223.55052309995517,223.55052309995517,223.55052309995517,223.55052309995517,223.55052309995517,223.55052309995517,223.55052309995517,223.55052309995517,23,0,,,223.55052309995517,223.7524293999886,1000,223.7524293999886,1000,1000,1000,1000,0,num_3,0.5417078000027686,,28,9,2026-03-05_16h15.17.067,2026A_exp2,2022.2.4,59.997288129865375,
1000,1,0.0,0.0,0,0,69,69,37,,,,,224.31807739997748,224.95204629999353,224.95204629999353,225.45318769995356,45,315,225.45318769995356,225.45318769995356,225.45318769995356,225.45318769995356,225.45318769995356,225.45318769995356,225.45318769995356,225.45318769995356,225.45318769995356,225.81942620000336,225.81942620000336,225.81942620000336,225.81942620000336,225.81942620000336,225.81942620000336,225.81942620000336,225.81942620000336,225.81942620000336,23,0,,,225.81942620000336,226.02144959999714,1000,226.02144959999714,1000,1000,1000,1000,1,num_2,0.7846108000376262,,28,9,2026-03-05_16h15.17.067,2026A_exp2,2022.2.4,59.997288129865375,
1000,1,0.0,6.1,1,0,70,70,69,,,,,226.83737669995753,227.48809149995213,227.48809149995213,227.98908129998017,315,45,227.98908129998017,227.98908129998017,227.98908129998017,227.98908129998017,227.98908129998017,227.98908129998017,227.98908129998017,227.98908129998017,227.98908129998017,228.35541679995367,228.35541679995367,228.35541679995367,228.35541679995367,228.35541679995367,228.35541679995367,228.35541679995367,228.35541679995367,228.35541679995367,23,0,,,228.35541679995367,228.55748319998384,1000,228.55748319998384,1000,1000,1000,1000,0,num_3,0.5371915999567136,,28,9,2026-03-05_16h15.17.067,2026A_exp2,2022.2.4,59.997288129865375,
1,0,3.7,6.1,1,0,71,71,77,,,,,229.12292169994907,229.77351039997302,229.77351039997302,230.27462469995953,45,315,230.27462469995953,230.27462469995953,230.27462469995953,230.27462469995953,230.27462469995953,230.27462469995953,230.27462469995953,230.27462469995953,230.27462469995953,230.640954100003,230.640954100003,230.640954100003,230.640954100003,230.640954100003,230.640954100003,230.640954100003,230.640954100003,230.640954100003,23,0,,,230.640954100003,230.84121069998946,6.1,230.84121069998946,0,6.1,1,0,1000,num_1,0.9976725000306033,,28,9,2026-03-05_16h15.17.067,2026A_exp2,2022.2.4,59.997288129865375,
1000,1,0.0,0.0,0,0,72,72,87,,,,,231.85892639996018,232.509430599981,232.509430599981,232.99406719999388,315,315,232.99406719999388,232.99406719999388,232.99406719999388,232.99406719999388,232.99406719999388,232.99406719999388,232.99406719999388,232.99406719999388,232.99406719999388,233.36043020000216,233.36043020000216,233.36043020000216,233.36043020000216,233.36043020000216,233.36043020000216,233.36043020000216,233.36043020000216,233.36043020000216,23,0,,,233.36043020000216,233.56294689996867,1000,233.56294689996867,1000,1000,1000,1000,0,num_3,0.5232072999933735,,28,9,2026-03-05_16h15.17.067,2026A_exp2,2022.2.4,59.997288129865375,
1000,1,0.0,0.0,0,0,73,73,6,,,,,234.11117899999954,234.7617613999755,234.7617613999755,235.26299249997828,45,315,235.26299249997828,235.26299249997828,235.26299249997828,235.26299249997828,235.26299249997828,235.26299249997828,235.26299249997828,235.26299249997828,235.26299249997828,235.62936259998241,235.62936259998241,235.62936259998241,235.62936259998241,235.62936259998241,235.62936259998241,235.62936259998241,235.62936259998241,235.62936259998241,23,0,,,235.62936259998241,235.83134829998016,1000,235.83134829998016,1000,1000,1000,1000,1,num_2,0.6156016999739222,,28,9,2026-03-05_16h15.17.067,2026A_exp2,2022.2.4,59.997288129865375,
0,0,4.9,4.9,1,0,74,74,48,,,,,236.46363589999964,237.11424429999897,237.11424429999897,237.61528939998243,315,315,237.61528939998243,237.61528939998243,237.61528939998243,237.61528939998243,237.61528939998243,237.61528939998243,237.61528939998243,237.61528939998243,237.61528939998243,237.9650822999538,237.9650822999538,237.9650822999538,237.9650822999538,237.9650822999538,237.9650822999538,237.9650822999538,237.9650822999538,237.9650822999538,22,0,,,237.9650822999538,238.1651796999504,4.9,238.1651796999504,0,4.9,1,0,1000,num_1,0.5463942000060342,,28,9,2026-03-05_16h15.17.067,2026A_exp2,2022.2.4,59.997288129865375,
0,0,0.0,4.9,0,0,75,75,14,,,,,238.73256380000385,239.3831022999948,239.3831022999948,239.86737189994892,45,315,239.86737189994892,239.86737189994892,239.86737189994892,239.86737189994892,239.86737189994892,239.86737189994892,239.86737189994892,239.86737189994892,239.86737189994892,240.23401449999074,240.23401449999074,240.23401449999074,240.23401449999074,240.23401449999074,240.23401449999074,240.23401449999074,240.23401449999074,240.23401449999074,23,0,,,240.23401449999074,240.43418869999005,4.9,240.43418869999005,1,4.9,1,1,1000,num_4,0.8840549999731593,,28,9,2026-03-05_16h15.17.067,2026A_exp2,2022.2.4,59.997288129865375,
1,0,0.0,4.9,1,0,76,76,1,,,,,241.33520949998638,241.98570029996336,241.98570029996336,242.4700156999752,315,45,242.4700156999752,242.4700156999752,242.4700156999752,242.4700156999752,242.4700156999752,242.4700156999752,242.4700156999752,242.4700156999752,242.4700156999752,242.83652829995845,242.83652829995845,242.83652829995845,242.83652829995845,242.83652829995845,242.83652829995845,242.83652829995845,242.83652829995845,242.83652829995845,23,0,,,242.83652829995845,243.03672529995674,4.9,243.03672529995674,0,4.9,1,0,1000,num_1,0.8908525999868289,,28,9,2026-03-05_16h15.17.067,2026A_exp2,2022.2.4,59.997288129865375,
1000,1,0.0,6.1,1,0,77,77,62,,,,,243.95441799995024,244.60505620000185,244.60505620000185,245.08952819998376,45,45,245.08952819998376,245.08952819998376,245.08952819998376,245.08952819998376,245.08952819998376,245.08952819998376,245.08952819998376,245.08952819998376,245.08952819998376,245.4559186999686,245.4559186999686,245.4559186999686,245.4559186999686,245.4559186999686,245.4559186999686,245.4559186999686,245.4559186999686,245.4559186999686,23,0,,,245.4559186999686,245.65804249997018,1000,245.65804249997018,1000,1000,1000,1000,0,num_3,0.4216166000114754,,28,9,2026-03-05_16h15.17.067,2026A_exp2,2022.2.4,59.997288129865375,
1000,1,0.0,0.0,0,0,78,78,36,,,,,246.10675109998556,246.75676119996933,246.75676119996933,247.25829410000006,315,45,247.25829410000006,247.25829410000006,247.25829410000006,247.25829410000006,247.25829410000006,247.25829410000006,247.25829410000006,247.25829410000006,247.25829410000006,247.62459319998743,247.62459319998743,247.62459319998743,247.62459319998743,247.62459319998743,247.62459319998743,247.62459319998743,247.62459319998743,247.62459319998743,23,0,,,247.62459319998743,247.82670649996726,1000,247.82670649996726,1000,1000,1000,1000,0,num_3,1.0122708000126295,,28,9,2026-03-05_16h15.17.067,2026A_exp2,2022.2.4,59.997288129865375,
0,0,0.0,3.7,0,0,79,79,83,,,,,248.85925889998907,249.50999619998038,249.50999619998038,250.01109559996985,45,315,250.01109559996985,250.01109559996985,250.01109559996985,250.01109559996985,250.01109559996985,250.01109559996985,250.01109559996985,250.01109559996985,250.01109559996985,250.36045429995283,250.36045429995283,250.36045429995283,250.36045429995283,250.36045429995283,250.36045429995283,250.36045429995283,250.36045429995283,250.36045429995283,22,0,,,250.36045429995283,250.56106340000406,3.7,250.57776089996332,0,3.7,1,0,1000,num_1,0.8286193999811076,,28,9,2026-03-05_16h15.17.067,2026A_exp2,2022.2.4,59.997288129865375,
1,0,4.9,3.7,0,0,80,80,9,,,,,251.4284900999628,252.07915429997956,252.07915429997956,252.56336369999917,315,315,252.56336369999917,252.56336369999917,252.56336369999917,252.56336369999917,252.56336369999917,252.56336369999917,252.56336369999917,252.56336369999917,252.56336369999917,252.9300962999696,252.9300962999696,252.9300962999696,252.9300962999696,252.9300962999696,252.9300962999696,252.9300962999696,252.9300962999696,252.9300962999696,23,0,,,252.9300962999696,253.1302681999514,4.9,253.1302681999514,0,4.9,1,0,1000,num_1,0.5166186999995261,,28,9,2026-03-05_16h15.17.067,2026A_exp2,2022.2.4,59.997288129865375,
1000,1,0.0,6.1,0,0,81,81,2,,,,,253.66406489996007,254.3147671999759,254.3147671999759,254.79903529997682,315,315,254.79903529997682,254.79903529997682,254.79903529997682,254.79903529997682,254.79903529997682,254.79903529997682,254.79903529997682,254.79903529997682,254.79903529997682,255.16540949995397,255.16540949995397,255.16540949995397,255.16540949995397,255.16540949995397,255.16540949995397,255.16540949995397,255.16540949995397,255.16540949995397,23,0,,,255.16540949995397,255.36794159997953,1000,255.36794159997953,1000,1000,1000,1000,0,num_3,0.5350083999801427,,28,9,2026-03-05_16h15.17.067,2026A_exp2,2022.2.4,59.997288129865375,
1000,1,3.7,6.1,1,0,82,82,29,,,,,255.93306829995709,256.5835681000026,256.5835681000026,257.0847462999518,45,315,257.0847462999518,257.0847462999518,257.0847462999518,257.0847462999518,257.0847462999518,257.0847462999518,257.0847462999518,257.0847462999518,257.0847462999518,257.43435269995825,257.43435269995825,257.43435269995825,257.43435269995825,257.43435269995825,257.43435269995825,257.43435269995825,257.43435269995825,257.43435269995825,22,0,,,257.43435269995825,257.636359600001,1000,257.651473899954,1000,1000,1000,1000,0,num_3,0.46750400000019,,28,9,2026-03-05_16h15.17.067,2026A_exp2,2022.2.4,59.997288129865375,
1000,1,3.7,4.9,0,0,83,83,64,,,,,258.13539369998034,258.7859438000014,258.7859438000014,259.2869118999806,45,45,259.2869118999806,259.2869118999806,259.2869118999806,259.2869118999806,259.2869118999806,259.2869118999806,259.2869118999806,259.2869118999806,259.2869118999806,259.6532720999676,259.6532720999676,259.6532720999676,259.6532720999676,259.6532720999676,259.6532720999676,259.6532720999676,259.6532720999676,259.6532720999676,23,0,,,259.6532720999676,259.85566810000455,1000,259.85566810000455,1000,1000,1000,1000,0,num_3,0.4464372999500483,,28,9,2026-03-05_16h15.17.067,2026A_exp2,2022.2.4,59.997288129865375,
1,0,3.7,4.9,0,0,84,84,76,,,,,260.3207582999603,260.9714611999807,260.9714611999807,261.47263199998997,315,315,261.47263199998997,261.47263199998997,261.47263199998997,261.47263199998997,261.47263199998997,261.47263199998997,261.47263199998997,261.47263199998997,261.47263199998997,261.83892229996854,261.83892229996854,261.83892229996854,261.83892229996854,261.83892229996854,261.83892229996854,261.83892229996854,261.83892229996854,261.83892229996854,23,0,,,261.83892229996854,262.0390298999846,3.7,262.0390298999846,0,3.7,1,0,1000,num_1,1.592063300020527,,28,9,2026-03-05_16h15.17.067,2026A_exp2,2022.2.4,59.997288129865375,
1,0,6.1,3.7,0,0,85,85,31,,,,,263.6573334999848,264.30807639996056,264.30807639996056,264.7925417999504,315,315,264.7925417999504,264.7925417999504,264.7925417999504,264.7925417999504,264.7925417999504,264.7925417999504,264.7925417999504,264.7925417999504,264.7925417999504,265.15878179995343,265.15878179995343,265.15878179995343,265.15878179995343,265.15878179995343,265.15878179995343,265.15878179995343,265.15878179995343,265.15878179995343,23,0,,,265.15878179995343,265.3590507999761,6.1,265.3590507999761,0,6.1,1,0,1000,num_1,0.30349209997802973,,28,9,2026-03-05_16h15.17.067,2026A_exp2,2022.2.4,59.997288129865375,
1000,1,0.0,0.0,0,0,86,86,15,,,,,265.6928685999592,266.3434800999821,266.3434800999821,266.827751899953,45,315,266.827751899953,266.827751899953,266.827751899953,266.827751899953,266.827751899953,266.827751899953,266.827751899953,266.827751899953,266.827751899953,267.1943523999653,267.1943523999653,267.1943523999653,267.1943523999653,267.1943523999653,267.1943523999653,267.1943523999653,267.1943523999653,267.1943523999653,21,1,[0.06655400001909584],[0.10010889999102801],267.1943523999653,267.40353319997666,1000,267.40353319997666,1000,1000,1000,1000,1,num_2,0.8989024999900721,,28,9,2026-03-05_16h15.17.067,2026A_exp2,2022.2.4,59.997288129865375,
0,0,0.0,0.0,0,0,87,87,70,,,,,268.3287945999764,268.979426099977,268.979426099977,269.4804324999568,45,45,269.4804324999568,269.4804324999568,269.4804324999568,269.4804324999568,269.4804324999568,269.4804324999568,269.4804324999568,269.4804324999568,269.4804324999568,269.8468875999679,269.8468875999679,269.8468875999679,269.8468875999679,269.8468875999679,269.8468875999679,269.8468875999679,269.8468875999679,269.8468875999679,21,1,[0.0011943000135943294],[0.03361909999512136],269.8468875999679,270.04717139998684,0.0,270.04717139998684,0,0.0,0,1,1000,num_1,1.248240299988538,,28,9,2026-03-05_16h15.17.067,2026A_exp2,2022.2.4,59.997288129865375,
1,0,0.0,3.7,1,0,88,88,0,,,,,271.31500979996054,271.9654969999683,271.9654969999683,272.4501933999709,45,45,272.4501933999709,272.4501933999709,272.4501933999709,272.4501933999709,272.4501933999709,272.4501933999709,272.4501933999709,272.4501933999709,272.4501933999709,272.81662779999897,272.81662779999897,272.81662779999897,272.81662779999897,272.81662779999897,272.81662779999897,272.81662779999897,272.81662779999897,272.81662779999897,23,0,,,272.81662779999897,273.01674079999793,3.7,273.01674079999793,1,3.7,1,1,1000,num_4,0.6626469999901019,,28,9,2026-03-05_16h15.17.067,2026A_exp2,2022.2.4,59.997288129865375,
1000,1,3.7,0.0,0,0,89,89,32,,,,,273.70075099996757,274.3514141999767,274.3514141999767,274.8358154000016,45,45,274.8358154000016,274.8358154000016,274.8358154000016,274.8358154000016,274.8358154000016,274.8358154000016,274.8358154000016,274.8358154000016,274.8358154000016,275.20232719997875,275.20232719997875,275.20232719997875,275.20232719997875,275.20232719997875,275.20232719997875,275.20232719997875,275.20232719997875,275.20232719997875,0,1,[0.0012721000239253044],[0.3672431000159122],275.20232719997875,275.4039330999949,1000,275.4039330999949,1000,1000,1000,1000,0,num_3,0.6430748999700882,,28,9,2026-03-05_16h15.17.067,2026A_exp2,2022.2.4,59.997288129865375,
,,,,,,,,,,,,,,,,,,,,,,,,,,,,,,,,,,,,,,,,,,,,,,,,,,,,276.07968339999206,,,,,,,
