validity,detectorcomp,contrastCW,contrastCCW,precueCWorCCW,block_80trials.thisRepN,block_80trials.thisTrialN,block_80trials.thisN,block_80trials.thisIndex,etRecord.started,etRecord.stopped,text.started,text.stopped,text_4.started,text_4.stopped,text_6.started,text_6.stopped,oriCW,oriCCW,roi_2.started,grating_UR.started,grating_UL.started,grating_LR.started,grating_LL.started,noise_UR.started,noise_UL.started,noise_LR.started,noise_LL.started,roi_2.stopped,grating_UR.stopped,grating_UL.stopped,grating_LR.stopped,grating_LL.stopped,noise_UR.stopped,noise_UL.stopped,noise_LR.stopped,noise_LL.stopped,outframe,roi_2.numLooks,roi_2.timesOn,roi_2.timesOff,text_2.started,text_2.stopped,probedcontrast,key_resp.started,respdetect,relevantContrast,correctDetect,TorFdetect,respCWorCCW,key_resp.keys,key_resp.rt,feedback_display_.started,participantNo,blockNo,date,expName,psychopyVersion,frameRate,
1,0,0.0,4.9,1,0,0,0,1,3.71001660823822e-05,3.71001660823822e-05,55.0304555001203,57.03336629993282,57.03336629993282,57.66691150004044,57.66691150004044,58.192504999926314,45,315,58.192504999926314,58.192504999926314,58.192504999926314,58.192504999926314,58.192504999926314,58.192504999926314,58.192504999926314,58.192504999926314,58.192504999926314,58.534405699931085,58.534405699931085,58.534405699931085,58.534405699931085,58.534405699931085,58.534405699931085,58.534405699931085,58.534405699931085,58.534405699931085,23,0,,,58.534405699931085,58.734842099947855,4.9,58.734842099947855,1,4.9,1,1,1000,num_4,1.3217318998649716,,32,9,2026-03-12_15h55.39.401,2026A_exp2,2022.2.4,59.77036221758243,
0,0,0.0,0.0,1,0,1,1,38,,,,,60.085897099925205,60.72003610013053,60.72003610013053,61.22116219997406,45,45,61.22116219997406,61.22116219997406,61.22116219997406,61.22116219997406,61.22116219997406,61.22116219997406,61.22116219997406,61.22116219997406,61.22116219997406,61.58769379998557,61.58769379998557,61.58769379998557,61.58769379998557,61.58769379998557,61.58769379998557,61.58769379998557,61.58769379998557,61.58769379998557,0,1,[0.0007707001641392708],[0.36811430007219315],61.58769379998557,61.7884315000847,0.0,61.7884315000847,1,0.0,0,0,1000,num_4,0.8201858997344971,,32,9,2026-03-12_15h55.39.401,2026A_exp2,2022.2.4,59.77036221758243,
1000,1,0.0,0.0,0,0,2,2,15,,,,,62.63856830005534,63.272707500029355,63.272707500029355,63.773716900032014,315,45,63.773716900032014,63.773716900032014,63.773716900032014,63.773716900032014,63.773716900032014,63.773716900032014,63.773716900032014,63.773716900032014,63.773716900032014,64.14017129992135,64.14017129992135,64.14017129992135,64.14017129992135,64.14017129992135,64.14017129992135,64.14017129992135,64.14017129992135,64.14017129992135,16,4,"[0.050629799952730536, 0.13386980001814663, 0.18405769998207688, 0.21714260010048747]","[0.06934059993363917, 0.15074640000239015, 0.20067479996941984, 0.2671564999036491]",64.14017129992135,64.34029490011744,1000,64.34029490011744,1000,1000,1000,1000,0,num_3,0.5081167998723686,,32,9,2026-03-12_15h55.39.401,2026A_exp2,2022.2.4,59.77036221758243,
1,0,3.7,0.0,1,0,3,3,13,,,,,64.8741880999878,65.52484009996988,65.52484009996988,66.00916359992698,45,315,66.00916359992698,66.00916359992698,66.00916359992698,66.00916359992698,66.00916359992698,66.00916359992698,66.00916359992698,66.00916359992698,66.00916359992698,66.37551030004397,66.37551030004397,66.37551030004397,66.37551030004397,66.37551030004397,66.37551030004397,66.37551030004397,66.37551030004397,66.37551030004397,23,0,,,66.37551030004397,66.57573170005344,0.0,66.57573170005344,0,0.0,0,1,1000,num_1,0.48042019992135465,,32,9,2026-03-12_15h55.39.401,2026A_exp2,2022.2.4,59.77036221758243,
1000,1,0.0,0.0,0,0,4,4,87,,,,,67.07637170003727,67.71036790008657,67.71036790008657,68.21150470012799,45,315,68.21150470012799,68.21150470012799,68.21150470012799,68.21150470012799,68.21150470012799,68.21150470012799,68.21150470012799,68.21150470012799,68.21150470012799,68.57763459999114,68.57763459999114,68.57763459999114,68.57763459999114,68.57763459999114,68.57763459999114,68.57763459999114,68.57763459999114,68.57763459999114,23,0,,,68.57763459999114,68.7781797000207,1000,68.7781797000207,1000,1000,1000,1000,0,num_3,0.3815210999455303,,32,9,2026-03-12_15h55.39.401,2026A_exp2,2022.2.4,59.77036221758243,
1000,1,0.0,6.1,1,0,5,5,69,,,,,69.17851700005122,69.81237630010583,69.81237630010583,70.31344559998251,45,45,70.31344559998251,70.31344559998251,70.31344559998251,70.31344559998251,70.31344559998251,70.31344559998251,70.31344559998251,70.31344559998251,70.31344559998251,70.67980700009502,70.67980700009502,70.67980700009502,70.67980700009502,70.67980700009502,70.67980700009502,70.67980700009502,70.67980700009502,70.67980700009502,1,2,"[0.000780200120061636, 0.050551600055769086]","[0.03372900001704693, 0.3675356002058834]",70.67980700009502,70.88033850002103,1000,70.88033850002103,1000,1000,1000,1000,1,num_2,0.45621489989571273,,32,9,2026-03-12_15h55.39.401,2026A_exp2,2022.2.4,59.77036221758243,
1,0,6.1,6.1,0,0,6,6,27,,,,,71.36443300009705,72.01474340003915,72.01474340003915,72.4993052999489,315,315,72.4993052999489,72.4993052999489,72.4993052999489,72.4993052999489,72.4993052999489,72.4993052999489,72.4993052999489,72.4993052999489,72.4993052999489,72.8653736000415,72.8653736000415,72.8653736000415,72.8653736000415,72.8653736000415,72.8653736000415,72.8653736000415,72.8653736000415,72.8653736000415,0,1,[0.0008213999681174755],[0.36663060006685555],72.8653736000415,73.06573370005935,6.1,73.06573370005935,1,6.1,1,1,1000,num_4,0.709992199903354,,32,9,2026-03-12_15h55.39.401,2026A_exp2,2022.2.4,59.77036221758243,
1000,1,3.7,4.9,1,0,7,7,20,,,,,73.79961220012046,74.45058960001916,74.45058960001916,74.93463400006294,315,315,74.93463400006294,74.93463400006294,74.93463400006294,74.93463400006294,74.93463400006294,74.93463400006294,74.93463400006294,74.93463400006294,74.93463400006294,75.30118530010805,75.30118530010805,75.30118530010805,75.30118530010805,75.30118530010805,75.30118530010805,75.30118530010805,75.30118530010805,75.30118530010805,16,6,"[0.06727720005437732, 0.11708250013180077, 0.25181029993109405, 0.2838630999904126, 0.31702620000578463, 0.3672726000659168]","[0.08396190009079874, 0.13401470007374883, 0.2677321000955999, 0.30051680002361536, 0.35069090011529624, 0.3672752999700606]",75.30118530010805,75.50198010005988,1000,75.50198010005988,1000,1000,1000,1000,1,num_2,0.3544459999538958,,32,9,2026-03-12_15h55.39.401,2026A_exp2,2022.2.4,59.77036221758243,
1000,1,3.7,0.0,0,0,8,8,66,,,,,75.88520080014132,76.52028729999438,76.52028729999438,77.0207905001007,315,315,77.0207905001007,77.0207905001007,77.0207905001007,77.0207905001007,77.0207905001007,77.0207905001007,77.0207905001007,77.0207905001007,77.0207905001007,77.38655330007896,77.38655330007896,77.38655330007896,77.38655330007896,77.38655330007896,77.38655330007896,77.38655330007896,77.38655330007896,77.38655330007896,0,1,[0.00088900001719594],[0.36652899999171495],77.38655330007896,77.58702729991637,1000,77.58702729991637,1000,1000,1000,1000,0,num_3,0.43758149980567396,,32,9,2026-03-12_15h55.39.401,2026A_exp2,2022.2.4,59.77036221758243,
1000,1,0.0,0.0,0,0,9,9,45,,,,,78.05501380003989,78.70484940009192,78.70484940009192,79.1893420999404,315,45,79.1893420999404,79.1893420999404,79.1893420999404,79.1893420999404,79.1893420999404,79.1893420999404,79.1893420999404,79.1893420999404,79.1893420999404,79.55556150013581,79.55556150013581,79.55556150013581,79.55556150013581,79.55556150013581,79.55556150013581,79.55556150013581,79.55556150013581,79.55556150013581,8,4,"[0.0007784999907016754, 0.11692830012179911, 0.167106700129807, 0.28422440006397665]","[0.08445080020464957, 0.15031200018711388, 0.2004893000703305, 0.36807200009934604]",79.55556150013581,79.75566489994526,1000,79.75566489994526,1000,1000,1000,1000,0,num_3,0.5405501998029649,,32,9,2026-03-12_15h55.39.401,2026A_exp2,2022.2.4,59.77036221758243,
1,0,4.9,4.9,0,0,10,10,39,,,,,80.3231788999401,80.97359440010041,80.97359440010041,81.45795690012164,315,315,81.45795690012164,81.45795690012164,81.45795690012164,81.45795690012164,81.45795690012164,81.45795690012164,81.45795690012164,81.45795690012164,81.45795690012164,81.82462229998782,81.82462229998782,81.82462229998782,81.82462229998782,81.82462229998782,81.82462229998782,81.82462229998782,81.82462229998782,81.82462229998782,0,1,[0.0007378000300377607],[0.3680678999517113],81.82462229998782,82.02466320013627,4.9,82.02466320013627,1,4.9,1,1,1000,num_4,0.591176699846983,,32,9,2026-03-12_15h55.39.401,2026A_exp2,2022.2.4,59.77036221758243,
1,0,4.9,3.7,1,0,11,11,10,,,,,82.6420043001417,83.27588440012187,83.27588440012187,83.77696250006557,45,315,83.77696250006557,83.77696250006557,83.77696250006557,83.77696250006557,83.77696250006557,83.77696250006557,83.77696250006557,83.77696250006557,83.77696250006557,84.14322900003754,84.14322900003754,84.14322900003754,84.14322900003754,84.14322900003754,84.14322900003754,84.14322900003754,84.14322900003754,84.14322900003754,18,3,"[0.017285299953073263, 0.06672200001776218, 0.23372519994154572]","[0.050073100021108985, 0.10004359995946288, 0.2503166999667883]",84.14322900003754,84.34345140005462,3.7,84.34345140005462,1,3.7,1,1,1000,num_4,0.5610816997941583,,32,9,2026-03-12_15h55.39.401,2026A_exp2,2022.2.4,59.77036221758243,
1,0,0.0,0.0,0,0,12,12,44,,,,,84.9276415000204,85.56176399998367,85.56176399998367,86.06262320000678,45,315,86.06262320000678,86.06262320000678,86.06262320000678,86.06262320000678,86.06262320000678,86.06262320000678,86.06262320000678,86.06262320000678,86.06262320000678,86.42916280007921,86.42916280007921,86.42916280007921,86.42916280007921,86.42916280007921,86.42916280007921,86.42916280007921,86.42916280007921,86.42916280007921,6,1,[0.0008845999836921692],[0.28351620002649724],86.42916280007921,86.62948859995231,0.0,86.62948859995231,1,0.0,0,0,1000,num_4,0.8746225000359118,,32,9,2026-03-12_15h55.39.401,2026A_exp2,2022.2.4,59.77036221758243,
1,0,4.9,0.0,0,0,13,13,4,,,,,87.53028850001283,88.16436180006713,88.16436180006713,88.66522950003855,315,45,88.66522950003855,88.66522950003855,88.66522950003855,88.66522950003855,88.66522950003855,88.66522950003855,88.66522950003855,88.66522950003855,88.66522950003855,89.03166240011342,89.03166240011342,89.03166240011342,89.03166240011342,89.03166240011342,89.03166240011342,89.03166240011342,89.03166240011342,89.03166240011342,23,0,,,89.03166240011342,89.23188149998896,4.9,89.23188149998896,1,4.9,1,1,1000,num_4,0.54400400002487,,32,9,2026-03-12_15h55.39.401,2026A_exp2,2022.2.4,59.77036221758243,
0,0,0.0,3.7,0,0,14,14,83,,,,,89.79915390000679,90.43310500006191,90.43310500006191,90.93416479998268,45,315,90.93416479998268,90.93416479998268,90.93416479998268,90.93416479998268,90.93416479998268,90.93416479998268,90.93416479998268,90.93416479998268,90.93416479998268,91.30068990006112,91.30068990006112,91.30068990006112,91.30068990006112,91.30068990006112,91.30068990006112,91.30068990006112,91.30068990006112,91.30068990006112,4,1,[0.0008359998464584351],[0.317122999811545],91.30068990006112,91.50087730004452,3.7,91.50087730004452,0,3.7,1,0,1000,num_1,0.6912342999130487,,32,9,2026-03-12_15h55.39.401,2026A_exp2,2022.2.4,59.77036221758243,
1000,1,0.0,0.0,1,0,15,15,46,,,,,92.21921709994785,92.86915270006284,92.86915270006284,93.37003410002217,45,315,93.37003410002217,93.37003410002217,93.37003410002217,93.37003410002217,93.37003410002217,93.37003410002217,93.37003410002217,93.37003410002217,93.37003410002217,93.7196853000205,93.7196853000205,93.7196853000205,93.7196853000205,93.7196853000205,93.7196853000205,93.7196853000205,93.7196853000205,93.7196853000205,21,1,[0.033622599905356765],[0.050109899835661054],93.7196853000205,93.92017769999802,1000,93.92017769999802,1000,1000,1000,1000,1,num_2,0.6476284000091255,,32,9,2026-03-12_15h55.39.401,2026A_exp2,2022.2.4,59.77036221758243,
1000,1,6.1,0.0,0,0,16,16,89,,,,,94.58748170011677,95.22179109998979,95.22179109998979,95.72233280004002,45,45,95.72233280004002,95.72233280004002,95.72233280004002,95.72233280004002,95.72233280004002,95.72233280004002,95.72233280004002,95.72233280004002,95.72233280004002,96.08876319997944,96.08876319997944,96.08876319997944,96.08876319997944,96.08876319997944,96.08876319997944,96.08876319997944,96.08876319997944,96.08876319997944,23,0,,,96.08876319997944,96.28918820014223,1000,96.28918820014223,1000,1000,1000,1000,0,num_3,0.039154999889433384,,32,9,2026-03-12_15h55.39.401,2026A_exp2,2022.2.4,59.77036221758243,
1000,1,0.0,0.0,0,0,17,17,67,,,,,96.35572360013612,97.0067058999557,97.0067058999557,97.49087939993478,45,45,97.49087939993478,97.49087939993478,97.49087939993478,97.49087939993478,97.49087939993478,97.49087939993478,97.49087939993478,97.49087939993478,97.49087939993478,97.85701350006275,97.85701350006275,97.85701350006275,97.85701350006275,97.85701350006275,97.85701350006275,97.85701350006275,97.85701350006275,97.85701350006275,14,5,"[0.033326700096949935, 0.13338260003365576, 0.2003472000360489, 0.2501378001179546, 0.3344875001348555]","[0.050304700154811144, 0.16686730016954243, 0.23343600006774068, 0.2834669000003487, 0.36702500004321337]",97.85701350006275,98.0574044000823,1000,98.0574044000823,1000,1000,1000,1000,0,num_3,0.3986598998308182,,32,9,2026-03-12_15h55.39.401,2026A_exp2,2022.2.4,59.77036221758243,
1000,1,0.0,0.0,1,0,18,18,23,,,,,98.47472540009767,99.12501990003511,99.12501990003511,99.60945140011609,45,315,99.60945140011609,99.60945140011609,99.60945140011609,99.60945140011609,99.60945140011609,99.60945140011609,99.60945140011609,99.60945140011609,99.60945140011609,99.97738780011423,99.97738780011423,99.97738780011423,99.97738780011423,99.97738780011423,99.97738780011423,99.97738780011423,99.97738780011423,99.97738780011423,23,0,,,99.97738780011423,100.17711329995655,1000,100.17711329995655,1000,1000,1000,1000,0,num_3,0.46329609979875386,,32,9,2026-03-12_15h55.39.401,2026A_exp2,2022.2.4,59.77036221758243,
1000,1,0.0,6.1,1,0,19,19,52,,,,,100.65987530001439,101.31061529996805,101.31061529996805,101.79496700013988,315,315,101.79496700013988,101.79496700013988,101.79496700013988,101.79496700013988,101.79496700013988,101.79496700013988,101.79496700013988,101.79496700013988,101.79496700013988,102.16142749995925,102.16142749995925,102.16142749995925,102.16142749995925,102.16142749995925,102.16142749995925,102.16142749995925,102.16142749995925,102.16142749995925,0,1,[0.0007412999402731657],[0.36743109999224544],102.16142749995925,102.36198869999498,1000,102.36198869999498,1000,1000,1000,1000,1,num_2,0.3018885999917984,,32,9,2026-03-12_15h55.39.401,2026A_exp2,2022.2.4,59.77036221758243,
1000,1,0.0,6.1,0,0,20,20,85,,,,,102.69537370000035,103.34579790011048,103.34579790011048,103.83025340014137,315,45,103.83025340014137,103.83025340014137,103.83025340014137,103.83025340014137,103.83025340014137,103.83025340014137,103.83025340014137,103.83025340014137,103.83025340014137,104.19671309995465,104.19671309995465,104.19671309995465,104.19671309995465,104.19671309995465,104.19671309995465,104.19671309995465,104.19671309995465,104.19671309995465,4,4,"[0.0007215999066829681, 0.15089900000020862, 0.23391649988479912, 0.3340312000364065]","[0.13446959992870688, 0.21722899982705712, 0.30068250000476837, 0.3675454000476748]",104.19671309995465,104.39706839993596,1000,104.39706839993596,1000,1000,1000,1000,1,num_2,0.5067860998678952,,32,9,2026-03-12_15h55.39.401,2026A_exp2,2022.2.4,59.77036221758243,
1000,1,0.0,4.9,0,0,21,21,5,,,,,104.93127429997548,105.5815697000362,105.5815697000362,106.06598339998163,315,45,106.06598339998163,106.06598339998163,106.06598339998163,106.06598339998163,106.06598339998163,106.06598339998163,106.06598339998163,106.06598339998163,106.06598339998163,106.43247340014204,106.43247340014204,106.43247340014204,106.43247340014204,106.43247340014204,106.43247340014204,106.43247340014204,106.43247340014204,106.43247340014204,11,1,[0.1839306999463588],[0.36751320003531873],106.43247340014204,106.63442980009131,1000,106.63442980009131,1000,1000,1000,1000,1,num_2,0.4376230000052601,,32,9,2026-03-12_15h55.39.401,2026A_exp2,2022.2.4,59.77036221758243,
0,0,0.0,4.9,0,0,22,22,14,,,,,107.0998442999553,107.75047620013356,107.75047620013356,108.25181709998287,45,45,108.25181709998287,108.25181709998287,108.25181709998287,108.25181709998287,108.25181709998287,108.25181709998287,108.25181709998287,108.25181709998287,108.25181709998287,108.6182615000289,108.6182615000289,108.6182615000289,108.6182615000289,108.6182615000289,108.6182615000289,108.6182615000289,108.6182615000289,108.6182615000289,23,0,,,108.6182615000289,108.81845139991492,4.9,108.81845139991492,1,4.9,1,1,1000,num_4,1.1265451998915523,,32,9,2026-03-12_15h55.39.401,2026A_exp2,2022.2.4,59.77036221758243,
1,0,0.0,0.0,1,0,23,23,41,,,,,109.96934289997444,110.62016570009291,110.62016570009291,111.10449169995263,45,315,111.10449169995263,111.10449169995263,111.10449169995263,111.10449169995263,111.10449169995263,111.10449169995263,111.10449169995263,111.10449169995263,111.10449169995263,111.4710699999705,111.4710699999705,111.4710699999705,111.4710699999705,111.4710699999705,111.4710699999705,111.4710699999705,111.4710699999705,111.4710699999705,6,2,"[0.0016127999406307936, 0.06659159995615482]","[0.03336320002563298, 0.3169809998944402]",111.4710699999705,111.67114059999585,0.0,111.67114059999585,0,0.0,0,1,1000,num_1,0.9294029998127371,,32,9,2026-03-12_15h55.39.401,2026A_exp2,2022.2.4,59.77036221758243,
0,0,6.1,6.1,0,0,24,24,42,,,,,112.6220042000059,113.2728603000287,113.2728603000287,113.75716140004806,45,45,113.75716140004806,113.75716140004806,113.75716140004806,113.75716140004806,113.75716140004806,113.75716140004806,113.75716140004806,113.75716140004806,113.75716140004806,114.1236906000413,114.1236906000413,114.1236906000413,114.1236906000413,114.1236906000413,114.1236906000413,114.1236906000413,114.1236906000413,114.1236906000413,2,2,"[0.0012088001240044832, 0.3673002999275923]","[0.3340155000332743, 0.3673054000828415]",114.1236906000413,114.32383439992554,6.1,114.32383439992554,0,6.1,1,0,1000,num_1,0.908167399931699,,32,9,2026-03-12_15h55.39.401,2026A_exp2,2022.2.4,59.77036221758243,
1000,1,0.0,4.9,0,0,25,25,74,,,,,115.25842950004153,115.90885549993254,115.90885549993254,116.39310330012813,45,315,116.39310330012813,116.39310330012813,116.39310330012813,116.39310330012813,116.39310330012813,116.39310330012813,116.39310330012813,116.39310330012813,116.39310330012813,116.75947519997135,116.75947519997135,116.75947519997135,116.75947519997135,116.75947519997135,116.75947519997135,116.75947519997135,116.75947519997135,116.75947519997135,6,6,"[0.001209900015965104, 0.1003818002063781, 0.15036830003373325, 0.1838365001603961, 0.23359489999711514, 0.3500739000737667]","[0.08378780004568398, 0.13375610020011663, 0.16716040018945932, 0.21672580018639565, 0.3335485002025962, 0.3671171001624316]",116.75947519997135,116.95988700003363,1000,116.95988700003363,1000,1000,1000,1000,1,num_2,0.600708199897781,,32,9,2026-03-12_15h55.39.401,2026A_exp2,2022.2.4,59.77036221758243,
1000,1,0.0,0.0,1,0,26,26,16,,,,,117.57705430011265,118.22784420009702,118.22784420009702,118.72858009999618,45,315,118.72858009999618,118.72858009999618,118.72858009999618,118.72858009999618,118.72858009999618,118.72858009999618,118.72858009999618,118.72858009999618,118.72858009999618,119.09515419998206,119.09515419998206,119.09515419998206,119.09515419998206,119.09515419998206,119.09515419998206,119.09515419998206,119.09515419998206,119.09515419998206,23,0,,,119.09515419998206,119.29715180001222,1000,119.29715180001222,1000,1000,1000,1000,0,num_3,0.6396546999458224,,32,9,2026-03-12_15h55.39.401,2026A_exp2,2022.2.4,59.77036221758243,
1,0,3.7,6.1,1,0,27,27,77,,,,,119.96280350000598,120.61354420008138,120.61354420008138,121.1146591999568,45,45,121.1146591999568,121.1146591999568,121.1146591999568,121.1146591999568,121.1146591999568,121.1146591999568,121.1146591999568,121.1146591999568,121.1146591999568,121.48090740013868,121.48090740013868,121.48090740013868,121.48090740013868,121.48090740013868,121.48090740013868,121.48090740013868,121.48090740013868,121.48090740013868,17,2,"[0.0012198002077639103, 0.06678440002724528]","[0.033405200112611055, 0.13348090020008385]",121.48090740013868,121.68132119998336,6.1,121.68132119998336,1,6.1,1,1,1000,num_4,0.7510036998428404,,32,9,2026-03-12_15h55.39.401,2026A_exp2,2022.2.4,59.77036221758243,
0,0,0.0,0.0,0,0,28,28,70,,,,,122.44857949996367,123.08949690009467,123.08949690009467,123.58374499995261,45,45,123.58374499995261,123.58374499995261,123.58374499995261,123.58374499995261,123.58374499995261,123.58374499995261,123.58374499995261,123.58374499995261,123.58374499995261,123.95028130011633,123.95028130011633,123.95028130011633,123.95028130011633,123.95028130011633,123.95028130011633,123.95028130011633,123.95028130011633,123.95028130011633,10,3,"[0.0012515000998973846, 0.11692750011570752, 0.20037150010466576]","[0.10005980008281767, 0.1834574001841247, 0.25027770013548434]",123.95028130011633,124.15034479997121,0.0,124.15034479997121,1,0.0,0,0,1000,num_4,0.5223743999376893,,32,9,2026-03-12_15h55.39.401,2026A_exp2,2022.2.4,59.77036221758243,
1000,1,0.0,6.1,0,0,29,29,75,,,,,124.70096289995126,125.35141990007833,125.35141990007833,125.83590280008502,315,315,125.83590280008502,125.83590280008502,125.83590280008502,125.83590280008502,125.83590280008502,125.83590280008502,125.83590280008502,125.83590280008502,125.83590280008502,126.20242629991844,126.20242629991844,126.20242629991844,126.20242629991844,126.20242629991844,126.20242629991844,126.20242629991844,126.20242629991844,126.20242629991844,4,2,"[0.0012089998926967382, 0.25028349994681776]","[0.2168725999072194, 0.35043139988556504]",126.20242629991844,126.40459920000285,1000,126.40459920000285,1000,1000,1000,1000,1,num_2,0.5880518998019397,,32,9,2026-03-12_15h55.39.401,2026A_exp2,2022.2.4,59.77036221758243,
1,0,4.9,3.7,1,0,30,30,26,,,,,127.02010480011813,127.65382479992695,127.65382479992695,128.15495270001702,45,315,128.15495270001702,128.15495270001702,128.15495270001702,128.15495270001702,128.15495270001702,128.15495270001702,128.15495270001702,128.15495270001702,128.15495270001702,128.52149740001187,128.52149740001187,128.52149740001187,128.52149740001187,128.52149740001187,128.52149740001187,128.52149740001187,128.52149740001187,128.52149740001187,0,1,[0.0012255001347512007],[0.3671004001516849],128.52149740001187,128.721458400134,3.7,128.721458400134,0,3.7,1,0,1000,num_1,0.8629985998850316,,32,9,2026-03-12_15h55.39.401,2026A_exp2,2022.2.4,59.77036221758243,
1,0,0.0,6.1,0,0,31,31,82,,,,,129.60565000004135,130.2564938000869,130.2564938000869,130.74076980003156,315,315,130.74076980003156,130.74076980003156,130.74076980003156,130.74076980003156,130.74076980003156,130.74076980003156,130.74076980003156,130.74076980003156,130.74076980003156,131.1072985001374,131.1072985001374,131.1072985001374,131.1072985001374,131.1072985001374,131.1072985001374,131.1072985001374,131.1072985001374,131.1072985001374,23,0,,,131.1072985001374,131.30755280004814,0.0,131.30755280004814,0,0.0,0,1,1000,num_1,1.8529366997536272,,32,9,2026-03-12_15h55.39.401,2026A_exp2,2022.2.4,59.77036221758243,
1,0,3.7,3.7,1,0,32,32,86,,,,,133.17591019999236,133.82679289998487,133.82679289998487,134.31119880010374,315,45,134.31119880010374,134.31119880010374,134.31119880010374,134.31119880010374,134.31119880010374,134.31119880010374,134.31119880010374,134.31119880010374,134.31119880010374,134.67739820014685,134.67739820014685,134.67739820014685,134.67739820014685,134.67739820014685,134.67739820014685,134.67739820014685,134.67739820014685,134.67739820014685,23,0,,,134.67739820014685,134.87780679995194,3.7,134.87780679995194,1,3.7,1,1,1000,num_4,0.6262963998597115,,32,9,2026-03-12_15h55.39.401,2026A_exp2,2022.2.4,59.77036221758243,
1000,1,0.0,6.1,1,0,33,33,3,,,,,135.52840619999915,136.16230319999158,136.16230319999158,136.66357590002008,315,45,136.66357590002008,136.66357590002008,136.66357590002008,136.66357590002008,136.66357590002008,136.66357590002008,136.66357590002008,136.66357590002008,136.66357590002008,137.02991280006245,137.02991280006245,137.02991280006245,137.02991280006245,137.02991280006245,137.02991280006245,137.02991280006245,137.02991280006245,137.02991280006245,23,0,,,137.02991280006245,137.23008290003054,1000,137.23008290003054,1000,1000,1000,1000,1,num_2,0.5056377998553216,,32,9,2026-03-12_15h55.39.401,2026A_exp2,2022.2.4,59.77036221758243,
1000,1,0.0,4.9,0,0,34,34,53,,,,,137.7638763000723,138.41471199993975,138.41471199993975,138.91564840008505,315,315,138.91564840008505,138.91564840008505,138.91564840008505,138.91564840008505,138.91564840008505,138.91564840008505,138.91564840008505,138.91564840008505,138.91564840008505,139.28214109991677,139.28214109991677,139.28214109991677,139.28214109991677,139.28214109991677,139.28214109991677,139.28214109991677,139.28214109991677,139.28214109991677,23,0,,,139.28214109991677,139.482244099956,1000,139.482244099956,1000,1000,1000,1000,1,num_2,0.501589999999851,,32,9,2026-03-12_15h55.39.401,2026A_exp2,2022.2.4,59.77036221758243,
1,0,3.7,4.9,1,0,35,35,71,,,,,139.999474799959,140.6502261001151,140.6502261001151,141.15129970014095,45,45,141.15129970014095,141.15129970014095,141.15129970014095,141.15129970014095,141.15129970014095,141.15129970014095,141.15129970014095,141.15129970014095,141.15129970014095,141.51753580011427,141.51753580011427,141.51753580011427,141.51753580011427,141.51753580011427,141.51753580011427,141.51753580011427,141.51753580011427,141.51753580011427,23,0,,,141.51753580011427,141.71790780010633,4.9,141.71790780010633,1,4.9,1,1,1000,num_4,1.514873799867928,,32,9,2026-03-12_15h55.39.401,2026A_exp2,2022.2.4,59.77036221758243,
1,0,0.0,0.0,0,0,36,36,34,,,,,143.25259650009684,143.90347380004823,143.90347380004823,144.3879116999451,315,45,144.3879116999451,144.3879116999451,144.3879116999451,144.3879116999451,144.3879116999451,144.3879116999451,144.3879116999451,144.3879116999451,144.3879116999451,144.75430270005018,144.75430270005018,144.75430270005018,144.75430270005018,144.75430270005018,144.75430270005018,144.75430270005018,144.75430270005018,144.75430270005018,23,0,,,144.75430270005018,144.9544444999192,0.0,144.9544444999192,1,0.0,0,0,1000,num_4,0.9735651998780668,,32,9,2026-03-12_15h55.39.401,2026A_exp2,2022.2.4,59.77036221758243,
1000,1,0.0,4.9,1,0,37,37,79,,,,,145.95539010013454,146.60618090000935,146.60618090000935,147.10717989993282,315,315,147.10717989993282,147.10717989993282,147.10717989993282,147.10717989993282,147.10717989993282,147.10717989993282,147.10717989993282,147.10717989993282,147.10717989993282,147.45704429992475,147.45704429992475,147.45704429992475,147.45704429992475,147.45704429992475,147.45704429992475,147.45704429992475,147.45704429992475,147.45704429992475,22,0,,,147.45704429992475,147.6595574999228,1000,147.6595574999228,1000,1000,1000,1000,1,num_2,0.8849984998814762,,32,9,2026-03-12_15h55.39.401,2026A_exp2,2022.2.4,59.77036221758243,
0,0,3.7,6.1,0,0,38,38,73,,,,,148.5746820999775,149.22552320011891,149.22552320011891,149.7264505000785,315,45,149.7264505000785,149.7264505000785,149.7264505000785,149.7264505000785,149.7264505000785,149.7264505000785,149.7264505000785,149.7264505000785,149.7264505000785,150.07632050011307,150.07632050011307,150.07632050011307,150.07632050011307,150.07632050011307,150.07632050011307,150.07632050011307,150.07632050011307,150.07632050011307,19,1,[0.0012214998714625835],[0.0501999999396503],150.07632050011307,150.27656230004504,6.1,150.27656230004504,1,6.1,1,1,1000,num_4,0.8598311999812722,,32,9,2026-03-12_15h55.39.401,2026A_exp2,2022.2.4,59.77036221758243,
1000,1,3.7,0.0,1,0,39,39,88,,,,,151.16080920002423,151.811646200018,151.811646200018,152.29557189997286,45,45,152.29557189997286,152.29557189997286,152.29557189997286,152.29557189997286,152.29557189997286,152.29557189997286,152.29557189997286,152.29557189997286,152.29557189997286,152.662151100114,152.662151100114,152.662151100114,152.662151100114,152.662151100114,152.662151100114,152.662151100114,152.662151100114,152.662151100114,0,1,[0.0007349001243710518],[0.36782340006902814],152.662151100114,152.86463920003735,1000,152.86463920003735,1000,1000,1000,1000,0,num_3,1.3834071999881417,,32,9,2026-03-12_15h55.39.401,2026A_exp2,2022.2.4,59.77036221758243,
1000,1,0.0,6.1,0,0,40,40,58,,,,,154.26393000013195,154.9186208001338,154.9186208001338,155.41566619998775,45,45,155.41566619998775,155.41566619998775,155.41566619998775,155.41566619998775,155.41566619998775,155.41566619998775,155.41566619998775,155.41566619998775,155.41566619998775,155.78181500011124,155.78181500011124,155.78181500011124,155.78181500011124,155.78181500011124,155.78181500011124,155.78181500011124,155.78181500011124,155.78181500011124,15,4,"[0.0010760999284684658, 0.10042180004529655, 0.13374339998699725, 0.20027929986827075]","[0.08358079986646771, 0.11698880000039935, 0.15036630001850426, 0.2167273999657482]",155.78181500011124,155.98397370008752,1000,155.98397370008752,1000,1000,1000,1000,1,num_2,0.624034799868241,,32,9,2026-03-12_15h55.39.401,2026A_exp2,2022.2.4,59.77036221758243,
1,0,0.0,3.7,0,0,41,41,61,,,,,156.63274149992503,157.28329719998874,157.28329719998874,157.78470680001192,45,315,157.78470680001192,157.78470680001192,157.78470680001192,157.78470680001192,157.78470680001192,157.78470680001192,157.78470680001192,157.78470680001192,157.78470680001192,158.15106569998898,158.15106569998898,158.15106569998898,158.15106569998898,158.15106569998898,158.15106569998898,158.15106569998898,158.15106569998898,158.15106569998898,18,2,"[0.0012323998380452394, 0.21701389993540943]","[0.05023479997180402, 0.25035809981636703]",158.15106569998898,158.3513348000124,0.0,158.3513348000124,0,0.0,0,1,1000,num_1,1.3778089999686927,,32,9,2026-03-12_15h55.39.401,2026A_exp2,2022.2.4,59.77036221758243,
0,0,6.1,0.0,1,0,42,42,30,,,,,159.75252779992297,160.40337179997005,160.40337179997005,160.88779260008596,45,315,160.88779260008596,160.88779260008596,160.88779260008596,160.88779260008596,160.88779260008596,160.88779260008596,160.88779260008596,160.88779260008596,160.88779260008596,161.2540693001356,161.2540693001356,161.2540693001356,161.2540693001356,161.2540693001356,161.2540693001356,161.2540693001356,161.2540693001356,161.2540693001356,23,0,,,161.2540693001356,161.45437399996445,6.1,161.45437399996445,1,6.1,1,1,1000,num_4,1.08143479982391,,32,9,2026-03-12_15h55.39.401,2026A_exp2,2022.2.4,59.77036221758243,
1,0,0.0,6.1,0,0,43,43,43,,,,,162.5552769000642,163.20588109991513,163.20588109991513,163.69039859995246,45,315,163.69039859995246,163.69039859995246,163.69039859995246,163.69039859995246,163.69039859995246,163.69039859995246,163.69039859995246,163.69039859995246,163.69039859995246,164.05686850007623,164.05686850007623,164.05686850007623,164.05686850007623,164.05686850007623,164.05686850007623,164.05686850007623,164.05686850007623,164.05686850007623,5,3,"[0.03359110001474619, 0.11682090000249445, 0.26715250010602176]","[0.10015240008942783, 0.23367989994585514, 0.36734330002218485]",164.05686850007623,164.25702739995904,0.0,164.25702739995904,0,0.0,0,1,1000,num_1,1.1027537998743355,,32,9,2026-03-12_15h55.39.401,2026A_exp2,2022.2.4,59.77036221758243,
1000,1,3.7,4.9,0,0,44,44,80,,,,,165.39149920013733,166.04235340002924,166.04235340002924,166.52676169993356,45,315,166.52676169993356,166.52676169993356,166.52676169993356,166.52676169993356,166.52676169993356,166.52676169993356,166.52676169993356,166.52676169993356,166.52676169993356,166.89314260007814,166.89314260007814,166.89314260007814,166.89314260007814,166.89314260007814,166.89314260007814,166.89314260007814,166.89314260007814,166.89314260007814,22,1,[0.16689500003121793],[0.18359479983337224],166.89314260007814,167.09433310013264,1000,167.09433310013264,1000,1000,1000,1000,0,num_3,1.458697099937126,,32,9,2026-03-12_15h55.39.401,2026A_exp2,2022.2.4,59.77036221758243,
1000,1,6.1,4.9,0,0,45,45,68,,,,,168.5779462000355,169.228673200123,169.228673200123,169.72987770009786,45,315,169.72987770009786,169.72987770009786,169.72987770009786,169.72987770009786,169.72987770009786,169.72987770009786,169.72987770009786,169.72987770009786,169.72987770009786,170.09647920005955,170.09647920005955,170.09647920005955,170.09647920005955,170.09647920005955,170.09647920005955,170.09647920005955,170.09647920005955,170.09647920005955,23,0,,,170.09647920005955,170.29828949994408,1000,170.29828949994408,1000,1000,1000,1000,0,num_3,0.47765039978548884,,32,9,2026-03-12_15h55.39.401,2026A_exp2,2022.2.4,59.77036221758243,
1000,1,0.0,3.7,0,0,46,46,57,,,,,170.79696410009637,171.44768909993581,171.44768909993581,171.94870850001462,45,315,171.94870850001462,171.94870850001462,171.94870850001462,171.94870850001462,171.94870850001462,171.94870850001462,171.94870850001462,171.94870850001462,171.94870850001462,172.29836070002057,172.29836070002057,172.29836070002057,172.29836070002057,172.29836070002057,172.29836070002057,172.29836070002057,172.29836070002057,172.29836070002057,4,5,"[0.0013245998416095972, 0.050201999954879284, 0.08362849988043308, 0.11693679983727634, 0.3339062000159174]","[0.033443599939346313, 0.06699399999342859, 0.10030679986812174, 0.31717059994116426, 0.35074649984017015]",172.29836070002057,172.5006999000907,1000,172.51544789993204,1000,1000,1000,1000,1,num_2,1.397172899916768,,32,9,2026-03-12_15h55.39.401,2026A_exp2,2022.2.4,59.77036221758243,
1000,1,0.0,0.0,0,0,47,47,37,,,,,173.93333330005407,174.58425120008178,174.58425120008178,175.08519289991818,315,315,175.08519289991818,175.08519289991818,175.08519289991818,175.08519289991818,175.08519289991818,175.08519289991818,175.08519289991818,175.08519289991818,175.08519289991818,175.43501170002855,175.43501170002855,175.43501170002855,175.43501170002855,175.43501170002855,175.43501170002855,175.43501170002855,175.43501170002855,175.43501170002855,19,3,"[0.0841952997725457, 0.13422919996082783, 0.3511969998944551]","[0.10076459986157715, 0.15075389994308352, 0.35120139992795885]",175.43501170002855,175.63718449999578,1000,175.63718449999578,1000,1000,1000,1000,0,num_3,0.7790934997610748,,32,9,2026-03-12_15h55.39.401,2026A_exp2,2022.2.4,59.77036221758243,
1000,1,0.0,4.9,1,0,48,48,55,,,,,176.4359240999911,177.08662770013325,177.08662770013325,177.58778390008956,315,315,177.58778390008956,177.58778390008956,177.58778390008956,177.58778390008956,177.58778390008956,177.58778390008956,177.58778390008956,177.58778390008956,177.58778390008956,177.954032599926,177.954032599926,177.954032599926,177.954032599926,177.954032599926,177.954032599926,177.954032599926,177.954032599926,177.954032599926,23,0,,,177.954032599926,178.15626380010508,1000,178.15626380010508,1000,1000,1000,1000,1,num_2,0.284121299860999,,32,9,2026-03-12_15h55.39.401,2026A_exp2,2022.2.4,59.77036221758243,
1000,1,4.9,0.0,0,0,49,49,50,,,,,178.47125800000504,179.12194889993407,179.12194889993407,179.62311120005324,315,315,179.62311120005324,179.62311120005324,179.62311120005324,179.62311120005324,179.62311120005324,179.62311120005324,179.62311120005324,179.62311120005324,179.62311120005324,179.98958280007355,179.98958280007355,179.98958280007355,179.98958280007355,179.98958280007355,179.98958280007355,179.98958280007355,179.98958280007355,179.98958280007355,18,3,"[0.0012515000998973846, 0.13340250006876886, 0.1834728999529034]","[0.017272300086915493, 0.1668124001007527, 0.21671189996413887]",179.98958280007355,180.19169120001607,1000,180.19169120001607,1000,1000,1000,1000,0,num_3,0.6010215997230262,,32,9,2026-03-12_15h55.39.401,2026A_exp2,2022.2.4,59.77036221758243,
1000,1,3.7,0.0,1,0,50,50,54,,,,,180.8236178001389,181.47425940004177,181.47425940004177,181.97545400005765,45,315,181.97545400005765,181.97545400005765,181.97545400005765,181.97545400005765,181.97545400005765,181.97545400005765,181.97545400005765,181.97545400005765,181.97545400005765,182.3420136999339,182.3420136999339,182.3420136999339,182.3420136999339,182.3420136999339,182.3420136999339,182.3420136999339,182.3420136999339,182.3420136999339,21,2,"[0.05036019999533892, 0.21727830008603632]","[0.06713540013879538, 0.23402890004217625]",182.3420136999339,182.54217069991864,1000,182.54217069991864,1000,1000,1000,1000,0,num_3,0.5228470999281853,,32,9,2026-03-12_15h55.39.401,2026A_exp2,2022.2.4,59.77036221758243,
1,0,4.9,0.0,1,0,51,51,25,,,,,183.0925265001133,183.7433011000976,183.7433011000976,184.24446650012396,45,45,184.24446650012396,184.24446650012396,184.24446650012396,184.24446650012396,184.24446650012396,184.24446650012396,184.24446650012396,184.24446650012396,184.24446650012396,184.6107187999878,184.6107187999878,184.6107187999878,184.6107187999878,184.6107187999878,184.6107187999878,184.6107187999878,184.6107187999878,184.6107187999878,23,0,,,184.6107187999878,184.8110114999581,0.0,184.8110114999581,0,0.0,0,1,1000,num_1,2.2450058998074383,,32,9,2026-03-12_15h55.39.401,2026A_exp2,2022.2.4,59.77036221758243,
1000,1,0.0,0.0,0,0,52,52,7,,,,,187.07976619992405,187.73064359999262,187.73064359999262,188.2150775999762,45,45,188.2150775999762,188.2150775999762,188.2150775999762,188.2150775999762,188.2150775999762,188.2150775999762,188.2150775999762,188.2150775999762,188.2150775999762,188.5814213999547,188.5814213999547,188.5814213999547,188.5814213999547,188.5814213999547,188.5814213999547,188.5814213999547,188.5814213999547,188.5814213999547,5,1,[0.0013200000394135714],[0.30056450003758073],188.5814213999547,188.7835194999352,1000,188.7835194999352,1000,1000,1000,1000,0,num_3,0.6642440997529775,,32,9,2026-03-12_15h55.39.401,2026A_exp2,2022.2.4,59.77036221758243,
1000,1,0.0,0.0,1,0,53,53,40,,,,,189.4655651000794,190.11619620001875,190.11619620001875,190.61734410002828,315,45,190.61734410002828,190.61734410002828,190.61734410002828,190.61734410002828,190.61734410002828,190.61734410002828,190.61734410002828,190.61734410002828,190.61734410002828,190.98390839993954,190.98390839993954,190.98390839993954,190.98390839993954,190.98390839993954,190.98390839993954,190.98390839993954,190.98390839993954,190.98390839993954,23,0,,,190.98390839993954,191.18436440010555,1000,191.18436440010555,1000,1000,1000,1000,0,num_3,0.5358325999695808,,32,9,2026-03-12_15h55.39.401,2026A_exp2,2022.2.4,59.77036221758243,
1,0,3.7,0.0,1,0,54,54,12,,,,,191.75139360013418,192.4019981001038,192.4019981001038,192.8864251000341,315,315,192.8864251000341,192.8864251000341,192.8864251000341,192.8864251000341,192.8864251000341,192.8864251000341,192.8864251000341,192.8864251000341,192.8864251000341,193.252641600091,193.252641600091,193.252641600091,193.252641600091,193.252641600091,193.252641600091,193.252641600091,193.252641600091,193.252641600091,23,0,,,193.252641600091,193.45307880011387,0.0,193.45307880011387,0,0.0,0,1,1000,num_1,0.7706846999935806,,32,9,2026-03-12_15h55.39.401,2026A_exp2,2022.2.4,59.77036221758243,
1,0,3.7,0.0,0,0,55,55,8,,,,,194.2537535999436,194.88788920012303,194.88788920012303,195.38873860007152,315,315,195.38873860007152,195.38873860007152,195.38873860007152,195.38873860007152,195.38873860007152,195.38873860007152,195.38873860007152,195.38873860007152,195.38873860007152,195.75527530000545,195.75527530000545,195.75527530000545,195.75527530000545,195.75527530000545,195.75527530000545,195.75527530000545,195.75527530000545,195.75527530000545,0,1,[0.0007326998747885227],[0.36749809980392456],195.75527530000545,195.95553770009428,3.7,195.95553770009428,0,3.7,1,0,1000,num_1,1.4127703998237848,,32,9,2026-03-12_15h55.39.401,2026A_exp2,2022.2.4,59.77036221758243,
1,0,4.9,3.7,0,0,56,56,9,,,,,197.39170589996502,198.02420280012302,198.02420280012302,198.52527270000428,45,315,198.52527270000428,198.52527270000428,198.52527270000428,198.52527270000428,198.52527270000428,198.52527270000428,198.52527270000428,198.52527270000428,198.52527270000428,198.89175450010225,198.89175450010225,198.89175450010225,198.89175450010225,198.89175450010225,198.89175450010225,198.89175450010225,198.89175450010225,198.89175450010225,2,2,"[0.001250200206413865, 0.05016440013423562]","[0.03348350012674928, 0.36711099999956787]",198.89175450010225,199.0920295000542,4.9,199.0920295000542,1,4.9,1,1,1000,num_4,0.348180599976331,,32,9,2026-03-12_15h55.39.401,2026A_exp2,2022.2.4,59.77036221758243,
0,0,4.9,4.9,1,0,57,57,48,,,,,199.45879089995287,200.10950460005552,200.10950460005552,200.5941729999613,45,315,200.5941729999613,200.5941729999613,200.5941729999613,200.5941729999613,200.5941729999613,200.5941729999613,200.5941729999613,200.5941729999613,200.5941729999613,200.96042739995755,200.96042739995755,200.96042739995755,200.96042739995755,200.96042739995755,200.96042739995755,200.96042739995755,200.96042739995755,200.96042739995755,11,4,"[0.0012114997953176498, 0.16690750000998378, 0.23363879998214543, 0.35056069982238114]","[0.050349699798971415, 0.18371899984776974, 0.3339158999733627, 0.36715850001201034]",200.96042739995755,201.16064790007658,4.9,201.16064790007658,1,4.9,1,1,1000,num_4,0.5441655998583883,,32,9,2026-03-12_15h55.39.401,2026A_exp2,2022.2.4,59.77036221758243,
1000,1,0.0,0.0,0,0,58,58,36,,,,,201.7277729001362,202.3786333000753,202.3786333000753,202.8630151001271,45,315,202.8630151001271,202.8630151001271,202.8630151001271,202.8630151001271,202.8630151001271,202.8630151001271,202.8630151001271,202.8630151001271,202.8630151001271,203.22948360000737,203.22948360000737,203.22948360000737,203.22948360000737,203.22948360000737,203.22948360000737,203.22948360000737,203.22948360000737,203.22948360000737,4,4,"[0.001428999938070774, 0.18345370003953576, 0.2668785999994725, 0.35034539992921054]","[0.1667740000411868, 0.2502691999543458, 0.3170551999937743, 0.36701509985141456]",203.22948360000737,203.43207650003023,1000,203.43207650003023,1000,1000,1000,1000,0,num_3,0.5846981999929994,,32,9,2026-03-12_15h55.39.401,2026A_exp2,2022.2.4,59.77036221758243,
1000,1,0.0,4.9,1,0,59,59,78,,,,,204.04676840011962,204.6975986000616,204.6975986000616,205.19866130012088,45,315,205.19866130012088,205.19866130012088,205.19866130012088,205.19866130012088,205.19866130012088,205.19866130012088,205.19866130012088,205.19866130012088,205.19866130012088,205.56501010013744,205.56501010013744,205.56501010013744,205.56501010013744,205.56501010013744,205.56501010013744,205.56501010013744,205.56501010013744,205.56501010013744,23,0,,,205.56501010013744,205.7683151999954,1000,205.7683151999954,1000,1000,1000,1000,1,num_2,0.6396991997025907,,32,9,2026-03-12_15h55.39.401,2026A_exp2,2022.2.4,59.77036221758243,
1000,1,0.0,0.0,0,0,60,60,72,,,,,206.43271790002473,207.09015340008773,207.09015340008773,207.58431910001673,315,45,207.58431910001673,207.58431910001673,207.58431910001673,207.58431910001673,207.58431910001673,207.58431910001673,207.58431910001673,207.58431910001673,207.58431910001673,207.95072440011427,207.95072440011427,207.95072440011427,207.95072440011427,207.95072440011427,207.95072440011427,207.95072440011427,207.95072440011427,207.95072440011427,21,2,"[0.06698220013640821, 0.1340130001772195]","[0.08357910020276904, 0.15029910020530224]",207.95072440011427,208.15304949996062,1000,208.15304949996062,1000,1000,1000,1000,0,num_3,0.35086299991235137,,32,9,2026-03-12_15h55.39.401,2026A_exp2,2022.2.4,59.77036221758243,
1000,1,0.0,3.7,1,0,61,61,65,,,,,208.53458780003712,209.18544090003707,209.18544090003707,209.68640340003185,315,315,209.68640340003185,209.68640340003185,209.68640340003185,209.68640340003185,209.68640340003185,209.68640340003185,209.68640340003185,209.68640340003185,209.68640340003185,210.05291919992305,210.05291919992305,210.05291919992305,210.05291919992305,210.05291919992305,210.05291919992305,210.05291919992305,210.05291919992305,210.05291919992305,18,1,[0.300428600050509],[0.3505218999926001],210.05291919992305,210.25477350014262,1000,210.25477350014262,1000,1000,1000,1000,1,num_2,0.44126820005476475,,32,9,2026-03-12_15h55.39.401,2026A_exp2,2022.2.4,59.77036221758243,
1000,1,3.7,6.1,1,0,62,62,29,,,,,210.72027759999037,211.37104970007204,211.37104970007204,211.8726055000443,45,45,211.8726055000443,211.8726055000443,211.8726055000443,211.8726055000443,211.8726055000443,211.8726055000443,211.8726055000443,211.8726055000443,211.8726055000443,212.23827080009505,212.23827080009505,212.23827080009505,212.23827080009505,212.23827080009505,212.23827080009505,212.23827080009505,212.23827080009505,212.23827080009505,23,0,,,212.23827080009505,212.4386136000976,1000,212.4386136000976,1000,1000,1000,1000,1,num_2,0.41039490001276135,,32,9,2026-03-12_15h55.39.401,2026A_exp2,2022.2.4,59.77036221758243,
1000,1,6.1,3.7,0,0,63,63,18,,,,,212.87234980007634,213.52307699993253,213.52307699993253,214.0241652999539,45,315,214.0241652999539,214.0241652999539,214.0241652999539,214.0241652999539,214.0241652999539,214.0241652999539,214.0241652999539,214.0241652999539,214.0241652999539,214.37372620007955,214.37372620007955,214.37372620007955,214.37372620007955,214.37372620007955,214.37372620007955,214.37372620007955,214.37372620007955,214.37372620007955,3,3,"[0.0008368000853806734, 0.08371839998289943, 0.30074830004014075]","[0.050223799888044596, 0.28388640005141497, 0.3507411000318825]",214.37372620007955,214.5758591000922,1000,214.59076660010032,1000,1000,1000,1000,0,num_3,0.37846279982477427,,32,9,2026-03-12_15h55.39.401,2026A_exp2,2022.2.4,59.77036221758243,
0,0,0.0,0.0,0,0,64,64,22,,,,,214.99116019997746,215.64168610004708,215.64168610004708,216.1429616000969,315,45,216.1429616000969,216.1429616000969,216.1429616000969,216.1429616000969,216.1429616000969,216.1429616000969,216.1429616000969,216.1429616000969,216.1429616000969,216.4925738000311,216.4925738000311,216.4925738000311,216.4925738000311,216.4925738000311,216.4925738000311,216.4925738000311,216.4925738000311,216.4925738000311,10,4,"[0.1163067000452429, 0.14985840022563934, 0.1831334000453353, 0.23321840004064143]","[0.13285120017826557, 0.16607140004634857, 0.21626260015182197, 0.3496980001218617]",216.4925738000311,216.69282680004835,0.0,216.69282680004835,0,0.0,0,1,1000,num_1,0.9312152997590601,,32,9,2026-03-12_15h55.39.401,2026A_exp2,2022.2.4,59.77036221758243,
1000,1,0.0,0.0,1,0,65,65,60,,,,,217.64371740003116,218.2778268000111,218.2778268000111,218.77881120005623,315,315,218.77881120005623,218.77881120005623,218.77881120005623,218.77881120005623,218.77881120005623,218.77881120005623,218.77881120005623,218.77881120005623,218.77881120005623,219.14537880010903,219.14537880010903,219.14537880010903,219.14537880010903,219.14537880010903,219.14537880010903,219.14537880010903,219.14537880010903,219.14537880010903,23,0,,,219.14537880010903,219.34743400011212,1000,219.34743400011212,1000,1000,1000,1000,1,num_2,0.6132113998755813,,32,9,2026-03-12_15h55.39.401,2026A_exp2,2022.2.4,59.77036221758243,
1000,1,0.0,6.1,1,0,66,66,62,,,,,219.97941330005415,220.63020130014047,220.63020130014047,221.1312814000994,45,45,221.1312814000994,221.1312814000994,221.1312814000994,221.1312814000994,221.1312814000994,221.1312814000994,221.1312814000994,221.1312814000994,221.1312814000994,221.4977142000571,221.4977142000571,221.4977142000571,221.4977142000571,221.4977142000571,221.4977142000571,221.4977142000571,221.4977142000571,221.4977142000571,23,0,,,221.4977142000571,221.6996013999451,1000,221.6996013999451,1000,1000,1000,1000,1,num_2,0.1413795999251306,,32,9,2026-03-12_15h55.39.401,2026A_exp2,2022.2.4,59.77036221758243,
1,0,4.9,3.7,0,0,67,67,63,,,,,221.86463810014538,222.5152765000239,222.5152765000239,223.01647999999113,45,315,223.01647999999113,223.01647999999113,223.01647999999113,223.01647999999113,223.01647999999113,223.01647999999113,223.01647999999113,223.01647999999113,223.01647999999113,223.3828970999457,223.3828970999457,223.3828970999457,223.3828970999457,223.3828970999457,223.3828970999457,223.3828970999457,223.3828970999457,223.3828970999457,15,3,"[0.08341100020334125, 0.11698859999887645, 0.16673830011859536]","[0.10009270021691918, 0.15025080018676817, 0.2497274000197649]",223.3828970999457,223.583159300033,4.9,223.583159300033,1,4.9,1,1,1000,num_4,0.7611286998726428,,32,9,2026-03-12_15h55.39.401,2026A_exp2,2022.2.4,59.77036221758243,
1000,1,0.0,0.0,1,0,68,68,56,,,,,224.36767629999667,225.00091699999757,225.00091699999757,225.50237399991602,45,315,225.50237399991602,225.50237399991602,225.50237399991602,225.50237399991602,225.50237399991602,225.50237399991602,225.50237399991602,225.50237399991602,225.50237399991602,225.86870889994316,225.86870889994316,225.86870889994316,225.86870889994316,225.86870889994316,225.86870889994316,225.86870889994316,225.86870889994316,225.86870889994316,22,1,[0.050261400174349546],[0.0669295999687165],225.86870889994316,226.07071730005555,1000,226.07071730005555,1000,1000,1000,1000,0,num_3,0.7378466997761279,,32,9,2026-03-12_15h55.39.401,2026A_exp2,2022.2.4,59.77036221758243,
1000,1,3.7,0.0,0,0,69,69,32,,,,,226.83638989995234,227.48699220013805,227.48699220013805,227.9880506999325,315,315,227.9880506999325,227.9880506999325,227.9880506999325,227.9880506999325,227.9880506999325,227.9880506999325,227.9880506999325,227.9880506999325,227.9880506999325,228.35461840010248,228.35461840010248,228.35461840010248,228.35461840010248,228.35461840010248,228.35461840010248,228.35461840010248,228.35461840010248,228.35461840010248,23,0,,,228.35461840010248,228.5550262001343,1000,228.5550262001343,1000,1000,1000,1000,0,num_3,0.43798189982771873,,32,9,2026-03-12_15h55.39.401,2026A_exp2,2022.2.4,59.77036221758243,
1,0,0.0,0.0,0,0,70,70,51,,,,,229.0216355000157,229.67253240011632,229.67253240011632,230.17371460003778,45,315,230.17371460003778,230.17371460003778,230.17371460003778,230.17371460003778,230.17371460003778,230.17371460003778,230.17371460003778,230.17371460003778,230.17371460003778,230.53967540012673,230.53967540012673,230.53967540012673,230.53967540012673,230.53967540012673,230.53967540012673,230.53967540012673,230.53967540012673,230.53967540012673,0,1,[0.0012148998212069273],[0.36714799981564283],230.53967540012673,230.74036390008405,0.0,230.74036390008405,1,0.0,0,0,1000,num_4,0.6679324000142515,,32,9,2026-03-12_15h55.39.401,2026A_exp2,2022.2.4,59.77036221758243,
1,0,3.7,0.0,1,0,71,71,11,,,,,231.42420329991728,232.07494740001857,232.07494740001857,232.57606919994578,45,315,232.57606919994578,232.57606919994578,232.57606919994578,232.57606919994578,232.57606919994578,232.57606919994578,232.57606919994578,232.57606919994578,232.57606919994578,232.92579949996434,232.92579949996434,232.92579949996434,232.92579949996434,232.92579949996434,232.92579949996434,232.92579949996434,232.92579949996434,232.92579949996434,22,0,,,232.92579949996434,233.125837800093,0.0,233.125837800093,0,0.0,0,1,1000,num_1,0.7232354998122901,,32,9,2026-03-12_15h55.39.401,2026A_exp2,2022.2.4,59.77036221758243,
1,0,6.1,4.9,0,0,72,72,81,,,,,233.87659780005924,234.5273720000405,234.5273720000405,235.01183670014143,315,45,235.01183670014143,235.01183670014143,235.01183670014143,235.01183670014143,235.01183670014143,235.01183670014143,235.01183670014143,235.01183670014143,235.01183670014143,235.37822429998778,235.37822429998778,235.37822429998778,235.37822429998778,235.37822429998778,235.37822429998778,235.37822429998778,235.37822429998778,235.37822429998778,22,1,[0.03364880010485649],[0.05045740003697574],235.37822429998778,235.57842359994538,6.1,235.57842359994538,1,6.1,1,1,1000,num_4,0.36581750004552305,,32,9,2026-03-12_15h55.39.401,2026A_exp2,2022.2.4,59.77036221758243,
1000,1,0.0,6.1,1,0,73,73,19,,,,,235.9620715000201,236.61283070011996,236.61283070011996,237.09708310011774,315,45,237.09708310011774,237.09708310011774,237.09708310011774,237.09708310011774,237.09708310011774,237.09708310011774,237.09708310011774,237.09708310011774,237.09708310011774,237.46372150001116,237.46372150001116,237.46372150001116,237.46372150001116,237.46372150001116,237.46372150001116,237.46372150001116,237.46372150001116,237.46372150001116,23,0,,,237.46372150001116,237.66588290012442,1000,237.66588290012442,1000,1000,1000,1000,1,num_2,0.4789485998917371,,32,9,2026-03-12_15h55.39.401,2026A_exp2,2022.2.4,59.77036221758243,
1000,1,6.1,0.0,0,0,74,74,59,,,,,238.16421939991415,238.8148992001079,238.8148992001079,239.32079940009862,45,45,239.32079940009862,239.32079940009862,239.32079940009862,239.32079940009862,239.32079940009862,239.32079940009862,239.32079940009862,239.32079940009862,239.32079940009862,239.66597800003365,239.66597800003365,239.66597800003365,239.66597800003365,239.66597800003365,239.66597800003365,239.66597800003365,239.66597800003365,239.66597800003365,22,0,,,239.66597800003365,239.87859310000204,1000,239.87859310000204,1000,1000,1000,1000,0,num_3,0.20938479993492365,,32,9,2026-03-12_15h55.39.401,2026A_exp2,2022.2.4,59.77036221758243,
1000,1,0.0,6.1,0,0,75,75,35,,,,,240.11612110002898,240.76700050011277,240.76700050011277,241.2681076999288,45,45,241.2681076999288,241.2681076999288,241.2681076999288,241.2681076999288,241.2681076999288,241.2681076999288,241.2681076999288,241.2681076999288,241.2681076999288,241.61791000002995,241.61791000002995,241.61791000002995,241.61791000002995,241.61791000002995,241.61791000002995,241.61791000002995,241.61791000002995,241.61791000002995,22,0,,,241.61791000002995,241.81784310005605,1000,241.83492729999125,1000,1000,1000,1000,1,num_2,0.8058195998892188,,32,9,2026-03-12_15h55.39.401,2026A_exp2,2022.2.4,59.77036221758243,
1,0,4.9,6.1,0,0,76,76,33,,,,,242.66870940010995,243.31962179997936,243.31962179997936,243.82059819996357,315,45,243.82059819996357,243.82059819996357,243.82059819996357,243.82059819996357,243.82059819996357,243.82059819996357,243.82059819996357,243.82059819996357,243.82059819996357,244.18726220005192,244.18726220005192,244.18726220005192,244.18726220005192,244.18726220005192,244.18726220005192,244.18726220005192,244.18726220005192,244.18726220005192,23,0,,,244.18726220005192,244.3874160000123,4.9,244.3874160000123,0,4.9,1,0,1000,num_1,1.5413971000816673,,32,9,2026-03-12_15h55.39.401,2026A_exp2,2022.2.4,59.77036221758243,
0,0,0.0,3.7,0,0,77,77,47,,,,,245.9553992000874,246.60619219997898,246.60619219997898,247.09063909994438,45,315,247.09063909994438,247.09063909994438,247.09063909994438,247.09063909994438,247.09063909994438,247.09063909994438,247.09063909994438,247.09063909994438,247.09063909994438,247.45701269991696,247.45701269991696,247.45701269991696,247.45701269991696,247.45701269991696,247.45701269991696,247.45701269991696,247.45701269991696,247.45701269991696,23,0,,,247.45701269991696,247.6571861000266,3.7,247.6571861000266,1,3.7,1,1,1000,num_4,1.0316295998636633,,32,9,2026-03-12_15h55.39.401,2026A_exp2,2022.2.4,59.77036221758243,
1,0,4.9,4.9,0,0,78,78,84,,,,,248.70808320003562,249.3524337001145,249.3524337001145,249.8453901000321,315,45,249.8453901000321,249.8453901000321,249.8453901000321,249.8453901000321,249.8453901000321,249.8453901000321,249.8453901000321,249.8453901000321,249.8453901000321,250.2097277001012,250.2097277001012,250.2097277001012,250.2097277001012,250.2097277001012,250.2097277001012,250.2097277001012,250.2097277001012,250.2097277001012,13,7,"[0.002123800106346607, 0.09957600012421608, 0.18284180015325546, 0.21596619999036193, 0.2661811001598835, 0.3164462000131607, 0.34970930009149015]","[0.032404799945652485, 0.13248850009404123, 0.1995312999933958, 0.23293810011819005, 0.28276220010593534, 0.33293909998610616, 0.3664508000947535]",250.2097277001012,250.4098630999215,4.9,250.4098630999215,1,4.9,1,1,1000,num_4,0.5112878000363708,,32,9,2026-03-12_15h55.39.401,2026A_exp2,2022.2.4,59.77036221758243,
1,0,3.7,0.0,1,0,79,79,28,,,,,250.9436673000455,251.59445869992487,251.59445869992487,252.078962800093,45,315,252.078962800093,252.078962800093,252.078962800093,252.078962800093,252.078962800093,252.078962800093,252.078962800093,252.078962800093,252.078962800093,252.4453106999863,252.4453106999863,252.4453106999863,252.4453106999863,252.4453106999863,252.4453106999863,252.4453106999863,252.4453106999863,252.4453106999863,22,1,[0.0012915998231619596],[0.017369800014421344],252.4453106999863,252.64550120010972,0.0,252.64550120010972,0,0.0,0,1,1000,num_1,1.0431977999396622,,32,9,2026-03-12_15h55.39.401,2026A_exp2,2022.2.4,59.77036221758243,
1,0,6.1,3.7,0,0,80,80,31,,,,,253.71319680009037,254.36376500013284,254.36376500013284,254.84839610010386,45,315,254.84839610010386,254.84839610010386,254.84839610010386,254.84839610010386,254.84839610010386,254.84839610010386,254.84839610010386,254.84839610010386,254.84839610010386,255.21473759994842,255.21473759994842,255.21473759994842,255.21473759994842,255.21473759994842,255.21473759994842,255.21473759994842,255.21473759994842,255.21473759994842,16,4,"[0.017402100143954158, 0.11685009999200702, 0.20035549998283386, 0.33392880018800497]","[0.05008880002424121, 0.13363780011422932, 0.23363160016015172, 0.36694360012188554]",255.21473759994842,255.41467930004,6.1,255.41467930004,1,6.1,1,1,1000,num_4,0.4425597998779267,,32,9,2026-03-12_15h55.39.401,2026A_exp2,2022.2.4,59.77036221758243,
1000,1,0.0,0.0,0,0,81,81,6,,,,,255.88193839997984,256.5327300999779,256.5327300999779,257.01720240013674,315,315,257.01720240013674,257.01720240013674,257.01720240013674,257.01720240013674,257.01720240013674,257.01720240013674,257.01720240013674,257.01720240013674,257.01720240013674,257.38353079999797,257.38353079999797,257.38353079999797,257.38353079999797,257.38353079999797,257.38353079999797,257.38353079999797,257.38353079999797,257.38353079999797,20,3,"[0.050158599857240915, 0.19993970007635653, 0.2837602000217885]","[0.06684560002759099, 0.21686389995738864, 0.300135999917984]",257.38353079999797,257.58579379995354,1000,257.58579379995354,1000,1000,1000,1000,1,num_2,1.0072453999891877,,32,9,2026-03-12_15h55.39.401,2026A_exp2,2022.2.4,59.77036221758243,
1,0,0.0,0.0,1,0,82,82,21,,,,,258.61804950004444,259.26886010007,259.26886010007,259.7699879000429,45,315,259.7699879000429,259.7699879000429,259.7699879000429,259.7699879000429,259.7699879000429,259.7699879000429,259.7699879000429,259.7699879000429,259.7699879000429,260.13638380006887,260.13638380006887,260.13638380006887,260.13638380006887,260.13638380006887,260.13638380006887,260.13638380006887,260.13638380006887,260.13638380006887,23,0,,,260.13638380006887,260.33644139999524,0.0,260.33644139999524,0,0.0,0,1,1000,num_1,0.6719395997934043,,32,9,2026-03-12_15h55.39.401,2026A_exp2,2022.2.4,59.77036221758243,
1000,1,0.0,6.1,0,0,83,83,2,,,,,261.0371121999342,261.6879426999949,261.6879426999949,262.17221540003084,315,315,262.17221540003084,262.17221540003084,262.17221540003084,262.17221540003084,262.17221540003084,262.17221540003084,262.17221540003084,262.17221540003084,262.17221540003084,262.53874960006215,262.53874960006215,262.53874960006215,262.53874960006215,262.53874960006215,262.53874960006215,262.53874960006215,262.53874960006215,262.53874960006215,23,0,,,262.53874960006215,262.74061720003374,1000,262.74061720003374,1000,1000,1000,1000,1,num_2,0.604092399822548,,32,9,2026-03-12_15h55.39.401,2026A_exp2,2022.2.4,59.77036221758243,
1000,1,6.1,4.9,0,0,84,84,49,,,,,263.3728799999226,264.0236049001105,264.0236049001105,264.5247255000286,315,315,264.5247255000286,264.5247255000286,264.5247255000286,264.5247255000286,264.5247255000286,264.5247255000286,264.5247255000286,264.5247255000286,264.5247255000286,264.8911011000164,264.8911011000164,264.8911011000164,264.8911011000164,264.8911011000164,264.8911011000164,264.8911011000164,264.8911011000164,264.8911011000164,23,0,,,264.8911011000164,265.0930522000417,1000,265.0930522000417,1000,1000,1000,1000,0,num_3,0.395148100098595,,32,9,2026-03-12_15h55.39.401,2026A_exp2,2022.2.4,59.77036221758243,
1000,1,3.7,4.9,0,0,85,85,64,,,,,265.5083328001201,266.15903350012377,266.15903350012377,266.6601907000877,45,45,266.6601907000877,266.6601907000877,266.6601907000877,266.6601907000877,266.6601907000877,266.6601907000877,266.6601907000877,266.6601907000877,266.6601907000877,267.0266148999799,267.0266148999799,267.0266148999799,267.0266148999799,267.0266148999799,267.0266148999799,267.0266148999799,267.0266148999799,267.0266148999799,22,1,[0.23429700010456145],[0.25063530006445944],267.0266148999799,267.24281139997765,1000,267.24281139997765,1000,1000,1000,1000,0,num_3,0.3422931998502463,,32,9,2026-03-12_15h55.39.401,2026A_exp2,2022.2.4,59.77036221758243,
1,0,0.0,0.0,0,0,86,86,17,,,,,267.6105629999656,268.261186900083,268.261186900083,268.7621333999559,45,315,268.7621333999559,268.7621333999559,268.7621333999559,268.7621333999559,268.7621333999559,268.7621333999559,268.7621333999559,268.7621333999559,268.7621333999559,269.11197900003754,269.11197900003754,269.11197900003754,269.11197900003754,269.11197900003754,269.11197900003754,269.11197900003754,269.11197900003754,269.11197900003754,3,1,[0.05023659998551011],[0.350705899996683],269.11197900003754,269.31214049994014,0.0,269.3289089000318,0,0.0,0,1,1000,num_1,0.7756992999929935,,32,9,2026-03-12_15h55.39.401,2026A_exp2,2022.2.4,59.77036221758243,
1,0,0.0,3.7,1,0,87,87,0,,,,,270.1315611000173,270.78204079996794,270.78204079996794,271.2868447001092,315,45,271.2868447001092,271.2868447001092,271.2868447001092,271.2868447001092,271.2868447001092,271.2868447001092,271.2868447001092,271.2868447001092,271.2868447001092,271.6479376000352,271.6479376000352,271.6479376000352,271.6479376000352,271.6479376000352,271.6479376000352,271.6479376000352,271.6479376000352,271.6479376000352,23,0,,,271.6479376000352,271.847830099985,3.7,271.847830099985,1,3.7,1,1,1000,num_4,0.43998549971729517,,32,9,2026-03-12_15h55.39.401,2026A_exp2,2022.2.4,59.77036221758243,
1,0,0.0,0.0,1,0,88,88,24,,,,,272.3149973999243,272.9491852999199,272.9491852999199,273.4502095999196,315,45,273.4502095999196,273.4502095999196,273.4502095999196,273.4502095999196,273.4502095999196,273.4502095999196,273.4502095999196,273.4502095999196,273.4502095999196,273.8168114,273.8168114,273.8168114,273.8168114,273.8168114,273.8168114,273.8168114,273.8168114,273.8168114,23,0,,,273.8168114,274.01675530010834,0.0,274.01675530010834,0,0.0,0,1,1000,num_1,0.5757226999849081,,32,9,2026-03-12_15h55.39.401,2026A_exp2,2022.2.4,59.77036221758243,
1,0,3.7,4.9,0,0,89,89,76,,,,,274.6176207999233,275.26814720011316,275.26814720011316,275.76932800002396,315,45,275.76932800002396,275.76932800002396,275.76932800002396,275.76932800002396,275.76932800002396,275.76932800002396,275.76932800002396,275.76932800002396,275.76932800002396,276.13552000001073,276.13552000001073,276.13552000001073,276.13552000001073,276.13552000001073,276.13552000001073,276.13552000001073,276.13552000001073,276.13552000001073,12,2,"[0.10032690013758838, 0.18376930011436343]","[0.1502891001291573, 0.3171296000946313]",276.13552000001073,276.3357919000555,3.7,276.3357919000555,1,3.7,1,1,1000,num_4,0.7454101997427642,,32,9,2026-03-12_15h55.39.401,2026A_exp2,2022.2.4,59.77036221758243,
,,,,,,,,,,,,,,,,,,,,,,,,,,,,,,,,,,,,,,,,,,,,,,,,,,,,277.1118394001387,,,,,,,
