validity,detectorcomp,contrastCW,contrastCCW,precueCWorCCW,block_80trials.thisRepN,block_80trials.thisTrialN,block_80trials.thisN,block_80trials.thisIndex,etRecord.started,etRecord.stopped,text.started,text.stopped,text_4.started,text_4.stopped,text_6.started,text_6.stopped,oriCW,oriCCW,roi_2.started,grating_UR.started,grating_UL.started,grating_LR.started,grating_LL.started,noise_UR.started,noise_UL.started,noise_LR.started,noise_LL.started,roi_2.stopped,grating_UR.stopped,grating_UL.stopped,grating_LR.stopped,grating_LL.stopped,noise_UR.stopped,noise_UL.stopped,noise_LR.stopped,noise_LL.stopped,outframe,roi_2.numLooks,roi_2.timesOn,roi_2.timesOff,text_2.started,text_2.stopped,probedcontrast,key_resp.started,respdetect,relevantContrast,correctDetect,TorFdetect,respCWorCCW,key_resp.keys,key_resp.rt,feedback_display_.started,participantNo,blockNo,date,expName,psychopyVersion,frameRate,
1000,1,0.0,0.0,1,0,0,0,27,7.830001413822174e-05,7.830001413822174e-05,53.57440179999685,55.57703510002466,55.57703510002466,56.21116600005189,56.21116600005189,56.734470000024885,45,45,56.734470000024885,56.734470000024885,56.734470000024885,56.734470000024885,56.734470000024885,56.734470000024885,56.734470000024885,56.734470000024885,56.734470000024885,57.0788303000154,57.0788303000154,57.0788303000154,57.0788303000154,57.0788303000154,57.0788303000154,57.0788303000154,57.0788303000154,57.0788303000154,0,1,[0.0009590999688953161],[0.367979499977082],57.0788303000154,57.28615180001361,1000,57.28615180001361,1000,1000,1000,1000,0,num_3,1.141658800013829,,24,2,2026-03-04_15h17.53.310,2026A_exp2,2022.2.4,59.921395108300864,
1000,1,6.1,0.0,1,0,1,1,75,,,,,58.447073700022884,59.09758010000223,59.09758010000223,59.59865040000295,315,45,59.59865040000295,59.59865040000295,59.59865040000295,59.59865040000295,59.59865040000295,59.59865040000295,59.59865040000295,59.59865040000295,59.59865040000295,59.96495690004667,59.96495690004667,59.96495690004667,59.96495690004667,59.96495690004667,59.96495690004667,59.96495690004667,59.96495690004667,59.96495690004667,0,1,[0.0012208999833092093],[0.3671258999966085],59.96495690004667,60.16715720004868,1000,60.16715720004868,1000,1000,1000,1000,0,num_3,1.1260722000151873,,24,2,2026-03-04_15h17.53.310,2026A_exp2,2022.2.4,59.921395108300864,
1,0,0.0,6.1,0,0,2,2,34,,,,,61.316395800036844,61.96717050002189,61.96717050002189,62.46811770001659,315,315,62.46811770001659,62.46811770001659,62.46811770001659,62.46811770001659,62.46811770001659,62.46811770001659,62.46811770001659,62.46811770001659,62.46811770001659,62.8180008000345,62.8180008000345,62.8180008000345,62.8180008000345,62.8180008000345,62.8180008000345,62.8180008000345,62.8180008000345,62.8180008000345,0,1,[0.001204199972562492],[0.35023839998757467],62.8180008000345,63.017911900009494,0.0,63.03462270001182,0,0.0,0,1,1000,num_1,1.2417858999688178,,24,2,2026-03-04_15h17.53.310,2026A_exp2,2022.2.4,59.921395108300864,
1000,1,0.0,0.0,0,0,3,3,81,,,,,64.30275570001686,64.95366310002282,64.95366310002282,65.45458530000178,45,45,65.45458530000178,65.45458530000178,65.45458530000178,65.45458530000178,65.45458530000178,65.45458530000178,65.45458530000178,65.45458530000178,65.45458530000178,65.80417770001804,65.80417770001804,65.80417770001804,65.80417770001804,65.80417770001804,65.80417770001804,65.80417770001804,65.80417770001804,65.80417770001804,15,2,"[0.2167646000161767, 0.2835236999671906]","[0.2501977999927476, 0.3503132999758236]",65.80417770001804,66.0062603999977,1000,66.0062603999977,1000,1000,1000,1000,1,num_2,1.0534005000372417,,24,2,2026-03-04_15h17.53.310,2026A_exp2,2022.2.4,59.921395108300864,
1,0,3.7,6.1,0,0,4,4,55,,,,,67.08906090003438,67.72285070002545,67.72285070002545,68.22401629999513,45,45,68.22401629999513,68.22401629999513,68.22401629999513,68.22401629999513,68.22401629999513,68.22401629999513,68.22401629999513,68.22401629999513,68.22401629999513,68.59022130002268,68.59022130002268,68.59022130002268,68.59022130002268,68.59022130002268,68.59022130002268,68.59022130002268,68.59022130002268,68.59022130002268,0,1,[0.0012112000258639455],[0.36724140000296757],68.59022130002268,68.79063890001271,3.7,68.79063890001271,1,3.7,1,1,1000,num_4,1.2538819999899715,,24,2,2026-03-04_15h17.53.310,2026A_exp2,2022.2.4,59.921395108300864,
1,0,0.0,0.0,0,0,5,5,1,,,,,70.07510410004761,70.72589660005178,70.72589660005178,71.21027730003698,45,45,71.21027730003698,71.21027730003698,71.21027730003698,71.21027730003698,71.21027730003698,71.21027730003698,71.21027730003698,71.21027730003698,71.21027730003698,71.57676369999535,71.57676369999535,71.57676369999535,71.57676369999535,71.57676369999535,71.57676369999535,71.57676369999535,71.57676369999535,71.57676369999535,23,0,,,71.57676369999535,71.77691499999491,0.0,71.77691499999491,0,0.0,0,1,1000,num_1,0.9955073000164703,,24,2,2026-03-04_15h17.53.310,2026A_exp2,2022.2.4,59.921395108300864,
1000,1,0.0,0.0,0,0,6,6,15,,,,,72.79449130001012,73.4472571000224,73.4472571000224,73.93636890000198,45,45,73.93636890000198,73.93636890000198,73.93636890000198,73.93636890000198,73.93636890000198,73.93636890000198,73.93636890000198,73.93636890000198,73.93636890000198,74.29597590002231,74.29597590002231,74.29597590002231,74.29597590002231,74.29597590002231,74.29597590002231,74.29597590002231,74.29597590002231,74.29597590002231,23,0,,,74.29597590002231,74.50287369999569,1000,74.50287369999569,1000,1000,1000,1000,1,num_2,1.2289930999977514,,24,2,2026-03-04_15h17.53.310,2026A_exp2,2022.2.4,59.921395108300864,
1000,1,4.9,6.1,1,0,7,7,28,,,,,75.74748800002271,76.40888180001639,76.40888180001639,76.89934510004241,315,315,76.89934510004241,76.89934510004241,76.89934510004241,76.89934510004241,76.89934510004241,76.89934510004241,76.89934510004241,76.89934510004241,76.89934510004241,77.26550270000007,77.26550270000007,77.26550270000007,77.26550270000007,77.26550270000007,77.26550270000007,77.26550270000007,77.26550270000007,77.26550270000007,10,6,"[0.0012349000317044556, 0.050283400050830096, 0.08340709999902174, 0.2001787000335753, 0.3169808000093326, 0.3502396999974735]","[0.033544500009156764, 0.06690259999595582, 0.15041180001571774, 0.25044170004548505, 0.333604900049977, 0.3667262000381015]",77.26550270000007,77.46757400000934,1000,77.46757400000934,1000,1000,1000,1000,1,num_2,1.216228500008583,,24,2,2026-03-04_15h17.53.310,2026A_exp2,2022.2.4,59.921395108300864,
1000,1,6.1,6.1,1,0,8,8,77,,,,,78.70043550000992,79.35107180004707,79.35107180004707,79.85245240002405,45,315,79.85245240002405,79.85245240002405,79.85245240002405,79.85245240002405,79.85245240002405,79.85245240002405,79.85245240002405,79.85245240002405,79.85245240002405,80.2187032000511,80.2187032000511,80.2187032000511,80.2187032000511,80.2187032000511,80.2187032000511,80.2187032000511,80.2187032000511,80.2187032000511,5,3,"[0.0007191000040620565, 0.217671699996572, 0.3510245999787003]","[0.2007599999778904, 0.26755689998390153, 0.3676624000072479]",80.2187032000511,80.41901020001387,1000,80.41901020001387,1000,1000,1000,1000,0,num_3,0.9850090999971144,,24,2,2026-03-04_15h17.53.310,2026A_exp2,2022.2.4,59.921395108300864,
1000,1,0.0,0.0,0,0,9,9,17,,,,,81.42016730003525,82.07055240002228,82.07055240002228,82.55491800000891,315,45,82.55491800000891,82.55491800000891,82.55491800000891,82.55491800000891,82.55491800000891,82.55491800000891,82.55491800000891,82.55491800000891,82.55491800000891,82.92130850005196,82.92130850005196,82.92130850005196,82.92130850005196,82.92130850005196,82.92130850005196,82.92130850005196,82.92130850005196,82.92130850005196,23,0,,,82.92130850005196,83.1235708000022,1000,83.1235708000022,1000,1000,1000,1000,1,num_2,0.9362237000023015,,24,2,2026-03-04_15h17.53.310,2026A_exp2,2022.2.4,59.921395108300864,
1000,1,0.0,6.1,0,0,10,10,9,,,,,84.08915150002576,84.73980250000022,84.73980250000022,85.24098800000502,45,45,85.24098800000502,85.24098800000502,85.24098800000502,85.24098800000502,85.24098800000502,85.24098800000502,85.24098800000502,85.24098800000502,85.24098800000502,85.60742630000459,85.60742630000459,85.60742630000459,85.60742630000459,85.60742630000459,85.60742630000459,85.60742630000459,85.60742630000459,85.60742630000459,23,0,,,85.60742630000459,85.80936050001765,1000,85.80936050001765,1000,1000,1000,1000,1,num_2,0.7385837999754585,,24,2,2026-03-04_15h17.53.310,2026A_exp2,2022.2.4,59.921395108300864,
1,0,0.0,3.7,0,0,11,11,61,,,,,86.57496719999472,87.2343380000093,87.2343380000093,87.72686590004014,315,315,87.72686590004014,87.72686590004014,87.72686590004014,87.72686590004014,87.72686590004014,87.72686590004014,87.72686590004014,87.72686590004014,87.72686590004014,88.07640170003287,88.07640170003287,88.07640170003287,88.07640170003287,88.07640170003287,88.07640170003287,88.07640170003287,88.07640170003287,88.07640170003287,22,0,,,88.07640170003287,88.27675680001266,0.0,88.27675680001266,0,0.0,0,1,1000,num_1,1.3512030999991111,,24,2,2026-03-04_15h17.53.310,2026A_exp2,2022.2.4,59.921395108300864,
1,0,0.0,6.1,0,0,12,12,11,,,,,89.64466230000835,90.29529430001276,90.29529430001276,90.77993390004849,45,45,90.77993390004849,90.77993390004849,90.77993390004849,90.77993390004849,90.77993390004849,90.77993390004849,90.77993390004849,90.77993390004849,90.77993390004849,91.14627290004864,91.14627290004864,91.14627290004864,91.14627290004864,91.14627290004864,91.14627290004864,91.14627290004864,91.14627290004864,91.14627290004864,2,1,[0.0012443999876268208],[0.3505379999987781],91.14627290004864,91.34649580001133,0.0,91.34649580001133,0,0.0,0,1,1000,num_1,0.753701799956616,,24,2,2026-03-04_15h17.53.310,2026A_exp2,2022.2.4,59.921395108300864,
1000,1,0.0,3.7,0,0,13,13,51,,,,,92.13050550001208,92.78128330002073,92.78128330002073,93.26553269999567,315,315,93.26553269999567,93.26553269999567,93.26553269999567,93.26553269999567,93.26553269999567,93.26553269999567,93.26553269999567,93.26553269999567,93.26553269999567,93.63215240003774,93.63215240003774,93.63215240003774,93.63215240003774,93.63215240003774,93.63215240003774,93.63215240003774,93.63215240003774,93.63215240003774,23,0,,,93.63215240003774,93.832669800031,1000,93.832669800031,1000,1000,1000,1000,1,num_2,0.7312137000262737,,24,2,2026-03-04_15h17.53.310,2026A_exp2,2022.2.4,59.921395108300864,
0,0,0.0,0.0,1,0,14,14,89,,,,,94.58295920002274,95.23366720002377,95.23366720002377,95.73485430004075,45,315,95.73485430004075,95.73485430004075,95.73485430004075,95.73485430004075,95.73485430004075,95.73485430004075,95.73485430004075,95.73485430004075,95.73485430004075,96.10130850004498,96.10130850004498,96.10130850004498,96.10130850004498,96.10130850004498,96.10130850004498,96.10130850004498,96.10130850004498,96.10130850004498,9,4,"[0.033570800034794956, 0.11711170000489801, 0.20026840001810342, 0.3674363000318408]","[0.06711240002186969, 0.18337600002996624, 0.31737390003399923, 0.36744080000789836]",96.10130850004498,96.30137749999994,0.0,96.30137749999994,0,0.0,0,1,1000,num_1,1.8550452999770641,,24,2,2026-03-04_15h17.53.310,2026A_exp2,2022.2.4,59.921395108300864,
1,0,0.0,3.7,1,0,15,15,41,,,,,98.18654750002315,98.83758270001272,98.83758270001272,99.32176380004967,45,315,99.32176380004967,99.32176380004967,99.32176380004967,99.32176380004967,99.32176380004967,99.32176380004967,99.32176380004967,99.32176380004967,99.32176380004967,99.68817610002588,99.68817610002588,99.68817610002588,99.68817610002588,99.68817610002588,99.68817610002588,99.68817610002588,99.68817610002588,99.68817610002588,23,0,,,99.68817610002588,99.88840759999584,3.7,99.88840759999584,1,3.7,1,1,1000,num_4,0.9879330000258051,,24,2,2026-03-04_15h17.53.310,2026A_exp2,2022.2.4,59.921395108300864,
1000,1,6.1,0.0,1,0,16,16,68,,,,,100.90598650003085,101.5566934000235,101.5566934000235,102.05780040001264,315,315,102.05780040001264,102.05780040001264,102.05780040001264,102.05780040001264,102.05780040001264,102.05780040001264,102.05780040001264,102.05780040001264,102.05780040001264,102.4074052000069,102.4074052000069,102.4074052000069,102.4074052000069,102.4074052000069,102.4074052000069,102.4074052000069,102.4074052000069,102.4074052000069,22,0,,,102.4074052000069,102.61001260002377,1000,102.61001260002377,1000,1000,1000,1000,0,num_3,1.1223390999948606,,24,2,2026-03-04_15h17.53.310,2026A_exp2,2022.2.4,59.921395108300864,
1000,1,0.0,6.1,1,0,17,17,88,,,,,103.75875380000798,104.4094776000129,104.4094776000129,104.9105715000187,45,45,104.9105715000187,104.9105715000187,104.9105715000187,104.9105715000187,104.9105715000187,104.9105715000187,104.9105715000187,104.9105715000187,104.9105715000187,105.27708910004003,105.27708910004003,105.27708910004003,105.27708910004003,105.27708910004003,105.27708910004003,105.27708910004003,105.27708910004003,105.27708910004003,23,0,,,105.27708910004003,105.47918010002468,1000,105.47918010002468,1000,1000,1000,1000,1,num_2,0.8131502000032924,,24,2,2026-03-04_15h17.53.310,2026A_exp2,2022.2.4,59.921395108300864,
1000,1,0.0,3.7,1,0,18,18,47,,,,,106.3113704000134,106.96193660004064,106.96193660004064,107.46310059999814,45,315,107.46310059999814,107.46310059999814,107.46310059999814,107.46310059999814,107.46310059999814,107.46310059999814,107.46310059999814,107.46310059999814,107.46310059999814,107.82964510004967,107.82964510004967,107.82964510004967,107.82964510004967,107.82964510004967,107.82964510004967,107.82964510004967,107.82964510004967,107.82964510004967,14,6,"[0.06695800001034513, 0.10033699998166412, 0.18375949998153374, 0.21699509996687993, 0.25048240000614896, 0.35052470001392066]","[0.08364849997451529, 0.11686850001569837, 0.20041150000179186, 0.23372869996819645, 0.30061279999790713, 0.3673166999942623]",107.82964510004967,108.03023100004066,1000,108.03023100004066,1000,1000,1000,1000,1,num_2,0.7986727000097744,,24,2,2026-03-04_15h17.53.310,2026A_exp2,2022.2.4,59.921395108300864,
0,0,6.1,3.7,1,0,19,19,49,,,,,108.84767160000047,109.49800020002294,109.49800020002294,109.99915859999601,45,45,109.99915859999601,109.99915859999601,109.99915859999601,109.99915859999601,109.99915859999601,109.99915859999601,109.99915859999601,109.99915859999601,109.99915859999601,110.36605700000655,110.36605700000655,110.36605700000655,110.36605700000655,110.36605700000655,110.36605700000655,110.36605700000655,110.36605700000655,110.36605700000655,23,0,,,110.36605700000655,110.5655698000337,6.1,110.5655698000337,1,6.1,1,1,1000,num_4,1.1182790000457317,,24,2,2026-03-04_15h17.53.310,2026A_exp2,2022.2.4,59.921395108300864,
1,0,0.0,4.9,0,0,20,20,4,,,,,111.70000820001587,112.35057870001765,112.35057870001765,112.83536060003098,45,315,112.83536060003098,112.83536060003098,112.83536060003098,112.83536060003098,112.83536060003098,112.83536060003098,112.83536060003098,112.83536060003098,112.83536060003098,113.20159650000278,113.20159650000278,113.20159650000278,113.20159650000278,113.20159650000278,113.20159650000278,113.20159650000278,113.20159650000278,113.20159650000278,23,0,,,113.20159650000278,113.40182960004313,0.0,113.40182960004313,0,0.0,0,1,1000,num_1,1.0262593000079505,,24,2,2026-03-04_15h17.53.310,2026A_exp2,2022.2.4,59.921395108300864,
1,0,4.9,0.0,1,0,21,21,38,,,,,114.4531474999967,115.10353880003095,115.10353880003095,115.58795260003535,45,315,115.58795260003535,115.58795260003535,115.58795260003535,115.58795260003535,115.58795260003535,115.58795260003535,115.58795260003535,115.58795260003535,115.58795260003535,115.95446580002317,115.95446580002317,115.95446580002317,115.95446580002317,115.95446580002317,115.95446580002317,115.95446580002317,115.95446580002317,115.95446580002317,0,1,[0.0012824000441469252],[0.36725220002699643],115.95446580002317,116.15445580001688,0.0,116.15445580001688,0,0.0,0,1,1000,num_1,1.7294604000053369,,24,2,2026-03-04_15h17.53.310,2026A_exp2,2022.2.4,59.921395108300864,
1000,1,4.9,0.0,1,0,22,22,72,,,,,117.9061618000269,118.55692070000805,118.55692070000805,119.04149890004192,315,45,119.04149890004192,119.04149890004192,119.04149890004192,119.04149890004192,119.04149890004192,119.04149890004192,119.04149890004192,119.04149890004192,119.04149890004192,119.40794400003506,119.40794400003506,119.40794400003506,119.40794400003506,119.40794400003506,119.40794400003506,119.40794400003506,119.40794400003506,119.40794400003506,2,3,"[0.0012607999960891902, 0.16687740001361817, 0.3171273000189103]","[0.15032810001866892, 0.30044010002166033, 0.36715569999068975]",119.40794400003506,119.61012430000119,1000,119.61012430000119,1000,1000,1000,1000,0,num_3,0.9935966999619268,,24,2,2026-03-04_15h17.53.310,2026A_exp2,2022.2.4,59.921395108300864,
1000,1,4.9,3.7,0,0,23,23,32,,,,,120.62561970000388,121.2763143000193,121.2763143000193,121.77754949999508,45,315,121.77754949999508,121.77754949999508,121.77754949999508,121.77754949999508,121.77754949999508,121.77754949999508,121.77754949999508,121.77754949999508,121.77754949999508,122.14397240005201,122.14397240005201,122.14397240005201,122.14397240005201,122.14397240005201,122.14397240005201,122.14397240005201,122.14397240005201,122.14397240005201,23,0,,,122.14397240005201,122.34645070001716,1000,122.34645070001716,1000,1000,1000,1000,0,num_3,1.0819674000376835,,24,2,2026-03-04_15h17.53.310,2026A_exp2,2022.2.4,59.921395108300864,
1,0,0.0,6.1,0,0,24,24,60,,,,,123.44527409999864,124.09591770003317,124.09591770003317,124.59704860002967,45,45,124.59704860002967,124.59704860002967,124.59704860002967,124.59704860002967,124.59704860002967,124.59704860002967,124.59704860002967,124.59704860002967,124.59704860002967,124.96349130000453,124.96349130000453,124.96349130000453,124.96349130000453,124.96349130000453,124.96349130000453,124.96349130000453,124.96349130000453,124.96349130000453,23,0,,,124.96349130000453,125.16358819999732,0.0,125.16358819999732,0,0.0,0,1,1000,num_1,1.136237800004892,,24,2,2026-03-04_15h17.53.310,2026A_exp2,2022.2.4,59.921395108300864,
1,0,6.1,4.9,0,0,25,25,24,,,,,126.33147650002502,126.98181480000494,126.98181480000494,127.48306779999984,45,315,127.48306779999984,127.48306779999984,127.48306779999984,127.48306779999984,127.48306779999984,127.48306779999984,127.48306779999984,127.48306779999984,127.48306779999984,127.83318910002708,127.83318910002708,127.83318910002708,127.83318910002708,127.83318910002708,127.83318910002708,127.83318910002708,127.83318910002708,127.83318910002708,22,0,,,127.83318910002708,128.03314430004684,6.1,128.03314430004684,1,6.1,1,1,1000,num_4,1.3067536000162363,,24,2,2026-03-04_15h17.53.310,2026A_exp2,2022.2.4,59.921395108300864,
1000,1,0.0,4.9,1,0,26,26,59,,,,,129.36775299999863,130.0182133000344,130.0182133000344,130.51930600003107,315,45,130.51930600003107,130.51930600003107,130.51930600003107,130.51930600003107,130.51930600003107,130.51930600003107,130.51930600003107,130.51930600003107,130.51930600003107,130.88560580002377,130.88560580002377,130.88560580002377,130.88560580002377,130.88560580002377,130.88560580002377,130.88560580002377,130.88560580002377,130.88560580002377,0,1,[0.0013136000488884747],[0.3665883000358008],130.88560580002377,131.0859944000258,1000,131.0859944000258,1000,1000,1000,1000,1,num_2,0.9587475000298582,,24,2,2026-03-04_15h17.53.310,2026A_exp2,2022.2.4,59.921395108300864,
1000,1,0.0,6.1,0,0,27,27,37,,,,,132.07035370002268,132.72100780002074,132.72100780002074,133.22205800004303,315,315,133.22205800004303,133.22205800004303,133.22205800004303,133.22205800004303,133.22205800004303,133.22205800004303,133.22205800004303,133.22205800004303,133.22205800004303,133.58874220005237,133.58874220005237,133.58874220005237,133.58874220005237,133.58874220005237,133.58874220005237,133.58874220005237,133.58874220005237,133.58874220005237,10,3,"[0.0007246999884955585, 0.12007920001633465, 0.18414309999207035]","[0.08385870000347495, 0.16851710004266351, 0.2674403000273742]",133.58874220005237,133.79077770002186,1000,133.79077770002186,1000,1000,1000,1000,1,num_2,0.7412802000180818,,24,2,2026-03-04_15h17.53.310,2026A_exp2,2022.2.4,59.921395108300864,
1,0,0.0,0.0,1,0,28,28,73,,,,,134.5562709000078,135.2071190000279,135.2071190000279,135.7081487000105,45,315,135.7081487000105,135.7081487000105,135.7081487000105,135.7081487000105,135.7081487000105,135.7081487000105,135.7081487000105,135.7081487000105,135.7081487000105,136.05777270003455,136.05777270003455,136.05777270003455,136.05777270003455,136.05777270003455,136.05777270003455,136.05777270003455,136.05777270003455,136.05777270003455,8,6,"[0.017562500026542693, 0.05040380003629252, 0.08368919999338686, 0.11710199998924509, 0.1504735000198707, 0.20063929999014363]","[0.033677700033877045, 0.06697490002261475, 0.10046260000672191, 0.13381500000832602, 0.16744829999515787, 0.35071520000929013]",136.05777270003455,136.25811410002643,0.0,136.25811410002643,1,0.0,0,0,1000,num_4,1.6907908999710344,,24,2,2026-03-04_15h17.53.310,2026A_exp2,2022.2.4,59.921395108300864,
1000,1,6.1,0.0,1,0,29,29,16,,,,,137.97634460002882,138.62706510000862,138.62706510000862,139.11156470002607,45,315,139.11156470002607,139.11156470002607,139.11156470002607,139.11156470002607,139.11156470002607,139.11156470002607,139.11156470002607,139.11156470002607,139.11156470002607,139.47752890002448,139.47752890002448,139.47752890002448,139.47752890002448,139.47752890002448,139.47752890002448,139.47752890002448,139.47752890002448,139.47752890002448,22,1,[0.26714170002378523],[0.2837725999997929],139.47752890002448,139.68021489999956,1000,139.68021489999956,1000,1000,1000,1000,0,num_3,0.8917140000266954,,24,2,2026-03-04_15h17.53.310,2026A_exp2,2022.2.4,59.921395108300864,
0,0,4.9,0.0,1,0,30,30,25,,,,,140.5956335000228,141.2462733000284,141.2462733000284,141.7474425000255,315,45,141.7474425000255,141.7474425000255,141.7474425000255,141.7474425000255,141.7474425000255,141.7474425000255,141.7474425000255,141.7474425000255,141.7474425000255,142.113948800019,142.113948800019,142.113948800019,142.113948800019,142.113948800019,142.113948800019,142.113948800019,142.113948800019,142.113948800019,10,6,"[0.0012635000166483223, 0.06683640001574531, 0.13365790003445, 0.20063450001180172, 0.3003881000331603, 0.3671541000367142]","[0.01732270000502467, 0.08363000000827014, 0.18370650004362687, 0.26706330000888556, 0.350363900011871, 0.36715930001810193]",142.113948800019,142.314139300026,4.9,142.314139300026,1,4.9,1,1,1000,num_4,0.9619624000042677,,24,2,2026-03-04_15h17.53.310,2026A_exp2,2022.2.4,59.921395108300864,
1000,1,3.7,4.9,1,0,31,31,46,,,,,143.2983963000006,143.94907920004334,143.94907920004334,144.43338170001516,315,45,144.43338170001516,144.43338170001516,144.43338170001516,144.43338170001516,144.43338170001516,144.43338170001516,144.43338170001516,144.43338170001516,144.43338170001516,144.7999471000512,144.7999471000512,144.7999471000512,144.7999471000512,144.7999471000512,144.7999471000512,144.7999471000512,144.7999471000512,144.7999471000512,23,0,,,144.7999471000512,145.00226890004706,1000,145.00226890004706,1000,1000,1000,1000,1,num_2,2.1538556999876164,,24,2,2026-03-04_15h17.53.310,2026A_exp2,2022.2.4,59.921395108300864,
1,0,0.0,6.1,1,0,32,32,40,,,,,147.18555600004038,147.83633160003228,147.83633160003228,148.3373390000197,315,45,148.3373390000197,148.3373390000197,148.3373390000197,148.3373390000197,148.3373390000197,148.3373390000197,148.3373390000197,148.3373390000197,148.3373390000197,148.70378880004864,148.70378880004864,148.70378880004864,148.70378880004864,148.70378880004864,148.70378880004864,148.70378880004864,148.70378880004864,148.70378880004864,11,4,"[0.0012360999826341867, 0.05001259996788576, 0.1671146000153385, 0.33392259996617213]","[0.03323489998001605, 0.0833009000052698, 0.2834817999973893, 0.3670369999599643]",148.70378880004864,148.90400470001623,6.1,148.90400470001623,1,6.1,1,1,1000,num_4,0.8278286999557167,,24,2,2026-03-04_15h17.53.310,2026A_exp2,2022.2.4,59.921395108300864,
1000,1,4.9,0.0,1,0,33,33,22,,,,,149.75479249999626,150.3890838000225,150.3890838000225,150.8899774000165,315,315,150.8899774000165,150.8899774000165,150.8899774000165,150.8899774000165,150.8899774000165,150.8899774000165,150.8899774000165,150.8899774000165,150.8899774000165,151.25636250001844,151.25636250001844,151.25636250001844,151.25636250001844,151.25636250001844,151.25636250001844,151.25636250001844,151.25636250001844,151.25636250001844,0,1,[0.00120009999955073],[0.3674223000416532],151.25636250001844,151.45862510002917,1000,151.45862510002917,1000,1000,1000,1000,0,num_3,0.6744635999784805,,24,2,2026-03-04_15h17.53.310,2026A_exp2,2022.2.4,59.921395108300864,
1000,1,6.1,0.0,0,0,34,34,14,,,,,152.15720430004876,152.80778840003768,152.80778840003768,153.30912660004105,45,315,153.30912660004105,153.30912660004105,153.30912660004105,153.30912660004105,153.30912660004105,153.30912660004105,153.30912660004105,153.30912660004105,153.30912660004105,153.67523910000455,153.67523910000455,153.67523910000455,153.67523910000455,153.67523910000455,153.67523910000455,153.67523910000455,153.67523910000455,153.67523910000455,20,2,"[0.10025190003216267, 0.16693330003181472]","[0.13357400003587827, 0.18360019999090582]",153.67523910000455,153.87738850002643,1000,153.87738850002643,1000,1000,1000,1000,0,num_3,0.8471729999873787,,24,2,2026-03-04_15h17.53.310,2026A_exp2,2022.2.4,59.921395108300864,
1000,1,3.7,6.1,0,0,35,35,84,,,,,154.74312759999884,155.3939002000261,155.3939002000261,155.89503590000095,315,45,155.89503590000095,155.89503590000095,155.89503590000095,155.89503590000095,155.89503590000095,155.89503590000095,155.89503590000095,155.89503590000095,155.89503590000095,156.26140010001836,156.26140010001836,156.26140010001836,156.26140010001836,156.26140010001836,156.26140010001836,156.26140010001836,156.26140010001836,156.26140010001836,21,2,"[0.23422220000065863, 0.3008677000179887]","[0.250896500016097, 0.31770489999325946]",156.26140010001836,156.46379730000626,1000,156.46379730000626,1000,1000,1000,1000,1,num_2,0.8768553999834694,,24,2,2026-03-04_15h17.53.310,2026A_exp2,2022.2.4,59.921395108300864,
1000,1,0.0,0.0,0,0,36,36,74,,,,,157.3623915000353,158.0130701000453,158.0130701000453,158.51431160001084,45,315,158.51431160001084,158.51431160001084,158.51431160001084,158.51431160001084,158.51431160001084,158.51431160001084,158.51431160001084,158.51431160001084,158.51431160001084,158.8639780000085,158.8639780000085,158.8639780000085,158.8639780000085,158.8639780000085,158.8639780000085,158.8639780000085,158.8639780000085,158.8639780000085,0,1,[0.001196300028823316],[0.35047710000071675],158.8639780000085,159.06630619999487,1000,159.08116340002744,1000,1000,1000,1000,1,num_2,0.9960082999896258,,24,2,2026-03-04_15h17.53.310,2026A_exp2,2022.2.4,59.921395108300864,
1000,1,0.0,0.0,0,0,37,37,18,,,,,160.1015333000105,160.74918650003383,160.74918650003383,161.2503594000009,45,45,161.2503594000009,161.2503594000009,161.2503594000009,161.2503594000009,161.2503594000009,161.2503594000009,161.2503594000009,161.2503594000009,161.2503594000009,161.6165922000073,161.6165922000073,161.6165922000073,161.6165922000073,161.6165922000073,161.6165922000073,161.6165922000073,161.6165922000073,161.6165922000073,9,2,"[0.001262800011318177, 0.26692070002900437]","[0.20025940000778064, 0.28384740004548803]",161.6165922000073,161.81887730001472,1000,161.81887730001472,1000,1000,1000,1000,0,num_3,1.10638100001961,,24,2,2026-03-04_15h17.53.310,2026A_exp2,2022.2.4,59.921395108300864,
1000,1,3.7,0.0,0,0,38,38,45,,,,,162.9514086000272,163.60211950005032,163.60211950005032,164.10299730004044,315,315,164.10299730004044,164.10299730004044,164.10299730004044,164.10299730004044,164.10299730004044,164.10299730004044,164.10299730004044,164.10299730004044,164.10299730004044,164.45293930004118,164.45293930004118,164.45293930004118,164.45293930004118,164.45293930004118,164.45293930004118,164.45293930004118,164.45293930004118,164.45293930004118,21,1,[0.0834795999689959],[0.1004833999904804],164.45293930004118,164.65503880003234,1000,164.67003480001586,1000,1000,1000,1000,0,num_3,1.206539699982386,,24,2,2026-03-04_15h17.53.310,2026A_exp2,2022.2.4,59.921395108300864,
1,0,6.1,4.9,0,0,39,39,39,,,,,165.90455140004633,166.55501730000833,166.55501730000833,167.05604490003316,45,45,167.05604490003316,167.05604490003316,167.05604490003316,167.05604490003316,167.05604490003316,167.05604490003316,167.05604490003316,167.05604490003316,167.05604490003316,167.42217420000816,167.42217420000816,167.42217420000816,167.42217420000816,167.42217420000816,167.42217420000816,167.42217420000816,167.42217420000816,167.42217420000816,23,0,,,167.42217420000816,167.62270780000836,6.1,167.62270780000836,1,6.1,1,1,1000,num_4,0.9579891999601386,,24,2,2026-03-04_15h17.53.310,2026A_exp2,2022.2.4,59.921395108300864,
1000,1,4.9,0.0,1,0,40,40,5,,,,,168.6068920000107,169.25780910003232,169.25780910003232,169.75872169999639,315,45,169.75872169999639,169.75872169999639,169.75872169999639,169.75872169999639,169.75872169999639,169.75872169999639,169.75872169999639,169.75872169999639,169.75872169999639,170.10858370002825,170.10858370002825,170.10858370002825,170.10858370002825,170.10858370002825,170.10858370002825,170.10858370002825,170.10858370002825,170.10858370002825,22,0,,,170.10858370002825,170.31083420000505,1000,170.31083420000505,1000,1000,1000,1000,0,num_3,0.7743888000259176,,24,2,2026-03-04_15h17.53.310,2026A_exp2,2022.2.4,59.921395108300864,
1000,1,0.0,0.0,1,0,41,41,33,,,,,171.10953330004122,171.76025120000122,171.76025120000122,172.26137500000186,315,45,172.26137500000186,172.26137500000186,172.26137500000186,172.26137500000186,172.26137500000186,172.26137500000186,172.26137500000186,172.26137500000186,172.26137500000186,172.627784900018,172.627784900018,172.627784900018,172.627784900018,172.627784900018,172.627784900018,172.627784900018,172.627784900018,172.627784900018,0,1,[0.0012117999722249806],[0.36723169998731464],172.627784900018,172.82963789999485,1000,172.82963789999485,1000,1000,1000,1000,0,num_3,1.4147429999429733,,24,2,2026-03-04_15h17.53.310,2026A_exp2,2022.2.4,59.921395108300864,
1000,1,0.0,6.1,1,0,42,42,62,,,,,174.26259960001335,174.91341320000356,174.91341320000356,175.4144405000261,45,45,175.4144405000261,175.4144405000261,175.4144405000261,175.4144405000261,175.4144405000261,175.4144405000261,175.4144405000261,175.4144405000261,175.4144405000261,175.78093510004692,175.78093510004692,175.78093510004692,175.78093510004692,175.78093510004692,175.78093510004692,175.78093510004692,175.78093510004692,175.78093510004692,23,0,,,175.78093510004692,175.98329750000266,1000,175.98329750000266,1000,1000,1000,1000,1,num_2,0.7097527999430895,,24,2,2026-03-04_15h17.53.310,2026A_exp2,2022.2.4,59.921395108300864,
1,0,6.1,0.0,0,0,43,43,70,,,,,176.71504020004068,177.36587120004697,177.36587120004697,177.86697339999955,315,315,177.86697339999955,177.86697339999955,177.86697339999955,177.86697339999955,177.86697339999955,177.86697339999955,177.86697339999955,177.86697339999955,177.86697339999955,178.21653200004948,178.21653200004948,178.21653200004948,178.21653200004948,178.21653200004948,178.21653200004948,178.21653200004948,178.21653200004948,178.21653200004948,0,1,[0.0012404000153765082],[0.3506215999950655],178.21653200004948,178.41684400005033,6.1,178.41684400005033,1,6.1,1,1,1000,num_4,0.9471743000322022,,24,2,2026-03-04_15h17.53.310,2026A_exp2,2022.2.4,59.921395108300864,
1000,1,6.1,0.0,1,0,44,44,69,,,,,179.38424800004577,180.0352295000339,180.0352295000339,180.51936010003556,45,315,180.51936010003556,180.51936010003556,180.51936010003556,180.51936010003556,180.51936010003556,180.51936010003556,180.51936010003556,180.51936010003556,180.51936010003556,180.88600850000512,180.88600850000512,180.88600850000512,180.88600850000512,180.88600850000512,180.88600850000512,180.88600850000512,180.88600850000512,180.88600850000512,18,2,"[0.0009163999930024147, 0.10096419998444617]","[0.03362529998412356, 0.15113069996004924]",180.88600850000512,181.0886689000181,1000,181.0886689000181,1000,1000,1000,1000,0,num_3,0.7723289999994449,,24,2,2026-03-04_15h17.53.310,2026A_exp2,2022.2.4,59.921395108300864,
1,0,0.0,6.1,1,0,45,45,52,,,,,181.88683510001283,182.5376477999962,182.5376477999962,183.03866230003769,315,315,183.03866230003769,183.03866230003769,183.03866230003769,183.03866230003769,183.03866230003769,183.03866230003769,183.03866230003769,183.03866230003769,183.03866230003769,183.40506680001272,183.40506680001272,183.40506680001272,183.40506680001272,183.40506680001272,183.40506680001272,183.40506680001272,183.40506680001272,183.40506680001272,0,1,[0.0012590999831445515],[0.36702669999795035],183.40506680001272,183.6054742000415,6.1,183.6054742000415,1,6.1,1,1,1000,num_4,0.8784430000232533,,24,2,2026-03-04_15h17.53.310,2026A_exp2,2022.2.4,59.921395108300864,
1000,1,0.0,3.7,0,0,46,46,78,,,,,184.50619490002282,185.1682999000186,185.1682999000186,185.64588590001222,45,315,185.64588590001222,185.64588590001222,185.64588590001222,185.64588590001222,185.64588590001222,185.64588590001222,185.64588590001222,185.64588590001222,185.64588590001222,186.007764900045,186.007764900045,186.007764900045,186.007764900045,186.007764900045,186.007764900045,186.007764900045,186.007764900045,186.007764900045,0,1,[0.002467299986165017],[0.36725439998554066],186.007764900045,186.22435730003053,1000,186.22435730003053,1000,1000,1000,1000,1,num_2,0.7402220999938436,,24,2,2026-03-04_15h17.53.310,2026A_exp2,2022.2.4,59.921395108300864,
1000,1,0.0,0.0,1,0,47,47,12,,,,,186.99202200002037,187.62631300004432,187.62631300004432,188.12724200001685,315,315,188.12724200001685,188.12724200001685,188.12724200001685,188.12724200001685,188.12724200001685,188.12724200001685,188.12724200001685,188.12724200001685,188.12724200001685,188.49362490000203,188.49362490000203,188.49362490000203,188.49362490000203,188.49362490000203,188.49362490000203,188.49362490000203,188.49362490000203,188.49362490000203,0,1,[0.0012219000491313636],[0.3672138000256382],188.49362490000203,188.69553570001153,1000,188.69553570001153,1000,1000,1000,1000,0,num_3,1.4042285000323318,,24,2,2026-03-04_15h17.53.310,2026A_exp2,2022.2.4,59.921395108300864,
1000,1,6.1,0.0,1,0,48,48,30,,,,,190.12851730000693,190.77910899999551,190.77910899999551,191.28028740000445,315,45,191.28028740000445,191.28028740000445,191.28028740000445,191.28028740000445,191.28028740000445,191.28028740000445,191.28028740000445,191.28028740000445,191.28028740000445,191.6467524000327,191.6467524000327,191.6467524000327,191.6467524000327,191.6467524000327,191.6467524000327,191.6467524000327,191.6467524000327,191.6467524000327,0,1,[0.0012085999478586018],[0.3673334999475628],191.6467524000327,191.8493843000033,1000,191.8493843000033,1000,1000,1000,1000,0,num_3,1.1624639999936335,,24,2,2026-03-04_15h17.53.310,2026A_exp2,2022.2.4,59.921395108300864,
1,0,3.7,0.0,1,0,49,49,50,,,,,193.03130910004256,193.6820732000051,193.6820732000051,194.1832568999962,315,315,194.1832568999962,194.1832568999962,194.1832568999962,194.1832568999962,194.1832568999962,194.1832568999962,194.1832568999962,194.1832568999962,194.1832568999962,194.54970500001218,194.54970500001218,194.54970500001218,194.54970500001218,194.54970500001218,194.54970500001218,194.54970500001218,194.54970500001218,194.54970500001218,1,1,[0.001234699971973896],[0.35047429997939616],194.54970500001218,194.74994090001564,0.0,194.74994090001564,0,0.0,0,1,1000,num_1,2.022398000000976,,24,2,2026-03-04_15h17.53.310,2026A_exp2,2022.2.4,59.921395108300864,
1000,1,4.9,6.1,0,0,50,50,20,,,,,196.80221880000317,197.45269880001433,197.45269880001433,197.93702170002507,315,45,197.93702170002507,197.93702170002507,197.93702170002507,197.93702170002507,197.93702170002507,197.93702170002507,197.93702170002507,197.93702170002507,197.93702170002507,198.30340520001482,198.30340520001482,198.30340520001482,198.30340520001482,198.30340520001482,198.30340520001482,198.30340520001482,198.30340520001482,198.30340520001482,0,1,[0.0012530999956652522],[0.3668547000270337],198.30340520001482,198.50551520002773,1000,198.50551520002773,1000,1000,1000,1000,1,num_2,1.1302866999758407,,24,2,2026-03-04_15h17.53.310,2026A_exp2,2022.2.4,59.921395108300864,
1000,1,0.0,0.0,0,0,51,51,64,,,,,199.65499410004122,200.30545630003326,200.30545630003326,200.80657740001334,315,45,200.80657740001334,200.80657740001334,200.80657740001334,200.80657740001334,200.80657740001334,200.80657740001334,200.80657740001334,200.80657740001334,200.80657740001334,201.1729324000189,201.1729324000189,201.1729324000189,201.1729324000189,201.1729324000189,201.1729324000189,201.1729324000189,201.1729324000189,201.1729324000189,2,2,"[0.0012238000053912401, 0.05029629997443408]","[0.017410999978892505, 0.3672070999746211]",201.1729324000189,201.3749461999978,1000,201.3749461999978,1000,1000,1000,1000,0,num_3,1.1569971000426449,,24,2,2026-03-04_15h17.53.310,2026A_exp2,2022.2.4,59.921395108300864,
1000,1,0.0,0.0,1,0,52,52,23,,,,,202.55760900001042,203.2083399000112,203.2083399000112,203.70948950003367,45,315,203.70948950003367,203.70948950003367,203.70948950003367,203.70948950003367,203.70948950003367,203.70948950003367,203.70948950003367,203.70948950003367,203.70948950003367,204.0591619000188,204.0591619000188,204.0591619000188,204.0591619000188,204.0591619000188,204.0591619000188,204.0591619000188,204.0591619000188,204.0591619000188,18,1,[0.30050810001557693],[0.35058359999675304],204.0591619000188,204.26132839999627,1000,204.26132839999627,1000,1000,1000,1000,0,num_3,0.9594369000406004,,24,2,2026-03-04_15h17.53.310,2026A_exp2,2022.2.4,59.921395108300864,
1,0,3.7,0.0,0,0,53,53,65,,,,,205.24363110004924,205.89434430003166,205.89434430003166,206.39539600000717,315,45,206.39539600000717,206.39539600000717,206.39539600000717,206.39539600000717,206.39539600000717,206.39539600000717,206.39539600000717,206.39539600000717,206.39539600000717,206.74524580000434,206.74524580000434,206.74524580000434,206.74524580000434,206.74524580000434,206.74524580000434,206.74524580000434,206.74524580000434,206.74524580000434,0,1,[0.001218999968841672],[0.3505884999758564],206.74524580000434,206.9453006000258,3.7,206.96196250000503,1,3.7,1,1,1000,num_4,0.93883790000109,,24,2,2026-03-04_15h17.53.310,2026A_exp2,2022.2.4,59.921395108300864,
1,0,3.7,0.0,0,0,54,54,3,,,,,207.92967959999805,208.58030910004163,208.58030910004163,209.06476290000137,45,315,209.06476290000137,209.06476290000137,209.06476290000137,209.06476290000137,209.06476290000137,209.06476290000137,209.06476290000137,209.06476290000137,209.06476290000137,209.43112560000736,209.43112560000736,209.43112560000736,209.43112560000736,209.43112560000736,209.43112560000736,209.43112560000736,209.43112560000736,209.43112560000736,0,1,[0.001236199983395636],[0.36704069998813793],209.43112560000736,209.6314384000143,3.7,209.6314384000143,1,3.7,1,1,1000,num_4,0.8526523999753408,,24,2,2026-03-04_15h17.53.310,2026A_exp2,2022.2.4,59.921395108300864,
1000,1,0.0,0.0,0,0,55,55,83,,,,,210.51549810002325,211.16640430002008,211.16640430002008,211.65064770000754,315,45,211.65064770000754,211.65064770000754,211.65064770000754,211.65064770000754,211.65064770000754,211.65064770000754,211.65064770000754,211.65064770000754,211.65064770000754,212.01717649999773,212.01717649999773,212.01717649999773,212.01717649999773,212.01717649999773,212.01717649999773,212.01717649999773,212.01717649999773,212.01717649999773,0,1,[0.0012481999583542347],[0.3671765999752097],212.01717649999773,212.21925570000894,1000,212.21925570000894,1000,1000,1000,1000,0,num_3,1.3128944000345655,,24,2,2026-03-04_15h17.53.310,2026A_exp2,2022.2.4,59.921395108300864,
1,0,0.0,0.0,0,0,56,56,63,,,,,213.55195470002946,214.20283270004438,214.20283270004438,214.70372020005016,45,45,214.70372020005016,214.70372020005016,214.70372020005016,214.70372020005016,214.70372020005016,214.70372020005016,214.70372020005016,214.70372020005016,214.70372020005016,215.07017610000912,215.07017610000912,215.07017610000912,215.07017610000912,215.07017610000912,215.07017610000912,215.07017610000912,215.07017610000912,215.07017610000912,0,1,[0.0012421999708749354],[0.3672499000094831],215.07017610000912,215.27034770004684,0.0,215.27034770004684,0,0.0,0,1,1000,num_1,1.3418677999870852,,24,2,2026-03-04_15h17.53.310,2026A_exp2,2022.2.4,59.921395108300864,
1000,1,0.0,0.0,0,0,57,57,86,,,,,216.63833380001597,217.2890532000456,217.2890532000456,217.7735472000204,45,315,217.7735472000204,217.7735472000204,217.7735472000204,217.7735472000204,217.7735472000204,217.7735472000204,217.7735472000204,217.7735472000204,217.7735472000204,218.13998690003064,218.13998690003064,218.13998690003064,218.13998690003064,218.13998690003064,218.13998690003064,218.13998690003064,218.13998690003064,218.13998690003064,2,2,"[0.0011999999987892807, 0.3669627999770455]","[0.3333695999463089, 0.36696649994701147]",218.13998690003064,218.34203630004777,1000,218.34203630004777,1000,1000,1000,1000,0,num_3,1.0624442000407726,,24,2,2026-03-04_15h17.53.310,2026A_exp2,2022.2.4,59.921395108300864,
1000,1,3.7,0.0,0,0,58,58,2,,,,,219.42440990003524,220.07502069999464,220.07502069999464,220.5763690000167,315,45,220.5763690000167,220.5763690000167,220.5763690000167,220.5763690000167,220.5763690000167,220.5763690000167,220.5763690000167,220.5763690000167,220.5763690000167,220.9426194000407,220.9426194000407,220.9426194000407,220.9426194000407,220.9426194000407,220.9426194000407,220.9426194000407,220.9426194000407,220.9426194000407,0,1,[0.0012099999585188925],[0.36725619999924675],220.9426194000407,221.14857469999697,1000,221.14857469999697,1000,1000,1000,1000,0,num_3,0.6638919999822974,,24,2,2026-03-04_15h17.53.310,2026A_exp2,2022.2.4,59.921395108300864,
1000,1,0.0,0.0,0,0,59,59,85,,,,,221.84356609999668,222.49428430001717,222.49428430001717,222.995457800047,45,315,222.995457800047,222.995457800047,222.995457800047,222.995457800047,222.995457800047,222.995457800047,222.995457800047,222.995457800047,222.995457800047,223.36169640003936,223.36169640003936,223.36169640003936,223.36169640003936,223.36169640003936,223.36169640003936,223.36169640003936,223.36169640003936,223.36169640003936,0,1,[0.0014270999818108976],[0.36751740000909194],223.36169640003936,223.56391230004374,1000,223.56391230004374,1000,1000,1000,1000,0,num_3,1.7119728999678046,,24,2,2026-03-04_15h17.53.310,2026A_exp2,2022.2.4,59.921395108300864,
1,0,0.0,0.0,0,0,60,60,29,,,,,225.29703810001956,225.94773170002736,225.94773170002736,226.448736499995,315,315,226.448736499995,226.448736499995,226.448736499995,226.448736499995,226.448736499995,226.448736499995,226.448736499995,226.448736499995,226.448736499995,226.8151703000185,226.8151703000185,226.8151703000185,226.8151703000185,226.8151703000185,226.8151703000185,226.8151703000185,226.8151703000185,226.8151703000185,0,1,[0.0012771000037901103],[0.36714729998493567],226.8151703000185,227.0154654000071,0.0,227.0154654000071,0,0.0,0,1,1000,num_1,1.8131663000094704,,24,2,2026-03-04_15h17.53.310,2026A_exp2,2022.2.4,59.921395108300864,
1,0,3.7,0.0,1,0,61,61,19,,,,,228.8504460999975,229.50120430003153,229.50120430003153,229.98580040002707,315,315,229.98580040002707,229.98580040002707,229.98580040002707,229.98580040002707,229.98580040002707,229.98580040002707,229.98580040002707,229.98580040002707,229.98580040002707,230.3522784000379,230.3522784000379,230.3522784000379,230.3522784000379,230.3522784000379,230.3522784000379,230.3522784000379,230.3522784000379,230.3522784000379,23,0,,,230.3522784000379,230.5525600000401,0.0,230.5525600000401,0,0.0,0,1,1000,num_1,1.0764629000332206,,24,2,2026-03-04_15h17.53.310,2026A_exp2,2022.2.4,59.921395108300864,
1000,1,4.9,0.0,0,0,62,62,54,,,,,231.65348920004908,232.30411590001313,232.30411590001313,232.7884733999963,315,315,232.7884733999963,232.7884733999963,232.7884733999963,232.7884733999963,232.7884733999963,232.7884733999963,232.7884733999963,232.7884733999963,232.7884733999963,233.15488330001244,233.15488330001244,233.15488330001244,233.15488330001244,233.15488330001244,233.15488330001244,233.15488330001244,233.15488330001244,233.15488330001244,23,0,,,233.15488330001244,233.3569502000464,1000,233.3569502000464,1000,1000,1000,1000,0,num_3,1.4959620999870822,,24,2,2026-03-04_15h17.53.310,2026A_exp2,2022.2.4,59.921395108300864,
0,0,0.0,3.7,1,0,63,63,10,,,,,234.873304800014,235.52400450001005,235.52400450001005,236.02501100004883,315,315,236.02501100004883,236.02501100004883,236.02501100004883,236.02501100004883,236.02501100004883,236.02501100004883,236.02501100004883,236.02501100004883,236.02501100004883,236.37474950001342,236.37474950001342,236.37474950001342,236.37474950001342,236.37474950001342,236.37474950001342,236.37474950001342,236.37474950001342,236.37474950001342,1,2,"[0.0012080000014975667, 0.3338194999960251]","[0.3171044000191614, 0.3505738000385463]",236.37474950001342,236.57506460003788,0.0,236.5916810000199,0,0.0,0,1,1000,num_1,1.1325513999909163,,24,2,2026-03-04_15h17.53.310,2026A_exp2,2022.2.4,59.921395108300864,
1000,1,3.7,0.0,0,0,64,64,57,,,,,237.74271520000184,238.39335980004398,238.39335980004398,238.89453810005216,45,315,238.89453810005216,238.89453810005216,238.89453810005216,238.89453810005216,238.89453810005216,238.89453810005216,238.89453810005216,238.89453810005216,238.89453810005216,239.2608758000424,239.2608758000424,239.2608758000424,239.2608758000424,239.2608758000424,239.2608758000424,239.2608758000424,239.2608758000424,239.2608758000424,22,1,[0.01740910002263263],[0.033578499977011234],239.2608758000424,239.46333500003675,1000,239.46333500003675,1000,1000,1000,1000,0,num_3,0.7723876999807544,,24,2,2026-03-04_15h17.53.310,2026A_exp2,2022.2.4,59.921395108300864,
1000,1,0.0,0.0,0,0,65,65,80,,,,,240.2620167999994,240.9123391000321,240.9123391000321,241.41387230000691,45,45,241.41387230000691,241.41387230000691,241.41387230000691,241.41387230000691,241.41387230000691,241.41387230000691,241.41387230000691,241.41387230000691,241.41387230000691,241.7802516000229,241.7802516000229,241.7802516000229,241.7802516000229,241.7802516000229,241.7802516000229,241.7802516000229,241.7802516000229,241.7802516000229,0,1,[0.0012330000172369182],[0.3670997999724932],241.7802516000229,241.98297990002902,1000,241.98297990002902,1000,1000,1000,1000,1,num_2,1.0374019999871962,,24,2,2026-03-04_15h17.53.310,2026A_exp2,2022.2.4,59.921395108300864,
1000,1,0.0,4.9,1,0,66,66,79,,,,,243.04806270002155,243.69885050004814,243.69885050004814,244.19981780002126,315,315,244.19981780002126,244.19981780002126,244.19981780002126,244.19981780002126,244.19981780002126,244.19981780002126,244.19981780002126,244.19981780002126,244.19981780002126,244.5496294000186,244.5496294000186,244.5496294000186,244.5496294000186,244.5496294000186,244.5496294000186,244.5496294000186,244.5496294000186,244.5496294000186,22,0,,,244.5496294000186,244.75175110000418,1000,244.75175110000418,1000,1000,1000,1000,1,num_2,0.7488373999949545,,24,2,2026-03-04_15h17.53.310,2026A_exp2,2022.2.4,59.921395108300864,
1000,1,0.0,4.9,1,0,67,67,31,,,,,245.52089200000046,246.1703594000428,246.1703594000428,246.66901980002876,315,315,246.66901980002876,246.66901980002876,246.66901980002876,246.66901980002876,246.66901980002876,246.66901980002876,246.66901980002876,246.66901980002876,246.66901980002876,247.03568210004596,247.03568210004596,247.03568210004596,247.03568210004596,247.03568210004596,247.03568210004596,247.03568210004596,247.03568210004596,247.03568210004596,23,0,,,247.03568210004596,247.23753260000376,1000,247.23753260000376,1000,1000,1000,1000,1,num_2,0.6544198000337929,,24,2,2026-03-04_15h17.53.310,2026A_exp2,2022.2.4,59.921395108300864,
1000,1,3.7,6.1,0,0,68,68,0,,,,,247.91960840002866,248.5702908000094,248.5702908000094,249.07121690001804,315,45,249.07121690001804,249.07121690001804,249.07121690001804,249.07121690001804,249.07121690001804,249.07121690001804,249.07121690001804,249.07121690001804,249.07121690001804,249.42117970000254,249.42117970000254,249.42117970000254,249.42117970000254,249.42117970000254,249.42117970000254,249.42117970000254,249.42117970000254,249.42117970000254,0,1,[0.0012314000050537288],[0.3508459000149742],249.42117970000254,249.62950330000604,1000,249.62950330000604,1000,1000,1000,1000,1,num_2,0.958467299991753,,24,2,2026-03-04_15h17.53.310,2026A_exp2,2022.2.4,59.921395108300864,
1,0,0.0,4.9,1,0,69,69,53,,,,,250.60557529999642,251.2562756999978,251.2562756999978,251.75742180005182,45,315,251.75742180005182,251.75742180005182,251.75742180005182,251.75742180005182,251.75742180005182,251.75742180005182,251.75742180005182,251.75742180005182,251.75742180005182,252.1239043000387,252.1239043000387,252.1239043000387,252.1239043000387,252.1239043000387,252.1239043000387,252.1239043000387,252.1239043000387,252.1239043000387,0,1,[0.0012286000419408083],[0.3672165000461973],252.1239043000387,252.3240902000107,4.9,252.3240902000107,1,4.9,1,1,1000,num_4,0.8886210999917239,,24,2,2026-03-04_15h17.53.310,2026A_exp2,2022.2.4,59.921395108300864,
1,0,3.7,3.7,0,0,70,70,13,,,,,253.24184880004032,253.8923230000073,253.8923230000073,254.37686660001054,315,315,254.37686660001054,254.37686660001054,254.37686660001054,254.37686660001054,254.37686660001054,254.37686660001054,254.37686660001054,254.37686660001054,254.37686660001054,254.74310150003294,254.74310150003294,254.74310150003294,254.74310150003294,254.74310150003294,254.74310150003294,254.74310150003294,254.74310150003294,254.74310150003294,11,1,[0.0012006000033579767],[0.1999847999541089],254.74310150003294,254.94342660001712,3.7,254.94342660001712,0,3.7,1,0,1000,num_1,2.2365206999820657,,24,2,2026-03-04_15h17.53.310,2026A_exp2,2022.2.4,59.921395108300864,
0,0,0.0,6.1,0,0,71,71,7,,,,,257.1954168000375,257.84620650002034,257.84620650002034,258.3307687000488,45,45,258.3307687000488,258.3307687000488,258.3307687000488,258.3307687000488,258.3307687000488,258.3307687000488,258.3307687000488,258.3307687000488,258.3307687000488,258.69722020003246,258.69722020003246,258.69722020003246,258.69722020003246,258.69722020003246,258.69722020003246,258.69722020003246,258.69722020003246,258.69722020003246,23,0,,,258.69722020003246,258.8972631000215,6.1,258.8972631000215,1,6.1,1,1,1000,num_4,0.8829529999638908,,24,2,2026-03-04_15h17.53.310,2026A_exp2,2022.2.4,59.921395108300864,
0,0,0.0,0.0,1,0,72,72,71,,,,,259.7980925000156,260.44887580000795,260.44887580000795,260.9333761000307,45,45,260.9333761000307,260.9333761000307,260.9333761000307,260.9333761000307,260.9333761000307,260.9333761000307,260.9333761000307,260.9333761000307,260.9333761000307,261.2996752000181,261.2996752000181,261.2996752000181,261.2996752000181,261.2996752000181,261.2996752000181,261.2996752000181,261.2996752000181,261.2996752000181,23,0,,,261.2996752000181,261.49996879999526,0.0,261.49996879999526,0,0.0,0,1,1000,num_1,1.3363046000013128,,24,2,2026-03-04_15h17.53.310,2026A_exp2,2022.2.4,59.921395108300864,
1000,1,3.7,0.0,1,0,73,73,48,,,,,262.8682387000299,263.5187149000121,263.5187149000121,264.0029493000475,315,315,264.0029493000475,264.0029493000475,264.0029493000475,264.0029493000475,264.0029493000475,264.0029493000475,264.0029493000475,264.0029493000475,264.0029493000475,264.36944630002836,264.36944630002836,264.36944630002836,264.36944630002836,264.36944630002836,264.36944630002836,264.36944630002836,264.36944630002836,264.36944630002836,0,1,[0.0012454999960027635],[0.36712299997452646],264.36944630002836,264.571476800018,1000,264.571476800018,1000,1000,1000,1000,0,num_3,0.984329600003548,,24,2,2026-03-04_15h17.53.310,2026A_exp2,2022.2.4,59.921395108300864,
1000,1,3.7,4.9,1,0,74,74,44,,,,,265.58728590002283,266.23802810005145,266.23802810005145,266.7391501000384,45,45,266.7391501000384,266.7391501000384,266.7391501000384,266.7391501000384,266.7391501000384,266.7391501000384,266.7391501000384,266.7391501000384,266.7391501000384,267.0889038000023,267.0889038000023,267.0889038000023,267.0889038000023,267.0889038000023,267.0889038000023,267.0889038000023,267.0889038000023,267.0889038000023,0,1,[0.0011958999675698578],[0.3505975999869406],267.0889038000023,267.2909833000158,1000,267.2909833000158,1000,1000,1000,1000,1,num_2,0.880826500011608,,24,2,2026-03-04_15h17.53.310,2026A_exp2,2022.2.4,59.921395108300864,
1,0,0.0,4.9,1,0,75,75,21,,,,,268.18980849999934,268.84064670000225,268.84064670000225,269.34174470003927,45,315,269.34174470003927,269.34174470003927,269.34174470003927,269.34174470003927,269.34174470003927,269.34174470003927,269.34174470003927,269.34174470003927,269.34174470003927,269.691503100039,269.691503100039,269.691503100039,269.691503100039,269.691503100039,269.691503100039,269.691503100039,269.691503100039,269.691503100039,0,1,[0.0012089000083506107],[0.3505882000317797],269.691503100039,269.89182100002654,4.9,269.89182100002654,1,4.9,1,1,1000,num_4,0.9846751000150107,,24,2,2026-03-04_15h17.53.310,2026A_exp2,2022.2.4,59.921395108300864,
1000,1,0.0,0.0,1,0,76,76,67,,,,,270.89252520003356,271.54333190002944,271.54333190002944,272.0278002000414,45,45,272.0278002000414,272.0278002000414,272.0278002000414,272.0278002000414,272.0278002000414,272.0278002000414,272.0278002000414,272.0278002000414,272.0278002000414,272.3942355000181,272.3942355000181,272.3942355000181,272.3942355000181,272.3942355000181,272.3942355000181,272.3942355000181,272.3942355000181,272.3942355000181,23,0,,,272.3942355000181,272.59598580002785,1000,272.59598580002785,1000,1000,1000,1000,0,num_3,1.0019336999976076,,24,2,2026-03-04_15h17.53.310,2026A_exp2,2022.2.4,59.921395108300864,
1,0,6.1,0.0,0,0,77,77,56,,,,,273.62861790001625,274.27939199999673,274.27939199999673,274.78044500004034,45,45,274.78044500004034,274.78044500004034,274.78044500004034,274.78044500004034,274.78044500004034,274.78044500004034,274.78044500004034,274.78044500004034,274.78044500004034,275.1470466000028,275.1470466000028,275.1470466000028,275.1470466000028,275.1470466000028,275.1470466000028,275.1470466000028,275.1470466000028,275.1470466000028,23,0,,,275.1470466000028,275.3471913000103,6.1,275.3471913000103,1,6.1,1,1,1000,num_4,0.8900823000003584,,24,2,2026-03-04_15h17.53.310,2026A_exp2,2022.2.4,59.921395108300864,
1000,1,4.9,0.0,0,0,78,78,26,,,,,276.2649391000159,276.8987682000152,276.8987682000152,277.39986300002784,45,315,277.39986300002784,277.39986300002784,277.39986300002784,277.39986300002784,277.39986300002784,277.39986300002784,277.39986300002784,277.39986300002784,277.39986300002784,277.7661908000009,277.7661908000009,277.7661908000009,277.7661908000009,277.7661908000009,277.7661908000009,277.7661908000009,277.7661908000009,277.7661908000009,0,1,[0.0010348999639973044],[0.36736069998005405],277.7661908000009,277.96807820000686,1000,277.96807820000686,1000,1000,1000,1000,0,num_3,0.7966493000276387,,24,2,2026-03-04_15h17.53.310,2026A_exp2,2022.2.4,59.921395108300864,
1,0,0.0,6.1,1,0,79,79,36,,,,,278.78382290003356,279.4346423000097,279.4346423000097,279.93586450000294,315,315,279.93586450000294,279.93586450000294,279.93586450000294,279.93586450000294,279.93586450000294,279.93586450000294,279.93586450000294,279.93586450000294,279.93586450000294,280.3019500000519,280.3019500000519,280.3019500000519,280.3019500000519,280.3019500000519,280.3019500000519,280.3019500000519,280.3019500000519,280.3019500000519,22,1,[0.05014059995301068],[0.08316519996151328],280.3019500000519,280.5022506000241,6.1,280.5022506000241,1,6.1,1,1,1000,num_4,0.8459250999731012,,24,2,2026-03-04_15h17.53.310,2026A_exp2,2022.2.4,59.921395108300864,
1,0,0.0,0.0,1,0,80,80,6,,,,,281.3696956000058,282.0204391000443,282.0204391000443,282.50485980004305,315,315,282.50485980004305,282.50485980004305,282.50485980004305,282.50485980004305,282.50485980004305,282.50485980004305,282.50485980004305,282.50485980004305,282.50485980004305,282.8713592000422,282.8713592000422,282.8713592000422,282.8713592000422,282.8713592000422,282.8713592000422,282.8713592000422,282.8713592000422,282.8713592000422,4,1,[0.0011940000113099813],[0.31711629999335855],282.8713592000422,283.07152500003576,0.0,283.07152500003576,0,0.0,0,1,1000,num_1,1.6042531999992207,,24,2,2026-03-04_15h17.53.310,2026A_exp2,2022.2.4,59.921395108300864,
1,0,0.0,0.0,1,0,81,81,87,,,,,284.7063731000526,285.3571825000108,285.3571825000108,285.84175900003174,45,315,285.84175900003174,285.84175900003174,285.84175900003174,285.84175900003174,285.84175900003174,285.84175900003174,285.84175900003174,285.84175900003174,285.84175900003174,286.2079994000378,286.2079994000378,286.2079994000378,286.2079994000378,286.2079994000378,286.2079994000378,286.2079994000378,286.2079994000378,286.2079994000378,0,1,[0.00119420001283288],[0.3672838000347838],286.2079994000378,286.40781310002785,0.0,286.40781310002785,0,0.0,0,1,1000,num_1,1.3725985999917611,,24,2,2026-03-04_15h17.53.310,2026A_exp2,2022.2.4,59.921395108300864,
1000,1,6.1,0.0,0,0,82,82,82,,,,,287.80953430000227,288.4602159000351,288.4602159000351,288.9445919000427,315,45,288.9445919000427,288.9445919000427,288.9445919000427,288.9445919000427,288.9445919000427,288.9445919000427,288.9445919000427,288.9445919000427,288.9445919000427,289.31119850004325,289.31119850004325,289.31119850004325,289.31119850004325,289.31119850004325,289.31119850004325,289.31119850004325,289.31119850004325,289.31119850004325,0,1,[0.0011949000181630254],[0.36730939999688417],289.31119850004325,289.5130476000486,1000,289.5130476000486,1000,1000,1000,1000,0,num_3,0.7078167999861762,,24,2,2026-03-04_15h17.53.310,2026A_exp2,2022.2.4,59.921395108300864,
1,0,3.7,0.0,0,0,83,83,42,,,,,290.2453672999982,290.89605740003753,290.89605740003753,291.39704360003816,45,45,291.39704360003816,291.39704360003816,291.39704360003816,291.39704360003816,291.39704360003816,291.39704360003816,291.39704360003816,291.39704360003816,291.39704360003816,291.76354700000957,291.76354700000957,291.76354700000957,291.76354700000957,291.76354700000957,291.76354700000957,291.76354700000957,291.76354700000957,291.76354700000957,0,1,[0.0008675000281073153],[0.3677284000441432],291.76354700000957,291.96380250004586,3.7,291.96380250004586,1,3.7,1,1,1000,num_4,0.8568150000064634,,24,2,2026-03-04_15h17.53.310,2026A_exp2,2022.2.4,59.921395108300864,
1,0,0.0,3.7,0,0,84,84,35,,,,,292.84784470003797,293.49861180002335,293.49861180002335,293.98296019999543,315,45,293.98296019999543,293.98296019999543,293.98296019999543,293.98296019999543,293.98296019999543,293.98296019999543,293.98296019999543,293.98296019999543,293.98296019999543,294.34942630003206,294.34942630003206,294.34942630003206,294.34942630003206,294.34942630003206,294.34942630003206,294.34942630003206,294.34942630003206,294.34942630003206,0,1,[0.0012795000220648944],[0.36698719998821616],294.34942630003206,294.54959180002334,0.0,294.54959180002334,1,0.0,0,0,1000,num_4,1.143151999975089,,24,2,2026-03-04_15h17.53.310,2026A_exp2,2022.2.4,59.921395108300864,
1,0,0.0,3.7,1,0,85,85,66,,,,,295.7174077000236,296.3685018999968,296.3685018999968,296.8691366999992,45,315,296.8691366999992,296.8691366999992,296.8691366999992,296.8691366999992,296.8691366999992,296.8691366999992,296.8691366999992,296.8691366999992,296.8691366999992,297.218946100038,297.218946100038,297.218946100038,297.218946100038,297.218946100038,297.218946100038,297.218946100038,297.218946100038,297.218946100038,12,3,"[0.0007145999697968364, 0.1170678999624215, 0.25080089998664334]","[0.08376019995193928, 0.16712309996364638, 0.28396269999211654]",297.218946100038,297.4191641000216,3.7,297.4191641000216,1,3.7,1,1,1000,num_4,0.7533998999861069,,24,2,2026-03-04_15h17.53.310,2026A_exp2,2022.2.4,59.921395108300864,
1000,1,0.0,4.9,1,0,86,86,76,,,,,298.20328430004884,298.85399309999775,298.85399309999775,299.33838990004733,315,45,299.33838990004733,299.33838990004733,299.33838990004733,299.33838990004733,299.33838990004733,299.33838990004733,299.33838990004733,299.33838990004733,299.33838990004733,299.70484720001696,299.70484720001696,299.70484720001696,299.70484720001696,299.70484720001696,299.70484720001696,299.70484720001696,299.70484720001696,299.70484720001696,9,5,"[0.03354739997303113, 0.08356810000259429, 0.13360930001363158, 0.18369789997814223, 0.3004850000143051]","[0.05016889999387786, 0.10019299999112263, 0.15039670001715422, 0.2836957999970764, 0.36712060001445934]",299.70484720001696,299.907183000003,1000,299.907183000003,1000,1000,1000,1000,1,num_2,1.096692199993413,,24,2,2026-03-04_15h17.53.310,2026A_exp2,2022.2.4,59.921395108300864,
1,0,4.9,0.0,0,0,87,87,58,,,,,301.0225255000405,301.6734152000281,301.6734152000281,302.1745381000219,45,315,302.1745381000219,302.1745381000219,302.1745381000219,302.1745381000219,302.1745381000219,302.1745381000219,302.1745381000219,302.1745381000219,302.1745381000219,302.52432510000654,302.52432510000654,302.52432510000654,302.52432510000654,302.52432510000654,302.52432510000654,302.52432510000654,302.52432510000654,302.52432510000654,0,1,[0.00120749999769032],[0.3503924999968149],302.52432510000654,302.7245804000413,4.9,302.74103370000375,1,4.9,1,1,1000,num_4,0.8561396000441164,,24,2,2026-03-04_15h17.53.310,2026A_exp2,2022.2.4,59.921395108300864,
1000,1,3.7,4.9,1,0,88,88,43,,,,,303.62527930003125,304.27610040002037,304.27610040002037,304.7603909000172,45,45,304.7603909000172,304.7603909000172,304.7603909000172,304.7603909000172,304.7603909000172,304.7603909000172,304.7603909000172,304.7603909000172,304.7603909000172,305.1266362000024,305.1266362000024,305.1266362000024,305.1266362000024,305.1266362000024,305.1266362000024,305.1266362000024,305.1266362000024,305.1266362000024,0,1,[0.0011854000040329993],[0.3669956999947317],305.1266362000024,305.3291004000348,1000,305.3291004000348,1000,1000,1000,1000,1,num_2,0.74756950000301,,24,2,2026-03-04_15h17.53.310,2026A_exp2,2022.2.4,59.921395108300864,
1,0,4.9,0.0,1,0,89,89,8,,,,,306.09435349999694,306.7450162000023,306.7450162000023,307.24603930005105,45,315,307.24603930005105,307.24603930005105,307.24603930005105,307.24603930005105,307.24603930005105,307.24603930005105,307.24603930005105,307.24603930005105,307.24603930005105,307.61281540000346,307.61281540000346,307.61281540000346,307.61281540000346,307.61281540000346,307.61281540000346,307.61281540000346,307.61281540000346,307.61281540000346,0,1,[0.0010697999969124794],[0.36763799999607727],307.61281540000346,307.8129567000433,0.0,307.8129567000433,1,0.0,0,0,1000,num_4,0.8801188000361435,,24,2,2026-03-04_15h17.53.310,2026A_exp2,2022.2.4,59.921395108300864,
,,,,,,,,,,,,,,,,,,,,,,,,,,,,,,,,,,,,,,,,,,,,,,,,,,,,308.71728939999593,,,,,,,
