validity,detectorcomp,contrastCW,contrastCCW,precueCWorCCW,block_80trials.thisRepN,block_80trials.thisTrialN,block_80trials.thisN,block_80trials.thisIndex,etRecord.started,etRecord.stopped,text.started,text.stopped,text_4.started,text_4.stopped,text_6.started,text_6.stopped,oriCW,oriCCW,roi_2.started,grating_UR.started,grating_UL.started,grating_LR.started,grating_LL.started,noise_UR.started,noise_UL.started,noise_LR.started,noise_LL.started,roi_2.stopped,grating_UR.stopped,grating_UL.stopped,grating_LR.stopped,grating_LL.stopped,noise_UR.stopped,noise_UL.stopped,noise_LR.stopped,noise_LL.stopped,outframe,roi_2.numLooks,roi_2.timesOn,roi_2.timesOff,text_2.started,text_2.stopped,probedcontrast,key_resp.started,respdetect,relevantContrast,correctDetect,TorFdetect,respCWorCCW,key_resp.keys,key_resp.rt,feedback_display_.started,participantNo,blockNo,date,expName,psychopyVersion,frameRate,
1,0,4.9,0.0,1,0,0,0,38,3.409991040825844e-05,3.409991040825844e-05,52.152943999972194,54.157911400077865,54.157911400077865,54.789630099898204,54.789630099898204,55.31058289995417,315,45,55.31058289995417,55.31058289995417,55.31058289995417,55.31058289995417,55.31058289995417,55.31058289995417,55.31058289995417,55.31058289995417,55.31058289995417,55.65710960002616,55.65710960002616,55.65710960002616,55.65710960002616,55.65710960002616,55.65710960002616,55.65710960002616,55.65710960002616,55.65710960002616,23,0,,,55.65710960002616,55.85709669999778,0.0,55.85709669999778,0,0.0,0,1,1000,num_1,1.3183092998806387,,30,2,2026-03-12_10h23.53.899,2026A_exp2,2022.2.4,60.022892723924265,
0,0,0.0,0.0,1,0,1,1,71,,,,,57.19178480003029,57.84264330007136,57.84264330007136,58.34368139994331,45,45,58.34368139994331,58.34368139994331,58.34368139994331,58.34368139994331,58.34368139994331,58.34368139994331,58.34368139994331,58.34368139994331,58.34368139994331,58.71008990006521,58.71008990006521,58.71008990006521,58.71008990006521,58.71008990006521,58.71008990006521,58.71008990006521,58.71008990006521,58.71008990006521,23,0,,,58.71008990006521,58.910408899886534,0.0,58.910408899886534,0,0.0,0,1,1000,num_1,0.6565423000138253,,30,2,2026-03-12_10h23.53.899,2026A_exp2,2022.2.4,60.022892723924265,
1000,1,0.0,4.9,1,0,2,2,79,,,,,59.59441870008595,60.24503310001455,60.24503310001455,60.729487099917606,315,315,60.729487099917606,60.729487099917606,60.729487099917606,60.729487099917606,60.729487099917606,60.729487099917606,60.729487099917606,60.729487099917606,60.729487099917606,61.095760700060055,61.095760700060055,61.095760700060055,61.095760700060055,61.095760700060055,61.095760700060055,61.095760700060055,61.095760700060055,61.095760700060055,23,0,,,61.095760700060055,61.301106800092384,1000,61.301106800092384,1000,1000,1000,1000,1,num_2,0.6417553001083434,,30,2,2026-03-12_10h23.53.899,2026A_exp2,2022.2.4,60.022892723924265,
1000,1,4.9,6.1,1,0,3,3,28,,,,,61.96353349997662,62.61400810000487,62.61400810000487,63.11520030000247,45,315,63.11520030000247,63.11520030000247,63.11520030000247,63.11520030000247,63.11520030000247,63.11520030000247,63.11520030000247,63.11520030000247,63.11520030000247,63.48154870001599,63.48154870001599,63.48154870001599,63.48154870001599,63.48154870001599,63.48154870001599,63.48154870001599,63.48154870001599,63.48154870001599,23,0,,,63.48154870001599,63.684184100013226,1000,63.684184100013226,1000,1000,1000,1000,1,num_2,0.7070224001072347,,30,2,2026-03-12_10h23.53.899,2026A_exp2,2022.2.4,60.022892723924265,
1,0,0.0,6.1,1,0,4,4,52,,,,,64.4158252000343,65.06646170001477,65.06646170001477,65.56759009999223,315,315,65.56759009999223,65.56759009999223,65.56759009999223,65.56759009999223,65.56759009999223,65.56759009999223,65.56759009999223,65.56759009999223,65.56759009999223,65.91746459994465,65.91746459994465,65.91746459994465,65.91746459994465,65.91746459994465,65.91746459994465,65.91746459994465,65.91746459994465,65.91746459994465,22,0,,,65.91746459994465,66.11746790003963,6.1,66.11746790003963,1,6.1,1,1,1000,num_4,0.9857338001020253,,30,2,2026-03-12_10h23.53.899,2026A_exp2,2022.2.4,60.022892723924265,
1,0,0.0,0.0,0,0,5,5,1,,,,,67.13531360006891,67.78589539998211,67.78589539998211,68.27034229994752,315,315,68.27034229994752,68.27034229994752,68.27034229994752,68.27034229994752,68.27034229994752,68.27034229994752,68.27034229994752,68.27034229994752,68.27034229994752,68.63664250005968,68.63664250005968,68.63664250005968,68.63664250005968,68.63664250005968,68.63664250005968,68.63664250005968,68.63664250005968,68.63664250005968,23,0,,,68.63664250005968,68.83676249999553,0.0,68.83676249999553,0,0.0,0,1,1000,num_1,0.6979521000757813,,30,2,2026-03-12_10h23.53.899,2026A_exp2,2022.2.4,60.022892723924265,
1000,1,6.1,0.0,1,0,6,6,68,,,,,69.55422340007499,70.20506280008703,70.20506280008703,70.68995860009454,45,45,70.68995860009454,70.68995860009454,70.68995860009454,70.68995860009454,70.68995860009454,70.68995860009454,70.68995860009454,70.68995860009454,70.68995860009454,71.05586680001579,71.05586680001579,71.05586680001579,71.05586680001579,71.05586680001579,71.05586680001579,71.05586680001579,71.05586680001579,71.05586680001579,23,0,,,71.05586680001579,71.27672230009921,1000,71.27672230009921,1000,1000,1000,1000,0,num_3,0.5625354999210685,,30,2,2026-03-12_10h23.53.899,2026A_exp2,2022.2.4,60.022892723924265,
1000,1,3.7,4.9,1,0,7,7,44,,,,,71.85658690007403,72.5072812999133,72.5072812999133,73.0081954000052,315,45,73.0081954000052,73.0081954000052,73.0081954000052,73.0081954000052,73.0081954000052,73.0081954000052,73.0081954000052,73.0081954000052,73.0081954000052,73.37477119988762,73.37477119988762,73.37477119988762,73.37477119988762,73.37477119988762,73.37477119988762,73.37477119988762,73.37477119988762,73.37477119988762,23,0,,,73.37477119988762,73.57766399998218,1000,73.57766399998218,1000,1000,1000,1000,1,num_2,0.5493063998874277,,30,2,2026-03-12_10h23.53.899,2026A_exp2,2022.2.4,60.022892723924265,
1000,1,0.0,3.7,0,0,8,8,78,,,,,74.1421793999616,74.79286199994385,74.79286199994385,75.29409889993258,315,45,75.29409889993258,75.29409889993258,75.29409889993258,75.29409889993258,75.29409889993258,75.29409889993258,75.29409889993258,75.29409889993258,75.29409889993258,75.66030930005945,75.66030930005945,75.66030930005945,75.66030930005945,75.66030930005945,75.66030930005945,75.66030930005945,75.66030930005945,75.66030930005945,23,0,,,75.66030930005945,75.86226240010001,1000,75.86226240010001,1000,1000,1000,1000,1,num_2,1.160808299900964,,30,2,2026-03-12_10h23.53.899,2026A_exp2,2022.2.4,60.022892723924265,
1,0,0.0,4.9,0,0,9,9,4,,,,,77.04516600002535,77.69580930005759,77.69580930005759,78.19699080009013,315,315,78.19699080009013,78.19699080009013,78.19699080009013,78.19699080009013,78.19699080009013,78.19699080009013,78.19699080009013,78.19699080009013,78.19699080009013,78.56335019995458,78.56335019995458,78.56335019995458,78.56335019995458,78.56335019995458,78.56335019995458,78.56335019995458,78.56335019995458,78.56335019995458,23,0,,,78.56335019995458,,0.0,78.76455689989962,1,0.0,0,0,1000,num_4,1.4021440001670271,,30,2,2026-03-12_10h23.53.899,2026A_exp2,2022.2.4,60.022892723924265,
1000,1,4.9,6.1,0,0,10,10,20,,,,,80.19823620002717,80.84892129991204,80.84892129991204,81.33394609997049,315,315,81.33394609997049,81.33394609997049,81.33394609997049,81.33394609997049,81.33394609997049,81.33394609997049,81.33394609997049,81.33394609997049,81.33394609997049,81.69976920005865,81.69976920005865,81.69976920005865,81.69976920005865,81.69976920005865,81.69976920005865,81.69976920005865,81.69976920005865,81.69976920005865,23,0,,,81.69976920005865,81.90249289991334,1000,81.90249289991334,1000,1000,1000,1000,1,num_2,0.593263299902901,,30,2,2026-03-12_10h23.53.899,2026A_exp2,2022.2.4,60.022892723924265,
1000,1,3.7,6.1,0,0,11,11,84,,,,,82.51717959996313,83.16788069996983,83.16788069996983,83.66912019997835,45,45,83.66912019997835,83.66912019997835,83.66912019997835,83.66912019997835,83.66912019997835,83.66912019997835,83.66912019997835,83.66912019997835,83.66912019997835,84.03540839999914,84.03540839999914,84.03540839999914,84.03540839999914,84.03540839999914,84.03540839999914,84.03540839999914,84.03540839999914,84.03540839999914,23,0,,,84.03540839999914,84.23816110007465,1000,84.23816110007465,1000,1000,1000,1000,1,num_2,0.4806562000885606,,30,2,2026-03-12_10h23.53.899,2026A_exp2,2022.2.4,60.022892723924265,
1000,1,6.1,0.0,1,0,12,12,75,,,,,84.73608019994572,85.38681000005454,85.38681000005454,85.88777170004323,315,315,85.88777170004323,85.88777170004323,85.88777170004323,85.88777170004323,85.88777170004323,85.88777170004323,85.88777170004323,85.88777170004323,85.88777170004323,86.25438509997912,86.25438509997912,86.25438509997912,86.25438509997912,86.25438509997912,86.25438509997912,86.25438509997912,86.25438509997912,86.25438509997912,23,0,,,86.25438509997912,86.45701669994742,1000,86.45701669994742,1000,1000,1000,1000,0,num_3,0.8138071999419481,,30,2,2026-03-12_10h23.53.899,2026A_exp2,2022.2.4,60.022892723924265,
1000,1,0.0,3.7,0,0,13,13,51,,,,,87.28863049997017,87.93920170003548,87.93920170003548,88.44055150006898,315,45,88.44055150006898,88.44055150006898,88.44055150006898,88.44055150006898,88.44055150006898,88.44055150006898,88.44055150006898,88.44055150006898,88.44055150006898,88.80690820002928,88.80690820002928,88.80690820002928,88.80690820002928,88.80690820002928,88.80690820002928,88.80690820002928,88.80690820002928,88.80690820002928,23,0,,,88.80690820002928,89.00889670010656,1000,89.00889670010656,1000,1000,1000,1000,1,num_2,0.49388780002482235,,30,2,2026-03-12_10h23.53.899,2026A_exp2,2022.2.4,60.022892723924265,
1000,1,4.9,3.7,0,0,14,14,32,,,,,89.52423650003038,90.17494309996255,90.17494309996255,90.67612479999661,315,315,90.67612479999661,90.67612479999661,90.67612479999661,90.67612479999661,90.67612479999661,90.67612479999661,90.67612479999661,90.67612479999661,90.67612479999661,91.04244289989583,91.04244289989583,91.04244289989583,91.04244289989583,91.04244289989583,91.04244289989583,91.04244289989583,91.04244289989583,91.04244289989583,23,0,,,91.04244289989583,91.24555519991554,1000,91.24555519991554,1000,1000,1000,1000,1,num_2,0.5129164999816567,,30,2,2026-03-12_10h23.53.899,2026A_exp2,2022.2.4,60.022892723924265,
1,0,6.1,4.9,0,0,15,15,24,,,,,91.77642200002447,92.42715559992939,92.42715559992939,92.92816650005989,315,45,92.92816650005989,92.92816650005989,92.92816650005989,92.92816650005989,92.92816650005989,92.92816650005989,92.92816650005989,92.92816650005989,92.92816650005989,93.2946836000774,93.2946836000774,93.2946836000774,93.2946836000774,93.2946836000774,93.2946836000774,93.2946836000774,93.2946836000774,93.2946836000774,23,0,,,93.2946836000774,93.49484140006825,6.1,93.49484140006825,1,6.1,1,1,1000,num_4,1.4396249998826534,,30,2,2026-03-12_10h23.53.899,2026A_exp2,2022.2.4,60.022892723924265,
1000,1,3.7,0.0,0,0,16,16,45,,,,,94.9632433000952,95.61368410009891,95.61368410009891,96.09815869992599,315,315,96.09815869992599,96.09815869992599,96.09815869992599,96.09815869992599,96.09815869992599,96.09815869992599,96.09815869992599,96.09815869992599,96.09815869992599,96.46459090011194,96.46459090011194,96.46459090011194,96.46459090011194,96.46459090011194,96.46459090011194,96.46459090011194,96.46459090011194,96.46459090011194,23,0,,,96.46459090011194,96.66694790008478,1000,96.66694790008478,1000,1000,1000,1000,0,num_3,0.6364758999552578,,30,2,2026-03-12_10h23.53.899,2026A_exp2,2022.2.4,60.022892723924265,
1000,1,0.0,0.0,0,0,17,17,86,,,,,97.33201189991087,97.98277039988898,97.98277039988898,98.48388780001551,45,45,98.48388780001551,98.48388780001551,98.48388780001551,98.48388780001551,98.48388780001551,98.48388780001551,98.48388780001551,98.48388780001551,98.48388780001551,98.85024080006406,98.85024080006406,98.85024080006406,98.85024080006406,98.85024080006406,98.85024080006406,98.85024080006406,98.85024080006406,98.85024080006406,23,0,,,98.85024080006406,99.05184790003113,1000,99.05184790003113,1000,1000,1000,1000,1,num_2,1.2988557999487966,,30,2,2026-03-12_10h23.53.899,2026A_exp2,2022.2.4,60.022892723924265,
1,0,0.0,3.7,0,0,18,18,61,,,,,100.3682403001003,101.01909730001353,101.01909730001353,101.52034549997188,45,315,101.52034549997188,101.52034549997188,101.52034549997188,101.52034549997188,101.52034549997188,101.52034549997188,101.52034549997188,101.52034549997188,101.52034549997188,101.8866167999804,101.8866167999804,101.8866167999804,101.8866167999804,101.8866167999804,101.8866167999804,101.8866167999804,101.8866167999804,101.8866167999804,23,0,,,101.8866167999804,102.0869970000349,0.0,102.0869970000349,0,0.0,0,1,1000,num_1,1.8240938000380993,,30,2,2026-03-12_10h23.53.899,2026A_exp2,2022.2.4,60.022892723924265,
1000,1,6.1,0.0,1,0,19,19,69,,,,,103.93859410006553,104.58932360005565,104.58932360005565,105.09069780004211,315,315,105.09069780004211,105.09069780004211,105.09069780004211,105.09069780004211,105.09069780004211,105.09069780004211,105.09069780004211,105.09069780004211,105.09069780004211,105.44023560010828,105.44023560010828,105.44023560010828,105.44023560010828,105.44023560010828,105.44023560010828,105.44023560010828,105.44023560010828,105.44023560010828,22,0,,,105.44023560010828,105.64271720009856,1000,105.64271720009856,1000,1000,1000,1000,0,num_3,0.907803000183776,,30,2,2026-03-12_10h23.53.899,2026A_exp2,2022.2.4,60.022892723924265,
1000,1,4.9,0.0,0,0,20,20,26,,,,,106.57460079994053,107.20867759990506,107.20867759990506,107.71833790000528,315,315,107.71833790000528,107.71833790000528,107.71833790000528,107.71833790000528,107.71833790000528,107.71833790000528,107.71833790000528,107.71833790000528,107.71833790000528,108.07610590010881,108.07610590010881,108.07610590010881,108.07610590010881,108.07610590010881,108.07610590010881,108.07610590010881,108.07610590010881,108.07610590010881,23,0,,,108.07610590010881,108.27646080008708,1000,108.27646080008708,1000,1000,1000,1000,0,num_3,0.7218982998747379,,30,2,2026-03-12_10h23.53.899,2026A_exp2,2022.2.4,60.022892723924265,
1,0,4.9,0.0,1,0,21,21,8,,,,,109.02722720010206,109.6777137001045,109.6777137001045,110.17891529994085,315,45,110.17891529994085,110.17891529994085,110.17891529994085,110.17891529994085,110.17891529994085,110.17891529994085,110.17891529994085,110.17891529994085,110.17891529994085,110.54529600008391,110.54529600008391,110.54529600008391,110.54529600008391,110.54529600008391,110.54529600008391,110.54529600008391,110.54529600008391,110.54529600008391,23,0,,,110.54529600008391,110.7454687000718,0.0,110.7454687000718,1,0.0,0,0,1000,num_4,1.4533390998840332,,30,2,2026-03-12_10h23.53.899,2026A_exp2,2022.2.4,60.022892723924265,
1,0,6.1,4.9,0,0,22,22,39,,,,,112.23021350009367,112.88098879996687,112.88098879996687,113.36537729995325,45,315,113.36537729995325,113.36537729995325,113.36537729995325,113.36537729995325,113.36537729995325,113.36537729995325,113.36537729995325,113.36537729995325,113.36537729995325,113.7318214001134,113.7318214001134,113.7318214001134,113.7318214001134,113.7318214001134,113.7318214001134,113.7318214001134,113.7318214001134,113.7318214001134,23,0,,,113.7318214001134,113.93209189991467,6.1,113.93209189991467,1,6.1,1,1,1000,num_4,1.411405200138688,,30,2,2026-03-12_10h23.53.899,2026A_exp2,2022.2.4,60.022892723924265,
1,0,3.7,0.0,0,0,23,23,65,,,,,115.36713259993121,,116.01804400002584,116.50387779995799,45,45,116.50387779995799,116.50387779995799,116.50387779995799,116.50387779995799,116.50387779995799,116.50387779995799,116.50387779995799,116.50387779995799,116.50387779995799,116.86933110002428,116.86933110002428,116.86933110002428,116.86933110002428,116.86933110002428,116.86933110002428,116.86933110002428,116.86933110002428,116.86933110002428,23,0,,,116.86933110002428,117.06882390007377,3.7,117.06882390007377,1,3.7,1,1,1000,num_4,0.8499685998540372,,30,2,2026-03-12_10h23.53.899,2026A_exp2,2022.2.4,60.022892723924265,
1000,1,0.0,6.1,1,0,24,24,62,,,,,117.93707099999301,118.57123659993522,118.57123659993522,119.07115840003826,45,315,119.07115840003826,119.07115840003826,119.07115840003826,119.07115840003826,119.07115840003826,119.07115840003826,119.07115840003826,119.07115840003826,119.07115840003826,119.4375241000671,119.4375241000671,119.4375241000671,119.4375241000671,119.4375241000671,119.4375241000671,119.4375241000671,119.4375241000671,119.4375241000671,23,0,,,119.4375241000671,119.63997990009375,1000,119.63997990009375,1000,1000,1000,1000,1,num_2,0.5825094999745488,,30,2,2026-03-12_10h23.53.899,2026A_exp2,2022.2.4,60.022892723924265,
1000,1,0.0,6.1,0,0,25,25,9,,,,,120.23863769997843,120.8889522999525,120.8889522999525,121.39007250010036,45,315,121.39007250010036,121.39007250010036,121.39007250010036,121.39007250010036,121.39007250010036,121.39007250010036,121.39007250010036,121.39007250010036,121.39007250010036,121.75654749991372,121.75654749991372,121.75654749991372,121.75654749991372,121.75654749991372,121.75654749991372,121.75654749991372,121.75654749991372,121.75654749991372,23,0,,,121.75654749991372,121.95910280011594,1000,121.95910280011594,1000,1000,1000,1000,1,num_2,0.6242129998281598,,30,2,2026-03-12_10h23.53.899,2026A_exp2,2022.2.4,60.022892723924265,
1000,1,0.0,0.0,0,0,26,26,85,,,,,122.60734459990636,123.25788879999891,123.25788879999891,123.75906520010903,315,315,123.75906520010903,123.75906520010903,123.75906520010903,123.75906520010903,123.75906520010903,123.75906520010903,123.75906520010903,123.75906520010903,123.75906520010903,124.12543569994159,124.12543569994159,124.12543569994159,124.12543569994159,124.12543569994159,124.12543569994159,124.12543569994159,124.12543569994159,124.12543569994159,23,0,,,124.12543569994159,124.32818620000035,1000,124.32818620000035,1000,1000,1000,1000,1,num_2,1.01492780004628,,30,2,2026-03-12_10h23.53.899,2026A_exp2,2022.2.4,60.022892723924265,
1000,1,4.9,0.0,0,0,27,27,54,,,,,125.36001519998536,126.01077689998783,126.01077689998783,126.51196169992909,315,45,126.51196169992909,126.51196169992909,126.51196169992909,126.51196169992909,126.51196169992909,126.51196169992909,126.51196169992909,126.51196169992909,126.51196169992909,126.8779835999012,126.8779835999012,126.8779835999012,126.8779835999012,126.8779835999012,126.8779835999012,126.8779835999012,126.8779835999012,126.8779835999012,23,0,,,126.8779835999012,127.08039509993978,1000,127.08039509993978,1000,1000,1000,1000,0,num_3,0.5018517998978496,,30,2,2026-03-12_10h23.53.899,2026A_exp2,2022.2.4,60.022892723924265,
1000,1,0.0,6.1,1,0,28,28,88,,,,,127.61228320002556,128.26298190001398,128.26298190001398,128.7641429998912,45,45,128.7641429998912,128.7641429998912,128.7641429998912,128.7641429998912,128.7641429998912,128.7641429998912,128.7641429998912,128.7641429998912,128.7641429998912,129.13044520001858,129.13044520001858,129.13044520001858,129.13044520001858,129.13044520001858,129.13044520001858,129.13044520001858,129.13044520001858,129.13044520001858,23,0,,,129.13044520001858,129.33278360008262,1000,129.33278360008262,1000,1000,1000,1000,1,num_2,0.8663558000698686,,30,2,2026-03-12_10h23.53.899,2026A_exp2,2022.2.4,60.022892723924265,
1,0,4.9,0.0,0,0,29,29,58,,,,,130.21486789989285,130.8656478000339,130.8656478000339,131.36678040004335,45,45,131.36678040004335,131.36678040004335,131.36678040004335,131.36678040004335,131.36678040004335,131.36678040004335,131.36678040004335,131.36678040004335,131.36678040004335,131.73313189996406,131.73313189996406,131.73313189996406,131.73313189996406,131.73313189996406,131.73313189996406,131.73313189996406,131.73313189996406,131.73313189996406,23,0,,,131.73313189996406,131.93334209988825,4.9,131.93334209988825,1,4.9,1,1,1000,num_4,1.6409210001584142,,30,2,2026-03-12_10h23.53.899,2026A_exp2,2022.2.4,60.022892723924265,
1000,1,0.0,0.0,1,0,30,30,27,,,,,133.6014886999037,134.25238920003176,134.25238920003176,134.7367450001184,315,315,134.7367450001184,134.7367450001184,134.7367450001184,134.7367450001184,134.7367450001184,134.7367450001184,134.7367450001184,134.7367450001184,134.7367450001184,135.10324530000798,135.10324530000798,135.10324530000798,135.10324530000798,135.10324530000798,135.10324530000798,135.10324530000798,135.10324530000798,135.10324530000798,23,0,,,135.10324530000798,135.30355770001188,1000,135.32005720003508,1000,1000,1000,1000,1,num_2,1.150915800128132,,30,2,2026-03-12_10h23.53.899,2026A_exp2,2022.2.4,60.022892723924265,
1000,1,4.9,0.0,1,0,31,31,72,,,,,136.48786140000448,137.13845900003798,137.13845900003798,137.63961139996536,45,45,137.63961139996536,137.63961139996536,137.63961139996536,137.63961139996536,137.63961139996536,137.63961139996536,137.63961139996536,137.63961139996536,137.63961139996536,138.0061021000147,138.0061021000147,138.0061021000147,138.0061021000147,138.0061021000147,138.0061021000147,138.0061021000147,138.0061021000147,138.0061021000147,23,0,,,138.0061021000147,138.20843009999953,1000,138.20843009999953,1000,1000,1000,1000,0,num_3,0.6697106999345124,,30,2,2026-03-12_10h23.53.899,2026A_exp2,2022.2.4,60.022892723924265,
1000,1,0.0,4.9,1,0,32,32,59,,,,,138.90679699997418,139.5409089999739,139.5409089999739,140.04195159999654,45,315,140.04195159999654,140.04195159999654,140.04195159999654,140.04195159999654,140.04195159999654,140.04195159999654,140.04195159999654,140.04195159999654,140.04195159999654,140.40851500001736,140.40851500001736,140.40851500001736,140.40851500001736,140.40851500001736,140.40851500001736,140.40851500001736,140.40851500001736,140.40851500001736,23,0,,,140.40851500001736,140.61067519988865,1000,140.61067519988865,1000,1000,1000,1000,1,num_2,0.4126577000133693,,30,2,2026-03-12_10h23.53.899,2026A_exp2,2022.2.4,60.022892723924265,
0,0,0.0,6.1,0,0,33,33,7,,,,,141.04234490008093,141.69312800001353,141.69312800001353,142.19424100010656,315,45,142.19424100010656,142.19424100010656,142.19424100010656,142.19424100010656,142.19424100010656,142.19424100010656,142.19424100010656,142.19424100010656,142.19424100010656,142.56065359991044,142.56065359991044,142.56065359991044,142.56065359991044,142.56065359991044,142.56065359991044,142.56065359991044,142.56065359991044,142.56065359991044,23,0,,,142.56065359991044,142.76072699995711,6.1,142.76072699995711,1,6.1,1,1,1000,num_4,0.7024982001166791,,30,2,2026-03-12_10h23.53.899,2026A_exp2,2022.2.4,60.022892723924265,
1,0,0.0,0.0,0,0,34,34,63,,,,,143.4951146999374,144.12883220007643,144.12883220007643,144.6298682000488,45,45,144.6298682000488,144.6298682000488,144.6298682000488,144.6298682000488,144.6298682000488,144.6298682000488,144.6298682000488,144.6298682000488,144.6298682000488,144.99629159993492,144.99629159993492,144.99629159993492,144.99629159993492,144.99629159993492,144.99629159993492,144.99629159993492,144.99629159993492,144.99629159993492,23,0,,,144.99629159993492,145.1966862999834,0.0,145.1966862999834,0,0.0,0,1,1000,num_1,0.569588900078088,,30,2,2026-03-12_10h23.53.899,2026A_exp2,2022.2.4,60.022892723924265,
1000,1,0.0,4.9,1,0,35,35,76,,,,,145.79702079994604,146.44779239990748,146.44779239990748,146.93234169995412,315,315,146.93234169995412,146.93234169995412,146.93234169995412,146.93234169995412,146.93234169995412,146.93234169995412,146.93234169995412,146.93234169995412,146.93234169995412,147.2987619000487,147.2987619000487,147.2987619000487,147.2987619000487,147.2987619000487,147.2987619000487,147.2987619000487,147.2987619000487,147.2987619000487,23,0,,,147.2987619000487,147.50066919997334,1000,147.50066919997334,1000,1000,1000,1000,1,num_2,0.36190430005081,,30,2,2026-03-12_10h23.53.899,2026A_exp2,2022.2.4,60.022892723924265,
1000,1,0.0,0.0,0,0,36,36,80,,,,,147.88267479999922,148.53328699991107,148.53328699991107,149.03444730001502,315,45,149.03444730001502,149.03444730001502,149.03444730001502,149.03444730001502,149.03444730001502,149.03444730001502,149.03444730001502,149.03444730001502,149.03444730001502,149.40080390009098,149.40080390009098,149.40080390009098,149.40080390009098,149.40080390009098,149.40080390009098,149.40080390009098,149.40080390009098,149.40080390009098,23,0,,,149.40080390009098,149.6031633000821,1000,149.6031633000821,1000,1000,1000,1000,0,num_3,0.6603660001419485,,30,2,2026-03-12_10h23.53.899,2026A_exp2,2022.2.4,60.022892723924265,
1000,1,3.7,0.0,0,0,37,37,57,,,,,150.28488159994595,150.93566880002618,150.93566880002618,151.43669439991936,315,315,151.43669439991936,151.43669439991936,151.43669439991936,151.43669439991936,151.43669439991936,151.43669439991936,151.43669439991936,151.43669439991936,151.43669439991936,151.80303440010175,151.80303440010175,151.80303440010175,151.80303440010175,151.80303440010175,151.80303440010175,151.80303440010175,151.80303440010175,151.80303440010175,23,0,,,151.80303440010175,152.00487380009145,1000,152.00487380009145,1000,1000,1000,1000,0,num_3,0.5458168999757618,,30,2,2026-03-12_10h23.53.899,2026A_exp2,2022.2.4,60.022892723924265,
1,0,0.0,3.7,1,0,38,38,41,,,,,152.5705371000804,153.22145380009897,153.22145380009897,153.72254070010968,315,45,153.72254070010968,153.72254070010968,153.72254070010968,153.72254070010968,153.72254070010968,153.72254070010968,153.72254070010968,153.72254070010968,153.72254070010968,154.08883780008182,154.08883780008182,154.08883780008182,154.08883780008182,154.08883780008182,154.08883780008182,154.08883780008182,154.08883780008182,154.08883780008182,23,0,,,154.08883780008182,154.28903499990702,3.7,154.28903499990702,1,3.7,1,1,1000,num_4,0.6933778000529855,,30,2,2026-03-12_10h23.53.899,2026A_exp2,2022.2.4,60.022892723924265,
1000,1,4.9,0.0,1,0,39,39,22,,,,,155.00630109990016,155.65683409990743,155.65683409990743,156.15820740000345,45,45,156.15820740000345,156.15820740000345,156.15820740000345,156.15820740000345,156.15820740000345,156.15820740000345,156.15820740000345,156.15820740000345,156.15820740000345,156.5079415999353,156.5079415999353,156.5079415999353,156.5079415999353,156.5079415999353,156.5079415999353,156.5079415999353,156.5079415999353,156.5079415999353,22,0,,,156.5079415999353,156.71007709996775,1000,156.71007709996775,1000,1000,1000,1000,0,num_3,0.537064999807626,,30,2,2026-03-12_10h23.53.899,2026A_exp2,2022.2.4,60.022892723924265,
1,0,3.7,0.0,0,0,40,40,42,,,,,157.27529169991612,157.9259329000488,157.9259329000488,158.42718319990672,315,315,158.42718319990672,158.42718319990672,158.42718319990672,158.42718319990672,158.42718319990672,158.42718319990672,158.42718319990672,158.42718319990672,158.42718319990672,158.79356579994783,158.79356579994783,158.79356579994783,158.79356579994783,158.79356579994783,158.79356579994783,158.79356579994783,158.79356579994783,158.79356579994783,23,0,,,158.79356579994783,158.99379849992692,3.7,158.99379849992692,1,3.7,1,1,1000,num_4,1.5413083999883384,,30,2,2026-03-12_10h23.53.899,2026A_exp2,2022.2.4,60.022892723924265,
1,0,3.7,0.0,1,0,41,41,19,,,,,160.56187599990517,161.2126831000205,161.2126831000205,161.6970722998958,45,45,161.6970722998958,161.6970722998958,161.6970722998958,161.6970722998958,161.6970722998958,161.6970722998958,161.6970722998958,161.6970722998958,161.6970722998958,162.0634415000677,162.0634415000677,162.0634415000677,162.0634415000677,162.0634415000677,162.0634415000677,162.0634415000677,162.0634415000677,162.0634415000677,23,0,,,162.0634415000677,162.26373149990104,0.0,162.26373149990104,0,0.0,0,1,1000,num_1,1.3752701999619603,,30,2,2026-03-12_10h23.53.899,2026A_exp2,2022.2.4,60.022892723924265,
1000,1,0.0,6.1,0,0,42,42,37,,,,,163.66470550000668,164.31564110005274,164.31564110005274,164.7999923999887,315,45,164.7999923999887,164.7999923999887,164.7999923999887,164.7999923999887,164.7999923999887,164.7999923999887,164.7999923999887,164.7999923999887,164.7999923999887,165.16660899994895,165.16660899994895,165.16660899994895,165.16660899994895,165.16660899994895,165.16660899994895,165.16660899994895,165.16660899994895,165.16660899994895,23,0,,,165.16660899994895,165.3690837000031,1000,165.3690837000031,1000,1000,1000,1000,1,num_2,0.9815747002139688,,30,2,2026-03-12_10h23.53.899,2026A_exp2,2022.2.4,60.022892723924265,
1000,1,0.0,0.0,1,0,43,43,23,,,,,166.36763569992036,167.01919479994103,167.01919479994103,167.51958080008626,315,315,167.51958080008626,167.51958080008626,167.51958080008626,167.51958080008626,167.51958080008626,167.51958080008626,167.51958080008626,167.51958080008626,167.51958080008626,167.88588809990324,167.88588809990324,167.88588809990324,167.88588809990324,167.88588809990324,167.88588809990324,167.88588809990324,167.88588809990324,167.88588809990324,23,0,,,167.88588809990324,168.0884056999348,1000,168.0884056999348,1000,1000,1000,1000,0,num_3,0.7343237998429686,,30,2,2026-03-12_10h23.53.899,2026A_exp2,2022.2.4,60.022892723924265,
1,0,3.7,0.0,0,0,44,44,3,,,,,168.85342660010792,169.50414750003256,169.50414750003256,170.00521939992905,315,45,170.00521939992905,170.00521939992905,170.00521939992905,170.00521939992905,170.00521939992905,170.00521939992905,170.00521939992905,170.00521939992905,170.00521939992905,170.37156790005974,170.37156790005974,170.37156790005974,170.37156790005974,170.37156790005974,170.37156790005974,170.37156790005974,170.37156790005974,170.37156790005974,23,0,,,170.37156790005974,170.57195289991796,3.7,170.57195289991796,0,3.7,1,0,1000,num_1,0.7553554999176413,,30,2,2026-03-12_10h23.53.899,2026A_exp2,2022.2.4,60.022892723924265,
1000,1,3.7,6.1,0,0,45,45,0,,,,,171.35594499995932,172.00680129998364,172.00680129998364,172.49112839996815,315,45,172.49112839996815,172.49112839996815,172.49112839996815,172.49112839996815,172.49112839996815,172.49112839996815,172.49112839996815,172.49112839996815,172.49112839996815,172.8576418000739,172.8576418000739,172.8576418000739,172.8576418000739,172.8576418000739,172.8576418000739,172.8576418000739,172.8576418000739,172.8576418000739,23,0,,,172.8576418000739,173.05992330005392,1000,173.05992330005392,1000,1000,1000,1000,1,num_2,1.0022893999703228,,30,2,2026-03-12_10h23.53.899,2026A_exp2,2022.2.4,60.022892723924265,
1,0,0.0,0.0,1,0,46,46,87,,,,,174.09224590007216,174.7429070000071,174.7429070000071,175.24399089999497,45,315,175.24399089999497,175.24399089999497,175.24399089999497,175.24399089999497,175.24399089999497,175.24399089999497,175.24399089999497,175.24399089999497,175.24399089999497,175.6102750999853,175.6102750999853,175.6102750999853,175.6102750999853,175.6102750999853,175.6102750999853,175.6102750999853,175.6102750999853,175.6102750999853,23,0,,,175.6102750999853,175.81064849998802,0.0,175.81064849998802,0,0.0,0,1,1000,num_1,0.8361674000043422,,30,2,2026-03-12_10h23.53.899,2026A_exp2,2022.2.4,60.022892723924265,
1,0,3.7,0.0,1,0,47,47,50,,,,,176.67822950007394,177.3121011001058,177.3121011001058,177.8131087999791,315,45,177.8131087999791,177.8131087999791,177.8131087999791,177.8131087999791,177.8131087999791,177.8131087999791,177.8131087999791,177.8131087999791,177.8131087999791,178.17956349998713,178.17956349998713,178.17956349998713,178.17956349998713,178.17956349998713,178.17956349998713,178.17956349998713,178.17956349998713,178.17956349998713,23,0,,,178.17956349998713,178.37977020000108,0.0,178.37977020000108,0,0.0,0,1,1000,num_1,2.722528000129387,,30,2,2026-03-12_10h23.53.899,2026A_exp2,2022.2.4,60.022892723924265,
1000,1,3.7,4.9,1,0,48,48,43,,,,,181.13244570000097,181.78310650005005,181.78310650005005,182.26769010000862,45,315,182.26769010000862,182.26769010000862,182.26769010000862,182.26769010000862,182.26769010000862,182.26769010000862,182.26769010000862,182.26769010000862,182.26769010000862,182.634114400018,182.634114400018,182.634114400018,182.634114400018,182.634114400018,182.634114400018,182.634114400018,182.634114400018,182.634114400018,23,0,,,182.634114400018,182.83437990001403,1000,182.83437990001403,1000,1000,1000,1000,1,num_2,0.7163208001293242,,30,2,2026-03-12_10h23.53.899,2026A_exp2,2022.2.4,60.022892723924265,
0,0,4.9,0.0,1,0,49,49,25,,,,,183.56817029998638,184.21902330010198,184.21902330010198,184.72011590003967,315,315,184.72011590003967,184.72011590003967,184.72011590003967,184.72011590003967,184.72011590003967,184.72011590003967,184.72011590003967,184.72011590003967,184.72011590003967,185.08647489990108,185.08647489990108,185.08647489990108,185.08647489990108,185.08647489990108,185.08647489990108,185.08647489990108,185.08647489990108,185.08647489990108,23,0,,,185.08647489990108,185.28677030000836,4.9,185.28677030000836,1,4.9,1,1,1000,num_4,1.2794541001785547,,30,2,2026-03-12_10h23.53.899,2026A_exp2,2022.2.4,60.022892723924265,
0,0,6.1,3.7,1,0,50,50,49,,,,,186.58805579994805,187.2219974999316,187.2219974999316,187.7231570999138,45,315,187.7231570999138,187.7231570999138,187.7231570999138,187.7231570999138,187.7231570999138,187.7231570999138,187.7231570999138,187.7231570999138,187.7231570999138,188.09066560002975,188.09066560002975,188.09066560002975,188.09066560002975,188.09066560002975,188.09066560002975,188.09066560002975,188.09066560002975,188.09066560002975,23,0,,,188.09066560002975,188.2905357000418,6.1,188.2905357000418,1,6.1,1,1,1000,num_4,1.4844712000340223,,30,2,2026-03-12_10h23.53.899,2026A_exp2,2022.2.4,60.022892723924265,
1000,1,0.0,0.0,0,0,51,51,81,,,,,189.79141029994935,190.44171430007555,190.44171430007555,190.9263542999979,315,45,190.9263542999979,190.9263542999979,190.9263542999979,190.9263542999979,190.9263542999979,190.9263542999979,190.9263542999979,190.9263542999979,190.9263542999979,191.29267879994586,191.29267879994586,191.29267879994586,191.29267879994586,191.29267879994586,191.29267879994586,191.29267879994586,191.29267879994586,191.29267879994586,23,0,,,191.29267879994586,191.49482130003162,1000,191.49482130003162,1000,1000,1000,1000,1,num_2,1.4400470000691712,,30,2,2026-03-12_10h23.53.899,2026A_exp2,2022.2.4,60.022892723924265,
1,0,0.0,6.1,0,0,52,52,60,,,,,192.96072029997595,193.5951497000642,193.5951497000642,194.09618530003354,315,315,194.09618530003354,194.09618530003354,194.09618530003354,194.09618530003354,194.09618530003354,194.09618530003354,194.09618530003354,194.09618530003354,194.09618530003354,194.4627529999707,194.4627529999707,194.4627529999707,194.4627529999707,194.4627529999707,194.4627529999707,194.4627529999707,194.4627529999707,194.4627529999707,0,1,[0.0007008998654782772],[0.3702360999304801],194.4627529999707,194.6640937998891,0.0,194.6640937998891,0,0.0,0,1,1000,num_1,1.2783748998772353,,30,2,2026-03-12_10h23.53.899,2026A_exp2,2022.2.4,60.022892723924265,
1000,1,0.0,0.0,1,0,53,53,33,,,,,195.96407280000858,196.61584450001828,196.61584450001828,197.0989989999216,45,315,197.0989989999216,197.0989989999216,197.0989989999216,197.0989989999216,197.0989989999216,197.0989989999216,197.0989989999216,197.0989989999216,197.0989989999216,197.4655013999436,197.4655013999436,197.4655013999436,197.4655013999436,197.4655013999436,197.4655013999436,197.4655013999436,197.4655013999436,197.4655013999436,23,0,,,197.4655013999436,197.6655133999884,1000,197.6655133999884,1000,1000,1000,1000,1,num_2,1.7816197997890413,,30,2,2026-03-12_10h23.53.899,2026A_exp2,2022.2.4,60.022892723924265,
1,0,3.7,3.7,0,0,54,54,13,,,,,199.46767639997415,200.1185316001065,200.1185316001065,200.6034587000031,315,45,200.6034587000031,200.6034587000031,200.6034587000031,200.6034587000031,200.6034587000031,200.6034587000031,200.6034587000031,200.6034587000031,200.6034587000031,200.96936200000346,200.96936200000346,200.96936200000346,200.96936200000346,200.96936200000346,200.96936200000346,200.96936200000346,200.96936200000346,200.96936200000346,0,1,[0.000857100123539567],[0.3680702999699861],200.96936200000346,201.1696915999055,3.7,201.1696915999055,1,3.7,1,1,1000,num_4,2.3486169998068362,,30,2,2026-03-12_10h23.53.899,2026A_exp2,2022.2.4,60.022892723924265,
1000,1,4.9,0.0,1,0,55,55,5,,,,,203.53820449998602,204.1887215001043,204.1887215001043,204.68958809995092,315,315,204.68958809995092,204.68958809995092,204.68958809995092,204.68958809995092,204.68958809995092,204.68958809995092,204.68958809995092,204.68958809995092,204.68958809995092,205.0560451000929,205.0560451000929,205.0560451000929,205.0560451000929,205.0560451000929,205.0560451000929,205.0560451000929,205.0560451000929,205.0560451000929,0,1,[0.0007380000315606594],[0.3674029998946935],205.0560451000929,205.25645700003952,1000,205.25645700003952,1000,1000,1000,1000,0,num_3,0.8144952999427915,,30,2,2026-03-12_10h23.53.899,2026A_exp2,2022.2.4,60.022892723924265,
1,0,0.0,6.1,0,0,56,56,34,,,,,206.09055839991197,206.72480430011638,206.72480430011638,207.22568519995548,45,315,207.22568519995548,207.22568519995548,207.22568519995548,207.22568519995548,207.22568519995548,207.22568519995548,207.22568519995548,207.22568519995548,207.22568519995548,207.5918644000776,207.5918644000776,207.5918644000776,207.5918644000776,207.5918644000776,207.5918644000776,207.5918644000776,207.5918644000776,207.5918644000776,3,2,"[0.0007688999176025391, 0.21709629986435175]","[0.20061609987169504, 0.35125059983693063]",207.5918644000776,207.79206779995002,0.0,207.79206779995002,0,0.0,0,1,1000,num_1,0.8307830998674035,,30,2,2026-03-12_10h23.53.899,2026A_exp2,2022.2.4,60.022892723924265,
1000,1,0.0,4.9,1,0,57,57,31,,,,,208.6434343000874,209.29387519997545,209.29387519997545,209.77857639989816,45,45,209.77857639989816,209.77857639989816,209.77857639989816,209.77857639989816,209.77857639989816,209.77857639989816,209.77857639989816,209.77857639989816,209.77857639989816,210.14481780002825,210.14481780002825,210.14481780002825,210.14481780002825,210.14481780002825,210.14481780002825,210.14481780002825,210.14481780002825,210.14481780002825,23,0,,,210.14481780002825,210.34577720006928,1000,210.34577720006928,1000,1000,1000,1000,1,num_2,1.0532643001060933,,30,2,2026-03-12_10h23.53.899,2026A_exp2,2022.2.4,60.022892723924265,
1000,1,6.1,0.0,1,0,58,58,30,,,,,211.4294245999772,212.07979490002617,212.07979490002617,212.58096670010127,45,45,212.58096670010127,212.58096670010127,212.58096670010127,212.58096670010127,212.58096670010127,212.58096670010127,212.58096670010127,212.58096670010127,212.58096670010127,212.93069569999352,212.93069569999352,212.93069569999352,212.93069569999352,212.93069569999352,212.93069569999352,212.93069569999352,212.93069569999352,212.93069569999352,0,1,[0.0007146999705582857],[0.3507371998857707],212.93069569999352,213.1309758001007,1000,213.1309758001007,1000,1000,1000,1000,0,num_3,0.6516491000074893,,30,2,2026-03-12_10h23.53.899,2026A_exp2,2022.2.4,60.022892723924265,
1000,1,6.1,6.1,1,0,59,59,77,,,,,213.79824119992554,214.44910699990578,214.44910699990578,214.93336850008927,315,45,214.93336850008927,214.93336850008927,214.93336850008927,214.93336850008927,214.93336850008927,214.93336850008927,214.93336850008927,214.93336850008927,214.93336850008927,215.30002689990215,215.30002689990215,215.30002689990215,215.30002689990215,215.30002689990215,215.30002689990215,215.30002689990215,215.30002689990215,215.30002689990215,0,1,[0.000924800056964159],[0.3673543999902904],215.30002689990215,215.50043209991418,1000,215.50043209991418,1000,1000,1000,1000,1,num_2,0.8185141000431031,,30,2,2026-03-12_10h23.53.899,2026A_exp2,2022.2.4,60.022892723924265,
1000,1,6.1,0.0,0,0,60,60,14,,,,,216.334506199928,216.98551020002924,216.98551020002924,217.48596079996787,45,315,217.48596079996787,217.48596079996787,217.48596079996787,217.48596079996787,217.48596079996787,217.48596079996787,217.48596079996787,217.48596079996787,217.48596079996787,217.83665680000558,217.83665680000558,217.83665680000558,217.83665680000558,217.83665680000558,217.83665680000558,217.83665680000558,217.83665680000558,217.83665680000558,4,1,[0.0007778999861329794],[0.30052489996887743],217.83665680000558,218.0526745999232,1000,218.0526745999232,1000,1000,1000,1000,0,num_3,0.4425324001349509,,30,2,2026-03-12_10h23.53.899,2026A_exp2,2022.2.4,60.022892723924265,
1000,1,3.7,0.0,1,0,61,61,48,,,,,218.51966429990716,219.17023249994963,219.17023249994963,219.6548168999143,45,45,219.6548168999143,219.6548168999143,219.6548168999143,219.6548168999143,219.6548168999143,219.6548168999143,219.6548168999143,219.6548168999143,219.6548168999143,220.0210275000427,220.0210275000427,220.0210275000427,220.0210275000427,220.0210275000427,220.0210275000427,220.0210275000427,220.0210275000427,220.0210275000427,5,1,[0.0009245998226106167],[0.30000559985637665],220.0210275000427,220.22164710005745,1000,220.22164710005745,1000,1000,1000,1000,0,num_3,1.241359599865973,,30,2,2026-03-12_10h23.53.899,2026A_exp2,2022.2.4,60.022892723924265,
1000,1,0.0,3.7,1,0,62,62,47,,,,,221.48952720011584,222.14014860009775,222.14014860009775,222.62459059990942,315,45,222.62459059990942,222.62459059990942,222.62459059990942,222.62459059990942,222.62459059990942,222.62459059990942,222.62459059990942,222.62459059990942,222.62459059990942,222.99081080011092,222.99081080011092,222.99081080011092,222.99081080011092,222.99081080011092,222.99081080011092,222.99081080011092,222.99081080011092,222.99081080011092,0,1,[0.0009282000828534365],[0.3670850000344217],222.99081080011092,223.19138540001586,1000,223.19138540001586,1000,1000,1000,1000,1,num_2,0.6708474999759346,,30,2,2026-03-12_10h23.53.899,2026A_exp2,2022.2.4,60.022892723924265,
0,0,0.0,3.7,1,0,63,63,10,,,,,223.89199659996666,224.54242699989118,224.54242699989118,225.02686299989,45,315,225.02686299989,225.02686299989,225.02686299989,225.02686299989,225.02686299989,225.02686299989,225.02686299989,225.02686299989,225.02686299989,225.39327059988864,225.39327059988864,225.39327059988864,225.39327059988864,225.39327059988864,225.39327059988864,225.39327059988864,225.39327059988864,225.39327059988864,0,1,[0.000777499983087182],[0.36744499998167157],225.39327059988864,225.59369189990684,0.0,225.59369189990684,0,0.0,0,1,1000,num_1,0.8051168001256883,,30,2,2026-03-12_10h23.53.899,2026A_exp2,2022.2.4,60.022892723924265,
1,0,6.1,0.0,0,0,64,64,70,,,,,226.42797509999946,227.06183729995973,227.06183729995973,227.5629686000757,315,315,227.5629686000757,227.5629686000757,227.5629686000757,227.5629686000757,227.5629686000757,227.5629686000757,227.5629686000757,227.5629686000757,227.5629686000757,227.9291473000776,227.9291473000776,227.9291473000776,227.9291473000776,227.9291473000776,227.9291473000776,227.9291473000776,227.9291473000776,227.9291473000776,0,1,[0.0007490001153200865],[0.3674552000593394],227.9291473000776,228.12976039992645,6.1,228.12976039992645,1,6.1,1,1,1000,num_4,0.9005586998537183,,30,2,2026-03-12_10h23.53.899,2026A_exp2,2022.2.4,60.022892723924265,
1,0,0.0,6.1,1,0,65,65,36,,,,,229.04692559991963,229.680788599886,229.680788599886,230.1954671998974,45,315,230.1954671998974,230.1954671998974,230.1954671998974,230.1954671998974,230.1954671998974,230.1954671998974,230.1954671998974,230.1954671998974,230.1954671998974,230.548770399997,230.548770399997,230.548770399997,230.548770399997,230.548770399997,230.548770399997,230.548770399997,230.548770399997,230.548770399997,0,1,[0.0039669000543653965],[0.3642239000182599],230.548770399997,230.74866100004874,6.1,230.74866100004874,1,6.1,1,1,1000,num_4,0.7219040000345558,,30,2,2026-03-12_10h23.53.899,2026A_exp2,2022.2.4,60.022892723924265,
1000,1,0.0,0.0,0,0,66,66,74,,,,,231.49945829994977,232.1503155999817,232.1503155999817,232.63472310011275,315,45,232.63472310011275,232.63472310011275,232.63472310011275,232.63472310011275,232.63472310011275,232.63472310011275,232.63472310011275,232.63472310011275,232.63472310011275,233.0009928001091,233.0009928001091,233.0009928001091,233.0009928001091,233.0009928001091,233.0009928001091,233.0009928001091,233.0009928001091,233.0009928001091,2,1,[0.0013128002174198627],[0.3500739000737667],233.0009928001091,233.20144749991596,1000,233.20144749991596,1000,1000,1000,1000,0,num_3,0.7177166999317706,,30,2,2026-03-12_10h23.53.899,2026A_exp2,2022.2.4,60.022892723924265,
1000,1,0.0,0.0,0,0,67,67,17,,,,,233.93525299988687,234.58603810006753,234.58603810006753,235.08703800011426,45,315,235.08703800011426,235.08703800011426,235.08703800011426,235.08703800011426,235.08703800011426,235.08703800011426,235.08703800011426,235.08703800011426,235.08703800011426,235.43690590001643,235.43690590001643,235.43690590001643,235.43690590001643,235.43690590001643,235.43690590001643,235.43690590001643,235.43690590001643,235.43690590001643,0,1,[0.00123740010894835],[0.3503914000466466],235.43690590001643,235.63957650004886,1000,235.65392170008272,1000,1000,1000,1000,1,num_2,0.5684704999439418,,30,2,2026-03-12_10h23.53.899,2026A_exp2,2022.2.4,60.022892723924265,
1,0,3.7,6.1,0,0,68,68,55,,,,,236.23759920010343,236.88840340008028,236.88840340008028,237.3896447001025,45,45,237.3896447001025,237.3896447001025,237.3896447001025,237.3896447001025,237.3896447001025,237.3896447001025,237.3896447001025,237.3896447001025,237.3896447001025,237.75572240003385,237.75572240003385,237.75572240003385,237.75572240003385,237.75572240003385,237.75572240003385,237.75572240003385,237.75572240003385,237.75572240003385,0,1,[0.001617700094357133],[0.3667454000096768],237.75572240003385,237.95585860009305,3.7,237.95585860009305,1,3.7,1,1,1000,num_4,1.2436309999320656,,30,2,2026-03-12_10h23.53.899,2026A_exp2,2022.2.4,60.022892723924265,
1000,1,3.7,4.9,1,0,69,69,46,,,,,239.22381899994798,239.87443499988876,239.87443499988876,240.37580989999697,45,45,240.37580989999697,240.37580989999697,240.37580989999697,240.37580989999697,240.37580989999697,240.37580989999697,240.37580989999697,240.37580989999697,240.37580989999697,240.7251448999159,240.7251448999159,240.7251448999159,240.7251448999159,240.7251448999159,240.7251448999159,240.7251448999159,240.7251448999159,240.7251448999159,21,1,[0.0009206000249832869],[0.017578399972990155],240.7251448999159,240.92817170009948,1000,240.92817170009948,1000,1000,1000,1000,1,num_2,1.3828218998387456,,30,2,2026-03-12_10h23.53.899,2026A_exp2,2022.2.4,60.022892723924265,
1,0,0.0,0.0,0,0,70,70,29,,,,,242.3269839999266,242.9777643000707,242.9777643000707,243.4788309999276,45,315,243.4788309999276,243.4788309999276,243.4788309999276,243.4788309999276,243.4788309999276,243.4788309999276,243.4788309999276,243.4788309999276,243.4788309999276,243.8452290999703,243.8452290999703,243.8452290999703,243.8452290999703,243.8452290999703,243.8452290999703,243.8452290999703,243.8452290999703,243.8452290999703,0,1,[0.0012266000267118216],[0.36703599989414215],243.8452290999703,244.04544409993105,0.0,244.04544409993105,0,0.0,0,1,1000,num_1,0.569306599907577,,30,2,2026-03-12_10h23.53.899,2026A_exp2,2022.2.4,60.022892723924265,
1,0,0.0,6.1,0,0,71,71,11,,,,,244.64604069991037,245.29671730007976,245.29671730007976,245.78116369992495,45,315,245.78116369992495,245.78116369992495,245.78116369992495,245.78116369992495,245.78116369992495,245.78116369992495,245.78116369992495,245.78116369992495,245.78116369992495,246.147596700117,246.147596700117,246.147596700117,246.147596700117,246.147596700117,246.147596700117,246.147596700117,246.147596700117,246.147596700117,0,1,[0.001285000005736947],[0.3667675999458879],246.147596700117,246.34782140003517,0.0,246.34782140003517,0,0.0,0,1,1000,num_1,0.7789508998394012,,30,2,2026-03-12_10h23.53.899,2026A_exp2,2022.2.4,60.022892723924265,
1,0,0.0,4.9,1,0,72,72,53,,,,,247.14843189995736,247.78252379992045,247.78252379992045,248.2836118999403,45,315,248.2836118999403,248.2836118999403,248.2836118999403,248.2836118999403,248.2836118999403,248.2836118999403,248.2836118999403,248.2836118999403,248.2836118999403,248.65010540001094,248.65010540001094,248.65010540001094,248.65010540001094,248.65010540001094,248.65010540001094,248.65010540001094,248.65010540001094,248.65010540001094,0,1,[0.0012385000009089708],[0.36712980014272034],248.65010540001094,248.85007719998248,4.9,248.85007719998248,1,4.9,1,1,1000,num_4,0.8362497000489384,,30,2,2026-03-12_10h23.53.899,2026A_exp2,2022.2.4,60.022892723924265,
1,0,0.0,0.0,1,0,73,73,6,,,,,249.71767279994674,250.36839769990183,250.36839769990183,250.85300819994882,45,45,250.85300819994882,250.85300819994882,250.85300819994882,250.85300819994882,250.85300819994882,250.85300819994882,250.85300819994882,250.85300819994882,250.85300819994882,251.21932070003822,251.21932070003822,251.21932070003822,251.21932070003822,251.21932070003822,251.21932070003822,251.21932070003822,251.21932070003822,251.21932070003822,2,1,[0.000757700065150857],[0.3502342998981476],251.21932070003822,251.41925049992278,0.0,251.41925049992278,0,0.0,0,1,1000,num_1,1.563722399994731,,30,2,2026-03-12_10h23.53.899,2026A_exp2,2022.2.4,60.022892723924265,
1000,1,0.0,0.0,1,0,74,74,67,,,,,253.0044140999671,253.63824769994244,253.63824769994244,254.13952500000596,45,315,254.13952500000596,254.13952500000596,254.13952500000596,254.13952500000596,254.13952500000596,254.13952500000596,254.13952500000596,254.13952500000596,254.13952500000596,254.50592490006238,254.50592490006238,254.50592490006238,254.50592490006238,254.50592490006238,254.50592490006238,254.50592490006238,254.50592490006238,254.50592490006238,2,1,[0.001298899995163083],[0.3338506000582129],254.50592490006238,254.70616329996847,1000,254.70616329996847,1000,1000,1000,1000,1,num_2,0.7722676999401301,,30,2,2026-03-12_10h23.53.899,2026A_exp2,2022.2.4,60.022892723924265,
0,0,0.0,0.0,1,0,75,75,89,,,,,255.50685109989718,256.1574558999855,256.1574558999855,256.6587390000932,45,45,256.6587390000932,256.6587390000932,256.6587390000932,256.6587390000932,256.6587390000932,256.6587390000932,256.6587390000932,256.6587390000932,256.6587390000932,257.0251549000386,257.0251549000386,257.0251549000386,257.0251549000386,257.0251549000386,257.0251549000386,257.0251549000386,257.0251549000386,257.0251549000386,0,1,[0.0013574000913649797],[0.3670728001743555],257.0251549000386,257.2252273000777,0.0,257.2252273000777,0,0.0,0,1,1000,num_1,0.38112820009700954,,30,2,2026-03-12_10h23.53.899,2026A_exp2,2022.2.4,60.022892723924265,
1,0,0.0,3.7,0,0,76,76,35,,,,,257.62559000006877,258.27688309992664,258.27688309992664,258.7607555000577,315,45,258.7607555000577,258.7607555000577,258.7607555000577,258.7607555000577,258.7607555000577,258.7607555000577,258.7607555000577,258.7607555000577,258.7607555000577,259.1270854999311,259.1270854999311,259.1270854999311,259.1270854999311,259.1270854999311,259.1270854999311,259.1270854999311,259.1270854999311,259.1270854999311,0,1,[0.0012735000345855951],[0.3666136001702398],259.1270854999311,259.3270491999574,0.0,259.34363220003434,0,0.0,0,1,1000,num_1,0.9121679000090808,,30,2,2026-03-12_10h23.53.899,2026A_exp2,2022.2.4,60.022892723924265,
1000,1,0.0,0.0,0,0,77,77,83,,,,,260.27825039997697,260.9289814000949,260.9289814000949,261.41332060005516,315,45,261.41332060005516,261.41332060005516,261.41332060005516,261.41332060005516,261.41332060005516,261.41332060005516,261.41332060005516,261.41332060005516,261.41332060005516,261.7796940000262,261.7796940000262,261.7796940000262,261.7796940000262,261.7796940000262,261.7796940000262,261.7796940000262,261.7796940000262,261.7796940000262,3,1,[0.0012571001425385475],[0.3337392001412809],261.7796940000262,261.9823666999582,1000,261.9823666999582,1000,1000,1000,1000,1,num_2,0.9041138000320643,,30,2,2026-03-12_10h23.53.899,2026A_exp2,2022.2.4,60.022892723924265,
1000,1,0.0,0.0,0,0,78,78,15,,,,,262.9142293999903,263.564819799969,263.564819799969,264.0718992999755,315,315,264.0718992999755,264.0718992999755,264.0718992999755,264.0718992999755,264.0718992999755,264.0718992999755,264.0718992999755,264.0718992999755,264.0718992999755,264.43246840010397,264.43246840010397,264.43246840010397,264.43246840010397,264.43246840010397,264.43246840010397,264.43246840010397,264.43246840010397,264.43246840010397,0,1,[0.0026714999694377184],[0.36554779997095466],264.43246840010397,264.63480499992147,1000,264.63480499992147,1000,1000,1000,1000,0,num_3,0.8359442001674324,,30,2,2026-03-12_10h23.53.899,2026A_exp2,2022.2.4,60.022892723924265,
1000,1,0.0,0.0,0,0,79,79,18,,,,,265.50011170003563,266.15083909989335,266.15083909989335,266.65192710002884,315,315,266.65192710002884,266.65192710002884,266.65192710002884,266.65192710002884,266.65192710002884,266.65192710002884,266.65192710002884,266.65192710002884,266.65192710002884,267.01840699999593,267.01840699999593,267.01840699999593,267.01840699999593,267.01840699999593,267.01840699999593,267.01840699999593,267.01840699999593,267.01840699999593,0,1,[0.0012982001062482595],[0.36712009995244443],267.01840699999593,267.2209819999989,1000,267.2209819999989,1000,1000,1000,1000,1,num_2,0.770403099944815,,30,2,2026-03-12_10h23.53.899,2026A_exp2,2022.2.4,60.022892723924265,
1000,1,3.7,0.0,0,0,80,80,2,,,,,268.0191003999207,268.66995380003937,268.66995380003937,269.17106040008366,45,45,269.17106040008366,269.17106040008366,269.17106040008366,269.17106040008366,269.17106040008366,269.17106040008366,269.17106040008366,269.17106040008366,269.17106040008366,269.53754779999144,269.53754779999144,269.53754779999144,269.53754779999144,269.53754779999144,269.53754779999144,269.53754779999144,269.53754779999144,269.53754779999144,0,1,[0.0012616999447345734],[0.3664150000549853],269.53754779999144,269.7413238999434,1000,269.7413238999434,1000,1000,1000,1000,0,num_3,0.5533394999802113,,30,2,2026-03-12_10h23.53.899,2026A_exp2,2022.2.4,60.022892723924265,
1000,1,0.0,0.0,0,0,81,81,64,,,,,270.32176179997623,270.95576520008035,270.95576520008035,271.4568505999632,45,315,271.4568505999632,271.4568505999632,271.4568505999632,271.4568505999632,271.4568505999632,271.4568505999632,271.4568505999632,271.4568505999632,271.4568505999632,271.82327809999697,271.82327809999697,271.82327809999697,271.82327809999697,271.82327809999697,271.82327809999697,271.82327809999697,271.82327809999697,271.82327809999697,0,1,[0.0012596000451594591],[0.3672066000290215],271.82327809999697,272.02611389989033,1000,272.02611389989033,1000,1000,1000,1000,1,num_2,0.6773085000459105,,30,2,2026-03-12_10h23.53.899,2026A_exp2,2022.2.4,60.022892723924265,
1,0,0.0,4.9,1,0,82,82,21,,,,,272.7240669000894,273.3748029000126,273.3748029000126,273.87591170007363,45,315,273.87591170007363,273.87591170007363,273.87591170007363,273.87591170007363,273.87591170007363,273.87591170007363,273.87591170007363,273.87591170007363,273.87591170007363,274.24224380007945,274.24224380007945,274.24224380007945,274.24224380007945,274.24224380007945,274.24224380007945,274.24224380007945,274.24224380007945,274.24224380007945,0,1,[0.0009359999094158411],[0.36751649994403124],274.24224380007945,274.44248139997944,4.9,274.44248139997944,1,4.9,1,1,1000,num_4,1.0041239999700338,,30,2,2026-03-12_10h23.53.899,2026A_exp2,2022.2.4,60.022892723924265,
1,0,0.0,6.1,1,0,83,83,40,,,,,275.4768803000916,276.12773000006564,276.12773000006564,276.61201209994033,315,315,276.61201209994033,276.61201209994033,276.61201209994033,276.61201209994033,276.61201209994033,276.61201209994033,276.61201209994033,276.61201209994033,276.61201209994033,276.9784359000623,276.9784359000623,276.9784359000623,276.9784359000623,276.9784359000623,276.9784359000623,276.9784359000623,276.9784359000623,276.9784359000623,0,1,[0.0012338999658823013],[0.36710159992799163],276.9784359000623,277.1786162001081,6.1,277.1786162001081,1,6.1,1,1,1000,num_4,0.6526540000922978,,30,2,2026-03-12_10h23.53.899,2026A_exp2,2022.2.4,60.022892723924265,
1000,1,6.1,0.0,0,0,84,84,82,,,,,277.8627303999383,278.4966275000479,278.4966275000479,278.9977265999187,45,45,278.9977265999187,278.9977265999187,278.9977265999187,278.9977265999187,278.9977265999187,278.9977265999187,278.9977265999187,278.9977265999187,278.9977265999187,279.3639589000959,279.3639589000959,279.3639589000959,279.3639589000959,279.3639589000959,279.3639589000959,279.3639589000959,279.3639589000959,279.3639589000959,0,1,[0.0012112001422792673],[0.36730509996414185],279.3639589000959,279.56638669990934,1000,279.56638669990934,1000,1000,1000,1000,0,num_3,0.5679923000279814,,30,2,2026-03-12_10h23.53.899,2026A_exp2,2022.2.4,60.022892723924265,
1,0,0.0,0.0,1,0,85,85,73,,,,,280.1651141999755,280.815563299926,280.815563299926,281.3165955999866,45,315,281.3165955999866,281.3165955999866,281.3165955999866,281.3165955999866,281.3165955999866,281.3165955999866,281.3165955999866,281.3165955999866,281.3165955999866,281.6830718999263,281.6830718999263,281.6830718999263,281.6830718999263,281.6830718999263,281.6830718999263,281.6830718999263,281.6830718999263,281.6830718999263,15,1,[0.0013216000515967607],[0.13313600001856685],281.6830718999263,281.88325789989904,0.0,281.88325789989904,0,0.0,0,1,1000,num_1,0.6998261001426727,,30,2,2026-03-12_10h23.53.899,2026A_exp2,2022.2.4,60.022892723924265,
1,0,0.0,3.7,1,0,86,86,66,,,,,282.60047419997863,283.25138900009915,283.25138900009915,283.75234779994935,315,315,283.75234779994935,283.75234779994935,283.75234779994935,283.75234779994935,283.75234779994935,283.75234779994935,283.75234779994935,283.75234779994935,283.75234779994935,284.11881450004876,284.11881450004876,284.11881450004876,284.11881450004876,284.11881450004876,284.11881450004876,284.11881450004876,284.11881450004876,284.11881450004876,2,2,"[0.002002499997615814, 0.2829012998845428]","[0.24959829985164106, 0.36626519984565675]",284.11881450004876,284.3191317000892,3.7,284.3191317000892,1,3.7,1,1,1000,num_4,0.807921800063923,,30,2,2026-03-12_10h23.53.899,2026A_exp2,2022.2.4,60.022892723924265,
1000,1,6.1,0.0,1,0,87,87,16,,,,,285.15322230011225,285.8039845000021,285.8039845000021,286.28815139993094,45,45,286.28815139993094,286.28815139993094,286.28815139993094,286.28815139993094,286.28815139993094,286.28815139993094,286.28815139993094,286.28815139993094,286.28815139993094,286.65471110004,286.65471110004,286.65471110004,286.65471110004,286.65471110004,286.65471110004,286.65471110004,286.65471110004,286.65471110004,0,1,[0.0012232998851686716],[0.3671190000604838],286.65471110004,286.85664090001956,1000,286.85664090001956,1000,1000,1000,1000,0,num_3,0.4946918999776244,,30,2,2026-03-12_10h23.53.899,2026A_exp2,2022.2.4,60.022892723924265,
1,0,6.1,0.0,0,0,88,88,56,,,,,287.3720084000379,288.0227713000495,288.0227713000495,288.5239403999876,315,315,288.5239403999876,288.5239403999876,288.5239403999876,288.5239403999876,288.5239403999876,288.5239403999876,288.5239403999876,288.5239403999876,288.5239403999876,288.89015679992735,288.89015679992735,288.89015679992735,288.89015679992735,288.89015679992735,288.89015679992735,288.89015679992735,288.89015679992735,288.89015679992735,0,1,[0.0013116998597979546],[0.36728170001879334],288.89015679992735,289.0903618000448,6.1,289.0903618000448,1,6.1,1,1,1000,num_4,0.8605849999003112,,30,2,2026-03-12_10h23.53.899,2026A_exp2,2022.2.4,60.022892723924265,
1000,1,0.0,0.0,1,0,89,89,12,,,,,289.9745199000463,290.62533050007187,290.62533050007187,291.1265072999522,315,315,291.1265072999522,291.1265072999522,291.1265072999522,291.1265072999522,291.1265072999522,291.1265072999522,291.1265072999522,291.1265072999522,291.1265072999522,291.4762468000408,291.4762468000408,291.4762468000408,291.4762468000408,291.4762468000408,291.4762468000408,291.4762468000408,291.4762468000408,291.4762468000408,0,1,[0.0013285998720675707],[0.3504200999159366],291.4762468000408,291.6797722999472,1000,291.6797722999472,1000,1000,1000,1000,1,num_2,0.6949110999703407,,30,2,2026-03-12_10h23.53.899,2026A_exp2,2022.2.4,60.022892723924265,
,,,,,,,,,,,,,,,,,,,,,,,,,,,,,,,,,,,,,,,,,,,,,,,,,,,,292.4063802000601,,,,,,,
