validity,detectorcomp,contrastCW,contrastCCW,precueCWorCCW,block_80trials.thisRepN,block_80trials.thisTrialN,block_80trials.thisN,block_80trials.thisIndex,etRecord.started,etRecord.stopped,text.started,text.stopped,text_4.started,text_4.stopped,text_6.started,text_6.stopped,oriCW,oriCCW,roi_2.started,grating_UR.started,grating_UL.started,grating_LR.started,grating_LL.started,noise_UR.started,noise_UL.started,noise_LR.started,noise_LL.started,roi_2.stopped,grating_UR.stopped,grating_UL.stopped,grating_LR.stopped,grating_LL.stopped,noise_UR.stopped,noise_UL.stopped,noise_LR.stopped,noise_LL.stopped,outframe,roi_2.numLooks,roi_2.timesOn,roi_2.timesOff,text_2.started,text_2.stopped,probedcontrast,key_resp.started,respdetect,relevantContrast,correctDetect,TorFdetect,respCWorCCW,key_resp.keys,key_resp.rt,feedback_display_.started,participantNo,blockNo,date,expName,psychopyVersion,frameRate,
1000,1,0.0,3.7,0,0,0,0,50,5.410006269812584e-05,5.410006269812584e-05,99.89132370008156,101.89595489995554,101.89595489995554,102.52811939991079,102.52811939991079,103.04980099992827,45,315,103.04980099992827,103.04980099992827,103.04980099992827,103.04980099992827,103.04980099992827,103.04980099992827,103.04980099992827,103.04980099992827,103.04980099992827,103.39574790000916,103.39574790000916,103.39574790000916,103.39574790000916,103.39574790000916,103.39574790000916,103.39574790000916,103.39574790000916,103.39574790000916,1,2,"[0.0009345000144094229, 0.21786959981545806]","[0.20120189990848303, 0.36786679993383586]",103.39574790000916,103.60270479996689,1000,103.60270479996689,1000,1000,1000,1000,1,num_2,0.6720161999110132,,35,7,2026-03-13_13h54.58.302,2026A_exp2,2022.2.4,60.02973877733776,
1,0,0.0,3.7,0,0,1,1,76,,,,,104.2967789999675,104.94735959987156,104.94735959987156,105.44841209985316,45,45,105.44841209985316,105.44841209985316,105.44841209985316,105.44841209985316,105.44841209985316,105.44841209985316,105.44841209985316,105.44841209985316,105.44841209985316,105.81493919994682,105.81493919994682,105.81493919994682,105.81493919994682,105.81493919994682,105.81493919994682,105.81493919994682,105.81493919994682,105.81493919994682,0,1,[0.0015434999950230122],[0.36703759990632534],105.81493919994682,106.0151589999441,0.0,106.0151589999441,0,0.0,0,1,1000,num_1,0.8991147000342607,,35,7,2026-03-13_13h54.58.302,2026A_exp2,2022.2.4,60.02973877733776,
1000,1,0.0,0.0,1,0,2,2,44,,,,,106.9328145000618,107.58343990007415,107.58343990007415,108.0678687999025,315,315,108.0678687999025,108.0678687999025,108.0678687999025,108.0678687999025,108.0678687999025,108.0678687999025,108.0678687999025,108.0678687999025,108.0678687999025,108.4342699998524,108.4342699998524,108.4342699998524,108.4342699998524,108.4342699998524,108.4342699998524,108.4342699998524,108.4342699998524,108.4342699998524,0,1,[0.0012070999946445227],[0.3671760999131948],108.4342699998524,108.63612119993195,1000,108.63612119993195,1000,1000,1000,1000,1,num_2,0.5178581001237035,,35,7,2026-03-13_13h54.58.302,2026A_exp2,2022.2.4,60.02973877733776,
1,0,4.9,0.0,0,0,3,3,47,,,,,109.18508849991485,109.83558789989911,109.83558789989911,110.33665649988689,45,45,110.33665649988689,110.33665649988689,110.33665649988689,110.33665649988689,110.33665649988689,110.33665649988689,110.33665649988689,110.33665649988689,110.33665649988689,110.7031691998709,110.7031691998709,110.7031691998709,110.7031691998709,110.7031691998709,110.7031691998709,110.7031691998709,110.7031691998709,110.7031691998709,23,0,,,110.7031691998709,110.90334239997901,4.9,110.90334239997901,1,4.9,1,1,1000,num_4,0.4420598999131471,,35,7,2026-03-13_13h54.58.302,2026A_exp2,2022.2.4,60.02973877733776,
1,0,0.0,3.7,1,0,4,4,30,,,,,111.37042930000462,112.02118829987012,112.02118829987012,112.50550800003111,45,45,112.50550800003111,112.50550800003111,112.50550800003111,112.50550800003111,112.50550800003111,112.50550800003111,112.50550800003111,112.50550800003111,112.50550800003111,112.87192839989439,112.87192839989439,112.87192839989439,112.87192839989439,112.87192839989439,112.87192839989439,112.87192839989439,112.87192839989439,112.87192839989439,23,0,,,112.87192839989439,113.07211419986561,3.7,113.07211419986561,1,3.7,1,1,1000,num_4,0.3370858000125736,,35,7,2026-03-13_13h54.58.302,2026A_exp2,2022.2.4,60.02973877733776,
1000,1,4.9,0.0,1,0,5,5,74,,,,,113.43917430005968,114.08977399999276,114.08977399999276,114.57423979998566,315,315,114.57423979998566,114.57423979998566,114.57423979998566,114.57423979998566,114.57423979998566,114.57423979998566,114.57423979998566,114.57423979998566,114.57423979998566,114.94061749987304,114.94061749987304,114.94061749987304,114.94061749987304,114.94061749987304,114.94061749987304,114.94061749987304,114.94061749987304,114.94061749987304,16,3,"[0.21701659983955324, 0.2505175999831408, 0.3339150999672711]","[0.23378619994036853, 0.3005735999904573, 0.3673994999844581]",114.94061749987304,115.14268919988535,1000,115.14268919988535,1000,1000,1000,1000,0,num_3,0.5079180998727679,,35,7,2026-03-13_13h54.58.302,2026A_exp2,2022.2.4,60.02973877733776,
1000,1,3.7,0.0,1,0,6,6,19,,,,,115.67479249997996,116.32552149984986,116.32552149984986,116.8265112999361,315,45,116.8265112999361,116.8265112999361,116.8265112999361,116.8265112999361,116.8265112999361,116.8265112999361,116.8265112999361,116.8265112999361,116.8265112999361,117.17625120002776,117.17625120002776,117.17625120002776,117.17625120002776,117.17625120002776,117.17625120002776,117.17625120002776,117.17625120002776,117.17625120002776,16,5,"[0.1337910001166165, 0.16705740010365844, 0.2505378001369536, 0.30066820001229644, 0.3339537000283599]","[0.15042660012841225, 0.20041180006228387, 0.2671542000025511, 0.31718210014514625, 0.35067020007409155]",117.17625120002776,117.37833069986664,1000,117.39322840003297,1000,1000,1000,1000,1,num_2,0.6732704997994006,,35,7,2026-03-13_13h54.58.302,2026A_exp2,2022.2.4,60.02973877733776,
1,0,4.9,6.1,1,0,7,7,36,,,,,118.09383159992285,118.74462700006552,118.74462700006552,119.24561759992503,315,45,119.24561759992503,119.24561759992503,119.24561759992503,119.24561759992503,119.24561759992503,119.24561759992503,119.24561759992503,119.24561759992503,119.24561759992503,119.59544639987871,119.59544639987871,119.59544639987871,119.59544639987871,119.59544639987871,119.59544639987871,119.59544639987871,119.59544639987871,119.59544639987871,0,1,[0.0012004999443888664],[0.35024100006558],119.59544639987871,119.79559620004147,6.1,119.79559620004147,1,6.1,1,1,1000,num_4,0.6549941000994295,,35,7,2026-03-13_13h54.58.302,2026A_exp2,2022.2.4,60.02973877733776,
1,0,0.0,0.0,1,0,8,8,20,,,,,120.47952809999697,121.11349139991216,121.11349139991216,121.61470749997534,315,45,121.61470749997534,121.61470749997534,121.61470749997534,121.61470749997534,121.61470749997534,121.61470749997534,121.61470749997534,121.61470749997534,121.61470749997534,121.98102790000848,121.98102790000848,121.98102790000848,121.98102790000848,121.98102790000848,121.98102790000848,121.98102790000848,121.98102790000848,121.98102790000848,0,1,[0.000732900109142065],[0.36738230008631945],121.98102790000848,122.18127559986897,0.0,122.18127559986897,1,0.0,0,0,1000,num_4,0.6680538000073284,,35,7,2026-03-13_13h54.58.302,2026A_exp2,2022.2.4,60.02973877733776,
1000,1,6.1,4.9,1,0,9,9,86,,,,,122.86523379990831,123.51601590006612,123.51601590006612,124.0004048999399,45,45,124.0004048999399,124.0004048999399,124.0004048999399,124.0004048999399,124.0004048999399,124.0004048999399,124.0004048999399,124.0004048999399,124.0004048999399,124.36682639992796,124.36682639992796,124.36682639992796,124.36682639992796,124.36682639992796,124.36682639992796,124.36682639992796,124.36682639992796,124.36682639992796,0,1,[0.0007072999142110348],[0.36746380012482405],124.36682639992796,124.5688070000615,1000,124.5688070000615,1000,1000,1000,1000,0,num_3,0.5285640000365674,,35,7,2026-03-13_13h54.58.302,2026A_exp2,2022.2.4,60.02973877733776,
1,0,0.0,4.9,1,0,10,10,41,,,,,125.11750849988312,125.76799759990536,125.76799759990536,126.26937639992684,315,45,126.26937639992684,126.26937639992684,126.26937639992684,126.26937639992684,126.26937639992684,126.26937639992684,126.26937639992684,126.26937639992684,126.26937639992684,126.63574009994045,126.63574009994045,126.63574009994045,126.63574009994045,126.63574009994045,126.63574009994045,126.63574009994045,126.63574009994045,126.63574009994045,0,1,[0.0012031001970171928],[0.3668313000816852],126.63574009994045,126.84450219990686,4.9,126.84450219990686,1,4.9,1,1,1000,num_4,0.821056199958548,,35,7,2026-03-13_13h54.58.302,2026A_exp2,2022.2.4,60.02973877733776,
1000,1,6.1,0.0,0,0,11,11,21,,,,,127.68672710005194,128.34214179986157,128.34214179986157,128.83923709997907,45,45,128.83923709997907,128.83923709997907,128.83923709997907,128.83923709997907,128.83923709997907,128.83923709997907,128.83923709997907,128.83923709997907,128.83923709997907,129.2050801999867,129.2050801999867,129.2050801999867,129.2050801999867,129.2050801999867,129.2050801999867,129.2050801999867,129.2050801999867,129.2050801999867,5,1,[0.0017752998974174261],[0.2998476999346167],129.2050801999867,129.40713589987718,1000,129.40713589987718,1000,1000,1000,1000,0,num_3,0.6023230999708176,,35,7,2026-03-13_13h54.58.302,2026A_exp2,2022.2.4,60.02973877733776,
1000,1,3.7,0.0,0,0,12,12,55,,,,,130.03910119994543,130.6896931999363,130.6896931999363,131.1908487000037,45,45,131.1908487000037,131.1908487000037,131.1908487000037,131.1908487000037,131.1908487000037,131.1908487000037,131.1908487000037,131.1908487000037,131.1908487000037,131.54067220003344,131.54067220003344,131.54067220003344,131.54067220003344,131.54067220003344,131.54067220003344,131.54067220003344,131.54067220003344,131.54067220003344,8,2,"[0.017329900059849024, 0.23373680002987385]","[0.200316300150007, 0.2836448000743985]",131.54067220003344,131.74284949991852,1000,131.74284949991852,1000,1000,1000,1000,0,num_3,0.4824867998249829,,35,7,2026-03-13_13h54.58.302,2026A_exp2,2022.2.4,60.02973877733776,
1,0,6.1,3.7,1,0,13,13,16,,,,,132.24136199988425,132.89206589991227,132.89206589991227,133.3931022998877,315,315,133.3931022998877,133.3931022998877,133.3931022998877,133.3931022998877,133.3931022998877,133.3931022998877,133.3931022998877,133.3931022998877,133.3931022998877,133.75949799991213,133.75949799991213,133.75949799991213,133.75949799991213,133.75949799991213,133.75949799991213,133.75949799991213,133.75949799991213,133.75949799991213,0,1,[0.0012283001560717821],[0.3671810000669211],133.75949799991213,133.9597578998655,3.7,133.9597578998655,0,3.7,1,0,1000,num_1,0.6735916000325233,,35,7,2026-03-13_13h54.58.302,2026A_exp2,2022.2.4,60.02973877733776,
1,0,0.0,6.1,1,0,14,14,5,,,,,134.6625697000418,135.31095599988475,135.31095599988475,135.8121348998975,315,45,135.8121348998975,135.8121348998975,135.8121348998975,135.8121348998975,135.8121348998975,135.8121348998975,135.8121348998975,135.8121348998975,135.8121348998975,136.17844669986516,136.17844669986516,136.17844669986516,136.17844669986516,136.17844669986516,136.17844669986516,136.17844669986516,136.17844669986516,136.17844669986516,8,2,"[0.1171872999984771, 0.2837760001420975]","[0.2671429000329226, 0.3673515999689698]",136.17844669986516,136.37877369998023,6.1,136.37877369998023,1,6.1,1,1,1000,num_4,0.6950974999926984,,35,7,2026-03-13_13h54.58.302,2026A_exp2,2022.2.4,60.02973877733776,
1000,1,4.9,0.0,0,0,15,15,45,,,,,137.09599609998986,137.74688760004938,137.74688760004938,138.23123029991984,45,45,138.23123029991984,138.23123029991984,138.23123029991984,138.23123029991984,138.23123029991984,138.23123029991984,138.23123029991984,138.23123029991984,138.23123029991984,138.59767109993845,138.59767109993845,138.59767109993845,138.59767109993845,138.59767109993845,138.59767109993845,138.59767109993845,138.59767109993845,138.59767109993845,0,1,[0.0008035001810640097],[0.3676218001637608],138.59767109993845,138.79994689999148,1000,138.79994689999148,1000,1000,1000,1000,0,num_3,0.4982992000877857,,35,7,2026-03-13_13h54.58.302,2026A_exp2,2022.2.4,60.02973877733776,
1000,1,0.0,0.0,0,0,16,16,79,,,,,139.3151390000712,139.96591829997487,139.96591829997487,140.46678150002845,45,315,140.46678150002845,140.46678150002845,140.46678150002845,140.46678150002845,140.46678150002845,140.46678150002845,140.46678150002845,140.46678150002845,140.46678150002845,140.83334719995037,140.83334719995037,140.83334719995037,140.83334719995037,140.83334719995037,140.83334719995037,140.83334719995037,140.83334719995037,140.83334719995037,7,3,"[0.0667206000071019, 0.11676979996263981, 0.21648410009220243]","[0.09987969999201596, 0.1829407000914216, 0.36686559999361634]",140.83334719995037,141.03542439988814,1000,141.03542439988814,1000,1000,1000,1000,1,num_2,0.5985361998900771,,35,7,2026-03-13_13h54.58.302,2026A_exp2,2022.2.4,60.02973877733776,
1,0,4.9,4.9,1,0,17,17,18,,,,,141.65070870006457,142.3014471998904,142.3014471998904,142.80261929985136,315,45,142.80261929985136,142.80261929985136,142.80261929985136,142.80261929985136,142.80261929985136,142.80261929985136,142.80261929985136,142.80261929985136,142.80261929985136,143.1690426999703,143.1690426999703,143.1690426999703,143.1690426999703,143.1690426999703,143.1690426999703,143.1690426999703,143.1690426999703,143.1690426999703,5,3,"[0.000750300008803606, 0.2840489000082016, 0.3512909000273794]","[0.25088250008411705, 0.30074700014665723, 0.3688568000216037]",143.1690426999703,143.36904549994506,4.9,143.36904549994506,1,4.9,1,1,1000,num_4,0.9047480998560786,,35,7,2026-03-13_13h54.58.302,2026A_exp2,2022.2.4,60.02973877733776,
1000,1,0.0,3.7,1,0,18,18,67,,,,,144.3029720999766,144.9374329999555,144.9374329999555,145.43840079987422,45,315,145.43840079987422,145.43840079987422,145.43840079987422,145.43840079987422,145.43840079987422,145.43840079987422,145.43840079987422,145.43840079987422,145.43840079987422,145.80454150005244,145.80454150005244,145.80454150005244,145.80454150005244,145.80454150005244,145.80454150005244,145.80454150005244,145.80454150005244,145.80454150005244,22,1,[0.3171659999061376],[0.33382149995304644],145.80454150005244,146.00721549987793,1000,146.00721549987793,1000,1000,1000,1000,1,num_2,0.6184149000328034,,35,7,2026-03-13_13h54.58.302,2026A_exp2,2022.2.4,60.02973877733776,
1000,1,0.0,0.0,1,0,19,19,63,,,,,146.65570889995433,147.3063334999606,147.3063334999606,147.8075812999159,45,45,147.8075812999159,147.8075812999159,147.8075812999159,147.8075812999159,147.8075812999159,147.8075812999159,147.8075812999159,147.8075812999159,147.8075812999159,148.15714689996094,148.15714689996094,148.15714689996094,148.15714689996094,148.15714689996094,148.15714689996094,148.15714689996094,148.15714689996094,148.15714689996094,22,0,,,148.15714689996094,148.35902770003304,1000,148.37420249986462,1000,1000,1000,1000,0,num_3,0.41915349988266826,,35,7,2026-03-13_13h54.58.302,2026A_exp2,2022.2.4,60.02973877733776,
1,0,0.0,0.0,1,0,20,20,58,,,,,148.80841890000738,149.4641122999601,149.4641122999601,149.9608463998884,315,315,149.9608463998884,149.9608463998884,149.9608463998884,149.9608463998884,149.9608463998884,149.9608463998884,149.9608463998884,149.9608463998884,149.9608463998884,150.3262318999041,150.3262318999041,150.3262318999041,150.3262318999041,150.3262318999041,150.3262318999041,150.3262318999041,150.3262318999041,150.3262318999041,23,0,,,150.3262318999041,150.52607250004075,0.0,150.52607250004075,0,0.0,0,1,1000,num_1,0.644086099928245,,35,7,2026-03-13_13h54.58.302,2026A_exp2,2022.2.4,60.02973877733776,
1,0,0.0,0.0,0,0,21,21,39,,,,,151.19360150001012,151.84434080007486,151.84434080007486,152.34542610007338,45,45,152.34542610007338,152.34542610007338,152.34542610007338,152.34542610007338,152.34542610007338,152.34542610007338,152.34542610007338,152.34542610007338,152.34542610007338,152.7118297999259,152.7118297999259,152.7118297999259,152.7118297999259,152.7118297999259,152.7118297999259,152.7118297999259,152.7118297999259,152.7118297999259,5,1,[0.0014484000857919455],[0.3002573000267148],152.7118297999259,152.91190809989348,0.0,152.91190809989348,0,0.0,0,1,1000,num_1,0.6013990000355989,,35,7,2026-03-13_13h54.58.302,2026A_exp2,2022.2.4,60.02973877733776,
1,0,0.0,0.0,0,0,22,22,61,,,,,153.52916729985736,154.1799570999574,154.1799570999574,154.6808048998937,315,45,154.6808048998937,154.6808048998937,154.6808048998937,154.6808048998937,154.6808048998937,154.6808048998937,154.6808048998937,154.6808048998937,154.6808048998937,155.0308844000101,155.0308844000101,155.0308844000101,155.0308844000101,155.0308844000101,155.0308844000101,155.0308844000101,155.0308844000101,155.0308844000101,14,2,"[0.017311499919742346, 0.167325499933213]","[0.1008297000080347, 0.2174193998798728]",155.0308844000101,155.23091849987395,0.0,155.23091849987395,0,0.0,0,1,1000,num_1,0.8024871998932213,,35,7,2026-03-13_13h54.58.302,2026A_exp2,2022.2.4,60.02973877733776,
0,0,0.0,0.0,1,0,23,23,14,,,,,156.0650446000509,156.71579340007156,156.71579340007156,157.20015499996953,315,45,157.20015499996953,157.20015499996953,157.20015499996953,157.20015499996953,157.20015499996953,157.20015499996953,157.20015499996953,157.20015499996953,157.20015499996953,157.56669560004957,157.56669560004957,157.56669560004957,157.56669560004957,157.56669560004957,157.56669560004957,157.56669560004957,157.56669560004957,157.56669560004957,4,3,"[0.0012111999094486237, 0.11694149998947978, 0.3336616999004036]","[0.08364769979380071, 0.3172263999003917, 0.3672048000153154]",157.56669560004957,157.76683550002053,0.0,157.76683550002053,0,0.0,0,1,1000,num_1,0.6512788000982255,,35,7,2026-03-13_13h54.58.302,2026A_exp2,2022.2.4,60.02973877733776,
1,0,3.7,0.0,0,0,24,24,7,,,,,158.43414109991863,159.0847581999842,159.0847581999842,159.56935480004176,45,315,159.56935480004176,159.56935480004176,159.56935480004176,159.56935480004176,159.56935480004176,159.56935480004176,159.56935480004176,159.56935480004176,159.56935480004176,159.9357735000085,159.9357735000085,159.9357735000085,159.9357735000085,159.9357735000085,159.9357735000085,159.9357735000085,159.9357735000085,159.9357735000085,10,5,"[0.0012252000160515308, 0.08346270001493394, 0.23350790003314614, 0.26687159994617105, 0.3670659998897463]","[0.0501375999301672, 0.16684120008721948, 0.2502919998951256, 0.3170141999144107, 0.36707130004651845]",159.9357735000085,160.13593459990807,3.7,160.13593459990807,0,3.7,1,0,1000,num_1,0.7138599001336843,,35,7,2026-03-13_13h54.58.302,2026A_exp2,2022.2.4,60.02973877733776,
1,0,6.1,3.7,1,0,25,25,83,,,,,160.86989700002596,161.52071089996025,161.52071089996025,162.0050850000698,315,315,162.0050850000698,162.0050850000698,162.0050850000698,162.0050850000698,162.0050850000698,162.0050850000698,162.0050850000698,162.0050850000698,162.0050850000698,162.37134659988806,162.37134659988806,162.37134659988806,162.37134659988806,162.37134659988806,162.37134659988806,162.37134659988806,162.37134659988806,162.37134659988806,23,0,,,162.37134659988806,162.57155300001614,3.7,162.57155300001614,1,3.7,1,1,1000,num_4,1.6382408000063151,,35,7,2026-03-13_13h54.58.302,2026A_exp2,2022.2.4,60.02973877733776,
1000,1,0.0,4.9,1,0,26,26,72,,,,,164.2399228999857,164.89063369994983,164.89063369994983,165.3751912000589,45,315,165.3751912000589,165.3751912000589,165.3751912000589,165.3751912000589,165.3751912000589,165.3751912000589,165.3751912000589,165.3751912000589,165.3751912000589,165.74158350005746,165.74158350005746,165.74158350005746,165.74158350005746,165.74158350005746,165.74158350005746,165.74158350005746,165.74158350005746,165.74158350005746,23,0,,,165.74158350005746,165.94351759995334,1000,165.94351759995334,1000,1000,1000,1000,1,num_2,0.5057832000311464,,35,7,2026-03-13_13h54.58.302,2026A_exp2,2022.2.4,60.02973877733776,
0,0,4.9,6.1,1,0,27,27,70,,,,,166.47553769988008,167.12623709999025,167.12623709999025,167.6274073999375,45,315,167.6274073999375,167.6274073999375,167.6274073999375,167.6274073999375,167.6274073999375,167.6274073999375,167.6274073999375,167.6274073999375,167.6274073999375,167.9937871999573,167.9937871999573,167.9937871999573,167.9937871999573,167.9937871999573,167.9937871999573,167.9937871999573,167.9937871999573,167.9937871999573,22,1,[0.11701639997772872],[0.13363540009595454],167.9937871999573,168.19403559993953,4.9,168.19403559993953,0,4.9,1,0,1000,num_1,0.663424100028351,,35,7,2026-03-13_13h54.58.302,2026A_exp2,2022.2.4,60.02973877733776,
0,0,6.1,4.9,1,0,28,28,42,,,,,168.87787869991735,169.52880460000597,169.52880460000597,170.01313479989767,315,315,170.01313479989767,170.01313479989767,170.01313479989767,170.01313479989767,170.01313479989767,170.01313479989767,170.01313479989767,170.01313479989767,170.01313479989767,170.379533899948,170.379533899948,170.379533899948,170.379533899948,170.379533899948,170.379533899948,170.379533899948,170.379533899948,170.379533899948,22,1,[0.36709650000557303],[0.3671008001547307],170.379533899948,170.57963269995525,6.1,170.57963269995525,0,6.1,1,0,1000,num_1,0.438431000104174,,35,7,2026-03-13_13h54.58.302,2026A_exp2,2022.2.4,60.02973877733776,
1000,1,4.9,0.0,0,0,29,29,37,,,,,171.04664590000175,171.6975487000309,171.6975487000309,172.1818228000775,315,45,172.1818228000775,172.1818228000775,172.1818228000775,172.1818228000775,172.1818228000775,172.1818228000775,172.1818228000775,172.1818228000775,172.1818228000775,172.5483307999093,172.5483307999093,172.5483307999093,172.5483307999093,172.5483307999093,172.5483307999093,172.5483307999093,172.5483307999093,172.5483307999093,3,2,"[0.0012153000570833683, 0.26715600001625717]","[0.233952600043267, 0.3506434001028538]",172.5483307999093,172.7519551999867,1000,172.7519551999867,1000,1000,1000,1000,0,num_3,0.47431620000861585,,35,7,2026-03-13_13h54.58.302,2026A_exp2,2022.2.4,60.02973877733776,
0,0,6.1,6.1,1,0,30,30,48,,,,,173.2489998000674,173.89975419989787,173.89975419989787,174.4008464999497,315,315,174.4008464999497,174.4008464999497,174.4008464999497,174.4008464999497,174.4008464999497,174.4008464999497,174.4008464999497,174.4008464999497,174.4008464999497,174.76735159987584,174.76735159987584,174.76735159987584,174.76735159987584,174.76735159987584,174.76735159987584,174.76735159987584,174.76735159987584,174.76735159987584,3,2,"[0.017401000019162893, 0.3337345998734236]","[0.30049039982259274, 0.3672364999074489]",174.76735159987584,174.96741300006397,6.1,174.96741300006397,0,6.1,1,0,1000,num_1,1.0259857000783086,,35,7,2026-03-13_13h54.58.302,2026A_exp2,2022.2.4,60.02973877733776,
0,0,4.9,0.0,1,0,31,31,26,,,,,176.01843159995042,176.66899919998832,176.66899919998832,177.15361499995925,45,45,177.15361499995925,177.15361499995925,177.15361499995925,177.15361499995925,177.15361499995925,177.15361499995925,177.15361499995925,177.15361499995925,177.15361499995925,177.5200314000249,177.5200314000249,177.5200314000249,177.5200314000249,177.5200314000249,177.5200314000249,177.5200314000249,177.5200314000249,177.5200314000249,4,3,"[0.0011968000326305628, 0.11686669988557696, 0.35015959991142154]","[0.08356030005961657, 0.3168358998373151, 0.36701499996706843]",177.5200314000249,177.72625979990698,4.9,177.72625979990698,1,4.9,1,1,1000,num_4,0.8030841001309454,,35,7,2026-03-13_13h54.58.302,2026A_exp2,2022.2.4,60.02973877733776,
1,0,0.0,3.7,0,0,32,32,64,,,,,178.5542385999579,179.20507259992883,179.20507259992883,179.6895019998774,315,315,179.6895019998774,179.6895019998774,179.6895019998774,179.6895019998774,179.6895019998774,179.6895019998774,179.6895019998774,179.6895019998774,179.6895019998774,180.0556896000635,180.0556896000635,180.0556896000635,180.0556896000635,180.0556896000635,180.0556896000635,180.0556896000635,180.0556896000635,180.0556896000635,18,4,"[0.11708650016225874, 0.20049870014190674, 0.23392220004461706, 0.3172995999921113]","[0.15041220001876354, 0.21704740007407963, 0.2506041000597179, 0.3339370000176132]",180.0556896000635,180.25589350005612,0.0,180.25589350005612,0,0.0,0,1,1000,num_1,0.7296304998453707,,35,7,2026-03-13_13h54.58.302,2026A_exp2,2022.2.4,60.02973877733776,
1000,1,0.0,4.9,0,0,33,33,23,,,,,181.00666980003007,181.6573805999942,181.6573805999942,182.14174730004743,315,315,182.14174730004743,182.14174730004743,182.14174730004743,182.14174730004743,182.14174730004743,182.14174730004743,182.14174730004743,182.14174730004743,182.14174730004743,182.50832829996943,182.50832829996943,182.50832829996943,182.50832829996943,182.50832829996943,182.50832829996943,182.50832829996943,182.50832829996943,182.50832829996943,11,7,"[0.017151999985799193, 0.05020059994421899, 0.10013239993713796, 0.150112499948591, 0.20039809984155, 0.2502933000214398, 0.31717509985901415]","[0.03339979983866215, 0.08351759985089302, 0.13348959991708398, 0.16695380001328886, 0.23363170004449785, 0.28328830003738403, 0.3504017998930067]",182.50832829996943,182.7096333000809,1000,182.7096333000809,1000,1000,1000,1000,1,num_2,0.5481537999585271,,35,7,2026-03-13_13h54.58.302,2026A_exp2,2022.2.4,60.02973877733776,
1000,1,4.9,0.0,1,0,34,34,84,,,,,183.275622199988,183.9260897000786,183.9260897000786,184.42754539987072,315,315,184.42754539987072,184.42754539987072,184.42754539987072,184.42754539987072,184.42754539987072,184.42754539987072,184.42754539987072,184.42754539987072,184.42754539987072,184.79388040001504,184.79388040001504,184.79388040001504,184.79388040001504,184.79388040001504,184.79388040001504,184.79388040001504,184.79388040001504,184.79388040001504,3,4,"[0.0013887998647987843, 0.06698210001923144, 0.16695959982462227, 0.2838159999810159]","[0.05027759983204305, 0.1500270999968052, 0.26705929986201227, 0.3672594998497516]",184.79388040001504,184.99434159998782,1000,184.99434159998782,1000,1000,1000,1000,1,num_2,0.5435151001438498,,35,7,2026-03-13_13h54.58.302,2026A_exp2,2022.2.4,60.02973877733776,
1,0,0.0,0.0,0,0,35,35,11,,,,,185.56121600000188,186.21197539987043,186.21197539987043,186.71303520002402,45,45,186.71303520002402,186.71303520002402,186.71303520002402,186.71303520002402,186.71303520002402,186.71303520002402,186.71303520002402,186.71303520002402,186.71303520002402,187.07948839990422,187.07948839990422,187.07948839990422,187.07948839990422,187.07948839990422,187.07948839990422,187.07948839990422,187.07948839990422,187.07948839990422,3,4,"[0.0012229999992996454, 0.15022030007094145, 0.2503303000703454, 0.30027040001004934]","[0.1334194999653846, 0.23370509990490973, 0.28364169993437827, 0.3661644000094384]",187.07948839990422,187.279664499918,0.0,187.279664499918,0,0.0,0,1,1000,num_1,0.962899399921298,,35,7,2026-03-13_13h54.58.302,2026A_exp2,2022.2.4,60.02973877733776,
1,0,4.9,3.7,1,0,36,36,71,,,,,188.26383730000816,188.91476499987766,188.91476499987766,189.4157088000793,315,45,189.4157088000793,189.4157088000793,189.4157088000793,189.4157088000793,189.4157088000793,189.4157088000793,189.4157088000793,189.4157088000793,189.4157088000793,189.78227930003777,189.78227930003777,189.78227930003777,189.78227930003777,189.78227930003777,189.78227930003777,189.78227930003777,189.78227930003777,189.78227930003777,6,2,"[0.0016679000109434128, 0.33341720001772046]","[0.266671400051564, 0.3500631998758763]",189.78227930003777,189.98231099988334,3.7,189.98231099988334,1,3.7,1,1,1000,num_4,0.763804400106892,,35,7,2026-03-13_13h54.58.302,2026A_exp2,2022.2.4,60.02973877733776,
1,0,6.1,6.1,1,0,37,37,49,,,,,190.7663000000175,191.41716289985925,191.41716289985925,191.90162659995258,315,45,191.90162659995258,191.90162659995258,191.90162659995258,191.90162659995258,191.90162659995258,191.90162659995258,191.90162659995258,191.90162659995258,191.90162659995258,192.26802899991162,192.26802899991162,192.26802899991162,192.26802899991162,192.26802899991162,192.26802899991162,192.26802899991162,192.26802899991162,192.26802899991162,23,0,,,192.26802899991162,192.4683014000766,6.1,192.4683014000766,1,6.1,1,1,1000,num_4,0.5654890001751482,,35,7,2026-03-13_13h54.58.302,2026A_exp2,2022.2.4,60.02973877733776,
1,0,3.7,0.0,0,0,38,38,10,,,,,193.05203479994088,193.70275799999945,193.70275799999945,194.18709079991095,315,315,194.18709079991095,194.18709079991095,194.18709079991095,194.18709079991095,194.18709079991095,194.18709079991095,194.18709079991095,194.18709079991095,194.18709079991095,194.5536944998894,194.5536944998894,194.5536944998894,194.5536944998894,194.5536944998894,194.5536944998894,194.5536944998894,194.5536944998894,194.5536944998894,12,4,"[0.03348669991828501, 0.15022940002381802, 0.2169977999292314, 0.25044080009683967]","[0.0500477000605315, 0.1669058999978006, 0.23361789993941784, 0.367288599954918]",194.5536944998894,194.7539484000299,3.7,194.7539484000299,1,3.7,1,1,1000,num_4,0.6157134000677615,,35,7,2026-03-13_13h54.58.302,2026A_exp2,2022.2.4,60.02973877733776,
1000,1,4.9,0.0,0,0,39,39,12,,,,,195.3877018999774,196.03839050000533,196.03839050000533,196.52302409987897,45,45,196.52302409987897,196.52302409987897,196.52302409987897,196.52302409987897,196.52302409987897,196.52302409987897,196.52302409987897,196.52302409987897,196.52302409987897,196.8893178999424,196.8893178999424,196.8893178999424,196.8893178999424,196.8893178999424,196.8893178999424,196.8893178999424,196.8893178999424,196.8893178999424,4,5,"[0.0012026000767946243, 0.033655199920758605, 0.10037330002523959, 0.2672723999712616, 0.3506660000421107]","[0.017557299928739667, 0.08370440010912716, 0.25042929989285767, 0.3338458000216633, 0.36720629991032183]",196.8893178999424,197.09118329989724,1000,197.09118329989724,1000,1000,1000,1000,0,num_3,0.6313269000966102,,35,7,2026-03-13_13h54.58.302,2026A_exp2,2022.2.4,60.02973877733776,
1000,1,4.9,3.7,0,0,40,40,40,,,,,197.74327649991028,198.39084540004842,198.39084540004842,198.89199350005947,315,315,198.89199350005947,198.89199350005947,198.89199350005947,198.89199350005947,198.89199350005947,198.89199350005947,198.89199350005947,198.89199350005947,198.89199350005947,199.25836499989964,199.25836499989964,199.25836499989964,199.25836499989964,199.25836499989964,199.25836499989964,199.25836499989964,199.25836499989964,199.25836499989964,2,3,"[0.0012051998637616634, 0.050326399970799685, 0.2503364998847246]","[0.033555599860846996, 0.23365619988180697, 0.3669663998298347]",199.25836499989964,199.4604308998678,1000,199.4604308998678,1000,1000,1000,1000,0,num_3,0.6376640999224037,,35,7,2026-03-13_13h54.58.302,2026A_exp2,2022.2.4,60.02973877733776,
1000,1,3.7,0.0,1,0,41,41,52,,,,,200.12587870005518,200.7766267999541,200.7766267999541,201.27757179993205,45,315,201.27757179993205,201.27757179993205,201.27757179993205,201.27757179993205,201.27757179993205,201.27757179993205,201.27757179993205,201.27757179993205,201.27757179993205,201.64395210007206,201.64395210007206,201.64395210007206,201.64395210007206,201.64395210007206,201.64395210007206,201.64395210007206,201.64395210007206,201.64395210007206,0,1,[0.0014031999744474888],[0.36771570006385446],201.64395210007206,201.84611169993877,1000,201.84611169993877,1000,1000,1000,1000,0,num_3,0.47542349994182587,,35,7,2026-03-13_13h54.58.302,2026A_exp2,2022.2.4,60.02973877733776,
1,0,3.7,0.0,0,0,42,42,9,,,,,202.34463010006584,202.99533069995232,202.99533069995232,203.49664320005104,315,315,203.49664320005104,203.49664320005104,203.49664320005104,203.49664320005104,203.49664320005104,203.49664320005104,203.49664320005104,203.49664320005104,203.49664320005104,203.86301800003275,203.86301800003275,203.86301800003275,203.86301800003275,203.86301800003275,203.86301800003275,203.86301800003275,203.86301800003275,203.86301800003275,18,4,"[0.0012159999459981918, 0.08357160002924502, 0.133729699999094, 0.2670859000645578]","[0.03322040010243654, 0.10015650000423193, 0.15023849997669458, 0.283694599987939]",203.86301800003275,204.0630334999878,3.7,204.0630334999878,0,3.7,1,0,1000,num_1,0.5472729001194239,,35,7,2026-03-13_13h54.58.302,2026A_exp2,2022.2.4,60.02973877733776,
1000,1,6.1,6.1,0,0,43,43,87,,,,,204.63025819999166,205.28071630001068,205.28071630001068,205.76556560001336,45,315,205.76556560001336,205.76556560001336,205.76556560001336,205.76556560001336,205.76556560001336,205.76556560001336,205.76556560001336,205.76556560001336,205.76556560001336,206.13177399989218,206.13177399989218,206.13177399989218,206.13177399989218,206.13177399989218,206.13177399989218,206.13177399989218,206.13177399989218,206.13177399989218,0,1,[0.0011891999747604132],[0.36704049981199205],206.13177399989218,206.3336686999537,1000,206.3336686999537,1000,1000,1000,1000,0,num_3,0.499771700007841,,35,7,2026-03-13_13h54.58.302,2026A_exp2,2022.2.4,60.02973877733776,
1000,1,0.0,0.0,0,0,44,44,13,,,,,206.84931199997663,207.49998759990558,207.49998759990558,208.00100920000114,45,315,208.00100920000114,208.00100920000114,208.00100920000114,208.00100920000114,208.00100920000114,208.00100920000114,208.00100920000114,208.00100920000114,208.00100920000114,208.36743079987355,208.36743079987355,208.36743079987355,208.36743079987355,208.36743079987355,208.36743079987355,208.36743079987355,208.36743079987355,208.36743079987355,23,0,,,208.36743079987355,208.5697905998677,1000,208.5697905998677,1000,1000,1000,1000,1,num_2,0.5927665000781417,,35,7,2026-03-13_13h54.58.302,2026A_exp2,2022.2.4,60.02973877733776,
1,0,0.0,0.0,1,0,45,45,66,,,,,209.1849287999794,209.83569550001994,209.83569550001994,210.33662329986691,315,45,210.33662329986691,210.33662329986691,210.33662329986691,210.33662329986691,210.33662329986691,210.33662329986691,210.33662329986691,210.33662329986691,210.33662329986691,210.6863470999524,210.6863470999524,210.6863470999524,210.6863470999524,210.6863470999524,210.6863470999524,210.6863470999524,210.6863470999524,210.6863470999524,22,0,,,210.6863470999524,210.8867444000207,0.0,210.90340880001895,0,0.0,0,1,1000,num_1,0.8507058001123369,,35,7,2026-03-13_13h54.58.302,2026A_exp2,2022.2.4,60.02973877733776,
1,0,0.0,0.0,0,0,46,46,32,,,,,211.7708109000232,212.42143710004166,212.42143710004166,212.92256690002978,45,315,212.92256690002978,212.92256690002978,212.92256690002978,212.92256690002978,212.92256690002978,212.92256690002978,212.92256690002978,212.92256690002978,212.92256690002978,213.2724025999196,213.2724025999196,213.2724025999196,213.2724025999196,213.2724025999196,213.2724025999196,213.2724025999196,213.2724025999196,213.2724025999196,13,5,"[0.11708680004812777, 0.18367030005902052, 0.21710609993897378, 0.28390959999524057, 0.31739030010066926]","[0.13372060004621744, 0.20050160004757345, 0.2671831001061946, 0.3005576999858022, 0.35056799999438226]",213.2724025999196,213.47241669986397,0.0,213.47241669986397,0,0.0,0,1,1000,num_1,0.6413618999067694,,35,7,2026-03-13_13h54.58.302,2026A_exp2,2022.2.4,60.02973877733776,
0,0,0.0,4.9,1,0,47,47,33,,,,,214.13976639998145,214.7904926999472,214.7904926999472,215.27494159992784,45,45,215.27494159992784,215.27494159992784,215.27494159992784,215.27494159992784,215.27494159992784,215.27494159992784,215.27494159992784,215.27494159992784,215.27494159992784,215.64144649985246,215.64144649985246,215.64144649985246,215.64144649985246,215.64144649985246,215.64144649985246,215.64144649985246,215.64144649985246,215.64144649985246,22,1,[0.03354410012252629],[0.05025890003889799],215.64144649985246,215.8416358998511,0.0,215.8416358998511,0,0.0,0,1,1000,num_1,1.1999375000596046,,35,7,2026-03-13_13h54.58.302,2026A_exp2,2022.2.4,60.02973877733776,
1,0,0.0,0.0,1,0,48,48,59,,,,,217.05933790002018,217.7101185999345,217.7101185999345,218.19519150000997,315,45,218.19519150000997,218.19519150000997,218.19519150000997,218.19519150000997,218.19519150000997,218.19519150000997,218.19519150000997,218.19519150000997,218.19519150000997,218.56101710000075,218.56101710000075,218.56101710000075,218.56101710000075,218.56101710000075,218.56101710000075,218.56101710000075,218.56101710000075,218.56101710000075,15,1,[0.0018494999967515469],[0.13279619999229908],218.56101710000075,218.76114029996097,0.0,218.76114029996097,0,0.0,0,1,1000,num_1,0.6492206000257283,,35,7,2026-03-13_13h54.58.302,2026A_exp2,2022.2.4,60.02973877733776,
1000,1,0.0,6.1,0,0,49,49,27,,,,,219.4283702999819,220.07927810004912,220.07927810004912,220.56368410005234,315,315,220.56368410005234,220.56368410005234,220.56368410005234,220.56368410005234,220.56368410005234,220.56368410005234,220.56368410005234,220.56368410005234,220.56368410005234,220.93006949988194,220.93006949988194,220.93006949988194,220.93006949988194,220.93006949988194,220.93006949988194,220.93006949988194,220.93006949988194,220.93006949988194,19,2,"[0.26720989984460175, 0.31742179999127984]","[0.3005957999266684, 0.35072119999676943]",220.93006949988194,221.1535000000149,1000,221.1535000000149,1000,1000,1000,1000,0,num_3,0.7362501001916826,,35,7,2026-03-13_13h54.58.302,2026A_exp2,2022.2.4,60.02973877733776,
1000,1,3.7,3.7,1,0,50,50,54,,,,,221.9142956000287,222.56498329993337,222.56498329993337,223.0660270000808,45,45,223.0660270000808,223.0660270000808,223.0660270000808,223.0660270000808,223.0660270000808,223.0660270000808,223.0660270000808,223.0660270000808,223.0660270000808,223.43256710004061,223.43256710004061,223.43256710004061,223.43256710004061,223.43256710004061,223.43256710004061,223.43256710004061,223.43256710004061,223.43256710004061,17,2,"[0.03387290006503463, 0.08371559996157885]","[0.050468599889427423, 0.16731319995597005]",223.43256710004061,223.6348025999032,1000,223.6348025999032,1000,1000,1000,1000,1,num_2,0.4876949000172317,,35,7,2026-03-13_13h54.58.302,2026A_exp2,2022.2.4,60.02973877733776,
1000,1,6.1,6.1,1,0,51,51,53,,,,,224.14987309998833,224.80046109994873,224.80046109994873,225.3014497999102,45,315,225.3014497999102,225.3014497999102,225.3014497999102,225.3014497999102,225.3014497999102,225.3014497999102,225.3014497999102,225.3014497999102,225.3014497999102,225.6680870000273,225.6680870000273,225.6680870000273,225.6680870000273,225.6680870000273,225.6680870000273,225.6680870000273,225.6680870000273,225.6680870000273,6,3,"[0.0010679000988602638, 0.1500828000716865, 0.300759700126946]","[0.11715189996175468, 0.2505036999937147, 0.36763809993863106]",225.6680870000273,225.87034130003303,1000,225.87034130003303,1000,1000,1000,1000,1,num_2,0.5084208999760449,,35,7,2026-03-13_13h54.58.302,2026A_exp2,2022.2.4,60.02973877733776,
0,0,0.0,4.9,0,0,52,52,65,,,,,226.4019426999148,227.052870699903,227.052870699903,227.5539987999946,315,315,227.5539987999946,227.5539987999946,227.5539987999946,227.5539987999946,227.5539987999946,227.5539987999946,227.5539987999946,227.5539987999946,227.5539987999946,227.9035759998951,227.9035759998951,227.9035759998951,227.9035759998951,227.9035759998951,227.9035759998951,227.9035759998951,227.9035759998951,227.9035759998951,12,3,"[0.017587200039997697, 0.13402289990335703, 0.2842702998314053]","[0.08405689988285303, 0.15105540002696216, 0.35110830003395677]",227.9035759998951,228.1039525999222,4.9,228.1206556998659,1,4.9,1,1,1000,num_4,0.8727282001636922,,35,7,2026-03-13_13h54.58.302,2026A_exp2,2022.2.4,60.02973877733776,
1000,1,0.0,4.9,1,0,53,53,57,,,,,229.0213117999956,229.67205719999038,229.67205719999038,230.1565058999695,315,315,230.1565058999695,230.1565058999695,230.1565058999695,230.1565058999695,230.1565058999695,230.1565058999695,230.1565058999695,230.1565058999695,230.1565058999695,230.5229710000567,230.5229710000567,230.5229710000567,230.5229710000567,230.5229710000567,230.5229710000567,230.5229710000567,230.5229710000567,230.5229710000567,5,5,"[0.0012009001802653074, 0.06692760018631816, 0.1337077000644058, 0.21704280003905296, 0.2501461000647396]","[0.050327000208199024, 0.11692350008524954, 0.18365860008634627, 0.23341950005851686, 0.36719250003807247]",230.5229710000567,230.72528430004604,1000,230.72528430004604,1000,1000,1000,1000,1,num_2,0.5724884001538157,,35,7,2026-03-13_13h54.58.302,2026A_exp2,2022.2.4,60.02973877733776,
1,0,0.0,0.0,0,0,54,54,22,,,,,231.32376189995557,231.97445759992115,231.97445759992115,232.45871899998747,315,315,232.45871899998747,232.45871899998747,232.45871899998747,232.45871899998747,232.45871899998747,232.45871899998747,232.45871899998747,232.45871899998747,232.45871899998747,232.82513529993594,232.82513529993594,232.82513529993594,232.82513529993594,232.82513529993594,232.82513529993594,232.82513529993594,232.82513529993594,232.82513529993594,7,5,"[0.0012366999872028828, 0.04996219999156892, 0.1334762000478804, 0.2667962999548763, 0.33352069999091327]","[0.033253900008276105, 0.10003309999592602, 0.25022699986584485, 0.283589799888432, 0.36711529991589487]",232.82513529993594,233.02535460004583,0.0,233.02535460004583,0,0.0,0,1,1000,num_1,0.9925032998435199,,35,7,2026-03-13_13h54.58.302,2026A_exp2,2022.2.4,60.02973877733776,
1000,1,0.0,0.0,0,0,55,55,2,,,,,234.04308349988423,234.6937321999576,234.6937321999576,235.17816530005075,315,315,235.17816530005075,235.17816530005075,235.17816530005075,235.17816530005075,235.17816530005075,235.17816530005075,235.17816530005075,235.17816530005075,235.17816530005075,235.54462209995836,235.54462209995836,235.54462209995836,235.54462209995836,235.54462209995836,235.54462209995836,235.54462209995836,235.54462209995836,235.54462209995836,4,4,"[0.001198700163513422, 0.1668803000357002, 0.2500249999575317, 0.3169810001272708]","[0.1502539999783039, 0.23342459998093545, 0.2834232000168413, 0.3677534000016749]",235.54462209995836,235.7467725998722,1000,235.7467725998722,1000,1000,1000,1000,1,num_2,0.47187449992634356,,35,7,2026-03-13_13h54.58.302,2026A_exp2,2022.2.4,60.02973877733776,
1,0,3.7,3.7,0,0,56,56,60,,,,,236.24561830004677,236.8960100999102,236.8960100999102,237.3971673999913,45,45,237.3971673999913,237.3971673999913,237.3971673999913,237.3971673999913,237.3971673999913,237.3971673999913,237.3971673999913,237.3971673999913,237.3971673999913,237.74692109995522,237.74692109995522,237.74692109995522,237.74692109995522,237.74692109995522,237.74692109995522,237.74692109995522,237.74692109995522,237.74692109995522,11,6,"[0.0012246998958289623, 0.08343570004217327, 0.15033399988897145, 0.20091310003772378, 0.2500078999437392, 0.31708720000460744]","[0.06678849994204938, 0.11690609995275736, 0.16680320003069937, 0.21700849989429116, 0.2834459999576211, 0.33388040005229414]",237.74692109995522,237.94719179999083,3.7,237.94719179999083,0,3.7,1,0,1000,num_1,0.8305707999970764,,35,7,2026-03-13_13h54.58.302,2026A_exp2,2022.2.4,60.02973877733776,
1000,1,3.7,4.9,0,0,57,57,25,,,,,238.7976430999115,239.44854309991933,239.44854309991933,239.9328898000531,45,45,239.9328898000531,239.9328898000531,239.9328898000531,239.9328898000531,239.9328898000531,239.9328898000531,239.9328898000531,239.9328898000531,239.9328898000531,240.29944949992932,240.29944949992932,240.29944949992932,240.29944949992932,240.29944949992932,240.29944949992932,240.29944949992932,240.29944949992932,240.29944949992932,16,2,"[0.03342190012335777, 0.1171173001639545]","[0.10031040012836456, 0.18341769999824464]",240.29944949992932,240.50132589996792,1000,240.50132589996792,1000,1000,1000,1000,1,num_2,0.5093236002139747,,35,7,2026-03-13_13h54.58.302,2026A_exp2,2022.2.4,60.02973877733776,
1,0,0.0,3.7,0,0,58,58,31,,,,,241.03338709985837,241.68408959987573,241.68408959987573,242.19958320003934,315,45,242.19958320003934,242.19958320003934,242.19958320003934,242.19958320003934,242.19958320003934,242.19958320003934,242.19958320003934,242.19958320003934,242.19958320003934,242.5516973999329,242.5516973999329,242.5516973999329,242.5516973999329,242.5516973999329,242.5516973999329,242.5516973999329,242.5516973999329,242.5516973999329,23,0,,,242.5516973999329,242.75560429994948,0.0,242.75560429994948,0,0.0,0,1,1000,num_1,0.7421403999906033,,35,7,2026-03-13_13h54.58.302,2026A_exp2,2022.2.4,60.02973877733776,
1000,1,0.0,3.7,1,0,59,59,82,,,,,243.51934359990992,244.1700061999727,244.1700061999727,244.6709779999219,45,45,244.6709779999219,244.6709779999219,244.6709779999219,244.6709779999219,244.6709779999219,244.6709779999219,244.6709779999219,244.6709779999219,244.6709779999219,245.02083609998226,245.02083609998226,245.02083609998226,245.02083609998226,245.02083609998226,245.02083609998226,245.02083609998226,245.02083609998226,245.02083609998226,17,3,"[0.14970950013957918, 0.26678760000504553, 0.3001164000015706]","[0.1833348001819104, 0.28346990002319217, 0.3169409001711756]",245.02083609998226,245.2227616000455,1000,245.2377003999427,1000,1000,1000,1000,1,num_2,0.46007349994033575,,35,7,2026-03-13_13h54.58.302,2026A_exp2,2022.2.4,60.02973877733776,
1000,1,3.7,0.0,1,0,60,60,38,,,,,245.721461399924,246.37218409986235,246.37218409986235,246.87328389985487,315,45,246.87328389985487,246.87328389985487,246.87328389985487,246.87328389985487,246.87328389985487,246.87328389985487,246.87328389985487,246.87328389985487,246.87328389985487,247.23971890006214,247.23971890006214,247.23971890006214,247.23971890006214,247.23971890006214,247.23971890006214,247.23971890006214,247.23971890006214,247.23971890006214,21,2,"[0.001197699923068285, 0.16708129993639886]","[0.01737449993379414, 0.18359029991552234]",247.23971890006214,247.44177219993435,1000,247.44177219993435,1000,1000,1000,1000,0,num_3,0.5518678000662476,,35,7,2026-03-13_13h54.58.302,2026A_exp2,2022.2.4,60.02973877733776,
1,0,0.0,0.0,0,0,61,61,85,,,,,248.0237541999668,248.67433479987085,248.67433479987085,249.17546890000813,315,315,249.17546890000813,249.17546890000813,249.17546890000813,249.17546890000813,249.17546890000813,249.17546890000813,249.17546890000813,249.17546890000813,249.17546890000813,249.54194239992648,249.54194239992648,249.54194239992648,249.54194239992648,249.54194239992648,249.54194239992648,249.54194239992648,249.54194239992648,249.54194239992648,23,0,,,249.54194239992648,249.74227400007658,0.0,249.74227400007658,0,0.0,0,1,1000,num_1,0.5791956000030041,,35,7,2026-03-13_13h54.58.302,2026A_exp2,2022.2.4,60.02973877733776,
1000,1,0.0,0.0,1,0,62,62,68,,,,,250.34262549993582,250.99340909998864,250.99340909998864,251.4779467000626,315,45,251.4779467000626,251.4779467000626,251.4779467000626,251.4779467000626,251.4779467000626,251.4779467000626,251.4779467000626,251.4779467000626,251.4779467000626,251.8442905000411,251.8442905000411,251.8442905000411,251.8442905000411,251.8442905000411,251.8442905000411,251.8442905000411,251.8442905000411,251.8442905000411,23,0,,,251.8442905000411,252.04641929990612,1000,252.06100149988197,1000,1000,1000,1000,1,num_2,0.6848305000457913,,35,7,2026-03-13_13h54.58.302,2026A_exp2,2022.2.4,60.02973877733776,
1,0,0.0,0.0,1,0,63,63,4,,,,,252.76176270004362,253.41262119985186,253.41262119985186,253.91369049996138,45,315,253.91369049996138,253.91369049996138,253.91369049996138,253.91369049996138,253.91369049996138,253.91369049996138,253.91369049996138,253.91369049996138,253.91369049996138,254.26338490005583,254.26338490005583,254.26338490005583,254.26338490005583,254.26338490005583,254.26338490005583,254.26338490005583,254.26338490005583,254.26338490005583,10,5,"[0.06694429996423423, 0.16685430007055402, 0.21663579996675253, 0.25003320001997054, 0.33373120008036494]","[0.116728900000453, 0.20023269997909665, 0.2336232999805361, 0.3171518000308424, 0.3504794999025762]",254.26338490005583,254.4636403999757,0.0,254.4636403999757,0,0.0,0,1,1000,num_1,0.9789328998886049,,35,7,2026-03-13_13h54.58.302,2026A_exp2,2022.2.4,60.02973877733776,
1000,1,3.7,6.1,1,0,64,64,43,,,,,255.46476699993946,256.098529699957,256.098529699957,256.5998485998716,45,315,256.5998485998716,256.5998485998716,256.5998485998716,256.5998485998716,256.5998485998716,256.5998485998716,256.5998485998716,256.5998485998716,256.5998485998716,256.96603969996795,256.96603969996795,256.96603969996795,256.96603969996795,256.96603969996795,256.96603969996795,256.96603969996795,256.96603969996795,256.96603969996795,23,0,,,256.96603969996795,257.16829409985803,1000,257.16829409985803,1000,1000,1000,1000,1,num_2,0.6262014000676572,,35,7,2026-03-13_13h54.58.302,2026A_exp2,2022.2.4,60.02973877733776,
1,0,3.7,6.1,1,0,65,65,75,,,,,257.8169817000162,258.45096729998477,258.45096729998477,258.95203769998625,45,45,258.95203769998625,258.95203769998625,258.95203769998625,258.95203769998625,258.95203769998625,258.95203769998625,258.95203769998625,258.95203769998625,258.95203769998625,259.31826039985754,259.31826039985754,259.31826039985754,259.31826039985754,259.31826039985754,259.31826039985754,259.31826039985754,259.31826039985754,259.31826039985754,11,4,"[0.0011973998043686152, 0.11724119982682168, 0.21708039985969663, 0.3506985998246819]","[0.03361019981093705, 0.15050069987773895, 0.3338544999714941, 0.3672360999044031]",259.31826039985754,259.51870350004174,6.1,259.51870350004174,0,6.1,1,0,1000,num_1,0.8349699999671429,,35,7,2026-03-13_13h54.58.302,2026A_exp2,2022.2.4,60.02973877733776,
1,0,0.0,4.9,1,0,66,66,73,,,,,260.3862777000759,261.0366352000274,261.0366352000274,261.5211409998592,45,315,261.5211409998592,261.5211409998592,261.5211409998592,261.5211409998592,261.5211409998592,261.5211409998592,261.5211409998592,261.5211409998592,261.5211409998592,261.8873922000639,261.8873922000639,261.8873922000639,261.8873922000639,261.8873922000639,261.8873922000639,261.8873922000639,261.8873922000639,261.8873922000639,1,2,"[0.0012196998577564955, 0.20038089994341135]","[0.18350999988615513, 0.36709779989905655]",261.8873922000639,262.0879361999687,4.9,262.0879361999687,1,4.9,1,1,1000,num_4,0.3858829999808222,,35,7,2026-03-13_13h54.58.302,2026A_exp2,2022.2.4,60.02973877733776,
1000,1,0.0,0.0,0,0,67,67,24,,,,,262.5050287998747,263.13887310004793,263.13887310004793,263.6399846000131,45,45,263.6399846000131,263.6399846000131,263.6399846000131,263.6399846000131,263.6399846000131,263.6399846000131,263.6399846000131,263.6399846000131,263.6399846000131,264.0063213999383,264.0063213999383,264.0063213999383,264.0063213999383,264.0063213999383,264.0063213999383,264.0063213999383,264.0063213999383,264.0063213999383,19,4,"[0.11698450008407235, 0.15032940008677542, 0.1837029999587685, 0.21708120009861887]","[0.13367600017227232, 0.16699200007133186, 0.20042090001516044, 0.2338042000774294]",264.0063213999383,264.20837019989267,1000,264.20837019989267,1000,1000,1000,1000,1,num_2,1.3694148000795394,,35,7,2026-03-13_13h54.58.302,2026A_exp2,2022.2.4,60.02973877733776,
1,0,6.1,6.1,0,0,68,68,89,,,,,265.6079935999587,266.25859969994053,266.25859969994053,266.75986119988374,315,45,266.75986119988374,266.75986119988374,266.75986119988374,266.75986119988374,266.75986119988374,266.75986119988374,266.75986119988374,266.75986119988374,266.75986119988374,267.10954379988834,267.10954379988834,267.10954379988834,267.10954379988834,267.10954379988834,267.10954379988834,267.10954379988834,267.10954379988834,267.10954379988834,17,4,"[0.21738140005618334, 0.2839015000499785, 0.31714579998515546, 0.3506721998564899]","[0.25057299993932247, 0.30054389988072217, 0.3339161998592317, 0.35067750001326203]",267.10954379988834,267.3097715000622,6.1,267.3097715000622,0,6.1,1,0,1000,num_1,0.7324693999253213,,35,7,2026-03-13_13h54.58.302,2026A_exp2,2022.2.4,60.02973877733776,
1000,1,4.9,0.0,1,0,69,69,56,,,,,268.0603024000302,268.71122399996966,268.71122399996966,269.1956469998695,315,45,269.1956469998695,269.1956469998695,269.1956469998695,269.1956469998695,269.1956469998695,269.1956469998695,269.1956469998695,269.1956469998695,269.1956469998695,269.56193139986135,269.56193139986135,269.56193139986135,269.56193139986135,269.56193139986135,269.56193139986135,269.56193139986135,269.56193139986135,269.56193139986135,3,3,"[0.0012331998441368341, 0.06698450003750622, 0.10026960005052388]","[0.0335705999750644, 0.08361139986664057, 0.36718289996497333]",269.56193139986135,269.76384219992906,1000,269.76384219992906,1000,1000,1000,1000,0,num_3,0.5018626998644322,,35,7,2026-03-13_13h54.58.302,2026A_exp2,2022.2.4,60.02973877733776,
1,0,3.7,0.0,0,0,70,70,3,,,,,270.29594550002366,270.94674909999594,270.94674909999594,271.44786030007526,45,315,271.44786030007526,271.44786030007526,271.44786030007526,271.44786030007526,271.44786030007526,271.44786030007526,271.44786030007526,271.44786030007526,271.44786030007526,271.81418409990147,271.81418409990147,271.81418409990147,271.81418409990147,271.81418409990147,271.81418409990147,271.81418409990147,271.81418409990147,271.81418409990147,22,1,[0.26738999993540347],[0.28396209981292486],271.81418409990147,272.01432599988766,3.7,272.01432599988766,0,3.7,1,0,1000,num_1,0.6837939999531955,,35,7,2026-03-13_13h54.58.302,2026A_exp2,2022.2.4,60.02973877733776,
1,0,4.9,4.9,0,0,71,71,28,,,,,272.7151254999917,273.3657611000817,273.3657611000817,273.8501140999142,315,45,273.8501140999142,273.8501140999142,273.8501140999142,273.8501140999142,273.8501140999142,273.8501140999142,273.8501140999142,273.8501140999142,273.8501140999142,274.2165641998872,274.2165641998872,274.2165641998872,274.2165641998872,274.2165641998872,274.2165641998872,274.2165641998872,274.2165641998872,274.2165641998872,22,1,[0.21698060003109276],[0.23368890001438558],274.2165641998872,274.41688889986835,4.9,274.41688889986835,1,4.9,1,1,1000,num_4,0.6092383000068367,,35,7,2026-03-13_13h54.58.302,2026A_exp2,2022.2.4,60.02973877733776,
1000,1,0.0,0.0,1,0,72,72,34,,,,,275.05070529994555,275.70137479994446,275.70137479994446,276.18589419987984,315,45,276.18589419987984,276.18589419987984,276.18589419987984,276.18589419987984,276.18589419987984,276.18589419987984,276.18589419987984,276.18589419987984,276.18589419987984,276.5523655000143,276.5523655000143,276.5523655000143,276.5523655000143,276.5523655000143,276.5523655000143,276.5523655000143,276.5523655000143,276.5523655000143,21,2,"[0.08362459996715188, 0.21703609987162054]","[0.11697499989531934, 0.2336757997982204]",276.5523655000143,276.75436459993944,1000,276.75436459993944,1000,1000,1000,1000,1,num_2,0.5359422999899834,,35,7,2026-03-13_13h54.58.302,2026A_exp2,2022.2.4,60.02973877733776,
0,0,0.0,6.1,1,0,73,73,46,,,,,277.3196866000071,277.9703933999408,277.9703933999408,278.4715867000632,315,315,278.4715867000632,278.4715867000632,278.4715867000632,278.4715867000632,278.4715867000632,278.4715867000632,278.4715867000632,278.4715867000632,278.4715867000632,278.83786919992417,278.83786919992417,278.83786919992417,278.83786919992417,278.83786919992417,278.83786919992417,278.83786919992417,278.83786919992417,278.83786919992417,14,2,"[0.033648300217464566, 0.1002804001327604]","[0.06693480000831187, 0.2167989001609385]",278.83786919992417,279.038181199925,0.0,279.038181199925,1,0.0,0,0,1000,num_4,0.7237209999002516,,35,7,2026-03-13_13h54.58.302,2026A_exp2,2022.2.4,60.02973877733776,
1,0,6.1,0.0,0,0,74,74,77,,,,,279.7888825999107,280.4395814000163,280.4395814000163,280.9407234999817,315,315,280.9407234999817,280.9407234999817,280.9407234999817,280.9407234999817,280.9407234999817,280.9407234999817,280.9407234999817,280.9407234999817,280.9407234999817,281.3070576998871,281.3070576998871,281.3070576998871,281.3070576998871,281.3070576998871,281.3070576998871,281.3070576998871,281.3070576998871,281.3070576998871,23,0,,,281.3070576998871,281.5073343999684,6.1,281.5073343999684,1,6.1,1,1,1000,num_4,0.6060430000070482,,35,7,2026-03-13_13h54.58.302,2026A_exp2,2022.2.4,60.02973877733776,
1000,1,6.1,0.0,0,0,75,75,69,,,,,282.1410926000681,282.7921911999583,282.7921911999583,283.27639700006694,45,315,283.27639700006694,283.27639700006694,283.27639700006694,283.27639700006694,283.27639700006694,283.27639700006694,283.27639700006694,283.27639700006694,283.27639700006694,283.64260199991986,283.64260199991986,283.64260199991986,283.64260199991986,283.64260199991986,283.64260199991986,283.64260199991986,283.64260199991986,283.64260199991986,22,1,[0.31745009985752404],[0.33401729981414974],283.64260199991986,283.84486259985715,1000,283.84486259985715,1000,1000,1000,1000,0,num_3,0.5813921999651939,,35,7,2026-03-13_13h54.58.302,2026A_exp2,2022.2.4,60.02973877733776,
0,0,0.0,4.9,1,0,76,76,0,,,,,284.44348239991814,285.0943171000108,285.0943171000108,285.5952870999463,315,315,285.5952870999463,285.5952870999463,285.5952870999463,285.5952870999463,285.5952870999463,285.5952870999463,285.5952870999463,285.5952870999463,285.5952870999463,285.9615567999426,285.9615567999426,285.9615567999426,285.9615567999426,285.9615567999426,285.9615567999426,285.9615567999426,285.9615567999426,285.9615567999426,22,1,[0.2170270998030901],[0.23320519994013011],285.9615567999426,286.1618739999831,0.0,286.1618739999831,0,0.0,0,1,1000,num_1,0.887339600129053,,35,7,2026-03-13_13h54.58.302,2026A_exp2,2022.2.4,60.02973877733776,
1000,1,6.1,4.9,1,0,77,77,15,,,,,287.07947100000456,287.7301052999683,287.7301052999683,288.21466579986736,315,45,288.21466579986736,288.21466579986736,288.21466579986736,288.21466579986736,288.21466579986736,288.21466579986736,288.21466579986736,288.21466579986736,288.21466579986736,288.5810723998584,288.5810723998584,288.5810723998584,288.5810723998584,288.5810723998584,288.5810723998584,288.5810723998584,288.5810723998584,288.5810723998584,22,1,[0.08355789980851114],[0.10022129979915917],288.5810723998584,288.7830590000376,1000,288.7830590000376,1000,1000,1000,1000,1,num_2,0.5865706000477076,,35,7,2026-03-13_13h54.58.302,2026A_exp2,2022.2.4,60.02973877733776,
1000,1,0.0,0.0,1,0,78,78,35,,,,,289.39859810005873,290.04914700007066,290.04914700007066,290.5336740000639,315,315,290.5336740000639,290.5336740000639,290.5336740000639,290.5336740000639,290.5336740000639,290.5336740000639,290.5336740000639,290.5336740000639,290.5336740000639,290.8998735998757,290.8998735998757,290.8998735998757,290.8998735998757,290.8998735998757,290.8998735998757,290.8998735998757,290.8998735998757,290.8998735998757,19,2,"[0.21722410013899207, 0.2838651000056416]","[0.25034220004454255, 0.3172162000555545]",290.8998735998757,291.10230959998444,1000,291.10230959998444,1000,1000,1000,1000,0,num_3,0.5710540001746267,,35,7,2026-03-13_13h54.58.302,2026A_exp2,2022.2.4,60.02973877733776,
1,0,0.0,0.0,0,0,79,79,6,,,,,291.700733799953,292.35153129999526,292.35153129999526,292.85262929997407,315,315,292.85262929997407,292.85262929997407,292.85262929997407,292.85262929997407,292.85262929997407,292.85262929997407,292.85262929997407,292.85262929997407,292.85262929997407,293.2190012000501,293.2190012000501,293.2190012000501,293.2190012000501,293.2190012000501,293.2190012000501,293.2190012000501,293.2190012000501,293.2190012000501,15,4,"[0.001182700041681528, 0.033588899997994304, 0.1670055000577122, 0.28370300005190074]","[0.017436500173062086, 0.08332259999588132, 0.183812300208956, 0.3337966001126915]",293.2190012000501,293.41911479993723,0.0,293.41911479993723,0,0.0,0,1,1000,num_1,0.40692570013925433,,35,7,2026-03-13_13h54.58.302,2026A_exp2,2022.2.4,60.02973877733776,
1,0,4.9,6.1,0,0,80,80,29,,,,,293.8528286998626,294.5035556999501,294.5035556999501,294.98804980004206,45,315,294.98804980004206,294.98804980004206,294.98804980004206,294.98804980004206,294.98804980004206,294.98804980004206,294.98804980004206,294.98804980004206,294.98804980004206,295.3545033999253,295.3545033999253,295.3545033999253,295.3545033999253,295.3545033999253,295.3545033999253,295.3545033999253,295.3545033999253,295.3545033999253,18,5,"[0.01733319996856153, 0.10207789996638894, 0.21881770016625524, 0.2854851000010967, 0.3188903001137078]","[0.037118100095540285, 0.11851900001056492, 0.23540899995714426, 0.3020051000639796, 0.33550970000214875]",295.3545033999253,295.5582830000203,4.9,295.5582830000203,0,4.9,1,0,1000,num_1,0.9720474001951516,,35,7,2026-03-13_13h54.58.302,2026A_exp2,2022.2.4,60.02973877733776,
1000,1,0.0,3.7,1,0,81,81,1,,,,,296.5555882998742,297.206338299904,297.206338299904,297.6905692999717,315,315,297.6905692999717,297.6905692999717,297.6905692999717,297.6905692999717,297.6905692999717,297.6905692999717,297.6905692999717,297.6905692999717,297.6905692999717,298.0571478998754,298.0571478998754,298.0571478998754,298.0571478998754,298.0571478998754,298.0571478998754,298.0571478998754,298.0571478998754,298.0571478998754,21,2,"[0.18383380002342165, 0.217083599884063]","[0.20041970000602305, 0.23384259990416467]",298.0571478998754,298.25904450006783,1000,298.25904450006783,1000,1000,1000,1000,1,num_2,0.4545926998835057,,35,7,2026-03-13_13h54.58.302,2026A_exp2,2022.2.4,60.02973877733776,
1000,1,0.0,0.0,1,0,82,82,88,,,,,298.74111879989505,299.39182460005395,299.39182460005395,299.89301809994504,45,315,299.89301809994504,299.89301809994504,299.89301809994504,299.89301809994504,299.89301809994504,299.89301809994504,299.89301809994504,299.89301809994504,299.89301809994504,300.2593997998629,300.2593997998629,300.2593997998629,300.2593997998629,300.2593997998629,300.2593997998629,300.2593997998629,300.2593997998629,300.2593997998629,23,0,,,300.2593997998629,300.4613298000768,1000,300.4613298000768,1000,1000,1000,1000,0,num_3,0.5248449998907745,,35,7,2026-03-13_13h54.58.302,2026A_exp2,2022.2.4,60.02973877733776,
1000,1,3.7,0.0,0,0,83,83,81,,,,,301.01001309999265,301.66073299990967,301.66073299990967,302.16179559985176,45,45,302.16179559985176,302.16179559985176,302.16179559985176,302.16179559985176,302.16179559985176,302.16179559985176,302.16179559985176,302.16179559985176,302.16179559985176,302.5283001998905,302.5283001998905,302.5283001998905,302.5283001998905,302.5283001998905,302.5283001998905,302.5283001998905,302.5283001998905,302.5283001998905,23,0,,,302.5283001998905,302.73034149990417,1000,302.73034149990417,1000,1000,1000,1000,0,num_3,0.9278560001403093,,35,7,2026-03-13_13h54.58.302,2026A_exp2,2022.2.4,60.02973877733776,
1,0,3.7,3.7,0,0,84,84,8,,,,,303.67919349996373,304.31345919985324,304.31345919985324,304.8146204999648,45,45,304.8146204999648,304.8146204999648,304.8146204999648,304.8146204999648,304.8146204999648,304.8146204999648,304.8146204999648,304.8146204999648,304.8146204999648,305.1808728999458,305.1808728999458,305.1808728999458,305.1808728999458,305.1808728999458,305.1808728999458,305.1808728999458,305.1808728999458,305.1808728999458,12,4,"[0.0999171999283135, 0.15014000004157424, 0.2671266000252217, 0.3002709001302719]","[0.11676699994131923, 0.19985780003480613, 0.2836505000013858, 0.3669324000366032]",305.1808728999458,305.3810970999766,3.7,305.3810970999766,0,3.7,1,0,1000,num_1,1.2527853001374751,,35,7,2026-03-13_13h54.58.302,2026A_exp2,2022.2.4,60.02973877733776,
0,0,3.7,3.7,1,0,85,85,62,,,,,306.6657998000737,307.3163213999942,307.3163213999942,307.8008542000316,315,45,307.8008542000316,307.8008542000316,307.8008542000316,307.8008542000316,307.8008542000316,307.8008542000316,307.8008542000316,307.8008542000316,307.8008542000316,308.16738389991224,308.16738389991224,308.16738389991224,308.16738389991224,308.16738389991224,308.16738389991224,308.16738389991224,308.16738389991224,308.16738389991224,23,0,,,308.16738389991224,308.38091850001365,3.7,308.38091850001365,1,3.7,1,1,1000,num_4,0.8372182999737561,,35,7,2026-03-13_13h54.58.302,2026A_exp2,2022.2.4,60.02973877733776,
0,0,0.0,0.0,1,0,86,86,80,,,,,309.2347921000328,309.86897339997813,309.86897339997813,310.3700287998654,315,315,310.3700287998654,310.3700287998654,310.3700287998654,310.3700287998654,310.3700287998654,310.3700287998654,310.3700287998654,310.3700287998654,310.3700287998654,310.73657449986786,310.73657449986786,310.73657449986786,310.73657449986786,310.73657449986786,310.73657449986786,310.73657449986786,310.73657449986786,310.73657449986786,20,2,"[0.0668643000535667, 0.3170444001443684]","[0.08324310020543635, 0.3504078001715243]",310.73657449986786,310.936811799882,0.0,310.936811799882,0,0.0,0,1,1000,num_1,0.6730796000920236,,35,7,2026-03-13_13h54.58.302,2026A_exp2,2022.2.4,60.02973877733776,
1,0,6.1,0.0,0,0,87,87,51,,,,,311.6373977998737,312.2880716000218,312.2880716000218,312.7724154999014,45,315,312.7724154999014,312.7724154999014,312.7724154999014,312.7724154999014,312.7724154999014,312.7724154999014,312.7724154999014,312.7724154999014,312.7724154999014,313.1389283000026,313.1389283000026,313.1389283000026,313.1389283000026,313.1389283000026,313.1389283000026,313.1389283000026,313.1389283000026,313.1389283000026,23,0,,,313.1389283000026,313.33905029995367,6.1,313.33905029995367,1,6.1,1,1,1000,num_4,0.6064034001901746,,35,7,2026-03-13_13h54.58.302,2026A_exp2,2022.2.4,60.02973877733776,
1000,1,3.7,0.0,1,0,88,88,78,,,,,313.9730885999743,314.6331593999639,314.6331593999639,315.10805330006406,45,315,315.10805330006406,315.10805330006406,315.10805330006406,315.10805330006406,315.10805330006406,315.10805330006406,315.10805330006406,315.10805330006406,315.10805330006406,315.4746270000469,315.4746270000469,315.4746270000469,315.4746270000469,315.4746270000469,315.4746270000469,315.4746270000469,315.4746270000469,315.4746270000469,18,3,"[0.06704250001348555, 0.21716490015387535, 0.26727019995450974]","[0.08372949995100498, 0.23374289995990694, 0.317183000035584]",315.4746270000469,315.67650419985875,1000,315.67650419985875,1000,1000,1000,1000,0,num_3,0.7413987000472844,,35,7,2026-03-13_13h54.58.302,2026A_exp2,2022.2.4,60.02973877733776,
1,0,6.1,0.0,1,0,89,89,17,,,,,316.442529699998,317.0929342000745,317.0929342000745,317.5773455000017,315,45,317.5773455000017,317.5773455000017,317.5773455000017,317.5773455000017,317.5773455000017,317.5773455000017,317.5773455000017,317.5773455000017,317.5773455000017,317.9437088998966,317.9437088998966,317.9437088998966,317.9437088998966,317.9437088998966,317.9437088998966,317.9437088998966,317.9437088998966,317.9437088998966,20,2,"[0.03360159997828305, 0.13376730005256832]","[0.06695690006017685, 0.15040930011309683]",317.9437088998966,318.1438261999283,0.0,318.1438261999283,0,0.0,0,1,1000,num_1,0.6979759000241756,,35,7,2026-03-13_13h54.58.302,2026A_exp2,2022.2.4,60.02973877733776,
,,,,,,,,,,,,,,,,,,,,,,,,,,,,,,,,,,,,,,,,,,,,,,,,,,,,318.86491860006936,,,,,,,
