validity,detectorcomp,contrastCW,contrastCCW,precueCWorCCW,block_80trials.thisRepN,block_80trials.thisTrialN,block_80trials.thisN,block_80trials.thisIndex,etRecord.started,etRecord.stopped,text.started,text.stopped,text_4.started,text_4.stopped,text_6.started,text_6.stopped,oriCW,oriCCW,roi_2.started,grating_UR.started,grating_UL.started,grating_LR.started,grating_LL.started,noise_UR.started,noise_UL.started,noise_LR.started,noise_LL.started,roi_2.stopped,grating_UR.stopped,grating_UL.stopped,grating_LR.stopped,grating_LL.stopped,noise_UR.stopped,noise_UL.stopped,noise_LR.stopped,noise_LL.stopped,outframe,roi_2.numLooks,roi_2.timesOn,roi_2.timesOff,text_2.started,text_2.stopped,probedcontrast,key_resp.started,respdetect,relevantContrast,correctDetect,TorFdetect,respCWorCCW,key_resp.keys,key_resp.rt,feedback_display_.started,participantNo,blockNo,date,expName,psychopyVersion,frameRate,
1,0,0.0,0.0,0,0,0,0,9,4.029998672194779e-05,4.029998672194779e-05,58.63776300000609,60.6412462000153,60.6412462000153,61.29075200000079,61.29075200000079,61.81080080001266,315,315,61.81080080001266,61.81080080001266,61.81080080001266,61.81080080001266,61.81080080001266,61.81080080001266,61.81080080001266,61.81080080001266,61.81080080001266,62.14151230000425,62.14151230000425,62.14151230000425,62.14151230000425,62.14151230000425,62.14151230000425,62.14151230000425,62.14151230000425,62.14151230000425,0,1,[0.0013015999866183847],[0.3510771000001114],62.14151230000425,62.34172810000018,0.0,62.34172810000018,0,0.0,0,1,1000,num_1,2.5573330000042915,,20,3,2026-03-02_17h26.15.394,2026A_exp2,2022.2.4,60.013310955915614,
1,0,0.0,0.0,0,0,1,1,81,,,,,64.92754380000406,65.56137850001687,65.56137850001687,66.06268600001931,315,315,66.06268600001931,66.06268600001931,66.06268600001931,66.06268600001931,66.06268600001931,66.06268600001931,66.06268600001931,66.06268600001931,66.06268600001931,66.42910570002277,66.42910570002277,66.42910570002277,66.42910570002277,66.42910570002277,66.42910570002277,66.42910570002277,66.42910570002277,66.42910570002277,0,1,[0.0012215999886393547],[0.36718229998950846],66.42910570002277,66.62923720001709,0.0,66.62923720001709,0,0.0,0,1,1000,num_1,1.4704748000076506,,20,3,2026-03-02_17h26.15.394,2026A_exp2,2022.2.4,60.013310955915614,
1000,1,6.1,0.0,1,0,2,2,60,,,,,68.1308035000111,68.78125739999814,68.78125739999814,69.26584340000409,315,45,69.26584340000409,69.26584340000409,69.26584340000409,69.26584340000409,69.26584340000409,69.26584340000409,69.26584340000409,69.26584340000409,69.26584340000409,69.63231330001145,69.63231330001145,69.63231330001145,69.63231330001145,69.63231330001145,69.63231330001145,69.63231330001145,69.63231330001145,69.63231330001145,0,1,[0.0012196999741718173],[0.36720429998240434],69.63231330001145,69.83788470001309,1000,69.83788470001309,1000,1000,1000,1000,0,num_3,0.692849799990654,,20,3,2026-03-02_17h26.15.394,2026A_exp2,2022.2.4,60.013310955915614,
1,0,0.0,0.0,0,0,3,3,38,,,,,70.54995480002253,71.20035460000508,71.20035460000508,71.70137950000935,315,315,71.70137950000935,71.70137950000935,71.70137950000935,71.70137950000935,71.70137950000935,71.70137950000935,71.70137950000935,71.70137950000935,71.70137950000935,72.05129709999892,72.05129709999892,72.05129709999892,72.05129709999892,72.05129709999892,72.05129709999892,72.05129709999892,72.05129709999892,72.05129709999892,0,1,[0.0012194000009912997],[0.3505929999810178],72.05129709999892,72.25146170001244,0.0,72.26816740000504,0,0.0,0,1,1000,num_1,0.4798546000092756,,20,3,2026-03-02_17h26.15.394,2026A_exp2,2022.2.4,60.013310955915614,
1,0,0.0,0.0,1,0,4,4,43,,,,,72.768796999997,73.41946130001452,73.41946130001452,73.90383200001088,315,315,73.90383200001088,73.90383200001088,73.90383200001088,73.90383200001088,73.90383200001088,73.90383200001088,73.90383200001088,73.90383200001088,73.90383200001088,74.27040229999693,74.27040229999693,74.27040229999693,74.27040229999693,74.27040229999693,74.27040229999693,74.27040229999693,74.27040229999693,74.27040229999693,0,1,[0.0010874000145122409],[0.36867090000305325],74.27040229999693,74.47049050001078,0.0,74.47049050001078,0,0.0,0,1,1000,num_1,0.6130874000082258,,20,3,2026-03-02_17h26.15.394,2026A_exp2,2022.2.4,60.013310955915614,
1000,1,0.0,0.0,0,0,5,5,61,,,,,75.1043966000143,75.75510330000543,75.75510330000543,76.23943280000822,45,45,76.23943280000822,76.23943280000822,76.23943280000822,76.23943280000822,76.23943280000822,76.23943280000822,76.23943280000822,76.23943280000822,76.23943280000822,76.6059580000001,76.6059580000001,76.6059580000001,76.6059580000001,76.6059580000001,76.6059580000001,76.6059580000001,76.6059580000001,76.6059580000001,23,0,,,76.6059580000001,76.80776640001568,1000,76.80776640001568,1000,1000,1000,1000,1,num_2,1.4919890000019222,,20,3,2026-03-02_17h26.15.394,2026A_exp2,2022.2.4,60.013310955915614,
1000,1,0.0,0.0,1,0,6,6,47,,,,,78.32428430000436,78.97503210001742,78.97503210001742,79.47593220000272,315,45,79.47593220000272,79.47593220000272,79.47593220000272,79.47593220000272,79.47593220000272,79.47593220000272,79.47593220000272,79.47593220000272,79.47593220000272,79.84254850001889,79.84254850001889,79.84254850001889,79.84254850001889,79.84254850001889,79.84254850001889,79.84254850001889,79.84254850001889,79.84254850001889,23,0,,,79.84254850001889,80.04427090001991,1000,80.04427090001991,1000,1000,1000,1000,0,num_3,1.6633390000206418,,20,3,2026-03-02_17h26.15.394,2026A_exp2,2022.2.4,60.013310955915614,
1,0,4.9,0.0,0,0,7,7,48,,,,,81.72771400000784,82.3783875000081,82.3783875000081,82.88499540000339,315,315,82.88499540000339,82.88499540000339,82.88499540000339,82.88499540000339,82.88499540000339,82.88499540000339,82.88499540000339,82.88499540000339,82.88499540000339,83.2455802000186,83.2455802000186,83.2455802000186,83.2455802000186,83.2455802000186,83.2455802000186,83.2455802000186,83.2455802000186,83.2455802000186,0,1,[0.002739799994742498],[0.36510789999738336],83.2455802000186,83.44606290000957,4.9,83.44606290000957,1,4.9,1,1,1000,num_4,1.549514900019858,,20,3,2026-03-02_17h26.15.394,2026A_exp2,2022.2.4,60.013310955915614,
1,0,0.0,3.7,0,0,8,8,12,,,,,85.01520080000046,85.66502060001949,85.66502060001949,86.16604999999981,315,45,86.16604999999981,86.16604999999981,86.16604999999981,86.16604999999981,86.16604999999981,86.16604999999981,86.16604999999981,86.16604999999981,86.16604999999981,86.53248900000472,86.53248900000472,86.53248900000472,86.53248900000472,86.53248900000472,86.53248900000472,86.53248900000472,86.53248900000472,86.53248900000472,0,1,[0.0007332999957725406],[0.3680604000110179],86.53248900000472,86.73269669999718,0.0,86.73269669999718,0,0.0,0,1,1000,num_1,0.9500722000084352,,20,3,2026-03-02_17h26.15.394,2026A_exp2,2022.2.4,60.013310955915614,
1000,1,6.1,4.9,1,0,9,9,53,,,,,87.70025510000414,88.35079399999813,88.35079399999813,88.86847340001259,315,45,88.86847340001259,88.86847340001259,88.86847340001259,88.86847340001259,88.86847340001259,88.86847340001259,88.86847340001259,88.86847340001259,88.86847340001259,89.2185518000042,89.2185518000042,89.2185518000042,89.2185518000042,89.2185518000042,89.2185518000042,89.2185518000042,89.2185518000042,89.2185518000042,0,1,[0.0048263000207953155],[0.3639757000200916],89.2185518000042,89.42072270001518,1000,89.42072270001518,1000,1000,1000,1000,0,num_3,0.6226473999849986,,20,3,2026-03-02_17h26.15.394,2026A_exp2,2022.2.4,60.013310955915614,
1,0,0.0,0.0,0,0,10,10,2,,,,,90.06930719999946,90.7200791000214,90.7200791000214,91.22088520001853,45,315,91.22088520001853,91.22088520001853,91.22088520001853,91.22088520001853,91.22088520001853,91.22088520001853,91.22088520001853,91.22088520001853,91.22088520001853,91.57089450000785,91.57089450000785,91.57089450000785,91.57089450000785,91.57089450000785,91.57089450000785,91.57089450000785,91.57089450000785,91.57089450000785,0,1,[0.0012301999959163368],[0.35076760000083596],91.57089450000785,91.77113110001665,0.0,91.77113110001665,0,0.0,0,1,1000,num_1,0.8641601999988779,,20,3,2026-03-02_17h26.15.394,2026A_exp2,2022.2.4,60.013310955915614,
1000,1,4.9,3.7,1,0,11,11,32,,,,,92.65535539999837,93.30596759999753,93.30596759999753,93.80705669999588,45,315,93.80705669999588,93.80705669999588,93.80705669999588,93.80705669999588,93.80705669999588,93.80705669999588,93.80705669999588,93.80705669999588,93.80705669999588,94.17349580000155,94.17349580000155,94.17349580000155,94.17349580000155,94.17349580000155,94.17349580000155,94.17349580000155,94.17349580000155,94.17349580000155,2,3,"[0.0012054000108037144, 0.10020009998697788, 0.1835426999896299]","[0.08350750000681728, 0.1668599999975413, 0.36698920000344515]",94.17349580000155,94.37595750001492,1000,94.37595750001492,1000,1000,1000,1000,0,num_3,2.3792618000297807,,20,3,2026-03-02_17h26.15.394,2026A_exp2,2022.2.4,60.013310955915614,
1000,1,3.7,6.1,0,0,12,12,28,,,,,96.77599680001731,97.42678960002377,97.42678960002377,97.92788400000427,45,45,97.92788400000427,97.92788400000427,97.92788400000427,97.92788400000427,97.92788400000427,97.92788400000427,97.92788400000427,97.92788400000427,97.92788400000427,98.29426389999571,98.29426389999571,98.29426389999571,98.29426389999571,98.29426389999571,98.29426389999571,98.29426389999571,98.29426389999571,98.29426389999571,2,2,"[0.0012772999762091786, 0.33369499997934327]","[0.30015259998617694, 0.3670648999977857]",98.29426389999571,98.49667170000612,1000,98.49667170000612,1000,1000,1000,1000,0,num_3,1.0660171000054106,,20,3,2026-03-02_17h26.15.394,2026A_exp2,2022.2.4,60.013310955915614,
1000,1,4.9,0.0,1,0,13,13,25,,,,,99.57884240002022,100.22952399999485,100.22952399999485,100.73069250001572,45,45,100.73069250001572,100.73069250001572,100.73069250001572,100.73069250001572,100.73069250001572,100.73069250001572,100.73069250001572,100.73069250001572,100.73069250001572,101.09695860001375,101.09695860001375,101.09695860001375,101.09695860001375,101.09695860001375,101.09695860001375,101.09695860001375,101.09695860001375,101.09695860001375,0,1,[0.0012356000079307705],[0.3671685000008438],101.09695860001375,101.2995096000086,1000,101.2995096000086,1000,1000,1000,1000,0,num_3,0.6154780999931972,,20,3,2026-03-02_17h26.15.394,2026A_exp2,2022.2.4,60.013310955915614,
1000,1,0.0,6.1,0,0,14,14,34,,,,,101.9313303999952,102.58192140000756,102.58192140000756,103.08294069999829,45,45,103.08294069999829,103.08294069999829,103.08294069999829,103.08294069999829,103.08294069999829,103.08294069999829,103.08294069999829,103.08294069999829,103.08294069999829,103.449497900001,103.449497900001,103.449497900001,103.449497900001,103.449497900001,103.449497900001,103.449497900001,103.449497900001,103.449497900001,14,6,"[0.050215199997182935, 0.16701810000813566, 0.2338062000053469, 0.26720380000188015, 0.30051390000153333, 0.3338209000066854]","[0.06687039998359978, 0.18381200000294484, 0.2505871999892406, 0.2838406999944709, 0.31722689999151044, 0.366738799988525]",103.449497900001,103.65232220001053,1000,103.65232220001053,1000,1000,1000,1000,1,num_2,0.6545284999883734,,20,3,2026-03-02_17h26.15.394,2026A_exp2,2022.2.4,60.013310955915614,
1000,1,6.1,3.7,1,0,15,15,24,,,,,104.33376619999763,104.98419290001038,104.98419290001038,105.48516010001185,315,45,105.48516010001185,105.48516010001185,105.48516010001185,105.48516010001185,105.48516010001185,105.48516010001185,105.48516010001185,105.48516010001185,105.48516010001185,105.83517669999856,105.83517669999856,105.83517669999856,105.83517669999856,105.83517669999856,105.83517669999856,105.83517669999856,105.83517669999856,105.83517669999856,5,2,"[0.017259799991734326, 0.21769619997940026]","[0.15099880000343546, 0.3512357999861706]",105.83517669999856,106.03678270001546,1000,106.03678270001546,1000,1000,1000,1000,0,num_3,1.3260998000041582,,20,3,2026-03-02_17h26.15.394,2026A_exp2,2022.2.4,60.013310955915614,
1,0,0.0,4.9,0,0,16,16,71,,,,,107.38667900001747,108.03740440000547,108.03740440000547,108.53850769999553,45,315,108.53850769999553,108.53850769999553,108.53850769999553,108.53850769999553,108.53850769999553,108.53850769999553,108.53850769999553,108.53850769999553,108.53850769999553,108.90482270001667,108.90482270001667,108.90482270001667,108.90482270001667,108.90482270001667,108.90482270001667,108.90482270001667,108.90482270001667,108.90482270001667,23,0,,,108.90482270001667,109.10497810001834,0.0,109.10497810001834,0,0.0,0,1,1000,num_1,1.3783200000179932,,20,3,2026-03-02_17h26.15.394,2026A_exp2,2022.2.4,60.013310955915614,
1000,1,6.1,0.0,0,0,17,17,33,,,,,110.50631870000507,111.1572567000112,111.1572567000112,111.65815289999591,315,315,111.65815289999591,111.65815289999591,111.65815289999591,111.65815289999591,111.65815289999591,111.65815289999591,111.65815289999591,111.65815289999591,111.65815289999591,112.00783410001895,112.00783410001895,112.00783410001895,112.00783410001895,112.00783410001895,112.00783410001895,112.00783410001895,112.00783410001895,112.00783410001895,11,5,"[0.0011009000008925796, 0.05032380000920966, 0.150615899998229, 0.18391170000541024, 0.28391840000404045]","[0.017348599998513237, 0.10056469999835826, 0.16710500000044703, 0.20049380001728423, 0.350722000002861]",112.00783410001895,112.23221660000854,1000,112.23221660000854,1000,1000,1000,1000,0,num_3,0.6357431000215001,,20,3,2026-03-02_17h26.15.394,2026A_exp2,2022.2.4,60.013310955915614,
1000,1,0.0,3.7,0,0,18,18,44,,,,,112.89208590000635,113.54291899999953,113.54291899999953,114.04388579999795,45,315,114.04388579999795,114.04388579999795,114.04388579999795,114.04388579999795,114.04388579999795,114.04388579999795,114.04388579999795,114.04388579999795,114.04388579999795,114.41031580002164,114.41031580002164,114.41031580002164,114.41031580002164,114.41031580002164,114.41031580002164,114.41031580002164,114.41031580002164,114.41031580002164,11,4,"[0.0012267999991308898, 0.06688479997683316, 0.2671828999882564, 0.36729579998063855]","[0.03373349999310449, 0.13372230000095442, 0.3505303999991156, 0.36730069998884574]",114.41031580002164,114.61251649999758,1000,114.61251649999758,1000,1000,1000,1000,1,num_2,0.7273331000178587,,20,3,2026-03-02_17h26.15.394,2026A_exp2,2022.2.4,60.013310955915614,
1,0,6.1,4.9,1,0,19,19,35,,,,,115.36151300001075,116.01196689999779,116.01196689999779,116.51304710001568,315,315,116.51304710001568,116.51304710001568,116.51304710001568,116.51304710001568,116.51304710001568,116.51304710001568,116.51304710001568,116.51304710001568,116.51304710001568,116.87952050002059,116.87952050002059,116.87952050002059,116.87952050002059,116.87952050002059,116.87952050002059,116.87952050002059,116.87952050002059,116.87952050002059,0,1,[0.0012095000129193068],[0.3671522000222467],116.87952050002059,117.07969010001398,4.9,117.07969010001398,0,4.9,1,0,1000,num_1,1.6924233000027016,,20,3,2026-03-02_17h26.15.394,2026A_exp2,2022.2.4,60.013310955915614,
1000,1,4.9,0.0,0,0,20,20,22,,,,,118.79804150000564,119.44862640000065,119.44862640000065,119.93317930001649,45,315,119.93317930001649,119.93317930001649,119.93317930001649,119.93317930001649,119.93317930001649,119.93317930001649,119.93317930001649,119.93317930001649,119.93317930001649,120.29980530001922,120.29980530001922,120.29980530001922,120.29980530001922,120.29980530001922,120.29980530001922,120.29980530001922,120.29980530001922,120.29980530001922,3,3,"[0.0012557999871205539, 0.1836497999902349, 0.21715089998906478]","[0.15040179999778047, 0.2005168999894522, 0.3686654999910388]",120.29980530001922,120.50193810000201,1000,120.50193810000201,1000,1000,1000,1000,0,num_3,0.5974394000077154,,20,3,2026-03-02_17h26.15.394,2026A_exp2,2022.2.4,60.013310955915614,
1,0,4.9,6.1,1,0,21,21,46,,,,,121.11704939999618,121.77798929999699,121.77798929999699,122.26892450000742,45,315,122.26892450000742,122.26892450000742,122.26892450000742,122.26892450000742,122.26892450000742,122.26892450000742,122.26892450000742,122.26892450000742,122.26892450000742,122.63528640000732,122.63528640000732,122.63528640000732,122.63528640000732,122.63528640000732,122.63528640000732,122.63528640000732,122.63528640000732,122.63528640000732,3,4,"[0.001213699986692518, 0.06707459999597631, 0.16714340000180528, 0.2005293999973219]","[0.05032449998543598, 0.1504871000070125, 0.18388520000735298, 0.36745849999715574]",122.63528640000732,122.83532800001558,6.1,122.83532800001558,1,6.1,1,1,1000,num_4,2.2874174999888055,,20,3,2026-03-02_17h26.15.394,2026A_exp2,2022.2.4,60.013310955915614,
0,0,0.0,0.0,1,0,22,22,62,,,,,125.15437659999589,125.80514050001511,125.80514050001511,126.28961400000844,315,315,126.28961400000844,126.28961400000844,126.28961400000844,126.28961400000844,126.28961400000844,126.28961400000844,126.28961400000844,126.28961400000844,126.28961400000844,126.65592489999835,126.65592489999835,126.65592489999835,126.65592489999835,126.65592489999835,126.65592489999835,126.65592489999835,126.65592489999835,126.65592489999835,0,1,[0.0012556999863591045],[0.36714909999864176],126.65592489999835,126.85620650000055,0.0,126.85620650000055,0,0.0,0,1,1000,num_1,2.459716200013645,,20,3,2026-03-02_17h26.15.394,2026A_exp2,2022.2.4,60.013310955915614,
1000,1,6.1,0.0,0,0,23,23,19,,,,,129.34181959999842,129.99450430000434,129.99450430000434,130.47711340000387,45,315,130.47711340000387,130.47711340000387,130.47711340000387,130.47711340000387,130.47711340000387,130.47711340000387,130.47711340000387,130.47711340000387,130.47711340000387,130.84342210000614,130.84342210000614,130.84342210000614,130.84342210000614,130.84342210000614,130.84342210000614,130.84342210000614,130.84342210000614,130.84342210000614,8,2,"[0.11658959998749197, 0.14997399999992922]","[0.1333196999912616, 0.36696409998694435]",130.84342210000614,131.04569450000417,1000,131.04569450000417,1000,1000,1000,1000,0,num_3,0.565205099992454,,20,3,2026-03-02_17h26.15.394,2026A_exp2,2022.2.4,60.013310955915614,
1000,1,4.9,4.9,0,0,24,24,42,,,,,131.62760920001892,132.27829350001412,132.27829350001412,132.77927830000408,45,45,132.77927830000408,132.77927830000408,132.77927830000408,132.77927830000408,132.77927830000408,132.77927830000408,132.77927830000408,132.77927830000408,132.77927830000408,133.1458065000188,133.1458065000188,133.1458065000188,133.1458065000188,133.1458065000188,133.1458065000188,133.1458065000188,133.1458065000188,133.1458065000188,0,1,[0.0012055999832227826],[0.3672857999918051],133.1458065000188,133.34786750000785,1000,133.34786750000785,1000,1000,1000,1000,0,num_3,1.2714921000006143,,20,3,2026-03-02_17h26.15.394,2026A_exp2,2022.2.4,60.013310955915614,
1,0,0.0,0.0,0,0,25,25,64,,,,,134.64720740000485,135.29781400001957,135.29781400001957,135.7989420000231,45,315,135.7989420000231,135.7989420000231,135.7989420000231,135.7989420000231,135.7989420000231,135.7989420000231,135.7989420000231,135.7989420000231,135.7989420000231,136.16546099999687,136.16546099999687,136.16546099999687,136.16546099999687,136.16546099999687,136.16546099999687,136.16546099999687,136.16546099999687,136.16546099999687,23,0,,,136.16546099999687,136.365655600006,0.0,136.365655600006,0,0.0,0,1,1000,num_1,1.0219261000165716,,20,3,2026-03-02_17h26.15.394,2026A_exp2,2022.2.4,60.013310955915614,
1,0,4.9,4.9,1,0,26,26,89,,,,,137.41660570001113,138.0672000000195,138.0672000000195,138.5516948000004,45,45,138.5516948000004,138.5516948000004,138.5516948000004,138.5516948000004,138.5516948000004,138.5516948000004,138.5516948000004,138.5516948000004,138.5516948000004,138.91826720000245,138.91826720000245,138.91826720000245,138.91826720000245,138.91826720000245,138.91826720000245,138.91826720000245,138.91826720000245,138.91826720000245,0,1,[0.001217699988046661],[0.3672093999921344],138.91826720000245,139.11848920001648,4.9,139.11848920001648,0,4.9,1,0,1000,num_1,1.2776025999919511,,20,3,2026-03-02_17h26.15.394,2026A_exp2,2022.2.4,60.013310955915614,
1000,1,6.1,3.7,1,0,27,27,0,,,,,140.41975150001235,141.0704235000012,141.0704235000012,141.55471900000703,45,45,141.55471900000703,141.55471900000703,141.55471900000703,141.55471900000703,141.55471900000703,141.55471900000703,141.55471900000703,141.55471900000703,141.55471900000703,141.92128000000957,141.92128000000957,141.92128000000957,141.92128000000957,141.92128000000957,141.92128000000957,141.92128000000957,141.92128000000957,141.92128000000957,4,1,[0.06703439998091199],[0.3673355999926571],141.92128000000957,142.12314250000054,1000,142.12314250000054,1000,1000,1000,1000,0,num_3,0.7128044000128284,,20,3,2026-03-02_17h26.15.394,2026A_exp2,2022.2.4,60.013310955915614,
1000,1,0.0,0.0,1,0,28,28,14,,,,,142.85543520000647,143.50629800002207,143.50629800002207,144.0071392999962,45,315,144.0071392999962,144.0071392999962,144.0071392999962,144.0071392999962,144.0071392999962,144.0071392999962,144.0071392999962,144.0071392999962,144.0071392999962,144.35706000000937,144.35706000000937,144.35706000000937,144.35706000000937,144.35706000000937,144.35706000000937,144.35706000000937,144.35706000000937,144.35706000000937,22,0,,,144.35706000000937,144.55911060000653,1000,144.57390730001498,1000,1000,1000,1000,0,num_3,0.61375119999866,,20,3,2026-03-02_17h26.15.394,2026A_exp2,2022.2.4,60.013310955915614,
1000,1,4.9,0.0,0,0,29,29,58,,,,,145.20768240001053,145.85846780001884,145.85846780001884,146.35957440000493,315,45,146.35957440000493,146.35957440000493,146.35957440000493,146.35957440000493,146.35957440000493,146.35957440000493,146.35957440000493,146.35957440000493,146.35957440000493,146.7259995000204,146.7259995000204,146.7259995000204,146.7259995000204,146.7259995000204,146.7259995000204,146.7259995000204,146.7259995000204,146.7259995000204,18,2,"[0.03355430002557114, 0.10055270002339967]","[0.06698050000704825, 0.15053130002343096]",146.7259995000204,146.9281538000214,1000,146.9281538000214,1000,1000,1000,1000,0,num_3,0.49895910001941957,,20,3,2026-03-02_17h26.15.394,2026A_exp2,2022.2.4,60.013310955915614,
1,0,4.9,6.1,1,0,30,30,86,,,,,147.44342840000172,148.09393560001627,148.09393560001627,148.595289400022,315,45,148.595289400022,148.595289400022,148.595289400022,148.595289400022,148.595289400022,148.595289400022,148.595289400022,148.595289400022,148.595289400022,148.9614916999999,148.9614916999999,148.9614916999999,148.9614916999999,148.9614916999999,148.9614916999999,148.9614916999999,148.9614916999999,148.9614916999999,23,0,,,148.9614916999999,149.16169269999955,6.1,149.16169269999955,0,6.1,1,0,1000,num_1,0.9223455999745056,,20,3,2026-03-02_17h26.15.394,2026A_exp2,2022.2.4,60.013310955915614,
1000,1,0.0,3.7,1,0,31,31,80,,,,,150.1128577000054,150.76344070001505,150.76344070001505,151.24787720001768,45,45,151.24787720001768,151.24787720001768,151.24787720001768,151.24787720001768,151.24787720001768,151.24787720001768,151.24787720001768,151.24787720001768,151.24787720001768,151.61428390000947,151.61428390000947,151.61428390000947,151.61428390000947,151.61428390000947,151.61428390000947,151.61428390000947,151.61428390000947,151.61428390000947,0,1,[0.0013021999911870807],[0.3671369999938179],151.61428390000947,151.8162712000194,1000,151.8162712000194,1000,1000,1000,1000,0,num_3,1.050480100006098,,20,3,2026-03-02_17h26.15.394,2026A_exp2,2022.2.4,60.013310955915614,
1,0,0.0,6.1,0,0,32,32,5,,,,,152.8821388000215,153.53287630001432,153.53287630001432,154.03400870002224,315,315,154.03400870002224,154.03400870002224,154.03400870002224,154.03400870002224,154.03400870002224,154.03400870002224,154.03400870002224,154.03400870002224,154.03400870002224,154.40039570000954,154.40039570000954,154.40039570000954,154.40039570000954,154.40039570000954,154.40039570000954,154.40039570000954,154.40039570000954,154.40039570000954,10,7,"[0.017580099985934794, 0.05039379998925142, 0.18382879998534918, 0.21711450000293553, 0.25072690000524744, 0.31718679997720756, 0.36738599999807775]","[0.0337936999858357, 0.13372409998555668, 0.200489299983019, 0.2336905999982264, 0.3006533999869134, 0.33396139999968, 0.36739010000019334]",154.40039570000954,154.60051690001274,0.0,154.60051690001274,0,0.0,0,1,1000,num_1,0.8748817000014242,,20,3,2026-03-02_17h26.15.394,2026A_exp2,2022.2.4,60.013310955915614,
1000,1,0.0,0.0,0,0,33,33,75,,,,,155.50137760001235,156.1522139000008,156.1522139000008,156.63660270001856,45,315,156.63660270001856,156.63660270001856,156.63660270001856,156.63660270001856,156.63660270001856,156.63660270001856,156.63660270001856,156.63660270001856,156.63660270001856,157.00288700000965,157.00288700000965,157.00288700000965,157.00288700000965,157.00288700000965,157.00288700000965,157.00288700000965,157.00288700000965,157.00288700000965,10,2,"[0.0011664999765343964, 0.35064399999100715]","[0.18336519997683354, 0.36732189997565]",157.00288700000965,157.20537989999866,1000,157.20537989999866,1000,1000,1000,1000,0,num_3,1.2465319000184536,,20,3,2026-03-02_17h26.15.394,2026A_exp2,2022.2.4,60.013310955915614,
1000,1,0.0,0.0,0,0,34,34,65,,,,,158.471048300009,159.12181440001586,159.12181440001586,159.6229043000203,315,45,159.6229043000203,159.6229043000203,159.6229043000203,159.6229043000203,159.6229043000203,159.6229043000203,159.6229043000203,159.6229043000203,159.6229043000203,159.9726092000201,159.9726092000201,159.9726092000201,159.9726092000201,159.9726092000201,159.9726092000201,159.9726092000201,159.9726092000201,159.9726092000201,22,0,,,159.9726092000201,160.17462950001936,1000,160.17462950001936,1000,1000,1000,1000,0,num_3,1.2202385000127833,,20,3,2026-03-02_17h26.15.394,2026A_exp2,2022.2.4,60.013310955915614,
1000,1,4.9,6.1,1,0,35,35,1,,,,,161.42393520000041,162.07461430001422,162.07461430001422,162.57587170001352,45,45,162.57587170001352,162.57587170001352,162.57587170001352,162.57587170001352,162.57587170001352,162.57587170001352,162.57587170001352,162.57587170001352,162.57587170001352,162.941847900016,162.941847900016,162.941847900016,162.941847900016,162.941847900016,162.941847900016,162.941847900016,162.941847900016,162.941847900016,5,5,"[0.0007455000013578683, 0.06684449999011122, 0.16714730000239797, 0.23373730000457726, 0.33392460001050495]","[0.03344599998672493, 0.1502893999859225, 0.20045139998546802, 0.3169397999881767, 0.36741790000814945]",162.941847900016,163.14462020000792,1000,163.14462020000792,1000,1000,1000,1000,0,num_3,1.314694500004407,,20,3,2026-03-02_17h26.15.394,2026A_exp2,2022.2.4,60.013310955915614,
0,0,0.0,0.0,1,0,36,36,8,,,,,164.47736469999654,165.1278067000094,165.1278067000094,165.62884980000672,315,45,165.62884980000672,165.62884980000672,165.62884980000672,165.62884980000672,165.62884980000672,165.62884980000672,165.62884980000672,165.62884980000672,165.62884980000672,165.99517300000298,165.99517300000298,165.99517300000298,165.99517300000298,165.99517300000298,165.99517300000298,165.99517300000298,165.99517300000298,165.99517300000298,23,0,,,165.99517300000298,166.19546080002328,0.0,166.19546080002328,0,0.0,0,1,1000,num_1,1.1599692000017967,,20,3,2026-03-02_17h26.15.394,2026A_exp2,2022.2.4,60.013310955915614,
0,0,0.0,3.7,1,0,37,37,21,,,,,167.38000550001743,168.0307245000149,168.0307245000149,168.51508130002185,45,45,168.51508130002185,168.51508130002185,168.51508130002185,168.51508130002185,168.51508130002185,168.51508130002185,168.51508130002185,168.51508130002185,168.51508130002185,168.88153780001448,168.88153780001448,168.88153780001448,168.88153780001448,168.88153780001448,168.88153780001448,168.88153780001448,168.88153780001448,168.88153780001448,23,0,,,168.88153780001448,169.08161900000414,0.0,169.08161900000414,0,0.0,0,1,1000,num_1,0.7221251000009943,,20,3,2026-03-02_17h26.15.394,2026A_exp2,2022.2.4,60.013310955915614,
1,0,0.0,0.0,1,0,38,38,70,,,,,169.83239700002014,170.4831127000216,170.4831127000216,170.9675102000183,315,315,170.9675102000183,170.9675102000183,170.9675102000183,170.9675102000183,170.9675102000183,170.9675102000183,170.9675102000183,170.9675102000183,170.9675102000183,171.3338545000006,171.3338545000006,171.3338545000006,171.3338545000006,171.3338545000006,171.3338545000006,171.3338545000006,171.3338545000006,171.3338545000006,23,0,,,171.3338545000006,171.53414289999637,0.0,171.53414289999637,0,0.0,0,1,1000,num_1,1.1418574000126682,,20,3,2026-03-02_17h26.15.394,2026A_exp2,2022.2.4,60.013310955915614,
1,0,4.9,0.0,1,0,39,39,6,,,,,172.70194560001255,173.35267340001883,173.35267340001883,173.83695830000215,315,315,173.83695830000215,173.83695830000215,173.83695830000215,173.83695830000215,173.83695830000215,173.83695830000215,173.83695830000215,173.83695830000215,173.83695830000215,174.20352790001198,174.20352790001198,174.20352790001198,174.20352790001198,174.20352790001198,174.20352790001198,174.20352790001198,174.20352790001198,174.20352790001198,13,10,"[0.0012125999783165753, 0.03362939998623915, 0.0670230999821797, 0.1670321999990847, 0.20044499999494292, 0.23379420000128448, 0.2671466000028886, 0.30052140000043437, 0.3339131999819074, 0.3672468999866396]","[0.017375700001139194, 0.05033339999499731, 0.08361329999752343, 0.18376069999067113, 0.21711389999836683, 0.2505370999861043, 0.28388669999549165, 0.31716819998109713, 0.3505603999947198, 0.3672511999902781]",174.20352790001198,174.40355889999773,0.0,174.40355889999773,0,0.0,0,1,1000,num_1,0.7284863999811932,,20,3,2026-03-02_17h26.15.394,2026A_exp2,2022.2.4,60.013310955915614,
1000,1,3.7,3.7,1,0,40,40,40,,,,,175.15440100000706,175.80517060001148,175.80517060001148,176.28941550001036,315,315,176.28941550001036,176.28941550001036,176.28941550001036,176.28941550001036,176.28941550001036,176.28941550001036,176.28941550001036,176.28941550001036,176.28941550001036,176.65597439999692,176.65597439999692,176.65597439999692,176.65597439999692,176.65597439999692,176.65597439999692,176.65597439999692,176.65597439999692,176.65597439999692,22,1,[0.0671565999800805],[0.08362779999151826],176.65597439999692,176.85853430000134,1000,176.85853430000134,1000,1000,1000,1000,0,num_3,1.3215771999966819,,20,3,2026-03-02_17h26.15.394,2026A_exp2,2022.2.4,60.013310955915614,
1000,1,6.1,3.7,1,0,41,41,10,,,,,178.2074077000143,178.85825089999707,178.85825089999707,179.35936500001117,315,315,179.35936500001117,179.35936500001117,179.35936500001117,179.35936500001117,179.35936500001117,179.35936500001117,179.35936500001117,179.35936500001117,179.35936500001117,179.7090294000227,179.7090294000227,179.7090294000227,179.7090294000227,179.7090294000227,179.7090294000227,179.7090294000227,179.7090294000227,179.7090294000227,22,0,,,179.7090294000227,179.91123260001768,1000,179.91123260001768,1000,1000,1000,1000,0,num_3,0.5884836000041105,,20,3,2026-03-02_17h26.15.394,2026A_exp2,2022.2.4,60.013310955915614,
1,0,4.9,6.1,0,0,42,42,15,,,,,180.52652990000206,181.17711530000088,181.17711530000088,181.67819420000887,315,315,181.67819420000887,181.67819420000887,181.67819420000887,181.67819420000887,181.67819420000887,181.67819420000887,181.67819420000887,181.67819420000887,181.67819420000887,182.0447245000105,182.0447245000105,182.0447245000105,182.0447245000105,182.0447245000105,182.0447245000105,182.0447245000105,182.0447245000105,182.0447245000105,23,0,,,182.0447245000105,182.24479690002045,4.9,182.24479690002045,0,4.9,1,0,1000,num_1,2.310058700008085,,20,3,2026-03-02_17h26.15.394,2026A_exp2,2022.2.4,60.013310955915614,
1,0,0.0,0.0,1,0,43,43,18,,,,,184.5805956000113,185.2312079000112,185.2312079000112,185.71569820001605,315,315,185.71569820001605,185.71569820001605,185.71569820001605,185.71569820001605,185.71569820001605,185.71569820001605,185.71569820001605,185.71569820001605,185.71569820001605,186.08211980000488,186.08211980000488,186.08211980000488,186.08211980000488,186.08211980000488,186.08211980000488,186.08211980000488,186.08211980000488,186.08211980000488,23,0,,,186.08211980000488,186.2822892999975,0.0,186.2822892999975,0,0.0,0,1,1000,num_1,0.7213917000044603,,20,3,2026-03-02_17h26.15.394,2026A_exp2,2022.2.4,60.013310955915614,
1000,1,0.0,0.0,0,0,44,44,69,,,,,187.03275070001837,187.68368590000318,187.68368590000318,188.1681429000164,315,315,188.1681429000164,188.1681429000164,188.1681429000164,188.1681429000164,188.1681429000164,188.1681429000164,188.1681429000164,188.1681429000164,188.1681429000164,188.53451920000953,188.53451920000953,188.53451920000953,188.53451920000953,188.53451920000953,188.53451920000953,188.53451920000953,188.53451920000953,188.53451920000953,23,0,,,188.53451920000953,188.7365941000171,1000,188.7365941000171,1000,1000,1000,1000,1,num_2,1.2110692000132985,,20,3,2026-03-02_17h26.15.394,2026A_exp2,2022.2.4,60.013310955915614,
1,0,0.0,0.0,1,0,45,45,66,,,,,189.96938150000642,190.62002329999814,190.62002329999814,191.10427619999973,45,45,191.10427619999973,191.10427619999973,191.10427619999973,191.10427619999973,191.10427619999973,191.10427619999973,191.10427619999973,191.10427619999973,191.10427619999973,191.47083760000532,191.47083760000532,191.47083760000532,191.47083760000532,191.47083760000532,191.47083760000532,191.47083760000532,191.47083760000532,191.47083760000532,23,0,,,191.47083760000532,191.6708613000228,0.0,191.6708613000228,0,0.0,0,1,1000,num_1,1.5159954999980982,,20,3,2026-03-02_17h26.15.394,2026A_exp2,2022.2.4,60.013310955915614,
1,0,0.0,3.7,0,0,46,46,78,,,,,193.2057621999993,193.8565088000032,193.8565088000032,194.34089479999966,315,315,194.34089479999966,194.34089479999966,194.34089479999966,194.34089479999966,194.34089479999966,194.34089479999966,194.34089479999966,194.34089479999966,194.34089479999966,194.707346900017,194.707346900017,194.707346900017,194.707346900017,194.707346900017,194.707346900017,194.707346900017,194.707346900017,194.707346900017,23,0,,,194.707346900017,194.9075791000214,0.0,194.9075791000214,0,0.0,0,1,1000,num_1,1.87123160000192,,20,3,2026-03-02_17h26.15.394,2026A_exp2,2022.2.4,60.013310955915614,
1,0,6.1,0.0,0,0,47,47,50,,,,,196.80954940000083,197.46011080002063,197.46011080002063,197.94441090000328,45,45,197.94441090000328,197.94441090000328,197.94441090000328,197.94441090000328,197.94441090000328,197.94441090000328,197.94441090000328,197.94441090000328,197.94441090000328,198.31092990000616,198.31092990000616,198.31092990000616,198.31092990000616,198.31092990000616,198.31092990000616,198.31092990000616,198.31092990000616,198.31092990000616,23,0,,,198.31092990000616,198.51117199999862,6.1,198.51117199999862,1,6.1,1,1,1000,num_4,0.9482754000055138,,20,3,2026-03-02_17h26.15.394,2026A_exp2,2022.2.4,60.013310955915614,
1,0,3.7,0.0,1,0,48,48,74,,,,,199.4786763000011,200.12932760000695,200.12932760000695,200.61382130000857,45,45,200.61382130000857,200.61382130000857,200.61382130000857,200.61382130000857,200.61382130000857,200.61382130000857,200.61382130000857,200.61382130000857,200.61382130000857,200.98030280001694,200.98030280001694,200.98030280001694,200.98030280001694,200.98030280001694,200.98030280001694,200.98030280001694,200.98030280001694,200.98030280001694,23,0,,,200.98030280001694,201.18048150002141,0.0,201.18048150002141,0,0.0,0,1,1000,num_1,1.214332600007765,,20,3,2026-03-02_17h26.15.394,2026A_exp2,2022.2.4,60.013310955915614,
1,0,0.0,0.0,0,0,49,49,49,,,,,202.41492080001626,203.06542790000094,203.06542790000094,203.5500418000156,45,315,203.5500418000156,203.5500418000156,203.5500418000156,203.5500418000156,203.5500418000156,203.5500418000156,203.5500418000156,203.5500418000156,203.5500418000156,203.91660600001342,203.91660600001342,203.91660600001342,203.91660600001342,203.91660600001342,203.91660600001342,203.91660600001342,203.91660600001342,203.91660600001342,23,0,,,203.91660600001342,204.11672020002152,0.0,204.11672020002152,0,0.0,0,1,1000,num_1,0.8063150999951176,,20,3,2026-03-02_17h26.15.394,2026A_exp2,2022.2.4,60.013310955915614,
1,0,0.0,0.0,1,0,50,50,37,,,,,204.95077640001546,205.601607300021,205.601607300021,206.08595790000982,315,45,206.08595790000982,206.08595790000982,206.08595790000982,206.08595790000982,206.08595790000982,206.08595790000982,206.08595790000982,206.08595790000982,206.08595790000982,206.45220870000776,206.45220870000776,206.45220870000776,206.45220870000776,206.45220870000776,206.45220870000776,206.45220870000776,206.45220870000776,206.45220870000776,23,0,,,206.45220870000776,206.65264030001708,0.0,206.65264030001708,0,0.0,0,1,1000,num_1,0.5504444999969564,,20,3,2026-03-02_17h26.15.394,2026A_exp2,2022.2.4,60.013310955915614,
1,0,6.1,0.0,1,0,51,51,13,,,,,207.21975420002127,207.8705235000234,207.8705235000234,208.354831500008,45,315,208.354831500008,208.354831500008,208.354831500008,208.354831500008,208.354831500008,208.354831500008,208.354831500008,208.354831500008,208.354831500008,208.7214074000076,208.7214074000076,208.7214074000076,208.7214074000076,208.7214074000076,208.7214074000076,208.7214074000076,208.7214074000076,208.7214074000076,23,0,,,208.7214074000076,208.92163320002146,0.0,208.92163320002146,0,0.0,0,1,1000,num_1,0.7132084999757353,,20,3,2026-03-02_17h26.15.394,2026A_exp2,2022.2.4,60.013310955915614,
1,0,6.1,3.7,0,0,52,52,26,,,,,209.65561700001126,210.3061612000165,210.3061612000165,210.79061039999942,45,315,210.79061039999942,210.79061039999942,210.79061039999942,210.79061039999942,210.79061039999942,210.79061039999942,210.79061039999942,210.79061039999942,210.79061039999942,211.1570561999979,211.1570561999979,211.1570561999979,211.1570561999979,211.1570561999979,211.1570561999979,211.1570561999979,211.1570561999979,211.1570561999979,23,0,,,211.1570561999979,211.3572462000011,6.1,211.3572462000011,1,6.1,1,1,1000,num_4,0.7015654999995604,,20,3,2026-03-02_17h26.15.394,2026A_exp2,2022.2.4,60.013310955915614,
1000,1,4.9,0.0,0,0,53,53,36,,,,,212.07453910002369,212.72534840001026,212.72534840001026,213.20968900001026,45,315,213.20968900001026,213.20968900001026,213.20968900001026,213.20968900001026,213.20968900001026,213.20968900001026,213.20968900001026,213.20968900001026,213.20968900001026,213.57620170002338,213.57620170002338,213.57620170002338,213.57620170002338,213.57620170002338,213.57620170002338,213.57620170002338,213.57620170002338,213.57620170002338,23,0,,,213.57620170002338,213.77852880000137,1000,213.77852880000137,1000,1000,1000,1000,0,num_3,0.7772880000120495,,20,3,2026-03-02_17h26.15.394,2026A_exp2,2022.2.4,60.013310955915614,
1,0,4.9,0.0,1,0,54,54,82,,,,,214.57711410001502,215.22784430001047,215.22784430001047,215.72882760001812,315,315,215.72882760001812,215.72882760001812,215.72882760001812,215.72882760001812,215.72882760001812,215.72882760001812,215.72882760001812,215.72882760001812,215.72882760001812,216.0786298000021,216.0786298000021,216.0786298000021,216.0786298000021,216.0786298000021,216.0786298000021,216.0786298000021,216.0786298000021,216.0786298000021,11,1,[0.18362820000038482],[0.3505541000049561],216.0786298000021,216.27884350001113,0.0,216.27884350001113,0,0.0,0,1,1000,num_1,1.1483814000093844,,20,3,2026-03-02_17h26.15.394,2026A_exp2,2022.2.4,60.013310955915614,
1,0,4.9,0.0,1,0,55,55,4,,,,,217.44666270000744,218.10176079999655,218.10176079999655,218.598550900002,315,45,218.598550900002,218.598550900002,218.598550900002,218.598550900002,218.598550900002,218.598550900002,218.598550900002,218.598550900002,218.598550900002,218.94830119999824,218.94830119999824,218.94830119999824,218.94830119999824,218.94830119999824,218.94830119999824,218.94830119999824,218.94830119999824,218.94830119999824,22,0,,,218.94830119999824,219.14833389999694,0.0,219.14833389999694,0,0.0,0,1,1000,num_1,1.2467895000299904,,20,3,2026-03-02_17h26.15.394,2026A_exp2,2022.2.4,60.013310955915614,
1,0,3.7,4.9,1,0,56,56,39,,,,,220.41628620002302,221.06710830001975,221.06710830001975,221.55151700001443,315,315,221.55151700001443,221.55151700001443,221.55151700001443,221.55151700001443,221.55151700001443,221.55151700001443,221.55151700001443,221.55151700001443,221.55151700001443,221.91772769999807,221.91772769999807,221.91772769999807,221.91772769999807,221.91772769999807,221.91772769999807,221.91772769999807,221.91772769999807,221.91772769999807,22,1,[0.08298069998272695],[0.1006195999798365],221.91772769999807,222.1181145000155,4.9,222.1181145000155,0,4.9,1,0,1000,num_1,0.9738662999880034,,20,3,2026-03-02_17h26.15.394,2026A_exp2,2022.2.4,60.013310955915614,
1,0,0.0,0.0,0,0,57,57,59,,,,,223.11895760000334,223.7696222999948,223.7696222999948,224.25418420002097,45,45,224.25418420002097,224.25418420002097,224.25418420002097,224.25418420002097,224.25418420002097,224.25418420002097,224.25418420002097,224.25418420002097,224.25418420002097,224.62059170001885,224.62059170001885,224.62059170001885,224.62059170001885,224.62059170001885,224.62059170001885,224.62059170001885,224.62059170001885,224.62059170001885,17,4,"[0.033545800019055605, 0.13354850001633167, 0.21702199999708682, 0.30049270001472905]","[0.06677659999695607, 0.1669158000149764, 0.23366420000093058, 0.31702270000823773]",224.62059170001885,224.8207720000064,0.0,224.8207720000064,0,0.0,0,1,1000,num_1,0.5341501000220887,,20,3,2026-03-02_17h26.15.394,2026A_exp2,2022.2.4,60.013310955915614,
1000,1,4.9,3.7,1,0,58,58,67,,,,,225.3713478000136,226.02196800001548,226.02196800001548,226.50644090000424,45,45,226.50644090000424,226.50644090000424,226.50644090000424,226.50644090000424,226.50644090000424,226.50644090000424,226.50644090000424,226.50644090000424,226.50644090000424,226.87276700002258,226.87276700002258,226.87276700002258,226.87276700002258,226.87276700002258,226.87276700002258,226.87276700002258,226.87276700002258,226.87276700002258,23,0,,,226.87276700002258,227.07306350002182,1000,227.07306350002182,1000,1000,1000,1000,0,num_3,0.6827242999861483,,20,3,2026-03-02_17h26.15.394,2026A_exp2,2022.2.4,60.013310955915614,
1000,1,0.0,0.0,1,0,59,59,23,,,,,227.77355189999798,228.42436669999734,228.42436669999734,228.9255603000056,315,315,228.9255603000056,228.9255603000056,228.9255603000056,228.9255603000056,228.9255603000056,228.9255603000056,228.9255603000056,228.9255603000056,228.9255603000056,229.292036800005,229.292036800005,229.292036800005,229.292036800005,229.292036800005,229.292036800005,229.292036800005,229.292036800005,229.292036800005,23,0,,,229.292036800005,229.4943106000137,1000,229.4943106000137,1000,1000,1000,1000,0,num_3,1.3578366999863647,,20,3,2026-03-02_17h26.15.394,2026A_exp2,2022.2.4,60.013310955915614,
1000,1,0.0,0.0,1,0,60,60,29,,,,,230.87691439999617,231.52751070001977,231.52751070001977,232.0286202999996,45,45,232.0286202999996,232.0286202999996,232.0286202999996,232.0286202999996,232.0286202999996,232.0286202999996,232.0286202999996,232.0286202999996,232.0286202999996,232.39503330001025,232.39503330001025,232.39503330001025,232.39503330001025,232.39503330001025,232.39503330001025,232.39503330001025,232.39503330001025,232.39503330001025,23,0,,,232.39503330001025,232.59754290001,1000,232.59754290001,1000,1000,1000,1000,1,num_2,1.6463103999849409,,20,3,2026-03-02_17h26.15.394,2026A_exp2,2022.2.4,60.013310955915614,
1,0,0.0,4.9,0,0,61,61,17,,,,,234.26345110000693,234.91424189999816,234.91424189999816,235.41513090001536,315,315,235.41513090001536,235.41513090001536,235.41513090001536,235.41513090001536,235.41513090001536,235.41513090001536,235.41513090001536,235.41513090001536,235.41513090001536,235.78173529999913,235.78173529999913,235.78173529999913,235.78173529999913,235.78173529999913,235.78173529999913,235.78173529999913,235.78173529999913,235.78173529999913,13,6,"[0.01710209998418577, 0.06629799999063835, 0.13333089998923242, 0.21701449999818578, 0.2670098999806214, 0.367007900000317]","[0.04992429999401793, 0.08318639997742139, 0.2004146999970544, 0.2504420999903232, 0.28367139998590574, 0.3670127999794204]",235.78173529999913,235.98194900000817,0.0,235.98194900000817,0,0.0,0,1,1000,num_1,1.388897100026952,,20,3,2026-03-02_17h26.15.394,2026A_exp2,2022.2.4,60.013310955915614,
1,0,0.0,4.9,1,0,62,62,45,,,,,237.40013220001129,238.03407200000947,238.03407200000947,238.53516590001527,315,45,238.53516590001527,238.53516590001527,238.53516590001527,238.53516590001527,238.53516590001527,238.53516590001527,238.53516590001527,238.53516590001527,238.53516590001527,238.90159049999784,238.90159049999784,238.90159049999784,238.90159049999784,238.90159049999784,238.90159049999784,238.90159049999784,238.90159049999784,238.90159049999784,22,1,[0.36727700001210906],[0.36728170001879334],238.90159049999784,239.10183630001848,4.9,239.10183630001848,1,4.9,1,1,1000,num_4,1.7332000999886077,,20,3,2026-03-02_17h26.15.394,2026A_exp2,2022.2.4,60.013310955915614,
1000,1,4.9,4.9,0,0,63,63,31,,,,,240.8534613000229,241.50415650001378,241.50415650001378,241.98861130001023,315,315,241.98861130001023,241.98861130001023,241.98861130001023,241.98861130001023,241.98861130001023,241.98861130001023,241.98861130001023,241.98861130001023,241.98861130001023,242.35496039999998,242.35496039999998,242.35496039999998,242.35496039999998,242.35496039999998,242.35496039999998,242.35496039999998,242.35496039999998,242.35496039999998,23,0,,,242.35496039999998,242.55707030001213,1000,242.55707030001213,1000,1000,1000,1000,0,num_3,0.8390956999792252,,20,3,2026-03-02_17h26.15.394,2026A_exp2,2022.2.4,60.013310955915614,
0,0,3.7,0.0,1,0,64,64,83,,,,,243.42263129999628,244.0734580999997,244.0734580999997,244.57441739999922,45,45,244.57441739999922,244.57441739999922,244.57441739999922,244.57441739999922,244.57441739999922,244.57441739999922,244.57441739999922,244.57441739999922,244.57441739999922,244.94096110001556,244.94096110001556,244.94096110001556,244.94096110001556,244.94096110001556,244.94096110001556,244.94096110001556,244.94096110001556,244.94096110001556,19,2,"[0.1669374999764841, 0.21696559997508302]","[0.18370369999320246, 0.2503998999891337]",244.94096110001556,245.14109920000192,3.7,245.14109920000192,1,3.7,1,1,1000,num_4,1.2778292000293732,,20,3,2026-03-02_17h26.15.394,2026A_exp2,2022.2.4,60.013310955915614,
1,0,0.0,0.0,1,0,65,65,73,,,,,246.4425317000132,247.09313610001118,247.09313610001118,247.57741110000643,315,315,247.57741110000643,247.57741110000643,247.57741110000643,247.57741110000643,247.57741110000643,247.57741110000643,247.57741110000643,247.57741110000643,247.57741110000643,247.94392180000432,247.94392180000432,247.94392180000432,247.94392180000432,247.94392180000432,247.94392180000432,247.94392180000432,247.94392180000432,247.94392180000432,23,0,,,247.94392180000432,248.14414540000143,0.0,248.14414540000143,0,0.0,0,1,1000,num_1,2.4509149999939837,,20,3,2026-03-02_17h26.15.394,2026A_exp2,2022.2.4,60.013310955915614,
1000,1,3.7,0.0,1,0,66,66,79,,,,,250.61311580002075,251.2638155000168,251.2638155000168,251.74813839999842,315,45,251.74813839999842,251.74813839999842,251.74813839999842,251.74813839999842,251.74813839999842,251.74813839999842,251.74813839999842,251.74813839999842,251.74813839999842,252.11479950000648,252.11479950000648,252.11479950000648,252.11479950000648,252.11479950000648,252.11479950000648,252.11479950000648,252.11479950000648,252.11479950000648,23,0,,,252.11479950000648,252.31665210000938,1000,252.31665210000938,1000,1000,1000,1000,0,num_3,0.71861819998594,,20,3,2026-03-02_17h26.15.394,2026A_exp2,2022.2.4,60.013310955915614,
0,0,4.9,0.0,0,0,67,67,30,,,,,253.06557659999817,253.69971509999596,253.69971509999596,254.20090419999906,315,45,254.20090419999906,254.20090419999906,254.20090419999906,254.20090419999906,254.20090419999906,254.20090419999906,254.20090419999906,254.20090419999906,254.20090419999906,254.56722450000234,254.56722450000234,254.56722450000234,254.56722450000234,254.56722450000234,254.56722450000234,254.56722450000234,254.56722450000234,254.56722450000234,23,0,,,254.56722450000234,254.7673880000075,0.0,254.7673880000075,0,0.0,0,1,1000,num_1,0.9635570000100415,,20,3,2026-03-02_17h26.15.394,2026A_exp2,2022.2.4,60.013310955915614,
1,0,0.0,0.0,1,0,68,68,41,,,,,255.7516403000045,256.4023717000091,256.4023717000091,256.88682060001884,315,45,256.88682060001884,256.88682060001884,256.88682060001884,256.88682060001884,256.88682060001884,256.88682060001884,256.88682060001884,256.88682060001884,256.88682060001884,257.2532807000098,257.2532807000098,257.2532807000098,257.2532807000098,257.2532807000098,257.2532807000098,257.2532807000098,257.2532807000098,257.2532807000098,23,0,,,257.2532807000098,257.45350600001984,0.0,257.45350600001984,0,0.0,0,1,1000,num_1,0.6941943999845535,,20,3,2026-03-02_17h26.15.394,2026A_exp2,2022.2.4,60.013310955915614,
1000,1,0.0,4.9,1,0,69,69,51,,,,,258.1707288000034,258.8213767000125,258.8213767000125,259.3058859000157,45,45,259.3058859000157,259.3058859000157,259.3058859000157,259.3058859000157,259.3058859000157,259.3058859000157,259.3058859000157,259.3058859000157,259.3058859000157,259.6723567000008,259.6723567000008,259.6723567000008,259.6723567000008,259.6723567000008,259.6723567000008,259.6723567000008,259.6723567000008,259.6723567000008,23,0,,,259.6723567000008,259.8744466000062,1000,259.8744466000062,1000,1000,1000,1000,1,num_2,1.121640400000615,,20,3,2026-03-02_17h26.15.394,2026A_exp2,2022.2.4,60.013310955915614,
1,0,4.9,4.9,0,0,70,70,63,,,,,261.0236792000069,261.67432580000605,261.67432580000605,262.1585149000166,45,45,262.1585149000166,262.1585149000166,262.1585149000166,262.1585149000166,262.1585149000166,262.1585149000166,262.1585149000166,262.1585149000166,262.1585149000166,262.5251533999981,262.5251533999981,262.5251533999981,262.5251533999981,262.5251533999981,262.5251533999981,262.5251533999981,262.5251533999981,262.5251533999981,3,3,"[0.0012311000027693808, 0.06697309997980483, 0.11687759999767877]","[0.03344389999983832, 0.10035140000400133, 0.3671118999773171]",262.5251533999981,262.72539060001145,4.9,262.72539060001145,1,4.9,1,1,1000,num_4,1.3985028000024613,,20,3,2026-03-02_17h26.15.394,2026A_exp2,2022.2.4,60.013310955915614,
1000,1,0.0,4.9,0,0,71,71,77,,,,,264.14335940001183,264.7941547000082,264.7941547000082,265.278443600022,315,45,265.278443600022,265.278443600022,265.278443600022,265.278443600022,265.278443600022,265.278443600022,265.278443600022,265.278443600022,265.278443600022,265.64490270000533,265.64490270000533,265.64490270000533,265.64490270000533,265.64490270000533,265.64490270000533,265.64490270000533,265.64490270000533,265.64490270000533,23,0,,,265.64490270000533,265.84747239999706,1000,265.84747239999706,1000,1000,1000,1000,1,num_2,0.6362177999981213,,20,3,2026-03-02_17h26.15.394,2026A_exp2,2022.2.4,60.013310955915614,
1000,1,0.0,4.9,1,0,72,72,27,,,,,266.51249120000284,267.16321610001614,267.16321610001614,267.6641950000194,45,315,267.6641950000194,267.6641950000194,267.6641950000194,267.6641950000194,267.6641950000194,267.6641950000194,267.6641950000194,267.6641950000194,267.6641950000194,268.01403839999693,268.01403839999693,268.01403839999693,268.01403839999693,268.01403839999693,268.01403839999693,268.01403839999693,268.01403839999693,268.01403839999693,22,0,,,268.01403839999693,268.21609380000154,1000,268.21609380000154,1000,1000,1000,1000,1,num_2,0.5474388000147883,,20,3,2026-03-02_17h26.15.394,2026A_exp2,2022.2.4,60.013310955915614,
1,0,4.9,0.0,1,0,73,73,84,,,,,268.78141310001956,269.43207780001103,269.43207780001103,269.93311390001327,45,315,269.93311390001327,269.93311390001327,269.93311390001327,269.93311390001327,269.93311390001327,269.93311390001327,269.93311390001327,269.93311390001327,269.93311390001327,270.2995435000048,270.2995435000048,270.2995435000048,270.2995435000048,270.2995435000048,270.2995435000048,270.2995435000048,270.2995435000048,270.2995435000048,23,0,,,270.2995435000048,270.49982759999693,0.0,270.49982759999693,0,0.0,0,1,1000,num_1,1.487936500023352,,20,3,2026-03-02_17h26.15.394,2026A_exp2,2022.2.4,60.013310955915614,
1000,1,0.0,6.1,1,0,74,74,88,,,,,272.0178540000052,272.6685012000089,272.6685012000089,273.1530971000029,315,315,273.1530971000029,273.1530971000029,273.1530971000029,273.1530971000029,273.1530971000029,273.1530971000029,273.1530971000029,273.1530971000029,273.1530971000029,273.5194898000045,273.5194898000045,273.5194898000045,273.5194898000045,273.5194898000045,273.5194898000045,273.5194898000045,273.5194898000045,273.5194898000045,23,0,,,273.5194898000045,273.72130299999844,1000,273.72130299999844,1000,1000,1000,1000,1,num_2,0.6823441000015009,,20,3,2026-03-02_17h26.15.394,2026A_exp2,2022.2.4,60.013310955915614,
1000,1,0.0,4.9,0,0,75,75,11,,,,,274.4203073999961,275.07118070000433,275.07118070000433,275.5721037000185,45,315,275.5721037000185,275.5721037000185,275.5721037000185,275.5721037000185,275.5721037000185,275.5721037000185,275.5721037000185,275.5721037000185,275.5721037000185,275.93863440002315,275.93863440002315,275.93863440002315,275.93863440002315,275.93863440002315,275.93863440002315,275.93863440002315,275.93863440002315,275.93863440002315,23,0,,,275.93863440002315,276.1406721000094,1000,276.1406721000094,1000,1000,1000,1000,1,num_2,1.3829201000044122,,20,3,2026-03-02_17h26.15.394,2026A_exp2,2022.2.4,60.013310955915614,
0,0,0.0,6.1,1,0,76,76,76,,,,,277.5404518000141,278.19087829999626,278.19087829999626,278.6753155000042,45,315,278.6753155000042,278.6753155000042,278.6753155000042,278.6753155000042,278.6753155000042,278.6753155000042,278.6753155000042,278.6753155000042,278.6753155000042,279.04160490000504,279.04160490000504,279.04160490000504,279.04160490000504,279.04160490000504,279.04160490000504,279.04160490000504,279.04160490000504,279.04160490000504,23,0,,,279.04160490000504,279.2418349000218,0.0,279.2418349000218,0,0.0,0,1,1000,num_1,0.922191899997415,,20,3,2026-03-02_17h26.15.394,2026A_exp2,2022.2.4,60.013310955915614,
1000,1,6.1,4.9,1,0,77,77,16,,,,,280.19280630000867,280.84347150000394,280.84347150000394,281.3279489999986,315,45,281.3279489999986,281.3279489999986,281.3279489999986,281.3279489999986,281.3279489999986,281.3279489999986,281.3279489999986,281.3279489999986,281.3279489999986,281.6942147000227,281.6942147000227,281.6942147000227,281.6942147000227,281.6942147000227,281.6942147000227,281.6942147000227,281.6942147000227,281.6942147000227,20,2,"[0.03360009999596514, 0.3671745000174269]","[0.05026030002045445, 0.3671788000210654]",281.6942147000227,281.89671680002357,1000,281.89671680002357,1000,1000,1000,1000,0,num_3,0.6823702999972738,,20,3,2026-03-02_17h26.15.394,2026A_exp2,2022.2.4,60.013310955915614,
1000,1,0.0,0.0,0,0,78,78,20,,,,,282.5951552000188,283.24591120000696,283.24591120000696,283.7470202000113,315,315,283.7470202000113,283.7470202000113,283.7470202000113,283.7470202000113,283.7470202000113,283.7470202000113,283.7470202000113,283.7470202000113,283.7470202000113,284.11346380002215,284.11346380002215,284.11346380002215,284.11346380002215,284.11346380002215,284.11346380002215,284.11346380002215,284.11346380002215,284.11346380002215,23,0,,,284.11346380002215,284.3156151000003,1000,284.3156151000003,1000,1000,1000,1000,0,num_3,1.479048499983037,,20,3,2026-03-02_17h26.15.394,2026A_exp2,2022.2.4,60.013310955915614,
1000,1,6.1,3.7,0,0,79,79,87,,,,,285.8152143000043,286.4658650000056,286.4658650000056,286.9502329000097,45,45,286.9502329000097,286.9502329000097,286.9502329000097,286.9502329000097,286.9502329000097,286.9502329000097,286.9502329000097,286.9502329000097,286.9502329000097,287.3164880000113,287.3164880000113,287.3164880000113,287.3164880000113,287.3164880000113,287.3164880000113,287.3164880000113,287.3164880000113,287.3164880000113,23,0,,,287.3164880000113,287.5191584000131,1000,287.5191584000131,1000,1000,1000,1000,0,num_3,0.7315873999905307,,20,3,2026-03-02_17h26.15.394,2026A_exp2,2022.2.4,60.013310955915614,
1000,1,0.0,3.7,0,0,80,80,52,,,,,288.26747479999904,288.9180011000135,288.9180011000135,289.41924730001483,315,315,289.41924730001483,289.41924730001483,289.41924730001483,289.41924730001483,289.41924730001483,289.41924730001483,289.41924730001483,289.41924730001483,289.41924730001483,289.7857619000133,289.7857619000133,289.7857619000133,289.7857619000133,289.7857619000133,289.7857619000133,289.7857619000133,289.7857619000133,289.7857619000133,23,0,,,289.7857619000133,289.9875838000153,1000,289.9875838000153,1000,1000,1000,1000,1,num_2,0.8242147999990266,,20,3,2026-03-02_17h26.15.394,2026A_exp2,2022.2.4,60.013310955915614,
1000,1,4.9,0.0,1,0,81,81,72,,,,,290.8367222000088,291.4873946000007,291.4873946000007,291.9886186000076,45,45,291.9886186000076,291.9886186000076,291.9886186000076,291.9886186000076,291.9886186000076,291.9886186000076,291.9886186000076,291.9886186000076,291.9886186000076,292.3550181000028,292.3550181000028,292.3550181000028,292.3550181000028,292.3550181000028,292.3550181000028,292.3550181000028,292.3550181000028,292.3550181000028,23,0,,,292.3550181000028,292.5576910999953,1000,292.5576910999953,1000,1000,1000,1000,0,num_3,0.42251870001200587,,20,3,2026-03-02_17h26.15.394,2026A_exp2,2022.2.4,60.013310955915614,
1,0,0.0,6.1,0,0,82,82,68,,,,,293.0055567000236,293.6615493000136,293.6615493000136,294.14420199999586,315,315,294.14420199999586,294.14420199999586,294.14420199999586,294.14420199999586,294.14420199999586,294.14420199999586,294.14420199999586,294.14420199999586,294.14420199999586,294.50706750000245,294.50706750000245,294.50706750000245,294.50706750000245,294.50706750000245,294.50706750000245,294.50706750000245,294.50706750000245,294.50706750000245,23,0,,,294.50706750000245,294.7072942999948,0.0,294.7072942999948,0,0.0,0,1,1000,num_1,2.6080409999995027,,20,3,2026-03-02_17h26.15.394,2026A_exp2,2022.2.4,60.013310955915614,
1000,1,0.0,0.0,1,0,83,83,7,,,,,297.34330100001534,297.99391130000004,297.99391130000004,298.47819670001627,45,315,298.47819670001627,298.47819670001627,298.47819670001627,298.47819670001627,298.47819670001627,298.47819670001627,298.47819670001627,298.47819670001627,298.47819670001627,298.8447785000026,298.8447785000026,298.8447785000026,298.8447785000026,298.8447785000026,298.8447785000026,298.8447785000026,298.8447785000026,298.8447785000026,23,0,,,298.8447785000026,299.04695330001414,1000,299.04695330001414,1000,1000,1000,1000,1,num_2,1.3164603000041097,,20,3,2026-03-02_17h26.15.394,2026A_exp2,2022.2.4,60.013310955915614,
1,0,0.0,4.9,0,0,84,84,85,,,,,300.37961299999733,301.0301597000216,301.0301597000216,301.53138860000763,315,315,301.53138860000763,301.53138860000763,301.53138860000763,301.53138860000763,301.53138860000763,301.53138860000763,301.53138860000763,301.53138860000763,301.53138860000763,301.8978683000023,301.8978683000023,301.8978683000023,301.8978683000023,301.8978683000023,301.8978683000023,301.8978683000023,301.8978683000023,301.8978683000023,23,0,,,301.8978683000023,302.09798600000795,0.0,302.09798600000795,0,0.0,0,1,1000,num_1,1.057167599996319,,20,3,2026-03-02_17h26.15.394,2026A_exp2,2022.2.4,60.013310955915614,
0,0,3.7,4.9,1,0,85,85,3,,,,,303.18223400000716,303.8330118000158,303.8330118000158,304.3348019999976,315,45,304.3348019999976,304.3348019999976,304.3348019999976,304.3348019999976,304.3348019999976,304.3348019999976,304.3348019999976,304.3348019999976,304.3348019999976,304.6840657000139,304.6840657000139,304.6840657000139,304.6840657000139,304.6840657000139,304.6840657000139,304.6840657000139,304.6840657000139,304.6840657000139,23,0,,,304.6840657000139,304.88531559999683,3.7,304.88531559999683,1,3.7,1,1,1000,num_4,1.4383009999874048,,20,3,2026-03-02_17h26.15.394,2026A_exp2,2022.2.4,60.013310955915614,
0,0,0.0,4.9,0,0,86,86,54,,,,,306.3525544000149,307.00370020000264,307.00370020000264,307.50796660000924,45,45,307.50796660000924,307.50796660000924,307.50796660000924,307.50796660000924,307.50796660000924,307.50796660000924,307.50796660000924,307.50796660000924,307.50796660000924,307.87057820000337,307.87057820000337,307.87057820000337,307.87057820000337,307.87057820000337,307.87057820000337,307.87057820000337,307.87057820000337,307.87057820000337,23,0,,,307.87057820000337,308.0708198000211,4.9,308.0708198000211,1,4.9,1,1,1000,num_4,1.3564873000141233,,20,3,2026-03-02_17h26.15.394,2026A_exp2,2022.2.4,60.013310955915614,
1000,1,3.7,0.0,1,0,87,87,55,,,,,309.4555118000135,310.0892621999956,310.0892621999956,310.59511439999915,45,45,310.59511439999915,310.59511439999915,310.59511439999915,310.59511439999915,310.59511439999915,310.59511439999915,310.59511439999915,310.59511439999915,310.59511439999915,310.95709300000453,310.95709300000453,310.95709300000453,310.95709300000453,310.95709300000453,310.95709300000453,310.95709300000453,310.95709300000453,310.95709300000453,23,0,,,310.95709300000453,311.17301020000014,1000,311.17301020000014,1000,1000,1000,1000,0,num_3,0.686021300003631,,20,3,2026-03-02_17h26.15.394,2026A_exp2,2022.2.4,60.013310955915614,
0,0,0.0,4.9,1,0,88,88,56,,,,,311.8744179000205,312.52806880002026,312.52806880002026,313.0264309000049,315,45,313.0264309000049,313.0264309000049,313.0264309000049,313.0264309000049,313.0264309000049,313.0264309000049,313.0264309000049,313.0264309000049,313.0264309000049,313.3927479000122,313.3927479000122,313.3927479000122,313.3927479000122,313.3927479000122,313.3927479000122,313.3927479000122,313.3927479000122,313.3927479000122,23,0,,,313.3927479000122,313.5930193999957,0.0,313.5930193999957,0,0.0,0,1,1000,num_1,0.8260588999837637,,20,3,2026-03-02_17h26.15.394,2026A_exp2,2022.2.4,60.013310955915614,
1,0,0.0,3.7,1,0,89,89,57,,,,,314.44378200001665,315.0943357000069,315.0943357000069,315.595401700004,45,315,315.595401700004,315.595401700004,315.595401700004,315.595401700004,315.595401700004,315.595401700004,315.595401700004,315.595401700004,315.595401700004,315.961752800009,315.961752800009,315.961752800009,315.961752800009,315.961752800009,315.961752800009,315.961752800009,315.961752800009,315.961752800009,23,0,,,315.961752800009,316.1620621000184,3.7,316.1620621000184,1,3.7,1,1,1000,num_4,2.537673199985875,,20,3,2026-03-02_17h26.15.394,2026A_exp2,2022.2.4,60.013310955915614,
,,,,,,,,,,,,,,,,,,,,,,,,,,,,,,,,,,,,,,,,,,,,,,,,,,,,318.74074320000364,,,,,,,
