validity,detectorcomp,contrastCW,contrastCCW,precueCWorCCW,block_80trials.thisRepN,block_80trials.thisTrialN,block_80trials.thisN,block_80trials.thisIndex,etRecord.started,etRecord.stopped,text.started,text.stopped,text_4.started,text_4.stopped,text_6.started,text_6.stopped,oriCW,oriCCW,roi_2.started,grating_UR.started,grating_UL.started,grating_LR.started,grating_LL.started,noise_UR.started,noise_UL.started,noise_LR.started,noise_LL.started,roi_2.stopped,grating_UR.stopped,grating_UL.stopped,grating_LR.stopped,grating_LL.stopped,noise_UR.stopped,noise_UL.stopped,noise_LR.stopped,noise_LL.stopped,outframe,roi_2.numLooks,roi_2.timesOn,roi_2.timesOff,text_2.started,text_2.stopped,probedcontrast,key_resp.started,respdetect,relevantContrast,correctDetect,TorFdetect,respCWorCCW,key_resp.keys,key_resp.rt,feedback_display_.started,participantNo,blockNo,date,expName,psychopyVersion,frameRate,
1000,1,3.7,0.0,0,0,0,0,32,9.26000066101551e-05,9.26000066101551e-05,50.8182802000083,52.82300059986301,52.82300059986301,53.45410329988226,53.45410329988226,53.97792059998028,315,45,53.97792059998028,53.97792059998028,53.97792059998028,53.97792059998028,53.97792059998028,53.97792059998028,53.97792059998028,53.97792059998028,53.97792059998028,54.32155549991876,54.32155549991876,54.32155549991876,54.32155549991876,54.32155549991876,54.32155549991876,54.32155549991876,54.32155549991876,54.32155549991876,0,1,[0.0008582000155001879],[0.36699369992129505],54.32155549991876,54.52882790006697,1000,54.52882790006697,1000,1000,1000,1000,1,num_2,2.9666419001296163,,37,1,2026-03-13_17h13.33.668,2026A_exp2,2022.2.4,60.19364298042373,
1,0,0.0,0.0,0,0,1,1,34,,,,,57.524921299889684,58.17552000004798,58.17552000004798,58.65993979992345,45,315,58.65993979992345,58.65993979992345,58.65993979992345,58.65993979992345,58.65993979992345,58.65993979992345,58.65993979992345,58.65993979992345,58.65993979992345,59.02626589988358,59.02626589988358,59.02626589988358,59.02626589988358,59.02626589988358,59.02626589988358,59.02626589988358,59.02626589988358,59.02626589988358,8,1,[0.13360450020991266],[0.3673662000801414],59.02626589988358,59.2264787000604,0.0,59.2264787000604,0,0.0,0,1,1000,num_1,2.2132309002336115,,37,1,2026-03-13_17h13.33.668,2026A_exp2,2022.2.4,60.19364298042373,
1000,1,0.0,0.0,0,0,2,2,72,,,,,61.4621671999339,62.11278109997511,62.11278109997511,62.597249399870634,45,45,62.597249399870634,62.597249399870634,62.597249399870634,62.597249399870634,62.597249399870634,62.597249399870634,62.597249399870634,62.597249399870634,62.597249399870634,62.9636429999955,62.9636429999955,62.9636429999955,62.9636429999955,62.9636429999955,62.9636429999955,62.9636429999955,62.9636429999955,62.9636429999955,0,1,[0.001191300107166171],[0.3674170000012964],62.9636429999955,63.16552999988198,1000,63.16552999988198,1000,1000,1000,1000,0,num_3,1.378371500177309,,37,1,2026-03-13_17h13.33.668,2026A_exp2,2022.2.4,60.19364298042373,
1,0,3.7,3.7,1,0,3,3,86,,,,,64.56521559995599,65.21580630005337,65.21580630005337,65.7168864000123,45,45,65.7168864000123,65.7168864000123,65.7168864000123,65.7168864000123,65.7168864000123,65.7168864000123,65.7168864000123,65.7168864000123,65.7168864000123,66.08344459999353,66.08344459999353,66.08344459999353,66.08344459999353,66.08344459999353,66.08344459999353,66.08344459999353,66.08344459999353,66.08344459999353,0,1,[0.001012299908325076],[0.36732459999620914],66.08344459999353,66.28368470002897,3.7,66.28368470002897,0,3.7,1,0,1000,num_1,1.5476307000499219,,37,1,2026-03-13_17h13.33.668,2026A_exp2,2022.2.4,60.19364298042373,
1000,1,4.9,0.0,0,0,4,4,50,,,,,67.852041099919,68.48569209990092,68.48569209990092,68.98697649990208,45,315,68.98697649990208,68.98697649990208,68.98697649990208,68.98697649990208,68.98697649990208,68.98697649990208,68.98697649990208,68.98697649990208,68.98697649990208,69.35326640005223,69.35326640005223,69.35326640005223,69.35326640005223,69.35326640005223,69.35326640005223,69.35326640005223,69.35326640005223,69.35326640005223,0,1,[0.0012610000558197498],[0.36709309997968376],69.35326640005223,69.55569859989919,1000,69.55569859989919,1000,1000,1000,1000,0,num_3,1.0915787001140416,,37,1,2026-03-13_17h13.33.668,2026A_exp2,2022.2.4,60.19364298042373,
1000,1,0.0,6.1,0,0,5,5,85,,,,,70.67141199996695,71.32192780007608,71.32192780007608,71.82299169991165,315,45,71.82299169991165,71.82299169991165,71.82299169991165,71.82299169991165,71.82299169991165,71.82299169991165,71.82299169991165,71.82299169991165,71.82299169991165,72.18944490002468,72.18944490002468,72.18944490002468,72.18944490002468,72.18944490002468,72.18944490002468,72.18944490002468,72.18944490002468,72.18944490002468,23,0,,,72.18944490002468,72.39169849990867,1000,72.39169849990867,1000,1000,1000,1000,1,num_2,0.9441341001074761,,37,1,2026-03-13_17h13.33.668,2026A_exp2,2022.2.4,60.19364298042373,
1,0,0.0,0.0,0,0,6,6,51,,,,,73.35721619985998,74.00804620003328,74.00804620003328,74.50900790002197,315,45,74.50900790002197,74.50900790002197,74.50900790002197,74.50900790002197,74.50900790002197,74.50900790002197,74.50900790002197,74.50900790002197,74.50900790002197,74.87557079992257,74.87557079992257,74.87557079992257,74.87557079992257,74.87557079992257,74.87557079992257,74.87557079992257,74.87557079992257,74.87557079992257,0,1,[0.0014106999151408672],[0.3670610000845045],74.87557079992257,75.0756389000453,0.0,75.0756389000453,1,0.0,0,0,1000,num_4,1.6925206000450999,,37,1,2026-03-13_17h13.33.668,2026A_exp2,2022.2.4,60.19364298042373,
1000,1,3.7,4.9,0,0,7,7,64,,,,,76.79403580003418,77.4447530999314,77.4447530999314,77.92926470004022,315,45,77.92926470004022,77.92926470004022,77.92926470004022,77.92926470004022,77.92926470004022,77.92926470004022,77.92926470004022,77.92926470004022,77.92926470004022,78.29569109994918,78.29569109994918,78.29569109994918,78.29569109994918,78.29569109994918,78.29569109994918,78.29569109994918,78.29569109994918,78.29569109994918,0,1,[0.0012329998426139355],[0.3671661999542266],78.29569109994918,78.49782339995727,1000,78.49782339995727,1000,1000,1000,1000,0,num_3,1.4218819001689553,,37,1,2026-03-13_17h13.33.668,2026A_exp2,2022.2.4,60.19364298042373,
1,0,3.7,0.0,1,0,8,8,28,,,,,79.94716949993744,80.59800500003621,80.59800500003621,81.09906490007415,45,45,81.09906490007415,81.09906490007415,81.09906490007415,81.09906490007415,81.09906490007415,81.09906490007415,81.09906490007415,81.09906490007415,81.09906490007415,81.46533929998986,81.46533929998986,81.46533929998986,81.46533929998986,81.46533929998986,81.46533929998986,81.46533929998986,81.46533929998986,81.46533929998986,23,0,,,81.46533929998986,81.66571890003979,0.0,81.66571890003979,1,0.0,0,0,1000,num_4,2.25396790006198,,37,1,2026-03-13_17h13.33.668,2026A_exp2,2022.2.4,60.19364298042373,
0,0,6.1,0.0,1,0,9,9,30,,,,,83.95119599997997,84.60181179991923,84.60181179991923,85.08625699998811,45,315,85.08625699998811,85.08625699998811,85.08625699998811,85.08625699998811,85.08625699998811,85.08625699998811,85.08625699998811,85.08625699998811,85.08625699998811,85.45284909987822,85.45284909987822,85.45284909987822,85.45284909987822,85.45284909987822,85.45284909987822,85.45284909987822,85.45284909987822,85.45284909987822,23,0,,,85.45284909987822,85.65290089999326,6.1,85.65290089999326,1,6.1,1,1,1000,num_4,1.5951054999604821,,37,1,2026-03-13_17h13.33.668,2026A_exp2,2022.2.4,60.19364298042373,
1000,1,0.0,6.1,1,0,10,10,62,,,,,87.2711183000356,87.92180759995244,87.92180759995244,88.40640429989435,315,315,88.40640429989435,88.40640429989435,88.40640429989435,88.40640429989435,88.40640429989435,88.40640429989435,88.40640429989435,88.40640429989435,88.40640429989435,88.7728780999314,88.7728780999314,88.7728780999314,88.7728780999314,88.7728780999314,88.7728780999314,88.7728780999314,88.7728780999314,88.7728780999314,0,1,[0.0012286000419408083],[0.36722199991345406],88.7728780999314,88.97491510002874,1000,88.97491510002874,1000,1000,1000,1000,1,num_2,1.5053713000379503,,37,1,2026-03-13_17h13.33.668,2026A_exp2,2022.2.4,60.19364298042373,
1000,1,6.1,0.0,0,0,11,11,59,,,,,90.5077468000818,91.15849930001423,91.15849930001423,91.65951479994692,45,45,91.65951479994692,91.65951479994692,91.65951479994692,91.65951479994692,91.65951479994692,91.65951479994692,91.65951479994692,91.65951479994692,91.65951479994692,92.02610470005311,92.02610470005311,92.02610470005311,92.02610470005311,92.02610470005311,92.02610470005311,92.02610470005311,92.02610470005311,92.02610470005311,5,1,[0.001211400143802166],[0.3003169000148773],92.02610470005311,92.22817220003344,1000,92.22817220003344,1000,1000,1000,1000,0,num_3,33.45871390006505,,37,1,2026-03-13_17h13.33.668,2026A_exp2,2022.2.4,60.19364298042373,
1000,1,0.0,0.0,0,0,12,12,6,,,,,125.70955369994044,126.36035949992947,126.36035949992947,126.8446857999079,315,45,126.8446857999079,126.8446857999079,126.8446857999079,126.8446857999079,126.8446857999079,126.8446857999079,126.8446857999079,126.8446857999079,126.8446857999079,127.21124269999564,127.21124269999564,127.21124269999564,127.21124269999564,127.21124269999564,127.21124269999564,127.21124269999564,127.21124269999564,127.21124269999564,23,0,,,127.21124269999564,127.41357930004597,1000,127.41357930004597,1000,1000,1000,1000,0,num_3,1.7537397001869977,,37,1,2026-03-13_17h13.33.668,2026A_exp2,2022.2.4,60.19364298042373,
1,0,3.7,0.0,1,0,13,13,11,,,,,129.19645179994404,129.84705529990606,129.84705529990606,130.34818940004334,315,315,130.34818940004334,130.34818940004334,130.34818940004334,130.34818940004334,130.34818940004334,130.34818940004334,130.34818940004334,130.34818940004334,130.34818940004334,130.71460149995983,130.71460149995983,130.71460149995983,130.71460149995983,130.71460149995983,130.71460149995983,130.71460149995983,130.71460149995983,130.71460149995983,23,0,,,130.71460149995983,130.91497929999605,0.0,130.91497929999605,1,0.0,0,0,1000,num_4,1.6208909002598375,,37,1,2026-03-13_17h13.33.668,2026A_exp2,2022.2.4,60.19364298042373,
1,0,4.9,3.7,1,0,14,14,10,,,,,132.5664764000103,133.21726399986073,133.21726399986073,133.70168119994923,45,315,133.70168119994923,133.70168119994923,133.70168119994923,133.70168119994923,133.70168119994923,133.70168119994923,133.70168119994923,133.70168119994923,133.70168119994923,134.06801020004787,134.06801020004787,134.06801020004787,134.06801020004787,134.06801020004787,134.06801020004787,134.06801020004787,134.06801020004787,134.06801020004787,23,0,,,134.06801020004787,134.2682848998811,3.7,134.2682848998811,1,3.7,1,1,1000,num_4,0.9547153001185507,,37,1,2026-03-13_17h13.33.668,2026A_exp2,2022.2.4,60.19364298042373,
1,0,4.9,0.0,0,0,15,15,4,,,,,135.25246179988608,135.90310380002484,135.90310380002484,136.3875458999537,45,45,136.3875458999537,136.3875458999537,136.3875458999537,136.3875458999537,136.3875458999537,136.3875458999537,136.3875458999537,136.3875458999537,136.3875458999537,136.75407999986783,136.75407999986783,136.75407999986783,136.75407999986783,136.75407999986783,136.75407999986783,136.75407999986783,136.75407999986783,136.75407999986783,0,1,[0.00124739995226264],[0.36713639996014535],136.75407999986783,136.95432880008593,4.9,136.95432880008593,1,4.9,1,1,1000,num_4,1.052885000128299,,37,1,2026-03-13_17h13.33.668,2026A_exp2,2022.2.4,60.19364298042373,
1,0,0.0,3.7,1,0,16,16,0,,,,,138.03851850004867,138.68935879995115,138.68935879995115,139.1744808999356,315,315,139.1744808999356,139.1744808999356,139.1744808999356,139.1744808999356,139.1744808999356,139.1744808999356,139.1744808999356,139.1744808999356,139.1744808999356,139.54018629994243,139.54018629994243,139.54018629994243,139.54018629994243,139.54018629994243,139.54018629994243,139.54018629994243,139.54018629994243,139.54018629994243,0,1,[0.0012380999978631735],[0.36727789998985827],139.54018629994243,139.74027889990248,3.7,139.74027889990248,1,3.7,1,1,1000,num_4,0.9307137001305819,,37,1,2026-03-13_17h13.33.668,2026A_exp2,2022.2.4,60.19364298042373,
1000,1,0.0,6.1,1,0,17,17,69,,,,,140.69121990003623,141.3420061999932,141.3420061999932,141.8263733999338,45,315,141.8263733999338,141.8263733999338,141.8263733999338,141.8263733999338,141.8263733999338,141.8263733999338,141.8263733999338,141.8263733999338,141.8263733999338,142.19270369992591,142.19270369992591,142.19270369992591,142.19270369992591,142.19270369992591,142.19270369992591,142.19270369992591,142.19270369992591,142.19270369992591,0,1,[0.0012112001422792673],[0.3672034000046551],142.19270369992591,142.41771529987454,1000,142.41771529987454,1000,1000,1000,1000,1,num_2,1.046421900158748,,37,1,2026-03-13_17h13.33.668,2026A_exp2,2022.2.4,60.19364298042373,
1000,1,0.0,3.7,0,0,18,18,57,,,,,143.49406339996494,144.14482429996133,144.14482429996133,144.64587090001442,45,45,144.64587090001442,144.64587090001442,144.64587090001442,144.64587090001442,144.64587090001442,144.64587090001442,144.64587090001442,144.64587090001442,144.64587090001442,145.0121980998665,145.0121980998665,145.0121980998665,145.0121980998665,145.0121980998665,145.0121980998665,145.0121980998665,145.0121980998665,145.0121980998665,0,1,[0.00122410012409091],[0.3672681001480669],145.0121980998665,145.21455439995043,1000,145.21455439995043,1000,1000,1000,1000,1,num_2,1.0253151000943035,,37,1,2026-03-13_17h13.33.668,2026A_exp2,2022.2.4,60.19364298042373,
1000,1,0.0,6.1,1,0,19,19,3,,,,,146.26348409987986,146.91389669990167,146.91389669990167,147.4152802999597,315,45,147.4152802999597,147.4152802999597,147.4152802999597,147.4152802999597,147.4152802999597,147.4152802999597,147.4152802999597,147.4152802999597,147.4152802999597,147.76512839994393,147.76512839994393,147.76512839994393,147.76512839994393,147.76512839994393,147.76512839994393,147.76512839994393,147.76512839994393,147.76512839994393,1,2,"[0.0012125000357627869, 0.10042070015333593]","[0.08367249998264015, 0.3506400000769645]",147.76512839994393,147.9666883999016,1000,147.98191069997847,1000,1000,1000,1000,1,num_2,0.8738964002113789,,37,1,2026-03-13_17h13.33.668,2026A_exp2,2022.2.4,60.19364298042373,
1,0,6.1,6.1,0,0,20,20,27,,,,,148.88283420004882,149.533488499932,149.533488499932,150.03450650000013,315,315,150.03450650000013,150.03450650000013,150.03450650000013,150.03450650000013,150.03450650000013,150.03450650000013,150.03450650000013,150.03450650000013,150.03450650000013,150.40091739990748,150.40091739990748,150.40091739990748,150.40091739990748,150.40091739990748,150.40091739990748,150.40091739990748,150.40091739990748,150.40091739990748,0,1,[0.0012141999322921038],[0.36736429994925857],150.40091739990748,150.60109049989842,6.1,150.60109049989842,1,6.1,1,1,1000,num_4,1.534558200277388,,37,1,2026-03-13_17h13.33.668,2026A_exp2,2022.2.4,60.19364298042373,
1,0,4.9,3.7,1,0,21,21,26,,,,,152.15269979997538,152.80345509992912,152.80345509992912,153.28773560002446,45,45,153.28773560002446,153.28773560002446,153.28773560002446,153.28773560002446,153.28773560002446,153.28773560002446,153.28773560002446,153.28773560002446,153.28773560002446,153.6541754999198,153.6541754999198,153.6541754999198,153.6541754999198,153.6541754999198,153.6541754999198,153.6541754999198,153.6541754999198,153.6541754999198,23,0,,,153.6541754999198,153.85437029995956,3.7,153.85437029995956,0,3.7,1,0,1000,num_1,1.3292866002302617,,37,1,2026-03-13_17h13.33.668,2026A_exp2,2022.2.4,60.19364298042373,
1000,1,0.0,6.1,0,0,22,22,2,,,,,155.20571139990352,155.856471600011,155.856471600011,156.34085309994407,45,315,156.34085309994407,156.34085309994407,156.34085309994407,156.34085309994407,156.34085309994407,156.34085309994407,156.34085309994407,156.34085309994407,156.34085309994407,156.7073263998609,156.7073263998609,156.7073263998609,156.7073263998609,156.7073263998609,156.7073263998609,156.7073263998609,156.7073263998609,156.7073263998609,0,1,[0.001206899993121624],[0.36715329997241497],156.7073263998609,156.909451500047,1000,156.909451500047,1000,1000,1000,1000,1,num_2,0.9696730000432581,,37,1,2026-03-13_17h13.33.668,2026A_exp2,2022.2.4,60.19364298042373,
1,0,0.0,0.0,0,0,23,23,17,,,,,157.9085017000325,158.5592410999816,158.5592410999816,159.06031979992986,45,315,159.06031979992986,159.06031979992986,159.06031979992986,159.06031979992986,159.06031979992986,159.06031979992986,159.06031979992986,159.06031979992986,159.06031979992986,159.4267688000109,159.4267688000109,159.4267688000109,159.4267688000109,159.4267688000109,159.4267688000109,159.4267688000109,159.4267688000109,159.4267688000109,23,0,,,159.4267688000109,159.63406569999643,0.0,159.63406569999643,0,0.0,0,1,1000,num_1,3.2456770001444966,,37,1,2026-03-13_17h13.33.668,2026A_exp2,2022.2.4,60.19364298042373,
1000,1,0.0,6.1,0,0,24,24,75,,,,,162.89675080007873,163.54751689988188,163.54751689988188,164.03187489998527,315,315,164.03187489998527,164.03187489998527,164.03187489998527,164.03187489998527,164.03187489998527,164.03187489998527,164.03187489998527,164.03187489998527,164.03187489998527,164.3981635000091,164.3981635000091,164.3981635000091,164.3981635000091,164.3981635000091,164.3981635000091,164.3981635000091,164.3981635000091,164.3981635000091,9,4,"[0.00124739995226264, 0.10012499988079071, 0.283759200014174, 0.31713069998659194]","[0.01719969999976456, 0.2670112999621779, 0.30037169996649027, 0.3504826999269426]",164.3981635000091,164.6243857999798,1000,164.6243857999798,1000,1000,1000,1000,1,num_2,0.7105497000738978,,37,1,2026-03-13_17h13.33.668,2026A_exp2,2022.2.4,60.19364298042373,
1,0,0.0,0.0,1,0,25,25,21,,,,,165.36591179994866,166.0165625999216,166.0165625999216,166.51774169993587,315,315,166.51774169993587,166.51774169993587,166.51774169993587,166.51774169993587,166.51774169993587,166.51774169993587,166.51774169993587,166.51774169993587,166.51774169993587,166.86756050004624,166.86756050004624,166.86756050004624,166.86756050004624,166.86756050004624,166.86756050004624,166.86756050004624,166.86756050004624,166.86756050004624,0,1,[0.0012344000861048698],[0.35057669994421303],166.86756050004624,167.0678335998673,0.0,167.0678335998673,0,0.0,0,1,1000,num_1,2.507080900017172,,37,1,2026-03-13_17h13.33.668,2026A_exp2,2022.2.4,60.19364298042373,
0,0,3.7,6.1,0,0,26,26,73,,,,,169.60346639994532,170.25412629987113,170.25412629987113,170.7386700999923,45,315,170.7386700999923,170.7386700999923,170.7386700999923,170.7386700999923,170.7386700999923,170.7386700999923,170.7386700999923,170.7386700999923,170.7386700999923,171.1050853000488,171.1050853000488,171.1050853000488,171.1050853000488,171.1050853000488,171.1050853000488,171.1050853000488,171.1050853000488,171.1050853000488,23,0,,,171.1050853000488,171.3050522999838,6.1,171.3050522999838,1,6.1,1,1,1000,num_4,2.358579100109637,,37,1,2026-03-13_17h13.33.668,2026A_exp2,2022.2.4,60.19364298042373,
1,0,0.0,3.7,0,0,27,27,61,,,,,173.69099320005625,174.34167309990153,174.34167309990153,174.8260874999687,45,45,174.8260874999687,174.8260874999687,174.8260874999687,174.8260874999687,174.8260874999687,174.8260874999687,174.8260874999687,174.8260874999687,174.8260874999687,175.19255049992353,175.19255049992353,175.19255049992353,175.19255049992353,175.19255049992353,175.19255049992353,175.19255049992353,175.19255049992353,175.19255049992353,0,1,[0.0012099999003112316],[0.3672271999530494],175.19255049992353,175.39257830008864,0.0,175.39257830008864,0,0.0,0,1,1000,num_1,1.4305158001370728,,37,1,2026-03-13_17h13.33.668,2026A_exp2,2022.2.4,60.19364298042373,
1,0,0.0,6.1,0,0,28,28,82,,,,,176.84398299991153,177.4946294000838,177.4946294000838,177.9792976998724,45,315,177.9792976998724,177.9792976998724,177.9792976998724,177.9792976998724,177.9792976998724,177.9792976998724,177.9792976998724,177.9792976998724,177.9792976998724,178.34575919993222,178.34575919993222,178.34575919993222,178.34575919993222,178.34575919993222,178.34575919993222,178.34575919993222,178.34575919993222,178.34575919993222,0,1,[0.001205099979415536],[0.36718639987520874],178.34575919993222,178.54574549989775,0.0,178.54574549989775,0,0.0,0,1,1000,num_1,2.0135896001011133,,37,1,2026-03-13_17h13.33.668,2026A_exp2,2022.2.4,60.19364298042373,
1000,1,0.0,0.0,1,0,29,29,23,,,,,180.58136969991028,181.2363875999581,181.2363875999581,181.7329617999494,45,315,181.7329617999494,181.7329617999494,181.7329617999494,181.7329617999494,181.7329617999494,181.7329617999494,181.7329617999494,181.7329617999494,181.7329617999494,182.0994438000489,182.0994438000489,182.0994438000489,182.0994438000489,182.0994438000489,182.0994438000489,182.0994438000489,182.0994438000489,182.0994438000489,0,1,[0.0006959999445825815],[0.367781899869442],182.0994438000489,182.30135859991424,1000,182.30135859991424,1000,1000,1000,1000,0,num_3,1.034397100098431,,37,1,2026-03-13_17h13.33.668,2026A_exp2,2022.2.4,60.19364298042373,
1,0,0.0,4.9,1,0,30,30,1,,,,,183.3674003998749,184.01798669993877,184.01798669993877,184.51908840006217,45,315,184.51908840006217,184.51908840006217,184.51908840006217,184.51908840006217,184.51908840006217,184.51908840006217,184.51908840006217,184.51908840006217,184.51908840006217,184.8687412000727,184.8687412000727,184.8687412000727,184.8687412000727,184.8687412000727,184.8687412000727,184.8687412000727,184.8687412000727,184.8687412000727,0,1,[0.0013271002098917961],[0.3507323001977056],184.8687412000727,185.0690955000464,4.9,185.0690955000464,1,4.9,1,1,1000,num_4,1.1377932000905275,,37,1,2026-03-13_17h13.33.668,2026A_exp2,2022.2.4,60.19364298042373,
1000,1,0.0,0.0,0,0,31,31,37,,,,,186.23678419995122,186.88745080004446,186.88745080004446,187.37201189994812,315,45,187.37201189994812,187.37201189994812,187.37201189994812,187.37201189994812,187.37201189994812,187.37201189994812,187.37201189994812,187.37201189994812,187.37201189994812,187.7384329000488,187.7384329000488,187.7384329000488,187.7384329000488,187.7384329000488,187.7384329000488,187.7384329000488,187.7384329000488,187.7384329000488,3,1,[0.0012330999597907066],[0.333808199968189],187.7384329000488,187.93854249990545,1000,187.93854249990545,1000,1000,1000,1000,0,num_3,1.0373305000830442,,37,1,2026-03-13_17h13.33.668,2026A_exp2,2022.2.4,60.19364298042373,
1000,1,0.0,0.0,1,0,32,32,60,,,,,189.00659370003268,189.64004139997996,189.64004139997996,190.1413000000175,315,45,190.1413000000175,190.1413000000175,190.1413000000175,190.1413000000175,190.1413000000175,190.1413000000175,190.1413000000175,190.1413000000175,190.1413000000175,190.50779559998773,190.50779559998773,190.50779559998773,190.50779559998773,190.50779559998773,190.50779559998773,190.50779559998773,190.50779559998773,190.50779559998773,23,0,,,190.50779559998773,190.7101344000548,1000,190.7101344000548,1000,1000,1000,1000,0,num_3,1.2741798001807183,,37,1,2026-03-13_17h13.33.668,2026A_exp2,2022.2.4,60.19364298042373,
1000,1,0.0,4.9,0,0,33,33,5,,,,,192.00947210006416,192.65985350008123,192.65985350008123,193.16097129997797,45,45,193.16097129997797,193.16097129997797,193.16097129997797,193.16097129997797,193.16097129997797,193.16097129997797,193.16097129997797,193.16097129997797,193.16097129997797,193.5108278999105,193.5108278999105,193.5108278999105,193.5108278999105,193.5108278999105,193.5108278999105,193.5108278999105,193.5108278999105,193.5108278999105,22,0,,,193.5108278999105,193.71323439991102,1000,193.71323439991102,1000,1000,1000,1000,1,num_2,1.4140120001975447,,37,1,2026-03-13_17h13.33.668,2026A_exp2,2022.2.4,60.19364298042373,
1000,1,3.7,6.1,1,0,34,34,29,,,,,195.14569959999062,195.79646819992922,195.79646819992922,196.29758740006946,315,315,196.29758740006946,196.29758740006946,196.29758740006946,196.29758740006946,196.29758740006946,196.29758740006946,196.29758740006946,196.29758740006946,196.29758740006946,196.66387939988635,196.66387939988635,196.66387939988635,196.66387939988635,196.66387939988635,196.66387939988635,196.66387939988635,196.66387939988635,196.66387939988635,0,1,[0.0012260000221431255],[0.3671617000363767],196.66387939988635,196.86607529991306,1000,196.86607529991306,1000,1000,1000,1000,1,num_2,0.5570912000257522,,37,1,2026-03-13_17h13.33.668,2026A_exp2,2022.2.4,60.19364298042373,
1000,1,3.7,0.0,1,0,35,35,88,,,,,197.44800730003044,198.0986142999027,198.0986142999027,198.59992589987814,45,315,198.59992589987814,198.59992589987814,198.59992589987814,198.59992589987814,198.59992589987814,198.59992589987814,198.59992589987814,198.59992589987814,198.59992589987814,198.9662084998563,198.9662084998563,198.9662084998563,198.9662084998563,198.9662084998563,198.9662084998563,198.9662084998563,198.9662084998563,198.9662084998563,0,1,[0.0012680001091212034],[0.3672425001859665],198.9662084998563,199.16821000003256,1000,199.16821000003256,1000,1000,1000,1000,0,num_3,1.030643800040707,,37,1,2026-03-13_17h13.33.668,2026A_exp2,2022.2.4,60.19364298042373,
0,0,6.1,6.1,0,0,36,36,42,,,,,200.21739699994214,200.86824189987965,200.86824189987965,201.36931560002267,45,315,201.36931560002267,201.36931560002267,201.36931560002267,201.36931560002267,201.36931560002267,201.36931560002267,201.36931560002267,201.36931560002267,201.36931560002267,201.73569409991615,201.73569409991615,201.73569409991615,201.73569409991615,201.73569409991615,201.73569409991615,201.73569409991615,201.73569409991615,201.73569409991615,1,1,[0.0012414001394063234],[0.3665296002291143],201.73569409991615,201.93582669994794,6.1,201.93582669994794,0,6.1,1,0,1000,num_1,1.5592064000666142,,37,1,2026-03-13_17h13.33.668,2026A_exp2,2022.2.4,60.19364298042373,
1000,1,0.0,6.1,0,0,37,37,35,,,,,203.5207448999863,204.17151029990055,204.17151029990055,204.65597439999692,45,45,204.65597439999692,204.65597439999692,204.65597439999692,204.65597439999692,204.65597439999692,204.65597439999692,204.65597439999692,204.65597439999692,204.65597439999692,205.02246499992907,205.02246499992907,205.02246499992907,205.02246499992907,205.02246499992907,205.02246499992907,205.02246499992907,205.02246499992907,205.02246499992907,4,1,[0.0012425999157130718],[0.31716939993202686],205.02246499992907,205.22452299995348,1000,205.22452299995348,1000,1000,1000,1000,1,num_2,1.302366399904713,,37,1,2026-03-13_17h13.33.668,2026A_exp2,2022.2.4,60.19364298042373,
1000,1,0.0,0.0,1,0,38,38,40,,,,,206.5571476998739,207.20804889989085,207.20804889989085,207.69230580003932,45,45,207.69230580003932,207.69230580003932,207.69230580003932,207.69230580003932,207.69230580003932,207.69230580003932,207.69230580003932,207.69230580003932,207.69230580003932,208.0586715999525,208.0586715999525,208.0586715999525,208.0586715999525,208.0586715999525,208.0586715999525,208.0586715999525,208.0586715999525,208.0586715999525,23,0,,,208.0586715999525,208.26114100008272,1000,208.26114100008272,1000,1000,1000,1000,0,num_3,0.713866800069809,,37,1,2026-03-13_17h13.33.668,2026A_exp2,2022.2.4,60.19364298042373,
0,0,0.0,4.9,0,0,39,39,14,,,,,208.9928760000039,209.64360149996355,209.64360149996355,210.14464819990098,315,45,210.14464819990098,210.14464819990098,210.14464819990098,210.14464819990098,210.14464819990098,210.14464819990098,210.14464819990098,210.14464819990098,210.14464819990098,210.51120349997655,210.51120349997655,210.51120349997655,210.51120349997655,210.51120349997655,210.51120349997655,210.51120349997655,210.51120349997655,210.51120349997655,23,0,,,210.51120349997655,210.7111632998567,4.9,210.7111632998567,1,4.9,1,1,1000,num_4,1.4408885003067553,,37,1,2026-03-13_17h13.33.668,2026A_exp2,2022.2.4,60.19364298042373,
1,0,4.9,6.1,0,0,40,40,33,,,,,212.17936139996164,212.83012360008433,212.83012360008433,213.31445369985886,45,45,213.31445369985886,213.31445369985886,213.31445369985886,213.31445369985886,213.31445369985886,213.31445369985886,213.31445369985886,213.31445369985886,213.31445369985886,213.68102129991166,213.68102129991166,213.68102129991166,213.68102129991166,213.68102129991166,213.68102129991166,213.68102129991166,213.68102129991166,213.68102129991166,2,3,"[0.0012274999171495438, 0.03332270006649196, 0.25024849991314113]","[0.017140799900516868, 0.2337505999021232, 0.36723840003833175]",213.68102129991166,213.88126699998975,4.9,213.88126699998975,1,4.9,1,1,1000,num_4,1.8546493002213538,,37,1,2026-03-13_17h13.33.668,2026A_exp2,2022.2.4,60.19364298042373,
1000,1,0.0,0.0,1,0,41,41,46,,,,,215.7662738999352,216.41730539989658,216.41730539989658,216.90154520003125,315,315,216.90154520003125,216.90154520003125,216.90154520003125,216.90154520003125,216.90154520003125,216.90154520003125,216.90154520003125,216.90154520003125,216.90154520003125,217.2679427000694,217.2679427000694,217.2679427000694,217.2679427000694,217.2679427000694,217.2679427000694,217.2679427000694,217.2679427000694,217.2679427000694,2,1,[0.0012443000450730324],[0.3505128000397235],217.2679427000694,217.46972150006332,1000,217.46972150006332,1000,1000,1000,1000,0,num_3,0.8257114000152797,,37,1,2026-03-13_17h13.33.668,2026A_exp2,2022.2.4,60.19364298042373,
1000,1,6.1,4.9,0,0,42,42,49,,,,,218.3188340999186,218.96969739999622,218.96969739999622,219.4708998000715,315,315,219.4708998000715,219.4708998000715,219.4708998000715,219.4708998000715,219.4708998000715,219.4708998000715,219.4708998000715,219.4708998000715,219.4708998000715,219.83717030007392,219.83717030007392,219.83717030007392,219.83717030007392,219.83717030007392,219.83717030007392,219.83717030007392,219.83717030007392,219.83717030007392,0,1,[0.0013117999769747257],[0.3671265998855233],219.83717030007392,220.03908800007775,1000,220.03908800007775,1000,1000,1000,1000,0,num_3,0.9279928000178188,,37,1,2026-03-13_17h13.33.668,2026A_exp2,2022.2.4,60.19364298042373,
0,0,0.0,3.7,0,0,43,43,83,,,,,220.98816749989055,221.63890150003135,221.63890150003135,222.1399387998972,315,315,222.1399387998972,222.1399387998972,222.1399387998972,222.1399387998972,222.1399387998972,222.1399387998972,222.1399387998972,222.1399387998972,222.1399387998972,222.5065083000809,222.5065083000809,222.5065083000809,222.5065083000809,222.5065083000809,222.5065083000809,222.5065083000809,222.5065083000809,222.5065083000809,23,0,,,222.5065083000809,222.70668779988773,3.7,222.70668779988773,1,3.7,1,1,1000,num_4,1.9003217001445591,,37,1,2026-03-13_17h13.33.668,2026A_exp2,2022.2.4,60.19364298042373,
1000,1,0.0,6.1,0,0,44,44,58,,,,,224.6250670000445,225.27575249993242,225.27575249993242,225.7769088000059,315,45,225.7769088000059,225.7769088000059,225.7769088000059,225.7769088000059,225.7769088000059,225.7769088000059,225.7769088000059,225.7769088000059,225.7769088000059,226.14350529992953,226.14350529992953,226.14350529992953,226.14350529992953,226.14350529992953,226.14350529992953,226.14350529992953,226.14350529992953,226.14350529992953,23,0,,,226.14350529992953,226.34565120004117,1000,226.34565120004117,1000,1000,1000,1000,1,num_2,1.1175710002426058,,37,1,2026-03-13_17h13.33.668,2026A_exp2,2022.2.4,60.19364298042373,
1,0,6.1,3.7,0,0,45,45,31,,,,,227.4947317999322,228.14553159987554,228.14553159987554,228.64662320003845,315,315,228.64662320003845,228.64662320003845,228.64662320003845,228.64662320003845,228.64662320003845,228.64662320003845,228.64662320003845,228.64662320003845,228.64662320003845,228.9963650999125,228.9963650999125,228.9963650999125,228.9963650999125,228.9963650999125,228.9963650999125,228.9963650999125,228.9963650999125,228.9963650999125,22,0,,,228.9963650999125,229.19647999992594,6.1,229.19647999992594,1,6.1,1,1,1000,num_4,1.6270701000466943,,37,1,2026-03-13_17h13.33.668,2026A_exp2,2022.2.4,60.19364298042373,
1,0,0.0,0.0,1,0,46,46,24,,,,,230.84811070002615,231.48245540005155,231.48245540005155,231.98333209985867,45,45,231.98333209985867,231.98333209985867,231.98333209985867,231.98333209985867,231.98333209985867,231.98333209985867,231.98333209985867,231.98333209985867,231.98333209985867,232.349613300059,232.349613300059,232.349613300059,232.349613300059,232.349613300059,232.349613300059,232.349613300059,232.349613300059,232.349613300059,23,0,,,232.349613300059,232.54967189999297,0.0,232.54967189999297,1,0.0,0,0,1000,num_4,9.881372000090778,,37,1,2026-03-13_17h13.33.668,2026A_exp2,2022.2.4,60.19364298042373,
1000,1,3.7,4.9,1,0,47,47,20,,,,,242.45984079991467,243.0936707998626,243.0936707998626,243.5949063000735,315,315,243.5949063000735,243.5949063000735,243.5949063000735,243.5949063000735,243.5949063000735,243.5949063000735,243.5949063000735,243.5949063000735,243.5949063000735,243.96111929998733,243.96111929998733,243.96111929998733,243.96111929998733,243.96111929998733,243.96111929998733,243.96111929998733,243.96111929998733,243.96111929998733,0,1,[0.0012195000890642405],[0.3671553998719901],243.96111929998733,244.16335369995795,1000,244.16335369995795,1000,1000,1000,1000,1,num_2,2.995659700129181,,37,1,2026-03-13_17h13.33.668,2026A_exp2,2022.2.4,60.19364298042373,
1000,1,0.0,0.0,1,0,48,48,16,,,,,247.1809668999631,247.83183389995247,247.83183389995247,248.33295569987968,45,45,248.33295569987968,248.33295569987968,248.33295569987968,248.33295569987968,248.33295569987968,248.33295569987968,248.33295569987968,248.33295569987968,248.33295569987968,248.6825113000814,248.6825113000814,248.6825113000814,248.6825113000814,248.6825113000814,248.6825113000814,248.6825113000814,248.6825113000814,248.6825113000814,1,1,[0.01735420012846589],[0.3505479001905769],248.6825113000814,248.8847153999377,1000,248.89959440007806,1000,1000,1000,1000,1,num_2,3.692703500157222,,37,1,2026-03-13_17h13.33.668,2026A_exp2,2022.2.4,60.19364298042373,
0,0,0.0,0.0,0,0,49,49,22,,,,,252.61977229989134,253.27061829995364,253.27061829995364,253.77162989997305,315,315,253.77162989997305,253.77162989997305,253.77162989997305,253.77162989997305,253.77162989997305,253.77162989997305,253.77162989997305,253.77162989997305,253.77162989997305,254.13812949997373,254.13812949997373,254.13812949997373,254.13812949997373,254.13812949997373,254.13812949997373,254.13812949997373,254.13812949997373,254.13812949997373,23,0,,,254.13812949997373,254.33834740007296,0.0,254.33834740007296,1,0.0,0,0,1000,num_4,1.348703300114721,,37,1,2026-03-13_17h13.33.668,2026A_exp2,2022.2.4,60.19364298042373,
1000,1,3.7,0.0,1,0,50,50,54,,,,,255.70629319990985,256.3570663998835,256.3570663998835,256.8413442000747,315,45,256.8413442000747,256.8413442000747,256.8413442000747,256.8413442000747,256.8413442000747,256.8413442000747,256.8413442000747,256.8413442000747,256.8413442000747,257.2078303999733,257.2078303999733,257.2078303999733,257.2078303999733,257.2078303999733,257.2078303999733,257.2078303999733,257.2078303999733,257.2078303999733,5,2,"[0.001235799863934517, 0.2838013998698443]","[0.2002652999944985, 0.36728250002488494]",257.2078303999733,257.4097782999743,1000,257.4097782999743,1000,1000,1000,1000,0,num_3,5.901524800108746,,37,1,2026-03-13_17h13.33.668,2026A_exp2,2022.2.4,60.19364298042373,
1000,1,0.0,3.7,1,0,51,51,65,,,,,263.33057629992254,263.981285299873,263.981285299873,264.4823201999534,45,315,264.4823201999534,264.4823201999534,264.4823201999534,264.4823201999534,264.4823201999534,264.4823201999534,264.4823201999534,264.4823201999534,264.4823201999534,264.83215690008365,264.83215690008365,264.83215690008365,264.83215690008365,264.83215690008365,264.83215690008365,264.83215690008365,264.83215690008365,264.83215690008365,22,0,,,264.83215690008365,265.0343704998959,1000,265.0343704998959,1000,1000,1000,1000,1,num_2,0.7327003001701087,,37,1,2026-03-13_17h13.33.668,2026A_exp2,2022.2.4,60.19364298042373,
1000,1,0.0,4.9,1,0,52,52,78,,,,,265.78303819987923,266.4338136999868,266.4338136999868,266.93455219990574,45,45,266.93455219990574,266.93455219990574,266.93455219990574,266.93455219990574,266.93455219990574,266.93455219990574,266.93455219990574,266.93455219990574,266.93455219990574,267.30131489993073,267.30131489993073,267.30131489993073,267.30131489993073,267.30131489993073,267.30131489993073,267.30131489993073,267.30131489993073,267.30131489993073,23,0,,,267.30131489993073,267.5034862998873,1000,267.5034862998873,1000,1000,1000,1000,1,num_2,0.7918163002468646,,37,1,2026-03-13_17h13.33.668,2026A_exp2,2022.2.4,60.19364298042373,
1000,1,0.0,0.0,0,0,53,53,45,,,,,268.3186444998719,268.96958809997886,268.96958809997886,269.4706440998707,45,45,269.4706440998707,269.4706440998707,269.4706440998707,269.4706440998707,269.4706440998707,269.4706440998707,269.4706440998707,269.4706440998707,269.4706440998707,269.8370580000337,269.8370580000337,269.8370580000337,269.8370580000337,269.8370580000337,269.8370580000337,269.8370580000337,269.8370580000337,269.8370580000337,23,0,,,269.8370580000337,270.03924679988995,1000,270.03924679988995,1000,1000,1000,1000,0,num_3,1.272812900133431,,37,1,2026-03-13_17h13.33.668,2026A_exp2,2022.2.4,60.19364298042373,
1000,1,3.7,4.9,0,0,54,54,80,,,,,271.33850859990343,271.9892408999149,271.9892408999149,272.49042550008744,45,315,272.49042550008744,272.49042550008744,272.49042550008744,272.49042550008744,272.49042550008744,272.49042550008744,272.49042550008744,272.49042550008744,272.49042550008744,272.85678209993057,272.85678209993057,272.85678209993057,272.85678209993057,272.85678209993057,272.85678209993057,272.85678209993057,272.85678209993057,272.85678209993057,14,5,"[0.0012330000754445791, 0.06681220000609756, 0.15021100011654198, 0.23370920005254447, 0.3671854001004249]","[0.033475799951702356, 0.08360410016030073, 0.18362230015918612, 0.2837493000552058, 0.3671907000243664]",272.85678209993057,273.0587772000581,1000,273.0587772000581,1000,1000,1000,1000,0,num_3,0.9646056001074612,,37,1,2026-03-13_17h13.33.668,2026A_exp2,2022.2.4,60.19364298042373,
0,0,0.0,0.0,1,0,55,55,38,,,,,274.04136159992777,274.6919718000572,274.6919718000572,275.1929768999107,315,45,275.1929768999107,275.1929768999107,275.1929768999107,275.1929768999107,275.1929768999107,275.1929768999107,275.1929768999107,275.1929768999107,275.1929768999107,275.55949419992976,275.55949419992976,275.55949419992976,275.55949419992976,275.55949419992976,275.55949419992976,275.55949419992976,275.55949419992976,275.55949419992976,8,2,"[0.10030589997768402, 0.15018840017728508]","[0.11682900018058717, 0.36726379999890924]",275.55949419992976,275.75962290004827,0.0,275.75962290004827,1,0.0,0,0,1000,num_4,1.5765865000430495,,37,1,2026-03-13_17h13.33.668,2026A_exp2,2022.2.4,60.19364298042373,
1,0,3.7,0.0,0,0,56,56,8,,,,,277.3612667999696,278.0120115999598,278.0120115999598,278.4962766999379,45,315,278.4962766999379,278.4962766999379,278.4962766999379,278.4962766999379,278.4962766999379,278.4962766999379,278.4962766999379,278.4962766999379,278.4962766999379,278.86285679996945,278.86285679996945,278.86285679996945,278.86285679996945,278.86285679996945,278.86285679996945,278.86285679996945,278.86285679996945,278.86285679996945,23,0,,,278.86285679996945,279.0630967998877,3.7,279.0630967998877,1,3.7,1,1,1000,num_4,1.3367910000961274,,37,1,2026-03-13_17h13.33.668,2026A_exp2,2022.2.4,60.19364298042373,
1,0,0.0,0.0,0,0,57,57,44,,,,,280.43095329985954,281.0816899999045,281.0816899999045,281.56623620004393,45,315,281.56623620004393,281.56623620004393,281.56623620004393,281.56623620004393,281.56623620004393,281.56623620004393,281.56623620004393,281.56623620004393,281.56623620004393,281.9326017999556,281.9326017999556,281.9326017999556,281.9326017999556,281.9326017999556,281.9326017999556,281.9326017999556,281.9326017999556,281.9326017999556,23,0,,,281.9326017999556,282.1327492999844,0.0,282.1327492999844,1,0.0,0,0,1000,num_4,0.9067594001535326,,37,1,2026-03-13_17h13.33.668,2026A_exp2,2022.2.4,60.19364298042373,
1000,1,0.0,6.1,1,0,58,58,52,,,,,283.0669098000508,283.71760599990375,283.71760599990375,284.20214740000665,315,45,284.20214740000665,284.20214740000665,284.20214740000665,284.20214740000665,284.20214740000665,284.20214740000665,284.20214740000665,284.20214740000665,284.20214740000665,284.5687442999333,284.5687442999333,284.5687442999333,284.5687442999333,284.5687442999333,284.5687442999333,284.5687442999333,284.5687442999333,284.5687442999333,0,1,[0.0012839999981224537],[0.3669259001035243],284.5687442999333,284.7704670999665,1000,284.7704670999665,1000,1000,1000,1000,1,num_2,0.7723960001021624,,37,1,2026-03-13_17h13.33.668,2026A_exp2,2022.2.4,60.19364298042373,
0,0,4.9,4.9,1,0,59,59,48,,,,,285.56937270006165,286.2202693000436,286.2202693000436,286.7213208999019,315,45,286.7213208999019,286.7213208999019,286.7213208999019,286.7213208999019,286.7213208999019,286.7213208999019,286.7213208999019,286.7213208999019,286.7213208999019,287.0877678000834,287.0877678000834,287.0877678000834,287.0877678000834,287.0877678000834,287.0877678000834,287.0877678000834,287.0877678000834,287.0877678000834,23,0,,,287.0877678000834,287.28782489988953,4.9,287.28782489988953,1,4.9,1,1,1000,num_4,2.1671907999552786,,37,1,2026-03-13_17h13.33.668,2026A_exp2,2022.2.4,60.19364298042373,
1000,1,0.0,6.1,1,0,60,60,19,,,,,289.4733889999334,290.12414239998907,290.12414239998907,290.60851799999364,315,315,290.60851799999364,290.60851799999364,290.60851799999364,290.60851799999364,290.60851799999364,290.60851799999364,290.60851799999364,290.60851799999364,290.60851799999364,290.9748831000179,290.9748831000179,290.9748831000179,290.9748831000179,290.9748831000179,290.9748831000179,290.9748831000179,290.9748831000179,290.9748831000179,23,0,,,290.9748831000179,291.1771640998777,1000,291.1771640998777,1000,1000,1000,1000,1,num_2,0.5662609999999404,,37,1,2026-03-13_17h13.33.668,2026A_exp2,2022.2.4,60.19364298042373,
1000,1,3.7,0.0,0,0,61,61,66,,,,,291.75905220001005,292.40965809999034,292.40965809999034,292.9107091999613,45,315,292.9107091999613,292.9107091999613,292.9107091999613,292.9107091999613,292.9107091999613,292.9107091999613,292.9107091999613,292.9107091999613,292.9107091999613,293.27722200006247,293.27722200006247,293.27722200006247,293.27722200006247,293.27722200006247,293.27722200006247,293.27722200006247,293.27722200006247,293.27722200006247,3,1,[0.05019249999895692],[0.3671634001657367],293.27722200006247,293.4788458000403,1000,293.4788458000403,1000,1000,1000,1000,0,num_3,1.1052690001670271,,37,1,2026-03-13_17h13.33.668,2026A_exp2,2022.2.4,60.19364298042373,
1,0,3.7,0.0,1,0,62,62,13,,,,,294.61184949986637,295.26265450008214,295.26265450008214,295.7639311000239,45,45,295.7639311000239,295.7639311000239,295.7639311000239,295.7639311000239,295.7639311000239,295.7639311000239,295.7639311000239,295.7639311000239,295.7639311000239,296.1300732998643,296.1300732998643,296.1300732998643,296.1300732998643,296.1300732998643,296.1300732998643,296.1300732998643,296.1300732998643,296.1300732998643,4,1,[0.0011383001692593098],[0.3174176001921296],296.1300732998643,296.3303672999609,0.0,296.3303672999609,0,0.0,0,1,1000,num_1,1.9978316000197083,,37,1,2026-03-13_17h13.33.668,2026A_exp2,2022.2.4,60.19364298042373,
1,0,4.9,4.9,0,0,63,63,39,,,,,298.34900869987905,298.99970649997704,298.99970649997704,299.4840949999634,45,45,299.4840949999634,299.4840949999634,299.4840949999634,299.4840949999634,299.4840949999634,299.4840949999634,299.4840949999634,299.4840949999634,299.4840949999634,299.85051869996823,299.85051869996823,299.85051869996823,299.85051869996823,299.85051869996823,299.85051869996823,299.85051869996823,299.85051869996823,299.85051869996823,23,0,,,299.85051869996823,300.0507666999474,4.9,300.0507666999474,0,4.9,1,0,1000,num_1,4.843986900057644,,37,1,2026-03-13_17h13.33.668,2026A_exp2,2022.2.4,60.19364298042373,
0,0,0.0,0.0,0,0,64,64,70,,,,,304.92194500006735,305.57292190007865,305.57292190007865,306.0572635999415,315,315,306.0572635999415,306.0572635999415,306.0572635999415,306.0572635999415,306.0572635999415,306.0572635999415,306.0572635999415,306.0572635999415,306.0572635999415,306.42373199993744,306.42373199993744,306.42373199993744,306.42373199993744,306.42373199993744,306.42373199993744,306.42373199993744,306.42373199993744,306.42373199993744,23,0,,,306.42373199993744,306.6238758000545,0.0,306.6238758000545,0,0.0,0,1,1000,num_1,1.4960432001389563,,37,1,2026-03-13_17h13.33.668,2026A_exp2,2022.2.4,60.19364298042373,
1,0,3.7,0.0,1,0,65,65,12,,,,,308.1419575999025,308.7927325000055,308.7927325000055,309.27709649992175,315,315,309.27709649992175,309.27709649992175,309.27709649992175,309.27709649992175,309.27709649992175,309.27709649992175,309.27709649992175,309.27709649992175,309.27709649992175,309.64352290006354,309.64352290006354,309.64352290006354,309.64352290006354,309.64352290006354,309.64352290006354,309.64352290006354,309.64352290006354,309.64352290006354,12,4,"[0.0012020000722259283, 0.1838261999655515, 0.2672296001110226, 0.3006470000836998]","[0.01750209997408092, 0.23378990008495748, 0.2838274999521673, 0.3673962000757456]",309.64352290006354,309.8437894999515,0.0,309.8437894999515,0,0.0,0,1,1000,num_1,1.5001175000797957,,37,1,2026-03-13_17h13.33.668,2026A_exp2,2022.2.4,60.19364298042373,
1,0,0.0,6.1,0,0,66,66,43,,,,,311.36185729992576,312.0126495999284,312.0126495999284,312.4969067000784,315,45,312.4969067000784,312.4969067000784,312.4969067000784,312.4969067000784,312.4969067000784,312.4969067000784,312.4969067000784,312.4969067000784,312.4969067000784,312.8634371999651,312.8634371999651,312.8634371999651,312.8634371999651,312.8634371999651,312.8634371999651,312.8634371999651,312.8634371999651,312.8634371999651,0,1,[0.0007116000633686781],[0.3676450999919325],312.8634371999651,313.0637024000753,0.0,313.0637024000753,0,0.0,0,1,1000,num_1,1.1277865001466125,,37,1,2026-03-13_17h13.33.668,2026A_exp2,2022.2.4,60.19364298042373,
1,0,3.7,4.9,1,0,67,67,71,,,,,314.214729799889,314.86552820005454,314.86552820005454,315.3498905999586,315,45,315.3498905999586,315.3498905999586,315.3498905999586,315.3498905999586,315.3498905999586,315.3498905999586,315.3498905999586,315.3498905999586,315.3498905999586,315.71635919995606,315.71635919995606,315.71635919995606,315.71635919995606,315.71635919995606,315.71635919995606,315.71635919995606,315.71635919995606,315.71635919995606,23,0,,,315.71635919995606,315.9166329000145,4.9,315.9166329000145,1,4.9,1,1,1000,num_4,1.082696400117129,,37,1,2026-03-13_17h13.33.668,2026A_exp2,2022.2.4,60.19364298042373,
1000,1,0.0,0.0,0,0,68,68,15,,,,,317.0174962999299,317.66844650008716,317.66844650008716,318.1692651999183,45,315,318.1692651999183,318.1692651999183,318.1692651999183,318.1692651999183,318.1692651999183,318.1692651999183,318.1692651999183,318.1692651999183,318.1692651999183,318.51914900005795,318.51914900005795,318.51914900005795,318.51914900005795,318.51914900005795,318.51914900005795,318.51914900005795,318.51914900005795,318.51914900005795,0,1,[0.0009775001090019941],[0.3509627999737859],318.51914900005795,318.7211084999144,1000,318.7211084999144,1000,1000,1000,1000,0,num_3,3.5337521000765264,,37,1,2026-03-13_17h13.33.668,2026A_exp2,2022.2.4,60.19364298042373,
1000,1,0.0,4.9,1,0,69,69,55,,,,,322.2728359999601,322.9235863999929,322.9235863999929,323.4248166999314,45,315,323.4248166999314,323.4248166999314,323.4248166999314,323.4248166999314,323.4248166999314,323.4248166999314,323.4248166999314,323.4248166999314,323.4248166999314,323.7909965000581,323.7909965000581,323.7909965000581,323.7909965000581,323.7909965000581,323.7909965000581,323.7909965000581,323.7909965000581,323.7909965000581,6,2,"[0.001213700044900179, 0.26688709994778037]","[0.23353919992223382, 0.3006132999435067]",323.7909965000581,323.9930698000826,1000,323.9930698000826,1000,1000,1000,1000,1,num_2,0.6623985001351684,,37,1,2026-03-13_17h13.33.668,2026A_exp2,2022.2.4,60.19364298042373,
1000,1,0.0,4.9,0,0,70,70,74,,,,,324.67519950005226,325.3259727000259,325.3259727000259,325.8270191999618,315,315,325.8270191999618,325.8270191999618,325.8270191999618,325.8270191999618,325.8270191999618,325.8270191999618,325.8270191999618,325.8270191999618,325.8270191999618,326.19332249998115,326.19332249998115,326.19332249998115,326.19332249998115,326.19332249998115,326.19332249998115,326.19332249998115,326.19332249998115,326.19332249998115,23,0,,,326.19332249998115,326.3956615999341,1000,326.3956615999341,1000,1000,1000,1000,1,num_2,0.6356294001452625,,37,1,2026-03-13_17h13.33.668,2026A_exp2,2022.2.4,60.19364298042373,
1000,1,0.0,4.9,0,0,71,71,53,,,,,327.06087399995886,327.6948702998925,327.6948702998925,328.1958965999074,315,45,328.1958965999074,328.1958965999074,328.1958965999074,328.1958965999074,328.1958965999074,328.1958965999074,328.1958965999074,328.1958965999074,328.1958965999074,328.56273219990544,328.56273219990544,328.56273219990544,328.56273219990544,328.56273219990544,328.56273219990544,328.56273219990544,328.56273219990544,328.56273219990544,18,2,"[0.0012199000921100378, 0.08353179995901883]","[0.06634870008565485, 0.10030200006440282]",328.56273219990544,328.7647907999344,1000,328.7647907999344,1000,1000,1000,1000,1,num_2,1.3301175001543015,,37,1,2026-03-13_17h13.33.668,2026A_exp2,2022.2.4,60.19364298042373,
1000,1,0.0,0.0,1,0,72,72,56,,,,,330.1139909999911,330.7647738000378,330.7647738000378,331.26582690002397,45,45,331.26582690002397,331.26582690002397,331.26582690002397,331.26582690002397,331.26582690002397,331.26582690002397,331.26582690002397,331.26582690002397,331.26582690002397,331.63222369994037,331.63222369994037,331.63222369994037,331.63222369994037,331.63222369994037,331.63222369994037,331.63222369994037,331.63222369994037,331.63222369994037,23,0,,,331.63222369994037,331.83433720003814,1000,331.83433720003814,1000,1000,1000,1000,0,num_3,0.9887187001295388,,37,1,2026-03-13_17h13.33.668,2026A_exp2,2022.2.4,60.19364298042373,
1000,1,0.0,0.0,0,0,73,73,87,,,,,332.85014820005745,333.500811399892,333.500811399892,334.0019771999214,315,315,334.0019771999214,334.0019771999214,334.0019771999214,334.0019771999214,334.0019771999214,334.0019771999214,334.0019771999214,334.0019771999214,334.0019771999214,334.35161440004595,334.35161440004595,334.35161440004595,334.35161440004595,334.35161440004595,334.35161440004595,334.35161440004595,334.35161440004595,334.35161440004595,22,0,,,334.35161440004595,334.55380559992045,1000,334.55380559992045,1000,1000,1000,1000,1,num_2,0.5578558000270277,,37,1,2026-03-13_17h13.33.668,2026A_exp2,2022.2.4,60.19364298042373,
1,0,0.0,0.0,1,0,74,74,41,,,,,335.1355663998984,335.7865533998702,335.7865533998702,336.287437699968,45,315,336.287437699968,336.287437699968,336.287437699968,336.287437699968,336.287437699968,336.287437699968,336.287437699968,336.287437699968,336.287437699968,336.637086099945,336.637086099945,336.637086099945,336.637086099945,336.637086099945,336.637086099945,336.637086099945,336.637086099945,336.637086099945,22,0,,,336.637086099945,336.83749539987184,0.0,336.83749539987184,0,0.0,0,1,1000,num_1,1.298390000127256,,37,1,2026-03-13_17h13.33.668,2026A_exp2,2022.2.4,60.19364298042373,
1,0,4.9,3.7,0,0,75,75,9,,,,,338.1553374999203,338.80775610008277,338.80775610008277,339.2904912000522,45,315,339.2904912000522,339.2904912000522,339.2904912000522,339.2904912000522,339.2904912000522,339.2904912000522,339.2904912000522,339.2904912000522,339.2904912000522,339.6570315998979,339.6570315998979,339.6570315998979,339.6570315998979,339.6570315998979,339.6570315998979,339.6570315998979,339.6570315998979,339.6570315998979,23,0,,,339.6570315998979,339.85704430006444,4.9,339.85704430006444,0,4.9,1,0,1000,num_1,1.1432623001746833,,37,1,2026-03-13_17h13.33.668,2026A_exp2,2022.2.4,60.19364298042373,
1000,1,0.0,0.0,0,0,76,76,36,,,,,341.02484950004146,341.6756647999864,341.6756647999864,342.1600122998934,45,45,342.1600122998934,342.1600122998934,342.1600122998934,342.1600122998934,342.1600122998934,342.1600122998934,342.1600122998934,342.1600122998934,342.1600122998934,342.5264916999731,342.5264916999731,342.5264916999731,342.5264916999731,342.5264916999731,342.5264916999731,342.5264916999731,342.5264916999731,342.5264916999731,23,0,,,342.5264916999731,342.72690799995326,1000,342.72690799995326,1000,1000,1000,1000,0,num_3,1.0328470000531524,,37,1,2026-03-13_17h13.33.668,2026A_exp2,2022.2.4,60.19364298042373,
1,0,6.1,4.9,0,0,77,77,81,,,,,343.77771919989027,344.4284476998728,344.4284476998728,344.9295663998928,45,45,344.9295663998928,344.9295663998928,344.9295663998928,344.9295663998928,344.9295663998928,344.9295663998928,344.9295663998928,344.9295663998928,344.9295663998928,345.2960022999905,345.2960022999905,345.2960022999905,345.2960022999905,345.2960022999905,345.2960022999905,345.2960022999905,345.2960022999905,345.2960022999905,23,0,,,345.2960022999905,345.4959785998799,6.1,345.4959785998799,0,6.1,1,0,1000,num_1,6.39078600006178,,37,1,2026-03-13_17h13.33.668,2026A_exp2,2022.2.4,60.19364298042373,
0,0,0.0,3.7,0,0,78,78,47,,,,,351.9024817000609,352.55330629996024,352.55330629996024,353.0375753000844,315,315,353.0375753000844,353.0375753000844,353.0375753000844,353.0375753000844,353.0375753000844,353.0375753000844,353.0375753000844,353.0375753000844,353.0375753000844,353.40399660007097,353.40399660007097,353.40399660007097,353.40399660007097,353.40399660007097,353.40399660007097,353.40399660007097,353.40399660007097,353.40399660007097,23,0,,,353.40399660007097,353.6041578000877,3.7,353.6041578000877,1,3.7,1,1,1000,num_4,3.3706902000121772,,37,1,2026-03-13_17h13.33.668,2026A_exp2,2022.2.4,60.19364298042373,
1,0,4.9,0.0,1,0,79,79,25,,,,,356.9908837999683,357.64158009993844,357.64158009993844,358.1260780999437,315,45,358.1260780999437,358.1260780999437,358.1260780999437,358.1260780999437,358.1260780999437,358.1260780999437,358.1260780999437,358.1260780999437,358.1260780999437,358.49249179987237,358.49249179987237,358.49249179987237,358.49249179987237,358.49249179987237,358.49249179987237,358.49249179987237,358.49249179987237,358.49249179987237,23,0,,,358.49249179987237,358.69259810005315,0.0,358.69259810005315,0,0.0,0,1,1000,num_1,0.9868012999650091,,37,1,2026-03-13_17h13.33.668,2026A_exp2,2022.2.4,60.19364298042373,
1000,1,6.1,4.9,0,0,80,80,68,,,,,359.7105342000723,360.34432909986936,360.34432909986936,360.84534769994207,45,315,360.84534769994207,360.84534769994207,360.84534769994207,360.84534769994207,360.84534769994207,360.84534769994207,360.84534769994207,360.84534769994207,360.84534769994207,361.21179679990746,361.21179679990746,361.21179679990746,361.21179679990746,361.21179679990746,361.21179679990746,361.21179679990746,361.21179679990746,361.21179679990746,3,1,[0.0012292999308556318],[0.3338156999088824],361.21179679990746,361.4139974000864,1000,361.4139974000864,1000,1000,1000,1000,0,num_3,0.6730562001466751,,37,1,2026-03-13_17h13.33.668,2026A_exp2,2022.2.4,60.19364298042373,
1000,1,6.1,0.0,0,0,81,81,89,,,,,362.112819599919,362.76343990000896,362.76343990000896,363.2645610999316,45,315,363.2645610999316,363.2645610999316,363.2645610999316,363.2645610999316,363.2645610999316,363.2645610999316,363.2645610999316,363.2645610999316,363.2645610999316,363.61431859992445,363.61431859992445,363.61431859992445,363.61431859992445,363.61431859992445,363.61431859992445,363.61431859992445,363.61431859992445,363.61431859992445,22,0,,,363.61431859992445,363.81632019998506,1000,363.8310322999023,1000,1000,1000,1000,0,num_3,0.5131636001169682,,37,1,2026-03-13_17h13.33.668,2026A_exp2,2022.2.4,60.19364298042373,
1000,1,6.1,3.7,0,0,82,82,18,,,,,364.3650529999286,365.0156763999257,365.0156763999257,365.50010979990475,45,45,365.50010979990475,365.50010979990475,365.50010979990475,365.50010979990475,365.50010979990475,365.50010979990475,365.50010979990475,365.50010979990475,365.50010979990475,365.86649399995804,365.86649399995804,365.86649399995804,365.86649399995804,365.86649399995804,365.86649399995804,365.86649399995804,365.86649399995804,365.86649399995804,23,0,,,365.86649399995804,366.06846640002914,1000,366.06846640002914,1000,1000,1000,1000,0,num_3,0.7073008001316339,,37,1,2026-03-13_17h13.33.668,2026A_exp2,2022.2.4,60.19364298042373,
1,0,4.9,4.9,0,0,83,83,84,,,,,366.80058699985966,367.4514663000591,367.4514663000591,367.95249479985796,45,315,367.95249479985796,367.95249479985796,367.95249479985796,367.95249479985796,367.95249479985796,367.95249479985796,367.95249479985796,367.95249479985796,367.95249479985796,368.3187593999319,368.3187593999319,368.3187593999319,368.3187593999319,368.3187593999319,368.3187593999319,368.3187593999319,368.3187593999319,368.3187593999319,14,1,[0.001291800057515502],[0.14989849994890392],368.3187593999319,368.518996699946,4.9,368.518996699946,1,4.9,1,1,1000,num_4,2.5843428999651223,,37,1,2026-03-13_17h13.33.668,2026A_exp2,2022.2.4,60.19364298042373,
1000,1,0.0,0.0,0,0,84,84,7,,,,,371.12155340006575,371.77239779988304,371.77239779988304,372.2567493999377,315,315,372.2567493999377,372.2567493999377,372.2567493999377,372.2567493999377,372.2567493999377,372.2567493999377,372.2567493999377,372.2567493999377,372.2567493999377,372.6232986000832,372.6232986000832,372.6232986000832,372.6232986000832,372.6232986000832,372.6232986000832,372.6232986000832,372.6232986000832,372.6232986000832,21,1,[0.3503117999061942],[0.36694080010056496],372.6232986000832,372.82536759995855,1000,372.82536759995855,1000,1000,1000,1000,1,num_2,2.1023709001019597,,37,1,2026-03-13_17h13.33.668,2026A_exp2,2022.2.4,60.19364298042373,
1000,1,0.0,0.0,0,0,85,85,67,,,,,374.9589595000725,375.60946110007353,375.60946110007353,376.0939185000025,315,45,376.0939185000025,376.0939185000025,376.0939185000025,376.0939185000025,376.0939185000025,376.0939185000025,376.0939185000025,376.0939185000025,376.0939185000025,376.460454700049,376.460454700049,376.460454700049,376.460454700049,376.460454700049,376.460454700049,376.460454700049,376.460454700049,376.460454700049,23,0,,,376.460454700049,376.66061770007946,1000,376.66061770007946,1000,1000,1000,1000,0,num_3,7.8909511000383645,,37,1,2026-03-13_17h13.33.668,2026A_exp2,2022.2.4,60.19364298042373,
1,0,3.7,4.9,0,0,86,86,76,,,,,384.56861019995995,385.2287463999819,385.2287463999819,385.7203987999819,315,315,385.7203987999819,385.7203987999819,385.7203987999819,385.7203987999819,385.7203987999819,385.7203987999819,385.7203987999819,385.7203987999819,385.7203987999819,386.08674330008216,386.08674330008216,386.08674330008216,386.08674330008216,386.08674330008216,386.08674330008216,386.08674330008216,386.08674330008216,386.08674330008216,23,0,,,386.08674330008216,386.28694489994086,3.7,386.28694489994086,0,3.7,1,0,1000,num_1,1.2891054002102464,,37,1,2026-03-13_17h13.33.668,2026A_exp2,2022.2.4,60.19364298042373,
1,0,4.9,3.7,0,0,87,87,63,,,,,387.60477269999683,388.25561159988865,388.25561159988865,388.74015660001896,315,315,388.74015660001896,388.74015660001896,388.74015660001896,388.74015660001896,388.74015660001896,388.74015660001896,388.74015660001896,388.74015660001896,388.74015660001896,389.1066344999708,389.1066344999708,389.1066344999708,389.1066344999708,389.1066344999708,389.1066344999708,389.1066344999708,389.1066344999708,389.1066344999708,14,4,"[0.0012420001439750195, 0.05199560010805726, 0.13331570010632277, 0.20055410009808838]","[0.017543300054967403, 0.09989459998905659, 0.16684670001268387, 0.2504903001245111]",389.1066344999708,389.3066191000398,4.9,389.3066191000398,1,4.9,1,1,1000,num_4,1.7493525000754744,,37,1,2026-03-13_17h13.33.668,2026A_exp2,2022.2.4,60.19364298042373,
1000,1,0.0,4.9,1,0,88,88,79,,,,,391.0748582999222,391.725698400056,391.725698400056,392.21008330001496,45,45,392.21008330001496,392.21008330001496,392.21008330001496,392.21008330001496,392.21008330001496,392.21008330001496,392.21008330001496,392.21008330001496,392.21008330001496,392.5763854000252,392.5763854000252,392.5763854000252,392.5763854000252,392.5763854000252,392.5763854000252,392.5763854000252,392.5763854000252,392.5763854000252,0,1,[0.0011986999306827784],[0.3672184001188725],392.5763854000252,392.7783985999413,1000,392.7783985999413,1000,1000,1000,1000,1,num_2,1.8933991000521928,,37,1,2026-03-13_17h13.33.668,2026A_exp2,2022.2.4,60.19364298042373,
1,0,3.7,6.1,1,0,89,89,77,,,,,394.6952074000146,395.34597929986194,395.34597929986194,395.8469672999345,315,315,395.8469672999345,395.8469672999345,395.8469672999345,395.8469672999345,395.8469672999345,395.8469672999345,395.8469672999345,395.8469672999345,395.8469672999345,396.2134676000569,396.2134676000569,396.2134676000569,396.2134676000569,396.2134676000569,396.2134676000569,396.2134676000569,396.2134676000569,396.2134676000569,23,0,,,396.2134676000569,396.4138028998859,6.1,396.4138028998859,1,6.1,1,1,1000,num_4,1.122131200041622,,37,1,2026-03-13_17h13.33.668,2026A_exp2,2022.2.4,60.19364298042373,
,,,,,,,,,,,,,,,,,,,,,,,,,,,,,,,,,,,,,,,,,,,,,,,,,,,,397.5729747998994,,,,,,,
