validity,detectorcomp,contrastCW,contrastCCW,precueCWorCCW,block_80trials.thisRepN,block_80trials.thisTrialN,block_80trials.thisN,block_80trials.thisIndex,etRecord.started,etRecord.stopped,text.started,text.stopped,text_4.started,text_4.stopped,text_6.started,text_6.stopped,oriCW,oriCCW,roi_2.started,grating_UR.started,grating_UL.started,grating_LR.started,grating_LL.started,noise_UR.started,noise_UL.started,noise_LR.started,noise_LL.started,roi_2.stopped,grating_UR.stopped,grating_UL.stopped,grating_LR.stopped,grating_LL.stopped,noise_UR.stopped,noise_UL.stopped,noise_LR.stopped,noise_LL.stopped,outframe,roi_2.numLooks,roi_2.timesOn,roi_2.timesOff,text_2.started,text_2.stopped,probedcontrast,key_resp.started,respdetect,relevantContrast,correctDetect,TorFdetect,respCWorCCW,key_resp.keys,key_resp.rt,feedback_display_.started,participantNo,blockNo,date,expName,psychopyVersion,frameRate,
1,0,0.0,0.0,1,0,0,0,49,4.360001184977591e-05,4.360001184977591e-05,54.93540680001024,56.94698850001441,56.94698850001441,57.576152299996465,57.576152299996465,58.09718979999889,315,315,58.09718979999889,58.09718979999889,58.09718979999889,58.09718979999889,58.09718979999889,58.09718979999889,58.09718979999889,58.09718979999889,58.09718979999889,58.44363930000691,58.44363930000691,58.44363930000691,58.44363930000691,58.44363930000691,58.44363930000691,58.44363930000691,58.44363930000691,58.44363930000691,0,1,[0.0009305999847128987],[0.36790620000101626],58.44363930000691,58.643937700020615,0.0,58.643937700020615,0,0.0,0,1,1000,num_1,0.7979853000142612,,20,4,2026-03-02_15h44.55.315,2026A_exp2,2022.2.4,59.836025357891906,
1,0,6.1,3.7,1,0,1,1,51,,,,,59.46363939999719,60.112160000018775,60.112160000018775,60.6131118000194,45,315,60.6131118000194,60.6131118000194,60.6131118000194,60.6131118000194,60.6131118000194,60.6131118000194,60.6131118000194,60.6131118000194,60.6131118000194,60.97953199999756,60.97953199999756,60.97953199999756,60.97953199999756,60.97953199999756,60.97953199999756,60.97953199999756,60.97953199999756,60.97953199999756,1,2,"[0.001213699986692518, 0.200358200003393]","[0.18374050001148134, 0.367308699991554]",60.97953199999756,61.17969570000423,3.7,61.17969570000423,0,3.7,1,0,1000,num_1,0.6625677999982145,,20,4,2026-03-02_15h44.55.315,2026A_exp2,2022.2.4,59.836025357891906,
1000,1,4.9,0.0,1,0,2,2,10,,,,,61.863769200019306,62.51428390000365,62.51428390000365,62.998888400004944,45,315,62.998888400004944,62.998888400004944,62.998888400004944,62.998888400004944,62.998888400004944,62.998888400004944,62.998888400004944,62.998888400004944,62.998888400004944,63.365221200016094,63.365221200016094,63.365221200016094,63.365221200016094,63.365221200016094,63.365221200016094,63.365221200016094,63.365221200016094,63.365221200016094,0,1,[0.0012398000108078122],[0.36731329999747686],63.365221200016094,63.57017409999389,1000,63.57017409999389,1000,1000,1000,1000,0,num_3,0.5362993000017013,,20,4,2026-03-02_15h44.55.315,2026A_exp2,2022.2.4,59.836025357891906,
1,0,6.1,4.9,1,0,3,3,64,,,,,64.13268430001335,64.7833369,64.7833369,65.28436350001721,45,315,65.28436350001721,65.28436350001721,65.28436350001721,65.28436350001721,65.28436350001721,65.28436350001721,65.28436350001721,65.28436350001721,65.28436350001721,65.65087949999725,65.65087949999725,65.65087949999725,65.65087949999725,65.65087949999725,65.65087949999725,65.65087949999725,65.65087949999725,65.65087949999725,19,2,"[0.18333719999645837, 0.2669277999957558]","[0.21689849998801947, 0.3003061999916099]",65.65087949999725,65.85112450001179,4.9,65.85112450001179,0,4.9,1,0,1000,num_1,0.6784786000207532,,20,4,2026-03-02_15h44.55.315,2026A_exp2,2022.2.4,59.836025357891906,
1000,1,0.0,0.0,1,0,4,4,1,,,,,66.55183680000482,67.20238820000668,67.20238820000668,67.6867497000203,315,45,67.6867497000203,67.6867497000203,67.6867497000203,67.6867497000203,67.6867497000203,67.6867497000203,67.6867497000203,67.6867497000203,67.6867497000203,68.0533090000099,68.0533090000099,68.0533090000099,68.0533090000099,68.0533090000099,68.0533090000099,68.0533090000099,68.0533090000099,68.0533090000099,0,1,[0.0012348000018391758],[0.36714459999348037],68.0533090000099,68.25512840002193,1000,68.25512840002193,1000,1000,1000,1000,1,num_2,1.1788960999983829,,20,4,2026-03-02_15h44.55.315,2026A_exp2,2022.2.4,59.836025357891906,
1000,1,0.0,0.0,0,0,5,5,17,,,,,69.45466160000069,70.1050923000148,70.1050923000148,70.60633100001724,45,45,70.60633100001724,70.60633100001724,70.60633100001724,70.60633100001724,70.60633100001724,70.60633100001724,70.60633100001724,70.60633100001724,70.60633100001724,70.97277180000674,70.97277180000674,70.97277180000674,70.97277180000674,70.97277180000674,70.97277180000674,70.97277180000674,70.97277180000674,70.97277180000674,5,1,[0.001201900013256818],[0.30024030001368374],70.97277180000674,71.17523059999803,1000,71.17523059999803,1000,1000,1000,1000,0,num_3,0.6581106999947224,,20,4,2026-03-02_15h44.55.315,2026A_exp2,2022.2.4,59.836025357891906,
1,0,3.7,4.9,1,0,6,6,18,,,,,71.8570374000119,72.5077535000164,72.5077535000164,73.00878540001577,45,315,73.00878540001577,73.00878540001577,73.00878540001577,73.00878540001577,73.00878540001577,73.00878540001577,73.00878540001577,73.00878540001577,73.00878540001577,73.37531360000139,73.37531360000139,73.37531360000139,73.37531360000139,73.37531360000139,73.37531360000139,73.37531360000139,73.37531360000139,73.37531360000139,0,1,[0.0012527999933809042],[0.3670622000063304],73.37531360000139,73.57549230000586,4.9,73.57549230000586,1,4.9,1,1,1000,num_4,0.8658640999929048,,20,4,2026-03-02_15h44.55.315,2026A_exp2,2022.2.4,59.836025357891906,
1000,1,6.1,0.0,1,0,7,7,83,,,,,74.45956320001278,75.11036370001966,75.11036370001966,75.5947593000019,315,315,75.5947593000019,75.5947593000019,75.5947593000019,75.5947593000019,75.5947593000019,75.5947593000019,75.5947593000019,75.5947593000019,75.5947593000019,75.96109840000281,75.96109840000281,75.96109840000281,75.96109840000281,75.96109840000281,75.96109840000281,75.96109840000281,75.96109840000281,75.96109840000281,0,1,[0.001213699986692518],[0.36699849998694845],75.96109840000281,76.16338420001557,1000,76.16338420001557,1000,1000,1000,1000,0,num_3,0.4781424999819137,,20,4,2026-03-02_15h44.55.315,2026A_exp2,2022.2.4,59.836025357891906,
1000,1,3.7,6.1,1,0,8,8,48,,,,,76.66180440000608,77.3124454000208,77.3124454000208,77.81348120002076,45,315,77.81348120002076,77.81348120002076,77.81348120002076,77.81348120002076,77.81348120002076,77.81348120002076,77.81348120002076,77.81348120002076,77.81348120002076,78.1800804999948,78.1800804999948,78.1800804999948,78.1800804999948,78.1800804999948,78.1800804999948,78.1800804999948,78.1800804999948,78.1800804999948,0,1,[0.0012854000087827444],[0.3673555999994278],78.1800804999948,78.38237920001848,1000,78.38237920001848,1000,1000,1000,1000,1,num_2,0.7005377000023145,,20,4,2026-03-02_15h44.55.315,2026A_exp2,2022.2.4,59.836025357891906,
1,0,0.0,0.0,0,0,9,9,55,,,,,79.11439450000762,79.76491690002149,79.76491690002149,80.26626679999754,315,315,80.26626679999754,80.26626679999754,80.26626679999754,80.26626679999754,80.26626679999754,80.26626679999754,80.26626679999754,80.26626679999754,80.26626679999754,80.61587040001177,80.61587040001177,80.61587040001177,80.61587040001177,80.61587040001177,80.61587040001177,80.61587040001177,80.61587040001177,80.61587040001177,0,1,[0.0007278999837581068],[0.3507658999878913],80.61587040001177,80.81600489999983,0.0,80.81600489999983,1,0.0,0,0,1000,num_4,1.5051625999913085,,20,4,2026-03-02_15h44.55.315,2026A_exp2,2022.2.4,59.836025357891906,
1,0,0.0,6.1,1,0,10,10,50,,,,,82.35076790000312,83.001562200021,83.001562200021,83.5025205000129,315,45,83.5025205000129,83.5025205000129,83.5025205000129,83.5025205000129,83.5025205000129,83.5025205000129,83.5025205000129,83.5025205000129,83.5025205000129,83.85242239999934,83.85242239999934,83.85242239999934,83.85242239999934,83.85242239999934,83.85242239999934,83.85242239999934,83.85242239999934,83.85242239999934,22,0,,,83.85242239999934,84.0524441000016,6.1,84.0524441000016,1,6.1,1,1,1000,num_4,0.7969076999870595,,20,4,2026-03-02_15h44.55.315,2026A_exp2,2022.2.4,59.836025357891906,
1000,1,4.9,3.7,0,0,11,11,40,,,,,84.87008350001997,85.52071760001127,85.52071760001127,86.00512580000213,45,315,86.00512580000213,86.00512580000213,86.00512580000213,86.00512580000213,86.00512580000213,86.00512580000213,86.00512580000213,86.00512580000213,86.00512580000213,86.37152509999578,86.37152509999578,86.37152509999578,86.37152509999578,86.37152509999578,86.37152509999578,86.37152509999578,86.37152509999578,86.37152509999578,0,1,[0.0012676000187639147],[0.36728179999045096],86.37152509999578,86.5738718000066,1000,86.5738718000066,1000,1000,1000,1000,0,num_3,0.48348429999896325,,20,4,2026-03-02_15h44.55.315,2026A_exp2,2022.2.4,59.836025357891906,
1,0,6.1,4.9,1,0,12,12,11,,,,,87.08901890000561,87.73964270000579,87.73964270000579,88.24092189999647,315,315,88.24092189999647,88.24092189999647,88.24092189999647,88.24092189999647,88.24092189999647,88.24092189999647,88.24092189999647,88.24092189999647,88.24092189999647,88.60720530000981,88.60720530000981,88.60720530000981,88.60720530000981,88.60720530000981,88.60720530000981,88.60720530000981,88.60720530000981,88.60720530000981,0,1,[0.0010959000210277736],[0.3674615000199992],88.60720530000981,88.80740640001022,4.9,88.80740640001022,1,4.9,1,1,1000,num_4,0.8898195000074338,,20,4,2026-03-02_15h44.55.315,2026A_exp2,2022.2.4,59.836025357891906,
1,0,6.1,0.0,0,0,13,13,21,,,,,89.72478459999547,90.37555440000142,90.37555440000142,90.86006279999856,45,315,90.86006279999856,90.86006279999856,90.86006279999856,90.86006279999856,90.86006279999856,90.86006279999856,90.86006279999856,90.86006279999856,90.86006279999856,91.22645260000718,91.22645260000718,91.22645260000718,91.22645260000718,91.22645260000718,91.22645260000718,91.22645260000718,91.22645260000718,91.22645260000718,7,2,"[0.1003805999935139, 0.3004629999923054]","[0.283845800004201, 0.36716409999644384]",91.22645260000718,91.42669150000438,6.1,91.42669150000438,1,6.1,1,1,1000,num_4,0.6871270000119694,,20,4,2026-03-02_15h44.55.315,2026A_exp2,2022.2.4,59.836025357891906,
1000,1,0.0,0.0,0,0,14,14,86,,,,,92.14385890000267,92.79460399999516,92.79460399999516,93.2791608000116,45,315,93.2791608000116,93.2791608000116,93.2791608000116,93.2791608000116,93.2791608000116,93.2791608000116,93.2791608000116,93.2791608000116,93.2791608000116,93.64553370000795,93.64553370000795,93.64553370000795,93.64553370000795,93.64553370000795,93.64553370000795,93.64553370000795,93.64553370000795,93.64553370000795,18,3,"[0.001253599999472499, 0.0837259000109043, 0.16720830000122078]","[0.017583100008778274, 0.13384220001171343, 0.18386439999449067]",93.64553370000795,93.84765040001366,1000,93.84765040001366,1000,1000,1000,1000,1,num_2,0.8910512999864295,,20,4,2026-03-02_15h44.55.315,2026A_exp2,2022.2.4,59.836025357891906,
1,0,4.9,3.7,0,0,15,15,44,,,,,94.76323060001596,95.41399250001996,95.41399250001996,95.91513040001155,315,315,95.91513040001155,95.91513040001155,95.91513040001155,95.91513040001155,95.91513040001155,95.91513040001155,95.91513040001155,95.91513040001155,95.91513040001155,96.28151970001636,96.28151970001636,96.28151970001636,96.28151970001636,96.28151970001636,96.28151970001636,96.28151970001636,96.28151970001636,96.28151970001636,14,4,"[0.0014307999808806926, 0.033854099980089813, 0.10040729999309406, 0.36743169999681413]","[0.017595899989828467, 0.08371089998399839, 0.16718769998988137, 0.3674362000019755]",96.28151970001636,96.48144800000591,4.9,96.48144800000591,0,4.9,1,0,1000,num_1,1.0806236999924295,,20,4,2026-03-02_15h44.55.315,2026A_exp2,2022.2.4,59.836025357891906,
1,0,0.0,0.0,0,0,16,16,24,,,,,97.58265470000333,98.23335650001536,98.23335650001536,98.7179552000016,315,315,98.7179552000016,98.7179552000016,98.7179552000016,98.7179552000016,98.7179552000016,98.7179552000016,98.7179552000016,98.7179552000016,98.7179552000016,99.0843836000131,99.0843836000131,99.0843836000131,99.0843836000131,99.0843836000131,99.0843836000131,99.0843836000131,99.0843836000131,99.0843836000131,23,0,,,99.0843836000131,99.2844413999992,0.0,99.2844413999992,1,0.0,0,0,1000,num_4,1.2778371999738738,,20,4,2026-03-02_15h44.55.315,2026A_exp2,2022.2.4,59.836025357891906,
1,0,3.7,3.7,1,0,17,17,30,,,,,100.58571670000674,101.23645640001632,101.23645640001632,101.72083080001175,315,315,101.72083080001175,101.72083080001175,101.72083080001175,101.72083080001175,101.72083080001175,101.72083080001175,101.72083080001175,101.72083080001175,101.72083080001175,102.08697709999979,102.08697709999979,102.08697709999979,102.08697709999979,102.08697709999979,102.08697709999979,102.08697709999979,102.08697709999979,102.08697709999979,4,2,"[0.033508700027596205, 0.35059310001088306]","[0.3170836000062991, 0.3668494000157807]",102.08697709999979,102.28726330000791,3.7,102.28726330000791,1,3.7,1,1,1000,num_4,0.6023720999946818,,20,4,2026-03-02_15h44.55.315,2026A_exp2,2022.2.4,59.836025357891906,
1,0,0.0,4.9,1,0,18,18,37,,,,,102.92143410001881,103.57213770001545,103.57213770001545,104.05660949999583,45,45,104.05660949999583,104.05660949999583,104.05660949999583,104.05660949999583,104.05660949999583,104.05660949999583,104.05660949999583,104.05660949999583,104.05660949999583,104.42282440001145,104.42282440001145,104.42282440001145,104.42282440001145,104.42282440001145,104.42282440001145,104.42282440001145,104.42282440001145,104.42282440001145,3,3,"[0.0012241000076755881, 0.200384199997643, 0.3671111000003293]","[0.16693859998486005, 0.3505379999987781, 0.36711610000929795]",104.42282440001145,104.62322130001849,4.9,104.62322130001849,1,4.9,1,1,1000,num_4,0.730384900001809,,20,4,2026-03-02_15h44.55.315,2026A_exp2,2022.2.4,59.836025357891906,
1,0,0.0,3.7,1,0,19,19,14,,,,,105.37383940001018,106.02463780000107,106.02463780000107,106.50900960000581,45,315,106.50900960000581,106.50900960000581,106.50900960000581,106.50900960000581,106.50900960000581,106.50900960000581,106.50900960000581,106.50900960000581,106.50900960000581,106.87513780000154,106.87513780000154,106.87513780000154,106.87513780000154,106.87513780000154,106.87513780000154,106.87513780000154,106.87513780000154,106.87513780000154,0,1,[0.001213699986692518],[0.3670173999853432],106.87513780000154,107.07549859999563,3.7,107.07549859999563,1,3.7,1,1,1000,num_4,0.5425741999933962,,20,4,2026-03-02_15h44.55.315,2026A_exp2,2022.2.4,59.836025357891906,
1000,1,6.1,0.0,1,0,20,20,29,,,,,107.6427512000082,108.29360170001746,108.29360170001746,108.77798740001163,45,315,108.77798740001163,108.77798740001163,108.77798740001163,108.77798740001163,108.77798740001163,108.77798740001163,108.77798740001163,108.77798740001163,108.77798740001163,109.14438909999444,109.14438909999444,109.14438909999444,109.14438909999444,109.14438909999444,109.14438909999444,109.14438909999444,109.14438909999444,109.14438909999444,10,3,"[0.0012012000079266727, 0.08373849999043159, 0.24990950000938028]","[0.06705449998844415, 0.21675779999350198, 0.2668433999933768]",109.14438909999444,109.34622790000867,1000,109.34622790000867,1000,1000,1000,1000,0,num_3,0.5031767999753356,,20,4,2026-03-02_15h44.55.315,2026A_exp2,2022.2.4,59.836025357891906,
1000,1,0.0,6.1,1,0,21,21,43,,,,,109.87832630000776,110.52914389999933,110.52914389999933,111.0302068000019,315,45,111.0302068000019,111.0302068000019,111.0302068000019,111.0302068000019,111.0302068000019,111.0302068000019,111.0302068000019,111.0302068000019,111.0302068000019,111.39660310000181,111.39660310000181,111.39660310000181,111.39660310000181,111.39660310000181,111.39660310000181,111.39660310000181,111.39660310000181,111.39660310000181,0,1,[0.0008659999875817448],[0.3676880999992136],111.39660310000181,111.59880960002192,1000,111.59880960002192,1000,1000,1000,1000,1,num_2,0.6668458999774884,,20,4,2026-03-02_15h44.55.315,2026A_exp2,2022.2.4,59.836025357891906,
1000,1,6.1,0.0,0,0,22,22,81,,,,,112.28076680001686,112.93136050002067,112.93136050002067,113.43244080001023,45,315,113.43244080001023,113.43244080001023,113.43244080001023,113.43244080001023,113.43244080001023,113.43244080001023,113.43244080001023,113.43244080001023,113.43244080001023,113.79902980002225,113.79902980002225,113.79902980002225,113.79902980002225,113.79902980002225,113.79902980002225,113.79902980002225,113.79902980002225,113.79902980002225,0,1,[0.001269300002604723],[0.3670694000029471],113.79902980002225,114.00106430001324,1000,114.00106430001324,1000,1000,1000,1000,0,num_3,0.4970128000131808,,20,4,2026-03-02_15h44.55.315,2026A_exp2,2022.2.4,59.836025357891906,
1000,1,0.0,0.0,0,0,23,23,15,,,,,114.5163986000116,115.1669698000187,115.1669698000187,115.66813110001385,315,45,115.66813110001385,115.66813110001385,115.66813110001385,115.66813110001385,115.66813110001385,115.66813110001385,115.66813110001385,115.66813110001385,115.66813110001385,116.03463270000066,116.03463270000066,116.03463270000066,116.03463270000066,116.03463270000066,116.03463270000066,116.03463270000066,116.03463270000066,116.03463270000066,1,1,[0.0007145999989006668],[0.36794909997843206],116.03463270000066,116.23649730000761,1000,116.23649730000761,1000,1000,1000,1000,0,num_3,0.6608734999899752,,20,4,2026-03-02_15h44.55.315,2026A_exp2,2022.2.4,59.836025357891906,
1,0,6.1,0.0,0,0,24,24,47,,,,,116.91889820000506,117.56952000001911,117.56952000001911,118.05392229999416,315,315,118.05392229999416,118.05392229999416,118.05392229999416,118.05392229999416,118.05392229999416,118.05392229999416,118.05392229999416,118.05392229999416,118.05392229999416,118.42030019999947,118.42030019999947,118.42030019999947,118.42030019999947,118.42030019999947,118.42030019999947,118.42030019999947,118.42030019999947,118.42030019999947,10,2,"[0.03350499999942258, 0.08348319999640808]","[0.0666975999774877, 0.26701589999720454]",118.42030019999947,118.62045360001503,6.1,118.62045360001503,1,6.1,1,1,1000,num_4,0.7656307999859564,,20,4,2026-03-02_15h44.55.315,2026A_exp2,2022.2.4,59.836025357891906,
1,0,0.0,0.0,1,0,25,25,42,,,,,119.40460020001046,120.05512720000115,120.05512720000115,120.55633230000967,315,315,120.55633230000967,120.55633230000967,120.55633230000967,120.55633230000967,120.55633230000967,120.55633230000967,120.55633230000967,120.55633230000967,120.55633230000967,120.90598730000784,120.90598730000784,120.90598730000784,120.90598730000784,120.90598730000784,120.90598730000784,120.90598730000784,120.90598730000784,120.90598730000784,12,5,"[0.0007302000012714416, 0.03340079999179579, 0.18406910001067445, 0.23402199998963624, 0.26735139999073]","[0.017116500006522983, 0.06672090000938624, 0.21730730001581833, 0.25075860001379624, 0.3508678000071086]",120.90598730000784,121.10620979999658,0.0,121.10620979999658,0,0.0,0,1,1000,num_1,2.9998943000100553,,20,4,2026-03-02_15h44.55.315,2026A_exp2,2022.2.4,59.836025357891906,
1000,1,3.7,6.1,1,0,26,26,58,,,,,124.1261014000047,124.77659389999462,124.77659389999462,125.26108530000784,45,45,125.26108530000784,125.26108530000784,125.26108530000784,125.26108530000784,125.26108530000784,125.26108530000784,125.26108530000784,125.26108530000784,125.26108530000784,125.62749660000554,125.62749660000554,125.62749660000554,125.62749660000554,125.62749660000554,125.62749660000554,125.62749660000554,125.62749660000554,125.62749660000554,23,0,,,125.62749660000554,125.82939020000049,1000,125.82939020000049,1000,1000,1000,1000,1,num_2,0.5484851000073832,,20,4,2026-03-02_15h44.55.315,2026A_exp2,2022.2.4,59.836025357891906,
1,0,3.7,0.0,0,0,27,27,87,,,,,126.39483890001429,127.04554970000754,127.04554970000754,127.54672549999668,315,315,127.54672549999668,127.54672549999668,127.54672549999668,127.54672549999668,127.54672549999668,127.54672549999668,127.54672549999668,127.54672549999668,127.54672549999668,127.9129843999981,127.9129843999981,127.9129843999981,127.9129843999981,127.9129843999981,127.9129843999981,127.9129843999981,127.9129843999981,127.9129843999981,23,0,,,127.9129843999981,128.11332220002078,3.7,128.11332220002078,1,3.7,1,1,1000,num_4,0.631765899976017,,20,4,2026-03-02_15h44.55.315,2026A_exp2,2022.2.4,59.836025357891906,
1000,1,0.0,0.0,0,0,28,28,5,,,,,128.76384689999395,129.41457550000632,129.41457550000632,129.8989689000009,315,45,129.8989689000009,129.8989689000009,129.8989689000009,129.8989689000009,129.8989689000009,129.8989689000009,129.8989689000009,129.8989689000009,129.8989689000009,130.26548510001157,130.26548510001157,130.26548510001157,130.26548510001157,130.26548510001157,130.26548510001157,130.26548510001157,130.26548510001157,130.26548510001157,23,0,,,130.26548510001157,130.46805570001015,1000,130.46805570001015,1000,1000,1000,1000,0,num_3,0.6062458000087645,,20,4,2026-03-02_15h44.55.315,2026A_exp2,2022.2.4,59.836025357891906,
1000,1,0.0,3.7,1,0,29,29,13,,,,,131.09948299999814,131.75016419999884,131.75016419999884,132.2514579000126,315,315,132.2514579000126,132.2514579000126,132.2514579000126,132.2514579000126,132.2514579000126,132.2514579000126,132.2514579000126,132.2514579000126,132.2514579000126,132.60119489999488,132.60119489999488,132.60119489999488,132.60119489999488,132.60119489999488,132.60119489999488,132.60119489999488,132.60119489999488,132.60119489999488,22,0,,,132.60119489999488,132.8035548000189,1000,132.8035548000189,1000,1000,1000,1000,1,num_2,0.518130199983716,,20,4,2026-03-02_15h44.55.315,2026A_exp2,2022.2.4,59.836025357891906,
1,0,0.0,6.1,0,0,30,30,0,,,,,133.35181980000925,134.00262310000835,134.00262310000835,134.503715800005,45,315,134.503715800005,134.503715800005,134.503715800005,134.503715800005,134.503715800005,134.503715800005,134.503715800005,134.503715800005,134.503715800005,134.8700627000071,134.8700627000071,134.8700627000071,134.8700627000071,134.8700627000071,134.8700627000071,134.8700627000071,134.8700627000071,134.8700627000071,23,0,,,134.8700627000071,135.07016160001513,0.0,135.07016160001513,0,0.0,0,1,1000,num_1,0.7880030999949668,,20,4,2026-03-02_15h44.55.315,2026A_exp2,2022.2.4,59.836025357891906,
1000,1,3.7,0.0,0,0,31,31,56,,,,,135.88760560000082,136.52173259999836,136.52173259999836,137.0228375000006,45,45,137.0228375000006,137.0228375000006,137.0228375000006,137.0228375000006,137.0228375000006,137.0228375000006,137.0228375000006,137.0228375000006,137.0228375000006,137.38916130000143,137.38916130000143,137.38916130000143,137.38916130000143,137.38916130000143,137.38916130000143,137.38916130000143,137.38916130000143,137.38916130000143,23,0,,,137.38916130000143,137.59174440000788,1000,137.59174440000788,1000,1000,1000,1000,0,num_3,0.562091200001305,,20,4,2026-03-02_15h44.55.315,2026A_exp2,2022.2.4,59.836025357891906,
1,0,0.0,6.1,1,0,32,32,31,,,,,138.17332600001828,138.82395940000424,138.82395940000424,139.3251031000109,45,45,139.3251031000109,139.3251031000109,139.3251031000109,139.3251031000109,139.3251031000109,139.3251031000109,139.3251031000109,139.3251031000109,139.3251031000109,139.69193780000205,139.69193780000205,139.69193780000205,139.69193780000205,139.69193780000205,139.69193780000205,139.69193780000205,139.69193780000205,139.69193780000205,23,0,,,139.69193780000205,139.8916426000069,6.1,139.8916426000069,1,6.1,1,1,1000,num_4,0.5505743999965489,,20,4,2026-03-02_15h44.55.315,2026A_exp2,2022.2.4,59.836025357891906,
1000,1,0.0,4.9,0,0,33,33,60,,,,,140.45900100001018,141.1097318000102,141.1097318000102,141.59405909999623,315,315,141.59405909999623,141.59405909999623,141.59405909999623,141.59405909999623,141.59405909999623,141.59405909999623,141.59405909999623,141.59405909999623,141.59405909999623,141.9605882000178,141.9605882000178,141.9605882000178,141.9605882000178,141.9605882000178,141.9605882000178,141.9605882000178,141.9605882000178,141.9605882000178,21,2,"[0.0012469000066630542, 0.35028280000551604]","[0.01725330000044778, 0.36704190002637915]",141.9605882000178,142.16208720000577,1000,142.16208720000577,1000,1000,1000,1000,1,num_2,0.5993761999998242,,20,4,2026-03-02_15h44.55.315,2026A_exp2,2022.2.4,59.836025357891906,
1000,1,4.9,0.0,0,0,34,34,41,,,,,142.77788830001373,143.42868330000783,143.42868330000783,143.92966789999628,45,315,143.92966789999628,143.92966789999628,143.92966789999628,143.92966789999628,143.92966789999628,143.92966789999628,143.92966789999628,143.92966789999628,143.92966789999628,144.2961948000011,144.2961948000011,144.2961948000011,144.2961948000011,144.2961948000011,144.2961948000011,144.2961948000011,144.2961948000011,144.2961948000011,23,0,,,144.2961948000011,144.49852470000042,1000,144.49852470000042,1000,1000,1000,1000,0,num_3,0.35136709999642335,,20,4,2026-03-02_15h44.55.315,2026A_exp2,2022.2.4,59.836025357891906,
1,0,0.0,6.1,1,0,35,35,33,,,,,144.88028250000207,145.5307643999986,145.5307643999986,146.01523670001188,315,315,146.01523670001188,146.01523670001188,146.01523670001188,146.01523670001188,146.01523670001188,146.01523670001188,146.01523670001188,146.01523670001188,146.01523670001188,146.38162090000696,146.38162090000696,146.38162090000696,146.38162090000696,146.38162090000696,146.38162090000696,146.38162090000696,146.38162090000696,146.38162090000696,23,0,,,146.38162090000696,146.58165700000245,6.1,146.58165700000245,1,6.1,1,1,1000,num_4,0.7641783000144642,,20,4,2026-03-02_15h44.55.315,2026A_exp2,2022.2.4,59.836025357891906,
1000,1,3.7,0.0,1,0,36,36,38,,,,,147.36576950000017,148.01661120000063,148.01661120000063,148.50100920000114,315,45,148.50100920000114,148.50100920000114,148.50100920000114,148.50100920000114,148.50100920000114,148.50100920000114,148.50100920000114,148.50100920000114,148.50100920000114,148.86748830002034,148.86748830002034,148.86748830002034,148.86748830002034,148.86748830002034,148.86748830002034,148.86748830002034,148.86748830002034,148.86748830002034,0,1,[0.0011999999987892807],[0.3672433999890927],148.86748830002034,149.0693261999986,1000,149.0693261999986,1000,1000,1000,1000,1,num_2,0.6441188000026159,,20,4,2026-03-02_15h44.55.315,2026A_exp2,2022.2.4,59.836025357891906,
1000,1,0.0,0.0,1,0,37,37,85,,,,,149.73477400001138,150.38542320000124,150.38542320000124,150.88658459999715,45,45,150.88658459999715,150.88658459999715,150.88658459999715,150.88658459999715,150.88658459999715,150.88658459999715,150.88658459999715,150.88658459999715,150.88658459999715,151.25322410001536,151.25322410001536,151.25322410001536,151.25322410001536,151.25322410001536,151.25322410001536,151.25322410001536,151.25322410001536,151.25322410001536,0,1,[0.0012046000047121197],[0.367228699993575],151.25322410001536,151.45565630000783,1000,151.45565630000783,1000,1000,1000,1000,0,num_3,0.8272647999983747,,20,4,2026-03-02_15h44.55.315,2026A_exp2,2022.2.4,59.836025357891906,
1000,1,0.0,4.9,0,0,38,38,6,,,,,152.30409730001702,152.95483970001806,152.95483970001806,153.45598719999543,315,45,153.45598719999543,153.45598719999543,153.45598719999543,153.45598719999543,153.45598719999543,153.45598719999543,153.45598719999543,153.45598719999543,153.45598719999543,153.82234959999914,153.82234959999914,153.82234959999914,153.82234959999914,153.82234959999914,153.82234959999914,153.82234959999914,153.82234959999914,153.82234959999914,2,1,[0.0012360000109765679],[0.3505736000079196],153.82234959999914,154.02434570001788,1000,154.02434570001788,1000,1000,1000,1000,1,num_2,0.44220160000259057,,20,4,2026-03-02_15h44.55.315,2026A_exp2,2022.2.4,59.836025357891906,
1,0,0.0,6.1,1,0,39,39,36,,,,,154.48969940000097,155.14041170000564,155.14041170000564,155.64147030000458,45,45,155.64147030000458,155.64147030000458,155.64147030000458,155.64147030000458,155.64147030000458,155.64147030000458,155.64147030000458,155.64147030000458,155.64147030000458,155.99124140001368,155.99124140001368,155.99124140001368,155.99124140001368,155.99124140001368,155.99124140001368,155.99124140001368,155.99124140001368,155.99124140001368,0,1,[0.0012387000024318695],[0.35044800001196563],155.99124140001368,156.19146200001705,6.1,156.20814319999772,1,6.1,1,1,1000,num_4,0.5532193999970332,,20,4,2026-03-02_15h44.55.315,2026A_exp2,2022.2.4,59.836025357891906,
1,0,4.9,0.0,1,0,40,40,65,,,,,156.7917754999944,157.4426994000096,157.4426994000096,157.92703079999774,315,45,157.92703079999774,157.92703079999774,157.92703079999774,157.92703079999774,157.92703079999774,157.92703079999774,157.92703079999774,157.92703079999774,157.92703079999774,158.2934959999984,158.2934959999984,158.2934959999984,158.2934959999984,158.2934959999984,158.2934959999984,158.2934959999984,158.2934959999984,158.2934959999984,0,1,[0.0012426000030245632],[0.3673707999987528],158.2934959999984,158.49378710001474,0.0,158.49378710001474,0,0.0,0,1,1000,num_1,0.700158299994655,,20,4,2026-03-02_15h44.55.315,2026A_exp2,2022.2.4,59.836025357891906,
1000,1,0.0,0.0,0,0,41,41,7,,,,,159.21100999999908,159.8617751999991,159.8617751999991,160.34622050001053,315,45,160.34622050001053,160.34622050001053,160.34622050001053,160.34622050001053,160.34622050001053,160.34622050001053,160.34622050001053,160.34622050001053,160.34622050001053,160.71252510001068,160.71252510001068,160.71252510001068,160.71252510001068,160.71252510001068,160.71252510001068,160.71252510001068,160.71252510001068,160.71252510001068,0,1,[0.0012346000003162771],[0.36695769999641925],160.71252510001068,160.91319530000328,1000,160.91319530000328,1000,1000,1000,1000,0,num_3,1.3843750999949407,,20,4,2026-03-02_15h44.55.315,2026A_exp2,2022.2.4,59.836025357891906,
1000,1,6.1,6.1,1,0,42,42,4,,,,,162.31396020000102,162.94815480001853,162.94815480001853,163.4493973000208,315,45,163.4493973000208,163.4493973000208,163.4493973000208,163.4493973000208,163.4493973000208,163.4493973000208,163.4493973000208,163.4493973000208,163.4493973000208,163.8157232000085,163.8157232000085,163.8157232000085,163.8157232000085,163.8157232000085,163.8157232000085,163.8157232000085,163.8157232000085,163.8157232000085,1,2,"[0.0012319999805185944, 0.23379490000661463]","[0.2171809999854304, 0.3672709999955259]",163.8157232000085,164.01759060000768,1000,164.01759060000768,1000,1000,1000,1000,1,num_2,0.8956915000162553,,20,4,2026-03-02_15h44.55.315,2026A_exp2,2022.2.4,59.836025357891906,
1000,1,0.0,3.7,1,0,43,43,84,,,,,164.93372369999997,165.58411820000038,165.58411820000038,166.06861050002044,45,45,166.06861050002044,166.06861050002044,166.06861050002044,166.06861050002044,166.06861050002044,166.06861050002044,166.06861050002044,166.06861050002044,166.06861050002044,166.43492480000714,166.43492480000714,166.43492480000714,166.43492480000714,166.43492480000714,166.43492480000714,166.43492480000714,166.43492480000714,166.43492480000714,0,1,[0.0011900999816134572],[0.3672714999993332],166.43492480000714,166.63697839999804,1000,166.63697839999804,1000,1000,1000,1000,1,num_2,0.4690876999811735,,20,4,2026-03-02_15h44.55.315,2026A_exp2,2022.2.4,59.836025357891906,
0,0,6.1,4.9,0,0,44,44,22,,,,,167.13563639999484,167.78639019999537,167.78639019999537,168.28752350001014,45,45,168.28752350001014,168.28752350001014,168.28752350001014,168.28752350001014,168.28752350001014,168.28752350001014,168.28752350001014,168.28752350001014,168.28752350001014,168.6538741000113,168.6538741000113,168.6538741000113,168.6538741000113,168.6538741000113,168.6538741000113,168.6538741000113,168.6538741000113,168.6538741000113,0,1,[0.0012285000120755285],[0.3671623000118416],168.6538741000113,168.85398169999826,4.9,168.85398169999826,0,4.9,1,0,1000,num_1,0.6440719999955036,,20,4,2026-03-02_15h44.55.315,2026A_exp2,2022.2.4,59.836025357891906,
0,0,4.9,0.0,1,0,45,45,67,,,,,169.52128740001353,170.17188450001413,170.17188450001413,170.65654620001442,45,45,170.65654620001442,170.65654620001442,170.65654620001442,170.65654620001442,170.65654620001442,170.65654620001442,170.65654620001442,170.65654620001442,170.65654620001442,171.02269880002132,171.02269880002132,171.02269880002132,171.02269880002132,171.02269880002132,171.02269880002132,171.02269880002132,171.02269880002132,171.02269880002132,0,1,[0.0012335999927017838],[0.36730149999493733],171.02269880002132,171.222966500005,4.9,171.222966500005,1,4.9,1,1,1000,num_4,0.6908799999800976,,20,4,2026-03-02_15h44.55.315,2026A_exp2,2022.2.4,59.836025357891906,
1000,1,4.9,0.0,0,0,46,46,54,,,,,171.94041830001515,172.5911780000024,172.5911780000024,173.07548880000832,315,45,173.07548880000832,173.07548880000832,173.07548880000832,173.07548880000832,173.07548880000832,173.07548880000832,173.07548880000832,173.07548880000832,173.07548880000832,173.44200400001137,173.44200400001137,173.44200400001137,173.44200400001137,173.44200400001137,173.44200400001137,173.44200400001137,173.44200400001137,173.44200400001137,5,3,"[0.0012107999937143177, 0.09972019999986514, 0.2002541999972891]","[0.08338300001923926, 0.18364530001417734, 0.33372950000921264]",173.44200400001137,173.644162600016,1000,173.644162600016,1000,1000,1000,1000,0,num_3,0.461384199996246,,20,4,2026-03-02_15h44.55.315,2026A_exp2,2022.2.4,59.836025357891906,
0,0,0.0,0.0,1,0,47,47,2,,,,,174.1259052999958,174.77656709999428,174.77656709999428,175.27783760000602,45,315,175.27783760000602,175.27783760000602,175.27783760000602,175.27783760000602,175.27783760000602,175.27783760000602,175.27783760000602,175.27783760000602,175.27783760000602,175.64406160000362,175.64406160000362,175.64406160000362,175.64406160000362,175.64406160000362,175.64406160000362,175.64406160000362,175.64406160000362,175.64406160000362,9,4,"[0.10003669999423437, 0.13351010001497343, 0.16678630001842976, 0.20040610001888126]","[0.11677570000756532, 0.15018990001408383, 0.18371129999286495, 0.36742349999258295]",175.64406160000362,175.84446049999679,0.0,175.84446049999679,1,0.0,0,0,1000,num_4,0.7413532999926247,,20,4,2026-03-02_15h44.55.315,2026A_exp2,2022.2.4,59.836025357891906,
0,0,6.1,0.0,0,0,48,48,74,,,,,176.6116752999951,177.26241880000453,177.26241880000453,177.74701960000675,45,45,177.74701960000675,177.74701960000675,177.74701960000675,177.74701960000675,177.74701960000675,177.74701960000675,177.74701960000675,177.74701960000675,177.74701960000675,178.1133886000025,178.1133886000025,178.1133886000025,178.1133886000025,178.1133886000025,178.1133886000025,178.1133886000025,178.1133886000025,178.1133886000025,23,0,,,178.1133886000025,178.31341500001145,0.0,178.31341500001145,0,0.0,0,1,1000,num_1,0.641278399998555,,20,4,2026-03-02_15h44.55.315,2026A_exp2,2022.2.4,59.836025357891906,
0,0,4.9,3.7,0,0,49,49,28,,,,,178.98077540000668,179.6314467000193,179.6314467000193,180.13255589999608,45,45,180.13255589999608,180.13255589999608,180.13255589999608,180.13255589999608,180.13255589999608,180.13255589999608,180.13255589999608,180.13255589999608,180.13255589999608,180.4822348000016,180.4822348000016,180.4822348000016,180.4822348000016,180.4822348000016,180.4822348000016,180.4822348000016,180.4822348000016,180.4822348000016,22,0,,,180.4822348000016,180.68257289999747,3.7,180.68257289999747,0,3.7,1,0,1000,num_1,0.5920325000188313,,20,4,2026-03-02_15h44.55.315,2026A_exp2,2022.2.4,59.836025357891906,
0,0,0.0,0.0,0,0,50,50,59,,,,,181.29972370000905,181.95058210002026,181.95058210002026,182.43498670001281,45,315,182.43498670001281,182.43498670001281,182.43498670001281,182.43498670001281,182.43498670001281,182.43498670001281,182.43498670001281,182.43498670001281,182.43498670001281,182.80136820001644,182.80136820001644,182.80136820001644,182.80136820001644,182.80136820001644,182.80136820001644,182.80136820001644,182.80136820001644,182.80136820001644,23,0,,,182.80136820001644,183.0015806000156,0.0,183.0015806000156,0,0.0,0,1,1000,num_1,0.8640773000079207,,20,4,2026-03-02_15h44.55.315,2026A_exp2,2022.2.4,59.836025357891906,
1000,1,3.7,3.7,0,0,51,51,63,,,,,183.88560870001675,184.53649240001687,184.53649240001687,185.02072329999646,45,45,185.02072329999646,185.02072329999646,185.02072329999646,185.02072329999646,185.02072329999646,185.02072329999646,185.02072329999646,185.02072329999646,185.02072329999646,185.38719810001203,185.38719810001203,185.38719810001203,185.38719810001203,185.38719810001203,185.38719810001203,185.38719810001203,185.38719810001203,185.38719810001203,18,1,[0.300102400011383],[0.3671096000180114],185.38719810001203,185.5891162000189,1000,185.5891162000189,1000,1000,1000,1000,0,num_3,0.4845891000004485,,20,4,2026-03-02_15h44.55.315,2026A_exp2,2022.2.4,59.836025357891906,
1,0,0.0,0.0,1,0,52,52,39,,,,,186.10455069999443,186.75536840001587,186.75536840001587,187.25636329999543,45,45,187.25636329999543,187.25636329999543,187.25636329999543,187.25636329999543,187.25636329999543,187.25636329999543,187.25636329999543,187.25636329999543,187.25636329999543,187.60614730001544,187.60614730001544,187.60614730001544,187.60614730001544,187.60614730001544,187.60614730001544,187.60614730001544,187.60614730001544,187.60614730001544,22,0,,,187.60614730001544,187.8194807000109,0.0,187.8194807000109,0,0.0,0,1,1000,num_1,0.7183512999908999,,20,4,2026-03-02_15h44.55.315,2026A_exp2,2022.2.4,59.836025357891906,
1000,1,3.7,0.0,0,0,53,53,76,,,,,188.5568722000171,189.20778890000656,189.20778890000656,189.70872630001395,315,45,189.70872630001395,189.70872630001395,189.70872630001395,189.70872630001395,189.70872630001395,189.70872630001395,189.70872630001395,189.70872630001395,189.70872630001395,190.0584463000123,190.0584463000123,190.0584463000123,190.0584463000123,190.0584463000123,190.0584463000123,190.0584463000123,190.0584463000123,190.0584463000123,22,0,,,190.0584463000123,190.26040620001731,1000,190.26040620001731,1000,1000,1000,1000,0,num_3,0.5012860000133514,,20,4,2026-03-02_15h44.55.315,2026A_exp2,2022.2.4,59.836025357891906,
1,0,6.1,0.0,1,0,54,54,70,,,,,190.79257660001167,191.44337480000104,191.44337480000104,191.94441840000218,315,45,191.94441840000218,191.94441840000218,191.94441840000218,191.94441840000218,191.94441840000218,191.94441840000218,191.94441840000218,191.94441840000218,191.94441840000218,192.31087499999558,192.31087499999558,192.31087499999558,192.31087499999558,192.31087499999558,192.31087499999558,192.31087499999558,192.31087499999558,192.31087499999558,23,0,,,192.31087499999558,192.51102960002027,0.0,192.51102960002027,0,0.0,0,1,1000,num_1,0.5956161999783944,,20,4,2026-03-02_15h44.55.315,2026A_exp2,2022.2.4,59.836025357891906,
1,0,3.7,4.9,1,0,55,55,20,,,,,193.12812020001002,193.7788749000174,193.7788749000174,194.263483000017,45,45,194.263483000017,194.263483000017,194.263483000017,194.263483000017,194.263483000017,194.263483000017,194.263483000017,194.263483000017,194.263483000017,194.6298778000055,194.6298778000055,194.6298778000055,194.6298778000055,194.6298778000055,194.6298778000055,194.6298778000055,194.6298778000055,194.6298778000055,23,0,,,194.6298778000055,194.83002470000065,4.9,194.83002470000065,1,4.9,1,1,1000,num_4,0.9405791999888606,,20,4,2026-03-02_15h44.55.315,2026A_exp2,2022.2.4,59.836025357891906,
1000,1,0.0,3.7,0,0,56,56,46,,,,,195.7975410000072,196.44833850002033,196.44833850002033,196.9328080000123,315,315,196.9328080000123,196.9328080000123,196.9328080000123,196.9328080000123,196.9328080000123,196.9328080000123,196.9328080000123,196.9328080000123,196.9328080000123,197.299087100022,197.299087100022,197.299087100022,197.299087100022,197.299087100022,197.299087100022,197.299087100022,197.299087100022,197.299087100022,13,3,"[0.017479000001912937, 0.3004732000117656, 0.36714640000718646]","[0.16683820000616834, 0.31710620000376366, 0.3671512000146322]",197.299087100022,197.50122649999685,1000,197.50122649999685,1000,1000,1000,1000,0,num_3,0.6049255999969319,,20,4,2026-03-02_15h44.55.315,2026A_exp2,2022.2.4,59.836025357891906,
1000,1,6.1,6.1,1,0,57,57,8,,,,,198.13318000000436,198.78393190001952,198.78393190001952,199.28504260000773,315,315,199.28504260000773,199.28504260000773,199.28504260000773,199.28504260000773,199.28504260000773,199.28504260000773,199.28504260000773,199.28504260000773,199.28504260000773,199.65138720002142,199.65138720002142,199.65138720002142,199.65138720002142,199.65138720002142,199.65138720002142,199.65138720002142,199.65138720002142,199.65138720002142,18,2,"[0.13362239999696612, 0.2834042999893427]","[0.20012309998855926, 0.3171444999752566]",199.65138720002142,199.85335610000766,1000,199.85335610000766,1000,1000,1000,1000,1,num_2,0.48404260000097565,,20,4,2026-03-02_15h44.55.315,2026A_exp2,2022.2.4,59.836025357891906,
1000,1,3.7,4.9,0,0,58,58,45,,,,,200.3548023000185,201.00290900000255,201.00290900000255,201.50403090001782,45,315,201.50403090001782,201.50403090001782,201.50403090001782,201.50403090001782,201.50403090001782,201.50403090001782,201.50403090001782,201.50403090001782,201.50403090001782,201.8704405000026,201.8704405000026,201.8704405000026,201.8704405000026,201.8704405000026,201.8704405000026,201.8704405000026,201.8704405000026,201.8704405000026,0,1,[0.0012405999877955765],[0.3669981999846641],201.8704405000026,202.0723756000225,1000,202.0723756000225,1000,1000,1000,1000,1,num_2,0.6968794999993406,,20,4,2026-03-02_15h44.55.315,2026A_exp2,2022.2.4,59.836025357891906,
0,0,3.7,0.0,0,0,59,59,62,,,,,202.78783790001762,203.4385186000145,203.4385186000145,203.9396679000056,315,45,203.9396679000056,203.9396679000056,203.9396679000056,203.9396679000056,203.9396679000056,203.9396679000056,203.9396679000056,203.9396679000056,203.9396679000056,204.30615350001608,204.30615350001608,204.30615350001608,204.30615350001608,204.30615350001608,204.30615350001608,204.30615350001608,204.30615350001608,204.30615350001608,7,1,[0.0012357999803498387],[0.2669276999949943],204.30615350001608,204.50642950000474,0.0,204.50642950000474,0,0.0,0,1,1000,num_1,0.7833372000022791,,20,4,2026-03-02_15h44.55.315,2026A_exp2,2022.2.4,59.836025357891906,
1000,1,6.1,0.0,1,0,60,60,25,,,,,205.30745000002207,205.95789520000108,205.95789520000108,206.44234040001174,315,45,206.44234040001174,206.44234040001174,206.44234040001174,206.44234040001174,206.44234040001174,206.44234040001174,206.44234040001174,206.44234040001174,206.44234040001174,206.80868180000107,206.80868180000107,206.80868180000107,206.80868180000107,206.80868180000107,206.80868180000107,206.80868180000107,206.80868180000107,206.80868180000107,0,1,[0.0012376999948173761],[0.3671953000011854],206.80868180000107,207.01062790001743,1000,207.01062790001743,1000,1000,1000,1000,0,num_3,0.5595511999854352,,20,4,2026-03-02_15h44.55.315,2026A_exp2,2022.2.4,59.836025357891906,
1,0,0.0,4.9,0,0,61,61,73,,,,,207.5927650000085,208.24355250000372,208.24355250000372,208.74462919999496,45,45,208.74462919999496,208.74462919999496,208.74462919999496,208.74462919999496,208.74462919999496,208.74462919999496,208.74462919999496,208.74462919999496,208.74462919999496,209.1108782000083,209.1108782000083,209.1108782000083,209.1108782000083,209.1108782000083,209.1108782000083,209.1108782000083,209.1108782000083,209.1108782000083,0,1,[0.0012199000047985464],[0.3669735000003129],209.1108782000083,209.31096020000405,0.0,209.31096020000405,0,0.0,0,1,1000,num_1,0.770921699993778,,20,4,2026-03-02_15h44.55.315,2026A_exp2,2022.2.4,59.836025357891906,
1000,1,6.1,6.1,0,0,62,62,16,,,,,210.1118706999987,210.76246190001257,210.76246190001257,211.24706439999864,315,315,211.24706439999864,211.24706439999864,211.24706439999864,211.24706439999864,211.24706439999864,211.24706439999864,211.24706439999864,211.24706439999864,211.24706439999864,211.6135325000214,211.6135325000214,211.6135325000214,211.6135325000214,211.6135325000214,211.6135325000214,211.6135325000214,211.6135325000214,211.6135325000214,1,2,"[0.0010554000036790967, 0.18342490002396517]","[0.1667794000240974, 0.36736600002041087]",211.6135325000214,211.81562070001382,1000,211.81562070001382,1000,1000,1000,1000,1,num_2,0.569645900017349,,20,4,2026-03-02_15h44.55.315,2026A_exp2,2022.2.4,59.836025357891906,
1,0,6.1,0.0,1,0,63,63,80,,,,,212.4141978000116,213.0649618000025,213.0649618000025,213.56607940001413,45,315,213.56607940001413,213.56607940001413,213.56607940001413,213.56607940001413,213.56607940001413,213.56607940001413,213.56607940001413,213.56607940001413,213.56607940001413,213.9323048000224,213.9323048000224,213.9323048000224,213.9323048000224,213.9323048000224,213.9323048000224,213.9323048000224,213.9323048000224,213.9323048000224,4,4,"[0.0012079000007361174, 0.2004486999940127, 0.2670182999863755, 0.316981299984036]","[0.18353219999698922, 0.2505209999799263, 0.2837724999990314, 0.3672088999883272]",213.9323048000224,214.13246640001307,0.0,214.13246640001307,0,0.0,0,1,1000,num_1,0.6286606999929063,,20,4,2026-03-02_15h44.55.315,2026A_exp2,2022.2.4,59.836025357891906,
1,0,0.0,3.7,1,0,64,64,35,,,,,214.7830831000174,215.43406319999485,215.43406319999485,215.91834329999983,45,45,215.91834329999983,215.91834329999983,215.91834329999983,215.91834329999983,215.91834329999983,215.91834329999983,215.91834329999983,215.91834329999983,215.91834329999983,216.28488240001025,216.28488240001025,216.28488240001025,216.28488240001025,216.28488240001025,216.28488240001025,216.28488240001025,216.28488240001025,216.28488240001025,0,1,[0.0011981999850831926],[0.36731309999595396],216.28488240001025,216.48504490000778,3.7,216.48504490000778,1,3.7,1,1,1000,num_4,0.9568397999973968,,20,4,2026-03-02_15h44.55.315,2026A_exp2,2022.2.4,59.836025357891906,
1000,1,6.1,0.0,1,0,65,65,57,,,,,217.46931730001234,218.11996740000905,218.11996740000905,218.60437180000008,315,45,218.60437180000008,218.60437180000008,218.60437180000008,218.60437180000008,218.60437180000008,218.60437180000008,218.60437180000008,218.60437180000008,218.60437180000008,218.9709272000182,218.9709272000182,218.9709272000182,218.9709272000182,218.9709272000182,218.9709272000182,218.9709272000182,218.9709272000182,218.9709272000182,4,3,"[0.0012149999965913594, 0.033434700017096475, 0.13343660000828095]","[0.01744150000740774, 0.08350249999784864, 0.3671232000051532]",218.9709272000182,219.17085680001765,1000,219.17085680001765,1000,1000,1000,1000,0,num_3,0.4865243000094779,,20,4,2026-03-02_15h44.55.315,2026A_exp2,2022.2.4,59.836025357891906,
1,0,6.1,6.1,1,0,66,66,23,,,,,219.68810810000286,220.33893349999562,220.33893349999562,220.83975850002025,45,45,220.83975850002025,220.83975850002025,220.83975850002025,220.83975850002025,220.83975850002025,220.83975850002025,220.83975850002025,220.83975850002025,220.83975850002025,221.20664489999763,221.20664489999763,221.20664489999763,221.20664489999763,221.20664489999763,221.20664489999763,221.20664489999763,221.20664489999763,221.20664489999763,0,1,[0.0012682999949902296],[0.3671427999797743],221.20664489999763,221.406599000009,6.1,221.406599000009,1,6.1,1,1,1000,num_4,0.7465440999949351,,20,4,2026-03-02_15h44.55.315,2026A_exp2,2022.2.4,59.836025357891906,
1000,1,0.0,4.9,0,0,67,67,26,,,,,222.17368599999463,222.80808010001783,222.80808010001783,223.30908580002142,45,315,223.30908580002142,223.30908580002142,223.30908580002142,223.30908580002142,223.30908580002142,223.30908580002142,223.30908580002142,223.30908580002142,223.30908580002142,223.6754338000028,223.6754338000028,223.6754338000028,223.6754338000028,223.6754338000028,223.6754338000028,223.6754338000028,223.6754338000028,223.6754338000028,18,2,"[0.0012134000135120004, 0.3672872000024654]","[0.0669466000108514, 0.3672921000106726]",223.6754338000028,223.87741139999707,1000,223.87741139999707,1000,1000,1000,1000,1,num_2,0.4837841999833472,,20,4,2026-03-02_15h44.55.315,2026A_exp2,2022.2.4,59.836025357891906,
1000,1,3.7,0.0,1,0,68,68,19,,,,,224.37617400000454,225.02691230000346,225.02691230000346,225.52799180001603,45,315,225.52799180001603,225.52799180001603,225.52799180001603,225.52799180001603,225.52799180001603,225.52799180001603,225.52799180001603,225.52799180001603,225.52799180001603,225.89436210002168,225.89436210002168,225.89436210002168,225.89436210002168,225.89436210002168,225.89436210002168,225.89436210002168,225.89436210002168,225.89436210002168,23,0,,,225.89436210002168,226.09600069999578,1000,226.09600069999578,1000,1000,1000,1000,0,num_3,0.3459873000101652,,20,4,2026-03-02_15h44.55.315,2026A_exp2,2022.2.4,59.836025357891906,
1000,1,3.7,3.7,0,0,69,69,72,,,,,226.46171400000458,227.11240320000798,227.11240320000798,227.61347989999922,45,45,227.61347989999922,227.61347989999922,227.61347989999922,227.61347989999922,227.61347989999922,227.61347989999922,227.61347989999922,227.61347989999922,227.61347989999922,227.97988980001537,227.97988980001537,227.97988980001537,227.97988980001537,227.97988980001537,227.97988980001537,227.97988980001537,227.97988980001537,227.97988980001537,4,3,"[0.001288700004806742, 0.08361840000725351, 0.3338729999959469]","[0.03352409999934025, 0.31713150002178736, 0.3672351000132039]",227.97988980001537,228.18185480000102,1000,228.18185480000102,1000,1000,1000,1000,0,num_3,0.6447321999876294,,20,4,2026-03-02_15h44.55.315,2026A_exp2,2022.2.4,59.836025357891906,
1,0,0.0,0.0,0,0,70,70,79,,,,,228.84723070001928,229.49805530000594,229.49805530000594,229.99909739999566,45,315,229.99909739999566,229.99909739999566,229.99909739999566,229.99909739999566,229.99909739999566,229.99909739999566,229.99909739999566,229.99909739999566,229.99909739999566,230.3656437000027,230.3656437000027,230.3656437000027,230.3656437000027,230.3656437000027,230.3656437000027,230.3656437000027,230.3656437000027,230.3656437000027,3,4,"[0.0012521999888122082, 0.18336260001524352, 0.33376229999703355, 0.367164800001774]","[0.16728960000909865, 0.3171155999880284, 0.3503500999941025, 0.36716950000845827]",230.3656437000027,230.5656751000206,0.0,230.5656751000206,0,0.0,0,1,1000,num_1,0.7244305000058375,,20,4,2026-03-02_15h44.55.315,2026A_exp2,2022.2.4,59.836025357891906,
1000,1,0.0,0.0,1,0,71,71,9,,,,,231.31632290000562,231.9505605000013,231.9505605000013,232.4515926000022,45,45,232.4515926000022,232.4515926000022,232.4515926000022,232.4515926000022,232.4515926000022,232.4515926000022,232.4515926000022,232.4515926000022,232.4515926000022,232.81801330001326,232.81801330001326,232.81801330001326,232.81801330001326,232.81801330001326,232.81801330001326,232.81801330001326,232.81801330001326,232.81801330001326,0,1,[0.0012187999964226037],[0.367057700001169],232.81801330001326,233.01993090001633,1000,233.01993090001633,1000,1000,1000,1000,0,num_3,0.47028510001837276,,20,4,2026-03-02_15h44.55.315,2026A_exp2,2022.2.4,59.836025357891906,
1000,1,0.0,4.9,0,0,72,72,61,,,,,233.50501210000948,234.15255910000997,234.15255910000997,234.6537352000014,45,315,234.6537352000014,234.6537352000014,234.6537352000014,234.6537352000014,234.6537352000014,234.6537352000014,234.6537352000014,234.6537352000014,234.6537352000014,235.02025289999438,235.02025289999438,235.02025289999438,235.02025289999438,235.02025289999438,235.02025289999438,235.02025289999438,235.02025289999438,235.02025289999438,23,0,,,235.02025289999438,235.22251710001728,1000,235.22251710001728,1000,1000,1000,1000,1,num_2,0.5709470000001602,,20,4,2026-03-02_15h44.55.315,2026A_exp2,2022.2.4,59.836025357891906,
1,0,3.7,6.1,0,0,73,73,52,,,,,235.82088330000988,236.47165449999738,236.47165449999738,236.97282280001673,45,315,236.97282280001673,236.97282280001673,236.97282280001673,236.97282280001673,236.97282280001673,236.97282280001673,236.97282280001673,236.97282280001673,236.97282280001673,237.32257030002074,237.32257030002074,237.32257030002074,237.32257030002074,237.32257030002074,237.32257030002074,237.32257030002074,237.32257030002074,237.32257030002074,22,0,,,237.32257030002074,237.5227309000038,3.7,237.5227309000038,0,3.7,1,0,1000,num_1,0.5504118999815546,,20,4,2026-03-02_15h44.55.315,2026A_exp2,2022.2.4,59.836025357891906,
1,0,0.0,0.0,0,0,74,74,88,,,,,238.0898324000009,238.74064010000438,238.74064010000438,239.22497140002088,315,45,239.22497140002088,239.22497140002088,239.22497140002088,239.22497140002088,239.22497140002088,239.22497140002088,239.22497140002088,239.22497140002088,239.22497140002088,239.5914960000082,239.5914960000082,239.5914960000082,239.5914960000082,239.5914960000082,239.5914960000082,239.5914960000082,239.5914960000082,239.5914960000082,3,2,"[0.0012055000115651637, 0.06684850002056919]","[0.05015550000825897, 0.35035160000552423]",239.5914960000082,239.7917374999961,0.0,239.7917374999961,0,0.0,0,1,1000,num_1,1.4096446999756154,,20,4,2026-03-02_15h44.55.315,2026A_exp2,2022.2.4,59.836025357891906,
1,0,4.9,0.0,0,0,75,75,53,,,,,241.22631190001266,241.87711289999424,241.87711289999424,242.36162260000128,315,45,242.36162260000128,242.36162260000128,242.36162260000128,242.36162260000128,242.36162260000128,242.36162260000128,242.36162260000128,242.36162260000128,242.36162260000128,242.7279581000039,242.7279581000039,242.7279581000039,242.7279581000039,242.7279581000039,242.7279581000039,242.7279581000039,242.7279581000039,242.7279581000039,0,1,[0.001218899997184053],[0.3670118000009097],242.7279581000039,242.92821840001852,4.9,242.92821840001852,1,4.9,1,1,1000,num_4,0.857621899980586,,20,4,2026-03-02_15h44.55.315,2026A_exp2,2022.2.4,59.836025357891906,
1,0,3.7,0.0,1,0,76,76,12,,,,,243.81222350001917,244.4632143000199,244.4632143000199,244.94748309999704,315,45,244.94748309999704,244.94748309999704,244.94748309999704,244.94748309999704,244.94748309999704,244.94748309999704,244.94748309999704,244.94748309999704,244.94748309999704,245.31375500001013,245.31375500001013,245.31375500001013,245.31375500001013,245.31375500001013,245.31375500001013,245.31375500001013,245.31375500001013,245.31375500001013,0,1,[0.001345900003798306],[0.36722440001904033],245.31375500001013,245.51406610000413,0.0,245.51406610000413,1,0.0,0,0,1000,num_4,1.5030323000100907,,20,4,2026-03-02_15h44.55.315,2026A_exp2,2022.2.4,59.836025357891906,
1000,1,6.1,3.7,0,0,77,77,75,,,,,247.04874369999743,247.69960720001836,247.69960720001836,248.18403269999544,45,45,248.18403269999544,248.18403269999544,248.18403269999544,248.18403269999544,248.18403269999544,248.18403269999544,248.18403269999544,248.18403269999544,248.18403269999544,248.55035420000786,248.55035420000786,248.55035420000786,248.55035420000786,248.55035420000786,248.55035420000786,248.55035420000786,248.55035420000786,248.55035420000786,1,2,"[0.0013210000179242343, 0.2001633000036236]","[0.18355080002220348, 0.3671348000061698]",248.55035420000786,248.75241889999597,1000,248.75241889999597,1000,1000,1000,1000,0,num_3,0.4890780999849085,,20,4,2026-03-02_15h44.55.315,2026A_exp2,2022.2.4,59.836025357891906,
0,0,0.0,3.7,0,0,78,78,34,,,,,249.26793739999994,249.9184417000215,249.9184417000215,250.41958570000133,315,45,250.41958570000133,250.41958570000133,250.41958570000133,250.41958570000133,250.41958570000133,250.41958570000133,250.41958570000133,250.41958570000133,250.41958570000133,250.7859956000175,250.7859956000175,250.7859956000175,250.7859956000175,250.7859956000175,250.7859956000175,250.7859956000175,250.7859956000175,250.7859956000175,23,0,,,250.7859956000175,250.9862029000069,3.7,250.9862029000069,1,3.7,1,1,1000,num_4,0.7037596000009216,,20,4,2026-03-02_15h44.55.315,2026A_exp2,2022.2.4,59.836025357891906,
1000,1,0.0,6.1,1,0,79,79,71,,,,,251.7201469000138,252.37092940000002,252.37092940000002,252.85538870000164,45,315,252.85538870000164,252.85538870000164,252.85538870000164,252.85538870000164,252.85538870000164,252.85538870000164,252.85538870000164,252.85538870000164,252.85538870000164,253.22177870001178,253.22177870001178,253.22177870001178,253.22177870001178,253.22177870001178,253.22177870001178,253.22177870001178,253.22177870001178,253.22177870001178,16,3,"[0.017581200023414567, 0.11737870000069961, 0.3339704000100028]","[0.03364320000400767, 0.18345730000874028, 0.3672831000003498]",253.22177870001178,253.42373609999777,1000,253.42373609999777,1000,1000,1000,1000,1,num_2,0.514446199988015,,20,4,2026-03-02_15h44.55.315,2026A_exp2,2022.2.4,59.836025357891906,
1,0,0.0,0.0,1,0,80,80,69,,,,,253.9556317999959,254.6061171000183,254.6061171000183,255.10757190000731,315,315,255.10757190000731,255.10757190000731,255.10757190000731,255.10757190000731,255.10757190000731,255.10757190000731,255.10757190000731,255.10757190000731,255.10757190000731,255.47405370001798,255.47405370001798,255.47405370001798,255.47405370001798,255.47405370001798,255.47405370001798,255.47405370001798,255.47405370001798,255.47405370001798,7,2,"[0.0012669000134337693, 0.2670036000199616]","[0.21691230000578798, 0.316751700011082]",255.47405370001798,255.6742056000221,0.0,255.6742056000221,0,0.0,0,1,1000,num_1,1.127787499979604,,20,4,2026-03-02_15h44.55.315,2026A_exp2,2022.2.4,59.836025357891906,
1000,1,0.0,0.0,1,0,81,81,78,,,,,256.825231099996,257.4761172000144,257.4761172000144,257.96037030001753,45,315,257.96037030001753,257.96037030001753,257.96037030001753,257.96037030001753,257.96037030001753,257.96037030001753,257.96037030001753,257.96037030001753,257.96037030001753,258.3268110000063,258.3268110000063,258.3268110000063,258.3268110000063,258.3268110000063,258.3268110000063,258.3268110000063,258.3268110000063,258.3268110000063,1,2,"[0.001334800006588921, 0.21673770001507364]","[0.20023220000439323, 0.36695250001503155]",258.3268110000063,258.52880230001756,1000,258.52880230001756,1000,1000,1000,1000,1,num_2,1.12914550001733,,20,4,2026-03-02_15h44.55.315,2026A_exp2,2022.2.4,59.836025357891906,
1000,1,0.0,4.9,1,0,82,82,66,,,,,259.67811950002215,260.32903870000155,260.32903870000155,260.8300201999955,45,315,260.8300201999955,260.8300201999955,260.8300201999955,260.8300201999955,260.8300201999955,260.8300201999955,260.8300201999955,260.8300201999955,260.8300201999955,261.1964669000008,261.1964669000008,261.1964669000008,261.1964669000008,261.1964669000008,261.1964669000008,261.1964669000008,261.1964669000008,261.1964669000008,2,3,"[0.000734600005671382, 0.11718760000076145, 0.20066199998836964]","[0.10055249999277294, 0.18390780000481755, 0.36747480000485666]",261.1964669000008,261.3983441000164,1000,261.3983441000164,1000,1000,1000,1000,1,num_2,0.4595784000121057,,20,4,2026-03-02_15h44.55.315,2026A_exp2,2022.2.4,59.836025357891906,
1000,1,4.9,0.0,1,0,83,83,77,,,,,261.88048540000455,262.5311154000228,262.5311154000228,263.03198100000736,315,315,263.03198100000736,263.03198100000736,263.03198100000736,263.03198100000736,263.03198100000736,263.03198100000736,263.03198100000736,263.03198100000736,263.03198100000736,263.3986150000128,263.3986150000128,263.3986150000128,263.3986150000128,263.3986150000128,263.3986150000128,263.3986150000128,263.3986150000128,263.3986150000128,6,2,"[0.08310059999348596, 0.283786499989219]","[0.26710519997868687, 0.36717630000202917]",263.3986150000128,263.6006362000189,1000,263.6006362000189,1000,1000,1000,1000,0,num_3,0.6974626999872271,,20,4,2026-03-02_15h44.55.315,2026A_exp2,2022.2.4,59.836025357891906,
1,0,4.9,3.7,1,0,84,84,27,,,,,264.3160244000028,264.9666696000204,264.9666696000204,265.4680170000065,315,45,265.4680170000065,265.4680170000065,265.4680170000065,265.4680170000065,265.4680170000065,265.4680170000065,265.4680170000065,265.4680170000065,265.4680170000065,265.8343606000126,265.8343606000126,265.8343606000126,265.8343606000126,265.8343606000126,265.8343606000126,265.8343606000126,265.8343606000126,265.8343606000126,0,1,[0.001203199994051829],[0.36697730000014417],265.8343606000126,266.0344553000177,3.7,266.0344553000177,0,3.7,1,0,1000,num_1,1.4235650000046007,,20,4,2026-03-02_15h44.55.315,2026A_exp2,2022.2.4,59.836025357891906,
1,0,6.1,0.0,0,0,85,85,82,,,,,267.4861729000113,268.13675050000893,268.13675050000893,268.62097430002177,315,315,268.62097430002177,268.62097430002177,268.62097430002177,268.62097430002177,268.62097430002177,268.62097430002177,268.62097430002177,268.62097430002177,268.62097430002177,268.9874974999984,268.9874974999984,268.9874974999984,268.9874974999984,268.9874974999984,268.9874974999984,268.9874974999984,268.9874974999984,268.9874974999984,13,3,"[0.0012447999906726182, 0.21712590000242926, 0.30043549998663366]","[0.10019269998883829, 0.23371420000330545, 0.3504428000014741]",268.9874974999984,269.18759090002277,6.1,269.18759090002277,1,6.1,1,1,1000,num_4,0.6455242999945767,,20,4,2026-03-02_15h44.55.315,2026A_exp2,2022.2.4,59.836025357891906,
1,0,6.1,0.0,1,0,86,86,89,,,,,269.8549650000059,270.50573510001414,270.50573510001414,270.99001510001835,45,45,270.99001510001835,270.99001510001835,270.99001510001835,270.99001510001835,270.99001510001835,270.99001510001835,270.99001510001835,270.99001510001835,270.99001510001835,271.3565624000039,271.3565624000039,271.3565624000039,271.3565624000039,271.3565624000039,271.3565624000039,271.3565624000039,271.3565624000039,271.3565624000039,5,4,"[0.0012386000016704202, 0.20030470000347123, 0.23367799998959526, 0.35050020000198856]","[0.1668006000109017, 0.21705090001341887, 0.33386139999493025, 0.36705309999524616]",271.3565624000039,271.5564386000042,0.0,271.5564386000042,0,0.0,0,1,1000,num_1,0.7577732999925502,,20,4,2026-03-02_15h44.55.315,2026A_exp2,2022.2.4,59.836025357891906,
1000,1,4.9,4.9,1,0,87,87,68,,,,,272.3406872000196,272.99166140001034,272.99166140001034,273.4760421999963,45,45,273.4760421999963,273.4760421999963,273.4760421999963,273.4760421999963,273.4760421999963,273.4760421999963,273.4760421999963,273.4760421999963,273.4760421999963,273.84229500000947,273.84229500000947,273.84229500000947,273.84229500000947,273.84229500000947,273.84229500000947,273.84229500000947,273.84229500000947,273.84229500000947,0,1,[0.0012086000060662627],[0.3665970000147354],273.84229500000947,274.04454220001935,1000,274.04454220001935,1000,1000,1000,1000,0,num_3,0.8612756000075024,,20,4,2026-03-02_15h44.55.315,2026A_exp2,2022.2.4,59.836025357891906,
1,0,0.0,3.7,1,0,88,88,32,,,,,274.9266695000115,275.5774564000021,275.5774564000021,276.0785433000128,315,315,276.0785433000128,276.0785433000128,276.0785433000128,276.0785433000128,276.0785433000128,276.0785433000128,276.0785433000128,276.0785433000128,276.0785433000128,276.44492969999555,276.44492969999555,276.44492969999555,276.44492969999555,276.44492969999555,276.44492969999555,276.44492969999555,276.44492969999555,276.44492969999555,9,6,"[0.03367639999487437, 0.13364949999959208, 0.1836172000039369, 0.21709019999252632, 0.2670863000093959, 0.300572900014231]","[0.11705659999279305, 0.15027409998583607, 0.20041150000179186, 0.25048570000217296, 0.2837979999894742, 0.3671975999895949]",276.44492969999555,276.64521310001146,3.7,276.64521310001146,1,3.7,1,1,1000,num_4,0.7320149000152014,,20,4,2026-03-02_15h44.55.315,2026A_exp2,2022.2.4,59.836025357891906,
1,0,0.0,4.9,0,0,89,89,3,,,,,277.39593060000334,278.04640990000917,278.04640990000917,278.54773200000636,315,45,278.54773200000636,278.54773200000636,278.54773200000636,278.54773200000636,278.54773200000636,278.54773200000636,278.54773200000636,278.54773200000636,278.54773200000636,278.9141986000177,278.9141986000177,278.9141986000177,278.9141986000177,278.9141986000177,278.9141986000177,278.9141986000177,278.9141986000177,278.9141986000177,0,1,[0.001479099999414757],[0.3668836000142619],278.9141986000177,279.11438040001667,0.0,279.11438040001667,1,0.0,0,0,1000,num_4,0.5187416999833658,,20,4,2026-03-02_15h44.55.315,2026A_exp2,2022.2.4,59.836025357891906,
,,,,,,,,,,,,,,,,,,,,,,,,,,,,,,,,,,,,,,,,,,,,,,,,,,,,279.6727824000118,,,,,,,
