validity,detectorcomp,contrastCW,contrastCCW,precueCWorCCW,block_80trials.thisRepN,block_80trials.thisTrialN,block_80trials.thisN,block_80trials.thisIndex,etRecord.started,etRecord.stopped,text.started,text.stopped,text_4.started,text_4.stopped,text_6.started,text_6.stopped,oriCW,oriCCW,roi_2.started,grating_UR.started,grating_UL.started,grating_LR.started,grating_LL.started,noise_UR.started,noise_UL.started,noise_LR.started,noise_LL.started,roi_2.stopped,grating_UR.stopped,grating_UL.stopped,grating_LR.stopped,grating_LL.stopped,noise_UR.stopped,noise_UL.stopped,noise_LR.stopped,noise_LL.stopped,outframe,roi_2.numLooks,roi_2.timesOn,roi_2.timesOff,text_2.started,text_2.stopped,probedcontrast,key_resp.started,respdetect,relevantContrast,correctDetect,TorFdetect,respCWorCCW,key_resp.keys,key_resp.rt,feedback_display_.started,participantNo,blockNo,date,expName,psychopyVersion,frameRate,
1000,1,0.0,0.0,1,0,0,0,47,3.510015085339546e-05,3.510015085339546e-05,54.361527000088245,56.36618040013127,56.36618040013127,56.99912880011834,56.99912880011834,57.51832509995438,45,45,57.51832509995438,57.51832509995438,57.51832509995438,57.51832509995438,57.51832509995438,57.51832509995438,57.51832509995438,57.51832509995438,57.51832509995438,57.86682810005732,57.86682810005732,57.86682810005732,57.86682810005732,57.86682810005732,57.86682810005732,57.86682810005732,57.86682810005732,57.86682810005732,0,1,[0.0011255999561399221],[0.367989799939096],57.86682810005732,58.07402490009554,1000,58.07402490009554,1000,1000,1000,1000,1,num_2,1.7467380999587476,,34,11,2026-03-13_11h02.22.931,2026A_exp2,2022.2.4,59.99210509059795,
1000,1,4.9,6.1,1,0,1,1,1,,,,,59.85222789994441,60.50293159997091,60.50293159997091,61.00387530005537,45,315,61.00387530005537,61.00387530005537,61.00387530005537,61.00387530005537,61.00387530005537,61.00387530005537,61.00387530005537,61.00387530005537,61.00387530005537,61.370333400089294,61.370333400089294,61.370333400089294,61.370333400089294,61.370333400089294,61.370333400089294,61.370333400089294,61.370333400089294,61.370333400089294,0,1,[0.0012171999551355839],[0.36736669996753335],61.370333400089294,61.57242520013824,1000,61.57242520013824,1000,1000,1000,1000,1,num_2,0.7288141001481563,,34,11,2026-03-13_11h02.22.931,2026A_exp2,2022.2.4,59.99210509059795,
1000,1,0.0,4.9,0,0,2,2,77,,,,,62.32140660006553,62.97198190004565,62.97198190004565,63.47310269996524,45,45,63.47310269996524,63.47310269996524,63.47310269996524,63.47310269996524,63.47310269996524,63.47310269996524,63.47310269996524,63.47310269996524,63.47310269996524,63.839486700017005,63.839486700017005,63.839486700017005,63.839486700017005,63.839486700017005,63.839486700017005,63.839486700017005,63.839486700017005,63.839486700017005,0,1,[0.001211599912494421],[0.3673773999325931],63.839486700017005,64.04157699993812,1000,64.04157699993812,1000,1000,1000,1000,1,num_2,0.48289850004948676,,34,11,2026-03-13_11h02.22.931,2026A_exp2,2022.2.4,59.99210509059795,
1,0,0.0,0.0,0,0,3,3,9,,,,,64.54025129997171,65.19090269994922,65.19090269994922,65.69209689996205,315,315,65.69209689996205,65.69209689996205,65.69209689996205,65.69209689996205,65.69209689996205,65.69209689996205,65.69209689996205,65.69209689996205,65.69209689996205,66.05837390013039,66.05837390013039,66.05837390013039,66.05837390013039,66.05837390013039,66.05837390013039,66.05837390013039,66.05837390013039,66.05837390013039,23,0,,,66.05837390013039,66.25847620004788,0.0,66.25847620004788,0,0.0,0,1,1000,num_1,0.9378249000292271,,34,11,2026-03-13_11h02.22.931,2026A_exp2,2022.2.4,59.99210509059795,
1000,1,4.9,0.0,0,0,4,4,58,,,,,67.22631009994075,67.8602402000688,67.8602402000688,68.36120739998296,315,315,68.36120739998296,68.36120739998296,68.36120739998296,68.36120739998296,68.36120739998296,68.36120739998296,68.36120739998296,68.36120739998296,68.36120739998296,68.72769960016012,68.72769960016012,68.72769960016012,68.72769960016012,68.72769960016012,68.72769960016012,68.72769960016012,68.72769960016012,68.72769960016012,23,0,,,68.72769960016012,68.92790820007212,1000,68.92790820007212,1000,1000,1000,1000,1,num_2,0.6123339000623673,,34,11,2026-03-13_11h02.22.931,2026A_exp2,2022.2.4,59.99210509059795,
1,0,4.9,6.1,0,0,5,5,15,,,,,69.56188630010001,70.21247090003453,70.21247090003453,70.69694699998945,315,315,70.69694699998945,70.69694699998945,70.69694699998945,70.69694699998945,70.69694699998945,70.69694699998945,70.69694699998945,70.69694699998945,70.69694699998945,71.06353930011392,71.06353930011392,71.06353930011392,71.06353930011392,71.06353930011392,71.06353930011392,71.06353930011392,71.06353930011392,71.06353930011392,0,1,[0.0012646999675780535],[0.3670945998746902],71.06353930011392,71.26376050012186,4.9,71.26376050012186,0,4.9,1,0,1000,num_1,0.5007571999449283,,34,11,2026-03-13_11h02.22.931,2026A_exp2,2022.2.4,59.99210509059795,
1,0,4.9,6.1,1,0,6,6,86,,,,,71.78063139994629,72.43139420007356,72.43139420007356,72.93226410006173,315,315,72.93226410006173,72.93226410006173,72.93226410006173,72.93226410006173,72.93226410006173,72.93226410006173,72.93226410006173,72.93226410006173,72.93226410006173,73.28231239994057,73.28231239994057,73.28231239994057,73.28231239994057,73.28231239994057,73.28231239994057,73.28231239994057,73.28231239994057,73.28231239994057,0,1,[0.0007575999479740858],[0.351378999883309],73.28231239994057,73.48246680013835,6.1,73.48246680013835,1,6.1,1,1,1000,num_4,1.57799300015904,,34,11,2026-03-13_11h02.22.931,2026A_exp2,2022.2.4,59.99210509059795,
1000,1,3.7,3.7,1,0,7,7,40,,,,,75.08503670012578,75.7181754000485,75.7181754000485,76.21876440010965,315,315,76.21876440010965,76.21876440010965,76.21876440010965,76.21876440010965,76.21876440010965,76.21876440010965,76.21876440010965,76.21876440010965,76.21876440010965,76.58508620015346,76.58508620015346,76.58508620015346,76.58508620015346,76.58508620015346,76.58508620015346,76.58508620015346,76.58508620015346,76.58508620015346,2,3,"[0.0007273999508470297, 0.11662960005924106, 0.18348270002752542]","[0.100037100026384, 0.15012970007956028, 0.36705140001140535]",76.58508620015346,76.78551880014129,1000,76.78551880014129,1000,1000,1000,1000,0,num_3,0.6996132000349462,,34,11,2026-03-13_11h02.22.931,2026A_exp2,2022.2.4,59.99210509059795,
1,0,0.0,3.7,1,0,8,8,57,,,,,77.50332910008729,78.15400830004364,78.15400830004364,78.63823450007476,315,45,78.63823450007476,78.63823450007476,78.63823450007476,78.63823450007476,78.63823450007476,78.63823450007476,78.63823450007476,78.63823450007476,78.63823450007476,79.00470079993829,79.00470079993829,79.00470079993829,79.00470079993829,79.00470079993829,79.00470079993829,79.00470079993829,79.00470079993829,79.00470079993829,0,1,[0.001240300014615059],[0.3671794000547379],79.00470079993829,79.20471850014292,3.7,79.22135180002078,1,3.7,1,1,1000,num_4,1.2878415999002755,,34,11,2026-03-13_11h02.22.931,2026A_exp2,2022.2.4,59.99210509059795,
1000,1,6.1,0.0,0,0,9,9,33,,,,,80.539424699964,81.19022050010972,81.19022050010972,81.67462070006877,45,45,81.67462070006877,81.67462070006877,81.67462070006877,81.67462070006877,81.67462070006877,81.67462070006877,81.67462070006877,81.67462070006877,81.67462070006877,82.04105660016648,82.04105660016648,82.04105660016648,82.04105660016648,82.04105660016648,82.04105660016648,82.04105660016648,82.04105660016648,82.04105660016648,20,3,"[0.21702919993549585, 0.2672225998248905, 0.3338882999960333]","[0.2337747998535633, 0.283826399827376, 0.3506072999443859]",82.04105660016648,82.24294190015644,1000,82.24294190015644,1000,1000,1000,1000,0,num_3,0.5066963999997824,,34,11,2026-03-13_11h02.22.931,2026A_exp2,2022.2.4,59.99210509059795,
0,0,0.0,0.0,1,0,10,10,62,,,,,82.77518170000985,83.42566639999859,83.42566639999859,83.94247150002047,315,315,83.94247150002047,83.94247150002047,83.94247150002047,83.94247150002047,83.94247150002047,83.94247150002047,83.94247150002047,83.94247150002047,83.94247150002047,84.29336230014451,84.29336230014451,84.29336230014451,84.29336230014451,84.29336230014451,84.29336230014451,84.29336230014451,84.29336230014451,84.29336230014451,20,3,"[0.0041633001528680325, 0.06432300014421344, 0.2139043000061065]","[0.030721900053322315, 0.0813780000898987, 0.23070880002342165]",84.29336230014451,84.49351539998315,0.0,84.49351539998315,0,0.0,0,1,1000,num_1,0.5191717001143843,,34,11,2026-03-13_11h02.22.931,2026A_exp2,2022.2.4,59.99210509059795,
1000,1,0.0,0.0,0,0,11,11,61,,,,,85.0440055001527,85.69461240014061,85.69461240014061,86.17895800014958,45,45,86.17895800014958,86.17895800014958,86.17895800014958,86.17895800014958,86.17895800014958,86.17895800014958,86.17895800014958,86.17895800014958,86.17895800014958,86.54536220012233,86.54536220012233,86.54536220012233,86.54536220012233,86.54536220012233,86.54536220012233,86.54536220012233,86.54536220012233,86.54536220012233,23,0,,,86.54536220012233,86.74756129994057,1000,86.74756129994057,1000,1000,1000,1000,1,num_2,0.8977462002076209,,34,11,2026-03-13_11h02.22.931,2026A_exp2,2022.2.4,59.99210509059795,
1000,1,4.9,3.7,1,0,12,12,32,,,,,87.66328930016607,88.31405970011838,88.31405970011838,88.81504170014523,315,315,88.81504170014523,88.81504170014523,88.81504170014523,88.81504170014523,88.81504170014523,88.81504170014523,88.81504170014523,88.81504170014523,88.81504170014523,89.16475630016066,89.16475630016066,89.16475630016066,89.16475630016066,89.16475630016066,89.16475630016066,89.16475630016066,89.16475630016066,89.16475630016066,22,0,,,89.16475630016066,89.36667499993928,1000,89.36667499993928,1000,1000,1000,1000,0,num_3,0.9584432002156973,,34,11,2026-03-13_11h02.22.931,2026A_exp2,2022.2.4,59.99210509059795,
1,0,4.9,6.1,1,0,13,13,46,,,,,90.34942530002445,90.99988380004652,90.99988380004652,91.50115100014955,315,45,91.50115100014955,91.50115100014955,91.50115100014955,91.50115100014955,91.50115100014955,91.50115100014955,91.50115100014955,91.50115100014955,91.50115100014955,91.86766039999202,91.86766039999202,91.86766039999202,91.86766039999202,91.86766039999202,91.86766039999202,91.86766039999202,91.86766039999202,91.86766039999202,21,1,[0.0012211999855935574],[0.033570699859410524],91.86766039999202,92.06777440011501,6.1,92.06777440011501,1,6.1,1,1,1000,num_4,0.9937912998721004,,34,11,2026-03-13_11h02.22.931,2026A_exp2,2022.2.4,59.99210509059795,
1,0,0.0,4.9,0,0,14,14,85,,,,,93.08530290005729,93.73581350012682,93.73581350012682,94.22036200016737,45,315,94.22036200016737,94.22036200016737,94.22036200016737,94.22036200016737,94.22036200016737,94.22036200016737,94.22036200016737,94.22036200016737,94.22036200016737,94.58689859998412,94.58689859998412,94.58689859998412,94.58689859998412,94.58689859998412,94.58689859998412,94.58689859998412,94.58689859998412,94.58689859998412,23,0,,,94.58689859998412,94.78700500004925,0.0,94.78700500004925,0,0.0,0,1,1000,num_1,0.5939180999994278,,34,11,2026-03-13_11h02.22.931,2026A_exp2,2022.2.4,59.99210509059795,
0,0,3.7,4.9,1,0,15,15,3,,,,,95.4042740999721,96.05503870011307,96.05503870011307,96.53941230010241,45,315,96.53941230010241,96.53941230010241,96.53941230010241,96.53941230010241,96.53941230010241,96.53941230010241,96.53941230010241,96.53941230010241,96.53941230010241,96.90578120015562,96.90578120015562,96.90578120015562,96.90578120015562,96.90578120015562,96.90578120015562,96.90578120015562,96.90578120015562,96.90578120015562,23,0,,,96.90578120015562,97.10600080015138,3.7,97.10600080015138,0,3.7,1,0,1000,num_1,0.4992492999881506,,34,11,2026-03-13_11h02.22.931,2026A_exp2,2022.2.4,59.99210509059795,
1000,1,6.1,0.0,0,0,16,16,19,,,,,97.62316399998963,98.26333929994144,98.26333929994144,98.76357910013758,315,315,98.76357910013758,98.76357910013758,98.76357910013758,98.76357910013758,98.76357910013758,98.76357910013758,98.76357910013758,98.76357910013758,98.76357910013758,99.12480530003086,99.12480530003086,99.12480530003086,99.12480530003086,99.12480530003086,99.12480530003086,99.12480530003086,99.12480530003086,99.12480530003086,0,1,[0.0026130001060664654],[0.3661011001095176],99.12480530003086,99.32488079997711,1000,99.32488079997711,1000,1000,1000,1000,0,num_3,0.47150429990142584,,34,11,2026-03-13_11h02.22.931,2026A_exp2,2022.2.4,59.99210509059795,
1,0,4.9,4.9,1,0,17,17,89,,,,,99.82523820013739,100.45949549996294,100.45949549996294,100.96055710013025,315,45,100.96055710013025,100.96055710013025,100.96055710013025,100.96055710013025,100.96055710013025,100.96055710013025,100.96055710013025,100.96055710013025,100.96055710013025,101.32654050015844,101.32654050015844,101.32654050015844,101.32654050015844,101.32654050015844,101.32654050015844,101.32654050015844,101.32654050015844,101.32654050015844,23,0,,,101.32654050015844,101.52711699996144,4.9,101.52711699996144,1,4.9,1,1,1000,num_4,0.694158700061962,,34,11,2026-03-13_11h02.22.931,2026A_exp2,2022.2.4,59.99210509059795,
1,0,0.0,0.0,1,0,18,18,37,,,,,102.24474210012704,102.87853620015085,102.87853620015085,103.379571700003,45,45,103.379571700003,103.379571700003,103.379571700003,103.379571700003,103.379571700003,103.379571700003,103.379571700003,103.379571700003,103.379571700003,103.74590920004994,103.74590920004994,103.74590920004994,103.74590920004994,103.74590920004994,103.74590920004994,103.74590920004994,103.74590920004994,103.74590920004994,23,0,,,103.74590920004994,103.9462296999991,0.0,103.9462296999991,1,0.0,0,0,1000,num_4,0.6661132001318038,,34,11,2026-03-13_11h02.22.931,2026A_exp2,2022.2.4,59.99210509059795,
1,0,0.0,0.0,1,0,19,19,43,,,,,104.63052130001597,105.28492769994773,105.28492769994773,105.78183730016463,315,315,105.78183730016463,105.78183730016463,105.78183730016463,105.78183730016463,105.78183730016463,105.78183730016463,105.78183730016463,105.78183730016463,105.78183730016463,106.13185540004633,106.13185540004633,106.13185540004633,106.13185540004633,106.13185540004633,106.13185540004633,106.13185540004633,106.13185540004633,106.13185540004633,22,0,,,106.13185540004633,106.33202730002813,0.0,106.33202730002813,0,0.0,0,1,1000,num_1,0.824407699983567,,34,11,2026-03-13_11h02.22.931,2026A_exp2,2022.2.4,59.99210509059795,
1,0,0.0,0.0,0,0,20,20,64,,,,,107.18270130013116,107.83348429994658,107.83348429994658,108.31787599995732,315,315,108.31787599995732,108.31787599995732,108.31787599995732,108.31787599995732,108.31787599995732,108.31787599995732,108.31787599995732,108.31787599995732,108.31787599995732,108.68432660005055,108.68432660005055,108.68432660005055,108.68432660005055,108.68432660005055,108.68432660005055,108.68432660005055,108.68432660005055,108.68432660005055,0,1,[0.0012911001686006784],[0.3671212000772357],108.68432660005055,108.884575500153,0.0,108.884575500153,0,0.0,0,1,1000,num_1,0.4883287001866847,,34,11,2026-03-13_11h02.22.931,2026A_exp2,2022.2.4,59.99210509059795,
1,0,6.1,3.7,0,0,21,21,26,,,,,109.40178670012392,110.03576290002093,110.03576290002093,110.53683550003916,315,45,110.53683550003916,110.53683550003916,110.53683550003916,110.53683550003916,110.53683550003916,110.53683550003916,110.53683550003916,110.53683550003916,110.53683550003916,110.9032642999664,110.9032642999664,110.9032642999664,110.9032642999664,110.9032642999664,110.9032642999664,110.9032642999664,110.9032642999664,110.9032642999664,1,2,"[0.001291800057515502, 0.24993359996005893]","[0.23305150005035102, 0.3672019001096487]",110.9032642999664,111.10343040013686,6.1,111.10343040013686,1,6.1,1,1,1000,num_4,0.6620940000284463,,34,11,2026-03-13_11h02.22.931,2026A_exp2,2022.2.4,59.99210509059795,
1,0,6.1,0.0,1,0,22,22,13,,,,,111.78728249995038,112.43806389998645,112.43806389998645,112.922544100089,315,315,112.922544100089,112.922544100089,112.922544100089,112.922544100089,112.922544100089,112.922544100089,112.922544100089,112.922544100089,112.922544100089,113.28899880009703,113.28899880009703,113.28899880009703,113.28899880009703,113.28899880009703,113.28899880009703,113.28899880009703,113.28899880009703,113.28899880009703,23,0,,,113.28899880009703,113.4891361000482,0.0,113.4891361000482,0,0.0,0,1,1000,num_1,0.7951946998946369,,34,11,2026-03-13_11h02.22.931,2026A_exp2,2022.2.4,59.99210509059795,
1000,1,0.0,4.9,1,0,23,23,51,,,,,114.3065907000564,114.95725110010244,114.95725110010244,115.45535390009172,315,315,115.45535390009172,115.45535390009172,115.45535390009172,115.45535390009172,115.45535390009172,115.45535390009172,115.45535390009172,115.45535390009172,115.45535390009172,115.80795030016452,115.80795030016452,115.80795030016452,115.80795030016452,115.80795030016452,115.80795030016452,115.80795030016452,115.80795030016452,115.80795030016452,23,0,,,115.80795030016452,116.02020000014454,1000,116.02020000014454,1000,1000,1000,1000,1,num_2,0.44003170006908476,,34,11,2026-03-13_11h02.22.931,2026A_exp2,2022.2.4,59.99210509059795,
1,0,0.0,0.0,1,0,24,24,41,,,,,116.47546330001205,117.12616520002484,117.12616520002484,117.6271167001687,45,315,117.6271167001687,117.6271167001687,117.6271167001687,117.6271167001687,117.6271167001687,117.6271167001687,117.6271167001687,117.6271167001687,117.6271167001687,117.99365080008283,117.99365080008283,117.99365080008283,117.99365080008283,117.99365080008283,117.99365080008283,117.99365080008283,117.99365080008283,117.99365080008283,23,0,,,117.99365080008283,118.19389210012741,0.0,118.19389210012741,1,0.0,0,0,1000,num_4,0.9468465000391006,,34,11,2026-03-13_11h02.22.931,2026A_exp2,2022.2.4,59.99210509059795,
1000,1,0.0,3.7,0,0,25,25,52,,,,,119.16130920010619,119.81211269996129,119.81211269996129,120.29651060001925,45,315,120.29651060001925,120.29651060001925,120.29651060001925,120.29651060001925,120.29651060001925,120.29651060001925,120.29651060001925,120.29651060001925,120.29651060001925,120.66278730006889,120.66278730006889,120.66278730006889,120.66278730006889,120.66278730006889,120.66278730006889,120.66278730006889,120.66278730006889,120.66278730006889,23,0,,,120.66278730006889,120.86521530011669,1000,120.86521530011669,1000,1000,1000,1000,1,num_2,0.6115842000581324,,34,11,2026-03-13_11h02.22.931,2026A_exp2,2022.2.4,59.99210509059795,
1,0,6.1,4.9,1,0,26,26,35,,,,,121.49704809999093,122.14776910003275,122.14776910003275,122.64885540003888,315,45,122.64885540003888,122.64885540003888,122.64885540003888,122.64885540003888,122.64885540003888,122.64885540003888,122.64885540003888,122.64885540003888,122.64885540003888,123.01538949995302,123.01538949995302,123.01538949995302,123.01538949995302,123.01538949995302,123.01538949995302,123.01538949995302,123.01538949995302,123.01538949995302,23,0,,,123.01538949995302,123.21548720006831,4.9,123.21548720006831,0,4.9,1,0,1000,num_1,0.5257600999902934,,34,11,2026-03-13_11h02.22.931,2026A_exp2,2022.2.4,59.99210509059795,
1000,1,0.0,4.9,0,0,27,27,11,,,,,123.76593120000325,124.40004610014148,124.40004610014148,124.90113180014305,45,315,124.90113180014305,124.90113180014305,124.90113180014305,124.90113180014305,124.90113180014305,124.90113180014305,124.90113180014305,124.90113180014305,124.90113180014305,125.2675771000795,125.2675771000795,125.2675771000795,125.2675771000795,125.2675771000795,125.2675771000795,125.2675771000795,125.2675771000795,125.2675771000795,23,0,,,125.2675771000795,125.49610040010884,1000,125.49610040010884,1000,1000,1000,1000,1,num_2,0.4613765999674797,,34,11,2026-03-13_11h02.22.931,2026A_exp2,2022.2.4,59.99210509059795,
1,0,6.1,0.0,0,0,28,28,50,,,,,125.98487449996173,126.63567230012268,126.63567230012268,127.13660510000773,45,45,127.13660510000773,127.13660510000773,127.13660510000773,127.13660510000773,127.13660510000773,127.13660510000773,127.13660510000773,127.13660510000773,127.13660510000773,127.48648740001954,127.48648740001954,127.48648740001954,127.48648740001954,127.48648740001954,127.48648740001954,127.48648740001954,127.48648740001954,127.48648740001954,22,0,,,127.48648740001954,127.68652989994735,6.1,127.70329300011508,0,6.1,1,0,1000,num_1,0.549038799945265,,34,11,2026-03-13_11h02.22.931,2026A_exp2,2022.2.4,59.99210509059795,
1,0,4.9,4.9,0,0,29,29,63,,,,,128.27047049999237,128.9211788000539,128.9211788000539,129.40569030004553,315,315,129.40569030004553,129.40569030004553,129.40569030004553,129.40569030004553,129.40569030004553,129.40569030004553,129.40569030004553,129.40569030004553,129.40569030004553,129.77206970006227,129.77206970006227,129.77206970006227,129.77206970006227,129.77206970006227,129.77206970006227,129.77206970006227,129.77206970006227,129.77206970006227,6,3,"[0.0012048000935465097, 0.15041950019076467, 0.23398540006019175]","[0.11704630008898675, 0.16708920011296868, 0.3673003001604229]",129.77206970006227,129.97219180013053,4.9,129.97219180013053,0,4.9,1,0,1000,num_1,0.5926016001030803,,34,11,2026-03-13_11h02.22.931,2026A_exp2,2022.2.4,59.99210509059795,
0,0,3.7,0.0,1,0,30,30,83,,,,,130.5893854999449,131.2402489001397,131.2402489001397,131.72478910000063,315,45,131.72478910000063,131.72478910000063,131.72478910000063,131.72478910000063,131.72478910000063,131.72478910000063,131.72478910000063,131.72478910000063,131.72478910000063,132.09109969995916,132.09109969995916,132.09109969995916,132.09109969995916,132.09109969995916,132.09109969995916,132.09109969995916,132.09109969995916,132.09109969995916,22,1,[0.0012091000098735094],[0.0174622000195086],132.09109969995916,132.2912622001022,3.7,132.2912622001022,0,3.7,1,0,1000,num_1,0.48977020010352135,,34,11,2026-03-13_11h02.22.931,2026A_exp2,2022.2.4,59.99210509059795,
1,0,0.0,0.0,1,0,31,31,73,,,,,132.80834090011194,133.45901450002566,133.45901450002566,133.9434088000562,45,315,133.9434088000562,133.9434088000562,133.9434088000562,133.9434088000562,133.9434088000562,133.9434088000562,133.9434088000562,133.9434088000562,133.9434088000562,134.30989659996703,134.30989659996703,134.30989659996703,134.30989659996703,134.30989659996703,134.30989659996703,134.30989659996703,134.30989659996703,134.30989659996703,23,0,,,134.30989659996703,134.51014379994012,0.0,134.51014379994012,1,0.0,0,0,1000,num_4,1.0626521999947727,,34,11,2026-03-13_11h02.22.931,2026A_exp2,2022.2.4,59.99210509059795,
1000,1,4.9,4.9,0,0,32,32,42,,,,,135.59447350003757,136.22815069998614,136.22815069998614,136.7295979000628,45,315,136.7295979000628,136.7295979000628,136.7295979000628,136.7295979000628,136.7295979000628,136.7295979000628,136.7295979000628,136.7295979000628,136.7295979000628,137.0960548000876,137.0960548000876,137.0960548000876,137.0960548000876,137.0960548000876,137.0960548000876,137.0960548000876,137.0960548000876,137.0960548000876,0,1,[0.0009147000964730978],[0.36744410009123385],137.0960548000876,137.29678870015778,1000,137.29678870015778,1000,1000,1000,1000,1,num_2,0.6451292999554425,,34,11,2026-03-13_11h02.22.931,2026A_exp2,2022.2.4,59.99210509059795,
1000,1,4.9,3.7,1,0,33,33,67,,,,,137.96374090015888,138.61415449995548,138.61415449995548,139.0986459001433,315,315,139.0986459001433,139.0986459001433,139.0986459001433,139.0986459001433,139.0986459001433,139.0986459001433,139.0986459001433,139.0986459001433,139.0986459001433,139.46512420009822,139.46512420009822,139.46512420009822,139.46512420009822,139.46512420009822,139.46512420009822,139.46512420009822,139.46512420009822,139.46512420009822,12,1,[0.20044980011880398],[0.3672383001539856],139.46512420009822,139.66749210003763,1000,139.66749210003763,1000,1000,1000,1000,0,num_3,0.993999799946323,,34,11,2026-03-13_11h02.22.931,2026A_exp2,2022.2.4,59.99210509059795,
1,0,4.9,0.0,1,0,34,34,6,,,,,140.68278619996272,141.33367400011048,141.33367400011048,141.83478200016543,315,315,141.83478200016543,141.83478200016543,141.83478200016543,141.83478200016543,141.83478200016543,141.83478200016543,141.83478200016543,141.83478200016543,141.83478200016543,142.20120920008048,142.20120920008048,142.20120920008048,142.20120920008048,142.20120920008048,142.20120920008048,142.20120920008048,142.20120920008048,142.20120920008048,19,4,"[0.06689959997311234, 0.25026410003192723, 0.28362290002405643, 0.3336865999735892]","[0.08350800001062453, 0.2669619000516832, 0.30021980009041727, 0.35048220003955066]",142.20120920008048,142.40134180011228,0.0,142.40134180011228,1,0.0,0,0,1000,num_4,0.8441971000283957,,34,11,2026-03-13_11h02.22.931,2026A_exp2,2022.2.4,59.99210509059795,
1,0,0.0,0.0,0,0,35,35,59,,,,,143.26884680008516,143.91957300016657,143.91957300016657,144.40400360012427,45,45,144.40400360012427,144.40400360012427,144.40400360012427,144.40400360012427,144.40400360012427,144.40400360012427,144.40400360012427,144.40400360012427,144.40400360012427,144.77043250016868,144.77043250016868,144.77043250016868,144.77043250016868,144.77043250016868,144.77043250016868,144.77043250016868,144.77043250016868,144.77043250016868,0,1,[0.0012046999763697386],[0.367213899968192],144.77043250016868,144.97066890005954,0.0,144.97066890005954,0,0.0,0,1,1000,num_1,0.6180855000857264,,34,11,2026-03-13_11h02.22.931,2026A_exp2,2022.2.4,59.99210509059795,
0,0,0.0,3.7,1,0,36,36,21,,,,,145.6044864000287,146.2551999001298,146.2551999001298,146.7395705000963,315,315,146.7395705000963,146.7395705000963,146.7395705000963,146.7395705000963,146.7395705000963,146.7395705000963,146.7395705000963,146.7395705000963,146.7395705000963,147.10611369996332,147.10611369996332,147.10611369996332,147.10611369996332,147.10611369996332,147.10611369996332,147.10611369996332,147.10611369996332,147.10611369996332,8,3,"[0.017329600173979998, 0.08364540012553334, 0.3671436000149697]","[0.03363439999520779, 0.3003779000137001, 0.36714810016565025]",147.10611369996332,147.3063263001386,0.0,147.3063263001386,0,0.0,0,1,1000,num_1,0.5706903000827879,,34,11,2026-03-13_11h02.22.931,2026A_exp2,2022.2.4,59.99210509059795,
1000,1,0.0,0.0,1,0,37,37,23,,,,,147.90688200015575,148.55736520001665,148.55736520001665,149.04202820011415,45,315,149.04202820011415,149.04202820011415,149.04202820011415,149.04202820011415,149.04202820011415,149.04202820011415,149.04202820011415,149.04202820011415,149.04202820011415,149.40834990004078,149.40834990004078,149.40834990004078,149.40834990004078,149.40834990004078,149.40834990004078,149.40834990004078,149.40834990004078,149.40834990004078,21,1,[0.03344399994239211],[0.06677020015195012],149.40834990004078,149.61039400007576,1000,149.61039400007576,1000,1000,1000,1000,1,num_2,0.48998180008493364,,34,11,2026-03-13_11h02.22.931,2026A_exp2,2022.2.4,59.99210509059795,
1000,1,0.0,3.7,0,0,38,38,44,,,,,150.12577789998613,150.7763746001292,150.7763746001292,151.2774134001229,315,315,151.2774134001229,151.2774134001229,151.2774134001229,151.2774134001229,151.2774134001229,151.2774134001229,151.2774134001229,151.2774134001229,151.2774134001229,151.64385620015673,151.64385620015673,151.64385620015673,151.64385620015673,151.64385620015673,151.64385620015673,151.64385620015673,151.64385620015673,151.64385620015673,23,0,,,151.64385620015673,151.84589729993604,1000,151.84589729993604,1000,1000,1000,1000,1,num_2,0.4792560001369566,,34,11,2026-03-13_11h02.22.931,2026A_exp2,2022.2.4,59.99210509059795,
1000,1,6.1,0.0,1,0,39,39,60,,,,,152.34466950013302,152.99531359993853,152.99531359993853,153.4962865000125,315,315,153.4962865000125,153.4962865000125,153.4962865000125,153.4962865000125,153.4962865000125,153.4962865000125,153.4962865000125,153.4962865000125,153.4962865000125,153.86276350007392,153.86276350007392,153.86276350007392,153.86276350007392,153.86276350007392,153.86276350007392,153.86276350007392,153.86276350007392,153.86276350007392,0,1,[0.001474499935284257],[0.3668748000636697],153.86276350007392,154.06531019997783,1000,154.06531019997783,1000,1000,1000,1000,1,num_2,0.5308638999704272,,34,11,2026-03-13_11h02.22.931,2026A_exp2,2022.2.4,59.99210509059795,
0,0,0.0,4.9,1,0,40,40,56,,,,,154.61344190011732,155.2642046001274,155.2642046001274,155.77232130011544,45,315,155.77232130011544,155.77232130011544,155.77232130011544,155.77232130011544,155.77232130011544,155.77232130011544,155.77232130011544,155.77232130011544,155.77232130011544,156.13169670011848,156.13169670011848,156.13169670011848,156.13169670011848,156.13169670011848,156.13169670011848,156.13169670011848,156.13169670011848,156.13169670011848,0,1,[0.0032708998769521713],[0.36509559978730977],156.13169670011848,156.33197810011916,0.0,156.33197810011916,0,0.0,0,1,1000,num_1,0.5924134000670165,,34,11,2026-03-13_11h02.22.931,2026A_exp2,2022.2.4,59.99210509059795,
1000,1,4.9,0.0,0,0,41,41,36,,,,,156.9491894999519,157.59992210008204,157.59992210008204,158.08422300009988,315,315,158.08422300009988,158.08422300009988,158.08422300009988,158.08422300009988,158.08422300009988,158.08422300009988,158.08422300009988,158.08422300009988,158.08422300009988,158.4506926999893,158.4506926999893,158.4506926999893,158.4506926999893,158.4506926999893,158.4506926999893,158.4506926999893,158.4506926999893,158.4506926999893,23,0,,,158.4506926999893,158.65264270012267,1000,158.65264270012267,1000,1000,1000,1000,0,num_3,0.6078306999988854,,34,11,2026-03-13_11h02.22.931,2026A_exp2,2022.2.4,59.99210509059795,
1,0,0.0,4.9,1,0,42,42,45,,,,,159.2848704000935,159.93538299994543,159.93538299994543,160.43662129994482,315,45,160.43662129994482,160.43662129994482,160.43662129994482,160.43662129994482,160.43662129994482,160.43662129994482,160.43662129994482,160.43662129994482,160.43662129994482,160.80302680004388,160.80302680004388,160.80302680004388,160.80302680004388,160.80302680004388,160.80302680004388,160.80302680004388,160.80302680004388,160.80302680004388,4,4,"[0.0012127000372856855, 0.06692720018327236, 0.18374050012789667, 0.2503880001604557]","[0.05022220010869205, 0.15037050005048513, 0.2338015001732856, 0.36725990008562803]",160.80302680004388,161.00327019998804,4.9,161.00327019998804,1,4.9,1,1,1000,num_4,0.729410900035873,,34,11,2026-03-13_11h02.22.931,2026A_exp2,2022.2.4,59.99210509059795,
1000,1,4.9,0.0,1,0,43,43,72,,,,,161.75392820010893,162.4044882999733,162.4044882999733,162.8890724000521,315,315,162.8890724000521,162.8890724000521,162.8890724000521,162.8890724000521,162.8890724000521,162.8890724000521,162.8890724000521,162.8890724000521,162.8890724000521,163.25551129993983,163.25551129993983,163.25551129993983,163.25551129993983,163.25551129993983,163.25551129993983,163.25551129993983,163.25551129993983,163.25551129993983,0,1,[0.001253299880772829],[0.36718519986607134],163.25551129993983,163.45766080007888,1000,163.45766080007888,1000,1000,1000,1000,1,num_2,0.5628608001861721,,34,11,2026-03-13_11h02.22.931,2026A_exp2,2022.2.4,59.99210509059795,
1000,1,3.7,0.0,1,0,44,44,79,,,,,164.03958160011098,164.69170920015313,164.69170920015313,165.1973676001653,315,45,165.1973676001653,165.1973676001653,165.1973676001653,165.1973676001653,165.1973676001653,165.1973676001653,165.1973676001653,165.1973676001653,165.1973676001653,165.5580587000586,165.5580587000586,165.5580587000586,165.5580587000586,165.5580587000586,165.5580587000586,165.5580587000586,165.5580587000586,165.5580587000586,0,1,[0.0026376000605523586],[0.3658940000459552],165.5580587000586,165.7579948999919,1000,165.7579948999919,1000,1000,1000,1000,0,num_3,0.558501300169155,,34,11,2026-03-13_11h02.22.931,2026A_exp2,2022.2.4,59.99210509059795,
1000,1,4.9,0.0,1,0,45,45,25,,,,,166.34212000016123,166.99269560002722,166.99269560002722,167.47694190009497,45,45,167.47694190009497,167.47694190009497,167.47694190009497,167.47694190009497,167.47694190009497,167.47694190009497,167.47694190009497,167.47694190009497,167.47694190009497,167.84339249995537,167.84339249995537,167.84339249995537,167.84339249995537,167.84339249995537,167.84339249995537,167.84339249995537,167.84339249995537,167.84339249995537,0,1,[0.0012242000084370375],[0.36703559989109635],167.84339249995537,168.04541310016066,1000,168.04541310016066,1000,1000,1000,1000,1,num_2,0.5593807001132518,,34,11,2026-03-13_11h02.22.931,2026A_exp2,2022.2.4,59.99210509059795,
1,0,0.0,0.0,0,0,46,46,81,,,,,168.62764480011538,169.27821890008636,169.27821890008636,169.77924420009367,315,315,169.77924420009367,169.77924420009367,169.77924420009367,169.77924420009367,169.77924420009367,169.77924420009367,169.77924420009367,169.77924420009367,169.77924420009367,170.1457675001584,170.1457675001584,170.1457675001584,170.1457675001584,170.1457675001584,170.1457675001584,170.1457675001584,170.1457675001584,170.1457675001584,2,2,"[0.001236800104379654, 0.05009480006992817]","[0.017136899987235665, 0.36708960006944835]",170.1457675001584,170.34591919998638,0.0,170.34591919998638,1,0.0,0,0,1000,num_4,0.7625814999919385,,34,11,2026-03-13_11h02.22.931,2026A_exp2,2022.2.4,59.99210509059795,
1,0,4.9,0.0,1,0,47,47,4,,,,,171.12993180006742,171.78066980000585,171.78066980000585,172.265131900087,315,45,172.265131900087,172.265131900087,172.265131900087,172.265131900087,172.265131900087,172.265131900087,172.265131900087,172.265131900087,172.265131900087,172.63159770006314,172.63159770006314,172.63159770006314,172.63159770006314,172.63159770006314,172.63159770006314,172.63159770006314,172.63159770006314,172.63159770006314,8,6,"[0.017222600057721138, 0.06685519986785948, 0.10010859998874366, 0.16653460008092225, 0.24967819987796247, 0.3669173999223858]","[0.05003380007110536, 0.08338279998861253, 0.1501777998637408, 0.2167434999719262, 0.35046630003489554, 0.3669221999589354]",172.63159770006314,172.8318529999815,0.0,172.8318529999815,1,0.0,0,0,1000,num_4,0.5737764998339117,,34,11,2026-03-13_11h02.22.931,2026A_exp2,2022.2.4,59.99210509059795,
1000,1,6.1,3.7,1,0,48,48,24,,,,,173.4323136000894,174.0830725999549,174.0830725999549,174.56745940004475,315,45,174.56745940004475,174.56745940004475,174.56745940004475,174.56745940004475,174.56745940004475,174.56745940004475,174.56745940004475,174.56745940004475,174.56745940004475,174.93393100006506,174.93393100006506,174.93393100006506,174.93393100006506,174.93393100006506,174.93393100006506,174.93393100006506,174.93393100006506,174.93393100006506,0,1,[0.0008793999440968037],[0.36749519989825785],174.93393100006506,175.13574320008047,1000,175.13574320008047,1000,1000,1000,1000,1,num_2,0.4854969000443816,,34,11,2026-03-13_11h02.22.931,2026A_exp2,2022.2.4,59.99210509059795,
1000,1,6.1,4.9,1,0,49,49,53,,,,,175.65104799997061,176.30189570016228,176.30189570016228,176.8030868000351,315,45,176.8030868000351,176.8030868000351,176.8030868000351,176.8030868000351,176.8030868000351,176.8030868000351,176.8030868000351,176.8030868000351,176.8030868000351,177.16939920000732,177.16939920000732,177.16939920000732,177.16939920000732,177.16939920000732,177.16939920000732,177.16939920000732,177.16939920000732,177.16939920000732,6,1,[0.0012020999565720558],[0.2838834000285715],177.16939920000732,177.37138679996133,1000,177.37138679996133,1000,1000,1000,1000,1,num_2,0.5452662999741733,,34,11,2026-03-13_11h02.22.931,2026A_exp2,2022.2.4,59.99210509059795,
1,0,3.7,4.9,1,0,50,50,39,,,,,177.9368170001544,178.58748090011068,178.58748090011068,179.08867940003984,315,315,179.08867940003984,179.08867940003984,179.08867940003984,179.08867940003984,179.08867940003984,179.08867940003984,179.08867940003984,179.08867940003984,179.08867940003984,179.45501410006545,179.45501410006545,179.45501410006545,179.45501410006545,179.45501410006545,179.45501410006545,179.45501410006545,179.45501410006545,179.45501410006545,0,1,[0.0012246000114828348],[0.367035900009796],179.45501410006545,179.65520479995757,4.9,179.65520479995757,1,4.9,1,1,1000,num_4,0.5489918000530452,,34,11,2026-03-13_11h02.22.931,2026A_exp2,2022.2.4,59.99210509059795,
1000,1,0.0,4.9,1,0,51,51,27,,,,,180.22230689995922,180.87324979994446,180.87324979994446,181.35747119993903,315,45,181.35747119993903,181.35747119993903,181.35747119993903,181.35747119993903,181.35747119993903,181.35747119993903,181.35747119993903,181.35747119993903,181.35747119993903,181.72397390007973,181.72397390007973,181.72397390007973,181.72397390007973,181.72397390007973,181.72397390007973,181.72397390007973,181.72397390007973,181.72397390007973,0,1,[0.0012702001258730888],[0.3671893000137061],181.72397390007973,181.92606610013172,1000,181.92606610013172,1000,1000,1000,1000,1,num_2,0.6553619001060724,,34,11,2026-03-13_11h02.22.931,2026A_exp2,2022.2.4,59.99210509059795,
1,0,0.0,0.0,0,0,52,52,49,,,,,182.60814060014673,183.25888610002585,183.25888610002585,183.75996610010043,45,45,183.75996610010043,183.75996610010043,183.75996610010043,183.75996610010043,183.75996610010043,183.75996610010043,183.75996610010043,183.75996610010043,183.75996610010043,184.12639999995008,184.12639999995008,184.12639999995008,184.12639999995008,184.12639999995008,184.12639999995008,184.12639999995008,184.12639999995008,184.12639999995008,0,1,[0.0012282999232411385],[0.366922999965027],184.12639999995008,184.32666520006023,0.0,184.32666520006023,0,0.0,0,1,1000,num_1,0.6464818997774273,,34,11,2026-03-13_11h02.22.931,2026A_exp2,2022.2.4,59.99210509059795,
0,0,0.0,4.9,0,0,53,53,54,,,,,184.9938316999469,185.6446446001064,185.6446446001064,186.12896270002238,45,45,186.12896270002238,186.12896270002238,186.12896270002238,186.12896270002238,186.12896270002238,186.12896270002238,186.12896270002238,186.12896270002238,186.12896270002238,186.49548329995014,186.49548329995014,186.49548329995014,186.49548329995014,186.49548329995014,186.49548329995014,186.49548329995014,186.49548329995014,186.49548329995014,21,1,[0.0012258000206202269],[0.03340000007301569],186.49548329995014,186.69560890016146,4.9,186.69560890016146,1,4.9,1,1,1000,num_4,0.6771379001438618,,34,11,2026-03-13_11h02.22.931,2026A_exp2,2022.2.4,59.99210509059795,
1,0,0.0,6.1,0,0,54,54,68,,,,,187.3965157000348,188.0525673001539,188.0525673001539,188.55376010015607,315,45,188.55376010015607,188.55376010015607,188.55376010015607,188.55376010015607,188.55376010015607,188.55376010015607,188.55376010015607,188.55376010015607,188.55376010015607,188.91470360010862,188.91470360010862,188.91470360010862,188.91470360010862,188.91470360010862,188.91470360010862,188.91470360010862,188.91470360010862,188.91470360010862,0,1,[0.0026598998811095953],[0.3670789999887347],188.91470360010862,189.11482370016165,0.0,189.11482370016165,0,0.0,0,1,1000,num_1,0.5936219999566674,,34,11,2026-03-13_11h02.22.931,2026A_exp2,2022.2.4,59.99210509059795,
1,0,0.0,0.0,0,0,55,55,38,,,,,189.73192259995267,190.38269819994457,190.38269819994457,190.86717909993604,45,45,190.86717909993604,190.86717909993604,190.86717909993604,190.86717909993604,190.86717909993604,190.86717909993604,190.86717909993604,190.86717909993604,190.86717909993604,191.23346849996597,191.23346849996597,191.23346849996597,191.23346849996597,191.23346849996597,191.23346849996597,191.23346849996597,191.23346849996597,191.23346849996597,0,1,[0.0011874998454004526],[0.3672684000339359],191.23346849996597,191.43374220002443,0.0,191.43374220002443,0,0.0,0,1,1000,num_1,0.5786960998084396,,34,11,2026-03-13_11h02.22.931,2026A_exp2,2022.2.4,59.99210509059795,
1000,1,6.1,3.7,1,0,56,56,0,,,,,192.03417300013825,192.68502780003473,192.68502780003473,193.1859627000522,45,315,193.1859627000522,193.1859627000522,193.1859627000522,193.1859627000522,193.1859627000522,193.1859627000522,193.1859627000522,193.1859627000522,193.1859627000522,193.53584869997576,193.53584869997576,193.53584869997576,193.53584869997576,193.53584869997576,193.53584869997576,193.53584869997576,193.53584869997576,193.53584869997576,18,1,[0.0012844998855143785],[0.06659780000336468],193.53584869997576,193.7376870000735,1000,193.7376870000735,1000,1000,1000,1000,1,num_2,0.6984913998749107,,34,11,2026-03-13_11h02.22.931,2026A_exp2,2022.2.4,59.99210509059795,
1,0,0.0,4.9,0,0,57,57,71,,,,,194.4532878000755,195.1041608999949,195.1041608999949,195.60507189994678,45,315,195.60507189994678,195.60507189994678,195.60507189994678,195.60507189994678,195.60507189994678,195.60507189994678,195.60507189994678,195.60507189994678,195.60507189994678,195.97150770016015,195.97150770016015,195.97150770016015,195.97150770016015,195.97150770016015,195.97150770016015,195.97150770016015,195.97150770016015,195.97150770016015,23,0,,,195.97150770016015,196.17240090016276,0.0,196.17240090016276,0,0.0,0,1,1000,num_1,0.5679428998846561,,34,11,2026-03-13_11h02.22.931,2026A_exp2,2022.2.4,59.99210509059795,
1000,1,4.9,4.9,0,0,58,58,31,,,,,196.75757830007933,197.40631300001405,197.40631300001405,197.9073195999954,315,315,197.9073195999954,197.9073195999954,197.9073195999954,197.9073195999954,197.9073195999954,197.9073195999954,197.9073195999954,197.9073195999954,197.9073195999954,198.27379540004767,198.27379540004767,198.27379540004767,198.27379540004767,198.27379540004767,198.27379540004767,198.27379540004767,198.27379540004767,198.27379540004767,23,0,,,198.27379540004767,198.47624310012907,1000,198.47624310012907,1000,1000,1000,1000,1,num_2,0.5771963999141008,,34,11,2026-03-13_11h02.22.931,2026A_exp2,2022.2.4,59.99210509059795,
1,0,0.0,0.0,1,0,59,59,18,,,,,199.07455680007115,199.72537370002829,199.72537370002829,200.22639740002342,45,315,200.22639740002342,200.22639740002342,200.22639740002342,200.22639740002342,200.22639740002342,200.22639740002342,200.22639740002342,200.22639740002342,200.22639740002342,200.57624229998328,200.57624229998328,200.57624229998328,200.57624229998328,200.57624229998328,200.57624229998328,200.57624229998328,200.57624229998328,200.57624229998328,22,0,,,200.57624229998328,200.77646830002777,0.0,200.77646830002777,1,0.0,0,0,1000,num_4,0.6285229998175055,,34,11,2026-03-13_11h02.22.931,2026A_exp2,2022.2.4,59.99210509059795,
1000,1,0.0,0.0,0,0,60,60,20,,,,,201.42691150004975,202.07773729995824,202.07773729995824,202.5621810001321,45,315,202.5621810001321,202.5621810001321,202.5621810001321,202.5621810001321,202.5621810001321,202.5621810001321,202.5621810001321,202.5621810001321,202.5621810001321,202.9285802000668,202.9285802000668,202.9285802000668,202.9285802000668,202.9285802000668,202.9285802000668,202.9285802000668,202.9285802000668,202.9285802000668,0,1,[0.0012491000816226006],[0.3672529000323266],202.9285802000668,203.1305945001077,1000,203.1305945001077,1000,1000,1000,1000,1,num_2,0.8742587000597268,,34,11,2026-03-13_11h02.22.931,2026A_exp2,2022.2.4,59.99210509059795,
0,0,0.0,6.1,1,0,61,61,76,,,,,204.0296211000532,204.68015010003,204.68015010003,205.1813408001326,45,315,205.1813408001326,205.1813408001326,205.1813408001326,205.1813408001326,205.1813408001326,205.1813408001326,205.1813408001326,205.1813408001326,205.1813408001326,205.54787579993717,205.54787579993717,205.54787579993717,205.54787579993717,205.54787579993717,205.54787579993717,205.54787579993717,205.54787579993717,205.54787579993717,0,1,[0.0012008999474346638],[0.36732640000991523],205.54787579993717,205.76156540005468,0.0,205.76156540005468,0,0.0,0,1,1000,num_1,0.6277752998284996,,34,11,2026-03-13_11h02.22.931,2026A_exp2,2022.2.4,59.99210509059795,
1000,1,0.0,0.0,0,0,62,62,69,,,,,206.41530059999786,207.06599190016277,207.06599190016277,207.55051070009358,315,45,207.55051070009358,207.55051070009358,207.55051070009358,207.55051070009358,207.55051070009358,207.55051070009358,207.55051070009358,207.55051070009358,207.55051070009358,207.91692390013486,207.91692390013486,207.91692390013486,207.91692390013486,207.91692390013486,207.91692390013486,207.91692390013486,207.91692390013486,207.91692390013486,10,3,"[0.0012219001073390245, 0.133392000105232, 0.2836545000318438]","[0.08357230015099049, 0.23356200009584427, 0.3171539001632482]",207.91692390013486,208.11909190006554,1000,208.11909190006554,1000,1000,1000,1000,1,num_2,0.6698157000355422,,34,11,2026-03-13_11h02.22.931,2026A_exp2,2022.2.4,59.99210509059795,
1000,1,6.1,4.9,1,0,63,63,16,,,,,208.8177062999457,209.46838820003904,209.46838820003904,209.96952740009874,45,315,209.96952740009874,209.96952740009874,209.96952740009874,209.96952740009874,209.96952740009874,209.96952740009874,209.96952740009874,209.96952740009874,209.96952740009874,210.3359501999803,210.3359501999803,210.3359501999803,210.3359501999803,210.3359501999803,210.3359501999803,210.3359501999803,210.3359501999803,210.3359501999803,23,0,,,210.3359501999803,210.53795170015655,1000,210.53795170015655,1000,1000,1000,1000,1,num_2,0.5863312999717891,,34,11,2026-03-13_11h02.22.931,2026A_exp2,2022.2.4,59.99210509059795,
1000,1,3.7,0.0,1,0,64,64,55,,,,,211.15332849998958,211.80406050011516,211.80406050011516,212.30521290004253,315,45,212.30521290004253,212.30521290004253,212.30521290004253,212.30521290004253,212.30521290004253,212.30521290004253,212.30521290004253,212.30521290004253,212.30521290004253,212.67166430014186,212.67166430014186,212.67166430014186,212.67166430014186,212.67166430014186,212.67166430014186,212.67166430014186,212.67166430014186,212.67166430014186,23,0,,,212.67166430014186,212.87345980014652,1000,212.87345980014652,1000,1000,1000,1000,1,num_2,0.5875808999408036,,34,11,2026-03-13_11h02.22.931,2026A_exp2,2022.2.4,59.99210509059795,
1,0,4.9,0.0,1,0,65,65,84,,,,,213.48901850008406,214.13983140001073,214.13983140001073,214.64079069998115,315,45,214.64079069998115,214.64079069998115,214.64079069998115,214.64079069998115,214.64079069998115,214.64079069998115,214.64079069998115,214.64079069998115,214.64079069998115,215.0073005000595,215.0073005000595,215.0073005000595,215.0073005000595,215.0073005000595,215.0073005000595,215.0073005000595,215.0073005000595,215.0073005000595,23,0,,,215.0073005000595,215.20740810013376,0.0,215.20740810013376,1,0.0,0,0,1000,num_4,0.8529477999545634,,34,11,2026-03-13_11h02.22.931,2026A_exp2,2022.2.4,59.99210509059795,
1000,1,0.0,0.0,0,0,66,66,65,,,,,216.09167300001718,216.72557490016334,216.72557490016334,217.22684250003658,45,45,217.22684250003658,217.22684250003658,217.22684250003658,217.22684250003658,217.22684250003658,217.22684250003658,217.22684250003658,217.22684250003658,217.22684250003658,217.59325539995916,217.59325539995916,217.59325539995916,217.59325539995916,217.59325539995916,217.59325539995916,217.59325539995916,217.59325539995916,217.59325539995916,23,0,,,217.59325539995916,217.79537630011328,1000,217.79537630011328,1000,1000,1000,1000,1,num_2,0.46481939987279475,,34,11,2026-03-13_11h02.22.931,2026A_exp2,2022.2.4,59.99210509059795,
1000,1,0.0,3.7,1,0,67,67,80,,,,,218.2772944001481,218.92786439997144,218.92786439997144,219.4290190001484,45,315,219.4290190001484,219.4290190001484,219.4290190001484,219.4290190001484,219.4290190001484,219.4290190001484,219.4290190001484,219.4290190001484,219.4290190001484,219.79536670004018,219.79536670004018,219.79536670004018,219.79536670004018,219.79536670004018,219.79536670004018,219.79536670004018,219.79536670004018,219.79536670004018,23,0,,,219.79536670004018,219.99575800006278,1000,219.99575800006278,1000,1000,1000,1000,1,num_2,0.45758290006779134,,34,11,2026-03-13_11h02.22.931,2026A_exp2,2022.2.4,59.99210509059795,
1000,1,3.7,6.1,0,0,68,68,28,,,,,220.47935319994576,221.13005160004832,221.13005160004832,221.6311268999707,315,45,221.6311268999707,221.6311268999707,221.6311268999707,221.6311268999707,221.6311268999707,221.6311268999707,221.6311268999707,221.6311268999707,221.6311268999707,221.98097290005535,221.98097290005535,221.98097290005535,221.98097290005535,221.98097290005535,221.98097290005535,221.98097290005535,221.98097290005535,221.98097290005535,12,1,[0.0011746999807655811],[0.15039149997755885],221.98097290005535,222.18290360015817,1000,222.19758579996414,1000,1000,1000,1000,1,num_2,0.5193690999876708,,34,11,2026-03-13_11h02.22.931,2026A_exp2,2022.2.4,59.99210509059795,
0,0,4.9,0.0,0,0,69,69,30,,,,,222.73530449997634,223.38238570000976,223.38238570000976,223.89866750012152,45,315,223.89866750012152,223.89866750012152,223.89866750012152,223.89866750012152,223.89866750012152,223.89866750012152,223.89866750012152,223.89866750012152,223.89866750012152,224.2496373001486,224.2496373001486,224.2496373001486,224.2496373001486,224.2496373001486,224.2496373001486,224.2496373001486,224.2496373001486,224.2496373001486,23,0,,,224.2496373001486,224.44995500007644,0.0,224.44995500007644,1,0.0,0,0,1000,num_4,0.8833990001585335,,34,11,2026-03-13_11h02.22.931,2026A_exp2,2022.2.4,59.99210509059795,
1000,1,0.0,6.1,1,0,70,70,88,,,,,225.35079970001243,226.00177560001612,226.00177560001612,226.50249760015868,45,45,226.50249760015868,226.50249760015868,226.50249760015868,226.50249760015868,226.50249760015868,226.50249760015868,226.50249760015868,226.50249760015868,226.50249760015868,226.85256889997981,226.85256889997981,226.85256889997981,226.85256889997981,226.85256889997981,226.85256889997981,226.85256889997981,226.85256889997981,226.85256889997981,23,0,,,226.85256889997981,227.05705619999208,1000,227.05705619999208,1000,1000,1000,1000,1,num_2,0.5956860000733286,,34,11,2026-03-13_11h02.22.931,2026A_exp2,2022.2.4,59.99210509059795,
1,0,0.0,0.0,1,0,71,71,66,,,,,227.6698030999396,228.32062570005655,228.32062570005655,228.8217627000995,315,315,228.8217627000995,228.8217627000995,228.8217627000995,228.8217627000995,228.8217627000995,228.8217627000995,228.8217627000995,228.8217627000995,228.8217627000995,229.17143430002034,229.17143430002034,229.17143430002034,229.17143430002034,229.17143430002034,229.17143430002034,229.17143430002034,229.17143430002034,229.17143430002034,22,0,,,229.17143430002034,229.3716855000239,0.0,229.3716855000239,0,0.0,0,1,1000,num_1,0.8324881000444293,,34,11,2026-03-13_11h02.22.931,2026A_exp2,2022.2.4,59.99210509059795,
1,0,0.0,6.1,0,0,72,72,5,,,,,230.22234790003859,230.87324069999158,230.87324069999158,231.3575288001448,315,315,231.3575288001448,231.3575288001448,231.3575288001448,231.3575288001448,231.3575288001448,231.3575288001448,231.3575288001448,231.3575288001448,231.3575288001448,231.724105700152,231.724105700152,231.724105700152,231.724105700152,231.724105700152,231.724105700152,231.724105700152,231.724105700152,231.724105700152,23,0,,,231.724105700152,231.92419739998877,0.0,231.92419739998877,0,0.0,0,1,1000,num_1,0.5772756999358535,,34,11,2026-03-13_11h02.22.931,2026A_exp2,2022.2.4,59.99210509059795,
1000,1,6.1,3.7,1,0,73,73,10,,,,,232.52466330002062,233.15883620013483,233.15883620013483,233.65980060002767,315,315,233.65980060002767,233.65980060002767,233.65980060002767,233.65980060002767,233.65980060002767,233.65980060002767,233.65980060002767,233.65980060002767,233.65980060002767,234.02632770012133,234.02632770012133,234.02632770012133,234.02632770012133,234.02632770012133,234.02632770012133,234.02632770012133,234.02632770012133,234.02632770012133,21,1,[0.0011971001513302326],[0.033517600037157536],234.02632770012133,234.228556800168,1000,234.228556800168,1000,1000,1000,1000,1,num_2,0.5449186998885125,,34,11,2026-03-13_11h02.22.931,2026A_exp2,2022.2.4,59.99210509059795,
1000,1,6.1,3.7,0,0,74,74,87,,,,,234.79376320005395,235.4443604000844,235.4443604000844,235.9453666000627,315,45,235.9453666000627,235.9453666000627,235.9453666000627,235.9453666000627,235.9453666000627,235.9453666000627,235.9453666000627,235.9453666000627,235.9453666000627,236.29515050002374,236.29515050002374,236.29515050002374,236.29515050002374,236.29515050002374,236.29515050002374,236.29515050002374,236.29515050002374,236.29515050002374,22,0,,,236.29515050002374,236.50392560008913,1000,236.50392560008913,1000,1000,1000,1000,1,num_2,0.9336833998095244,,34,11,2026-03-13_11h02.22.931,2026A_exp2,2022.2.4,59.99210509059795,
1,0,3.7,0.0,1,0,75,75,74,,,,,237.46295520011336,238.11357480008155,238.11357480008155,238.61488809995353,315,45,238.61488809995353,238.61488809995353,238.61488809995353,238.61488809995353,238.61488809995353,238.61488809995353,238.61488809995353,238.61488809995353,238.61488809995353,238.98134650010616,238.98134650010616,238.98134650010616,238.98134650010616,238.98134650010616,238.98134650010616,238.98134650010616,238.98134650010616,238.98134650010616,23,0,,,238.98134650010616,239.1813897001557,0.0,239.1813897001557,1,0.0,0,0,1000,num_4,1.151653400156647,,34,11,2026-03-13_11h02.22.931,2026A_exp2,2022.2.4,59.99210509059795,
1000,1,0.0,0.0,1,0,76,76,29,,,,,240.34920380008407,240.9999747001566,240.9999747001566,241.48437439999543,315,315,241.48437439999543,241.48437439999543,241.48437439999543,241.48437439999543,241.48437439999543,241.48437439999543,241.48437439999543,241.48437439999543,241.48437439999543,241.85082780010998,241.85082780010998,241.85082780010998,241.85082780010998,241.85082780010998,241.85082780010998,241.85082780010998,241.85082780010998,241.85082780010998,23,0,,,241.85082780010998,242.05110150016844,1000,242.05110150016844,1000,1000,1000,1000,1,num_2,0.5543540997896343,,34,11,2026-03-13_11h02.22.931,2026A_exp2,2022.2.4,59.99210509059795,
1,0,0.0,3.7,0,0,77,77,78,,,,,242.63477200013585,243.2855969001539,243.2855969001539,243.78673910000362,315,45,243.78673910000362,243.78673910000362,243.78673910000362,243.78673910000362,243.78673910000362,243.78673910000362,243.78673910000362,243.78673910000362,243.78673910000362,244.15311770001426,244.15311770001426,244.15311770001426,244.15311770001426,244.15311770001426,244.15311770001426,244.15311770001426,244.15311770001426,244.15311770001426,22,1,[0.33396409987472],[0.35048160003498197],244.15311770001426,244.35326989996247,0.0,244.35326989996247,0,0.0,0,1,1000,num_1,0.6028270998504013,,34,11,2026-03-13_11h02.22.931,2026A_exp2,2022.2.4,59.99210509059795,
1000,1,0.0,0.0,0,0,78,78,75,,,,,244.98734889994375,245.62120639998466,245.62120639998466,246.12229380011559,315,45,246.12229380011559,246.12229380011559,246.12229380011559,246.12229380011559,246.12229380011559,246.12229380011559,246.12229380011559,246.12229380011559,246.12229380011559,246.4887109999545,246.4887109999545,246.4887109999545,246.4887109999545,246.4887109999545,246.4887109999545,246.4887109999545,246.4887109999545,246.4887109999545,23,0,,,246.4887109999545,246.6908539000433,1000,246.6908539000433,1000,1000,1000,1000,1,num_2,0.48966920003294945,,34,11,2026-03-13_11h02.22.931,2026A_exp2,2022.2.4,59.99210509059795,
0,0,0.0,0.0,1,0,79,79,8,,,,,247.20611719996668,247.85675760009326,247.85675760009326,248.35795220010914,315,45,248.35795220010914,248.35795220010914,248.35795220010914,248.35795220010914,248.35795220010914,248.35795220010914,248.35795220010914,248.35795220010914,248.35795220010914,248.72440019994974,248.72440019994974,248.72440019994974,248.72440019994974,248.72440019994974,248.72440019994974,248.72440019994974,248.72440019994974,248.72440019994974,23,0,,,248.72440019994974,248.92460250016302,0.0,248.92460250016302,0,0.0,0,1,1000,num_1,0.5516602999996394,,34,11,2026-03-13_11h02.22.931,2026A_exp2,2022.2.4,59.99210509059795,
1,0,4.9,0.0,1,0,80,80,82,,,,,249.50859010010026,250.1591690001078,250.1591690001078,250.6434019000735,45,45,250.6434019000735,250.6434019000735,250.6434019000735,250.6434019000735,250.6434019000735,250.6434019000735,250.6434019000735,250.6434019000735,250.6434019000735,251.00995940016583,251.00995940016583,251.00995940016583,251.00995940016583,251.00995940016583,251.00995940016583,251.00995940016583,251.00995940016583,251.00995940016583,23,0,,,251.00995940016583,251.21005790005438,0.0,251.21005790005438,1,0.0,0,0,1000,num_4,1.4906809001695365,,34,11,2026-03-13_11h02.22.931,2026A_exp2,2022.2.4,59.99210509059795,
1000,1,0.0,6.1,0,0,81,81,34,,,,,252.72828080016188,253.37889160006307,253.37889160006307,253.86332520004362,315,315,253.86332520004362,253.86332520004362,253.86332520004362,253.86332520004362,253.86332520004362,253.86332520004362,253.86332520004362,253.86332520004362,253.86332520004362,254.22988760005683,254.22988760005683,254.22988760005683,254.22988760005683,254.22988760005683,254.22988760005683,254.22988760005683,254.22988760005683,254.22988760005683,23,0,,,254.22988760005683,254.43180190003477,1000,254.43180190003477,1000,1000,1000,1000,1,num_2,0.5565560997929424,,34,11,2026-03-13_11h02.22.931,2026A_exp2,2022.2.4,59.99210509059795,
1,0,0.0,3.7,0,0,82,82,12,,,,,255.01389950001612,255.66492779995315,255.66492779995315,256.1488675000146,45,315,256.1488675000146,256.1488675000146,256.1488675000146,256.1488675000146,256.1488675000146,256.1488675000146,256.1488675000146,256.1488675000146,256.1488675000146,256.5152845000848,256.5152845000848,256.5152845000848,256.5152845000848,256.5152845000848,256.5152845000848,256.5152845000848,256.5152845000848,256.5152845000848,23,0,,,256.5152845000848,256.71569480001926,0.0,256.7323901001364,0,0.0,0,1,1000,num_1,0.47243530000559986,,34,11,2026-03-13_11h02.22.931,2026A_exp2,2022.2.4,59.99210509059795,
1,0,4.9,0.0,0,0,83,83,48,,,,,257.23277260013856,257.88337820000015,257.88337820000015,258.3679943000898,315,315,258.3679943000898,258.3679943000898,258.3679943000898,258.3679943000898,258.3679943000898,258.3679943000898,258.3679943000898,258.3679943000898,258.3679943000898,258.73437470011413,258.73437470011413,258.73437470011413,258.73437470011413,258.73437470011413,258.73437470011413,258.73437470011413,258.73437470011413,258.73437470011413,23,0,,,258.73437470011413,258.9345287999604,4.9,258.9345287999604,0,4.9,1,0,1000,num_1,0.5024889998603612,,34,11,2026-03-13_11h02.22.931,2026A_exp2,2022.2.4,59.99210509059795,
1,0,0.0,0.0,0,0,84,84,2,,,,,259.4681675999891,260.119059599936,260.119059599936,260.60350700002164,45,45,260.60350700002164,260.60350700002164,260.60350700002164,260.60350700002164,260.60350700002164,260.60350700002164,260.60350700002164,260.60350700002164,260.60350700002164,260.9697263999842,260.9697263999842,260.9697263999842,260.9697263999842,260.9697263999842,260.9697263999842,260.9697263999842,260.9697263999842,260.9697263999842,23,0,,,260.9697263999842,261.1701891000848,0.0,261.1701891000848,0,0.0,0,1,1000,num_1,0.5148296998813748,,34,11,2026-03-13_11h02.22.931,2026A_exp2,2022.2.4,59.99210509059795,
1,0,0.0,0.0,1,0,85,85,70,,,,,261.7038035001606,262.35467800009064,262.35467800009064,262.839114200091,315,45,262.839114200091,262.839114200091,262.839114200091,262.839114200091,262.839114200091,262.839114200091,262.839114200091,262.839114200091,262.839114200091,263.20554430014454,263.20554430014454,263.20554430014454,263.20554430014454,263.20554430014454,263.20554430014454,263.20554430014454,263.20554430014454,263.20554430014454,23,0,,,263.20554430014454,263.40574880014174,0.0,263.40574880014174,1,0.0,0,0,1000,num_4,0.6958267998415977,,34,11,2026-03-13_11h02.22.931,2026A_exp2,2022.2.4,59.99210509059795,
1000,1,0.0,0.0,1,0,86,86,7,,,,,264.1229034999851,264.7737586000003,264.7737586000003,265.2580806000624,315,45,265.2580806000624,265.2580806000624,265.2580806000624,265.2580806000624,265.2580806000624,265.2580806000624,265.2580806000624,265.2580806000624,265.2580806000624,265.624604200013,265.624604200013,265.624604200013,265.624604200013,265.624604200013,265.624604200013,265.624604200013,265.624604200013,265.624604200013,22,1,[0.1503023998811841],[0.16697919997386634],265.624604200013,265.826456699986,1000,265.826456699986,1000,1000,1000,1000,1,num_2,0.6416774000972509,,34,11,2026-03-13_11h02.22.931,2026A_exp2,2022.2.4,59.99210509059795,
1000,1,4.9,0.0,0,0,87,87,22,,,,,266.4923702001106,267.142737200018,267.142737200018,267.62723580002785,315,315,267.62723580002785,267.62723580002785,267.62723580002785,267.62723580002785,267.62723580002785,267.62723580002785,267.62723580002785,267.62723580002785,267.62723580002785,267.9935457999818,267.9935457999818,267.9935457999818,267.9935457999818,267.9935457999818,267.9935457999818,267.9935457999818,267.9935457999818,267.9935457999818,23,0,,,267.9935457999818,268.1957144001499,1000,268.1957144001499,1000,1000,1000,1000,1,num_2,0.785280899843201,,34,11,2026-03-13_11h02.22.931,2026A_exp2,2022.2.4,59.99210509059795,
1000,1,0.0,0.0,1,0,88,88,14,,,,,269.0113727999851,269.6621493001003,269.6621493001003,270.1629837001674,45,315,270.1629837001674,270.1629837001674,270.1629837001674,270.1629837001674,270.1629837001674,270.1629837001674,270.1629837001674,270.1629837001674,270.1629837001674,270.52937490004115,270.52937490004115,270.52937490004115,270.52937490004115,270.52937490004115,270.52937490004115,270.52937490004115,270.52937490004115,270.52937490004115,23,0,,,270.52937490004115,270.7313105999492,1000,270.7313105999492,1000,1000,1000,1000,1,num_2,0.6816965001635253,,34,11,2026-03-13_11h02.22.931,2026A_exp2,2022.2.4,59.99210509059795,
1,0,0.0,4.9,0,0,89,89,17,,,,,271.43028590013273,272.06435140012763,272.06435140012763,272.5653409999795,45,45,272.5653409999795,272.5653409999795,272.5653409999795,272.5653409999795,272.5653409999795,272.5653409999795,272.5653409999795,272.5653409999795,272.5653409999795,272.9317881001625,272.9317881001625,272.9317881001625,272.9317881001625,272.9317881001625,272.9317881001625,272.9317881001625,272.9317881001625,272.9317881001625,4,4,"[0.0012058999855071306, 0.28349529998376966, 0.3168417001143098, 0.3669269001111388]","[0.25014480017125607, 0.30032779998146, 0.35029800003394485, 0.3669316000305116]",272.9317881001625,273.1321857001167,0.0,273.1321857001167,0,0.0,0,1,1000,num_1,0.5125398000236601,,34,11,2026-03-13_11h02.22.931,2026A_exp2,2022.2.4,59.99210509059795,
,,,,,,,,,,,,,,,,,,,,,,,,,,,,,,,,,,,,,,,,,,,,,,,,,,,,273.6745088000316,,,,,,,
