validity,detectorcomp,contrastCW,contrastCCW,precueCWorCCW,block_80trials.thisRepN,block_80trials.thisTrialN,block_80trials.thisN,block_80trials.thisIndex,etRecord.started,etRecord.stopped,text.started,text.stopped,text_4.started,text_4.stopped,text_6.started,text_6.stopped,oriCW,oriCCW,roi_2.started,grating_UR.started,grating_UL.started,grating_LR.started,grating_LL.started,noise_UR.started,noise_UL.started,noise_LR.started,noise_LL.started,roi_2.stopped,grating_UR.stopped,grating_UL.stopped,grating_LR.stopped,grating_LL.stopped,noise_UR.stopped,noise_UL.stopped,noise_LR.stopped,noise_LL.stopped,outframe,roi_2.numLooks,roi_2.timesOn,roi_2.timesOff,text_2.started,text_2.stopped,probedcontrast,key_resp.started,respdetect,relevantContrast,correctDetect,TorFdetect,respCWorCCW,key_resp.keys,key_resp.rt,feedback_display_.started,participantNo,blockNo,date,expName,psychopyVersion,frameRate,
1000,1,0.0,6.1,1,0,0,0,42,6.46000262349844e-05,6.46000262349844e-05,53.810548400040716,55.81307230005041,55.81307230005041,56.44687860016711,56.44687860016711,56.968371300026774,315,45,56.968371300026774,56.968371300026774,56.968371300026774,56.968371300026774,56.968371300026774,56.968371300026774,56.968371300026774,56.968371300026774,56.968371300026774,57.31464970018715,57.31464970018715,57.31464970018715,57.31464970018715,57.31464970018715,57.31464970018715,57.31464970018715,57.31464970018715,57.31464970018715,23,0,,,57.31464970018715,57.515022800071165,1000,57.515022800071165,1000,1000,1000,1000,1,num_2,0.5918039998505265,,30,5,2026-03-12_10h39.06.875,2026A_exp2,2022.2.4,59.945030393317886,
0,0,3.7,0.0,0,0,1,1,18,,,,,58.13188700005412,58.78270740015432,58.78270740015432,59.26711490005255,45,315,59.26711490005255,59.26711490005255,59.26711490005255,59.26711490005255,59.26711490005255,59.26711490005255,59.26711490005255,59.26711490005255,59.26711490005255,59.63353250012733,59.63353250012733,59.63353250012733,59.63353250012733,59.63353250012733,59.63353250012733,59.63353250012733,59.63353250012733,59.63353250012733,0,1,[0.0013150000013411045],[0.3668720999266952],59.63353250012733,59.83357310015708,0.0,59.850254100048915,0,0.0,0,1,1000,num_1,0.5776223000138998,,30,5,2026-03-12_10h39.06.875,2026A_exp2,2022.2.4,59.945030393317886,
1000,1,3.7,4.9,1,0,2,2,71,,,,,60.45113410009071,61.10171020007692,61.10171020007692,61.60304250009358,45,315,61.60304250009358,61.60304250009358,61.60304250009358,61.60304250009358,61.60304250009358,61.60304250009358,61.60304250009358,61.60304250009358,61.60304250009358,61.952595400158316,61.952595400158316,61.952595400158316,61.952595400158316,61.952595400158316,61.952595400158316,61.952595400158316,61.952595400158316,61.952595400158316,0,1,[0.0012743999250233173],[0.3505347999744117],61.952595400158316,62.15532190003432,1000,62.15532190003432,1000,1000,1000,1000,1,num_2,0.40770109998993576,,30,5,2026-03-12_10h39.06.875,2026A_exp2,2022.2.4,59.945030393317886,
1000,1,0.0,3.7,0,0,3,3,21,,,,,62.586784300161526,63.237287200056016,63.237287200056016,63.73832660005428,45,45,63.73832660005428,63.73832660005428,63.73832660005428,63.73832660005428,63.73832660005428,63.73832660005428,63.73832660005428,63.73832660005428,63.73832660005428,64.10473670018837,64.10473670018837,64.10473670018837,64.10473670018837,64.10473670018837,64.10473670018837,64.10473670018837,64.10473670018837,64.10473670018837,0,1,[0.0009604000952094793],[0.3671011000405997],64.10473670018837,64.30743210017681,1000,64.30743210017681,1000,1000,1000,1000,1,num_2,0.512756299925968,,30,5,2026-03-12_10h39.06.875,2026A_exp2,2022.2.4,59.945030393317886,
1000,1,4.9,6.1,0,0,4,4,36,,,,,64.84273420018144,65.50129809998907,65.50129809998907,65.9902890000958,45,45,65.9902890000958,65.9902890000958,65.9902890000958,65.9902890000958,65.9902890000958,65.9902890000958,65.9902890000958,65.9902890000958,65.9902890000958,66.35689679998904,66.35689679998904,66.35689679998904,66.35689679998904,66.35689679998904,66.35689679998904,66.35689679998904,66.35689679998904,66.35689679998904,1,2,"[0.0007859999313950539, 0.06703809997998178]","[0.050200500059872866, 0.36762970010749996]",66.35689679998904,66.55932850018144,1000,66.55932850018144,1000,1000,1000,1000,1,num_2,0.403806499671191,,30,5,2026-03-12_10h39.06.875,2026A_exp2,2022.2.4,59.945030393317886,
0,0,0.0,3.7,1,0,5,5,53,,,,,66.99100570008159,67.64166199997999,67.64166199997999,68.14272500015795,45,45,68.14272500015795,68.14272500015795,68.14272500015795,68.14272500015795,68.14272500015795,68.14272500015795,68.14272500015795,68.14272500015795,68.14272500015795,68.5090262000449,68.5090262000449,68.5090262000449,68.5090262000449,68.5090262000449,68.5090262000449,68.5090262000449,68.5090262000449,68.5090262000449,0,1,[0.0012564999051392078],[0.36730609997175634],68.5090262000449,68.70919449999928,0.0,68.70919449999928,0,0.0,0,1,1000,num_1,0.7748868998605758,,30,5,2026-03-12_10h39.06.875,2026A_exp2,2022.2.4,59.945030393317886,
1000,1,0.0,3.7,0,0,6,6,23,,,,,69.51002650009468,70.16079190000892,70.16079190000892,70.64533620001748,315,315,70.64533620001748,70.64533620001748,70.64533620001748,70.64533620001748,70.64533620001748,70.64533620001748,70.64533620001748,70.64533620001748,70.64533620001748,71.01164570008405,71.01164570008405,71.01164570008405,71.01164570008405,71.01164570008405,71.01164570008405,71.01164570008405,71.01164570008405,71.01164570008405,0,1,[0.0012312999460846186],[0.3673737000208348],71.01164570008405,71.21527769998647,1000,71.21527769998647,1000,1000,1000,1000,1,num_2,0.5158597999252379,,30,5,2026-03-12_10h39.06.875,2026A_exp2,2022.2.4,59.945030393317886,
1000,1,0.0,0.0,0,0,7,7,62,,,,,71.76251650019549,72.41301070014015,72.41301070014015,72.91404280019924,315,45,72.91404280019924,72.91404280019924,72.91404280019924,72.91404280019924,72.91404280019924,72.91404280019924,72.91404280019924,72.91404280019924,72.91404280019924,73.28060670010746,73.28060670010746,73.28060670010746,73.28060670010746,73.28060670010746,73.28060670010746,73.28060670010746,73.28060670010746,73.28060670010746,0,1,[0.0014029000885784626],[0.36709169996902347],73.28060670010746,73.48244100017473,1000,73.48244100017473,1000,1000,1000,1000,1,num_2,0.6484022999648005,,30,5,2026-03-12_10h39.06.875,2026A_exp2,2022.2.4,59.945030393317886,
1000,1,4.9,0.0,1,0,8,8,67,,,,,74.14801260014065,74.79882750008255,74.79882750008255,75.29980410006829,45,45,75.29980410006829,75.29980410006829,75.29980410006829,75.29980410006829,75.29980410006829,75.29980410006829,75.29980410006829,75.29980410006829,75.29980410006829,75.66630640020594,75.66630640020594,75.66630640020594,75.66630640020594,75.66630640020594,75.66630640020594,75.66630640020594,75.66630640020594,75.66630640020594,0,1,[0.0012512002140283585],[0.3671029000543058],75.66630640020594,75.8688041002024,1000,75.8688041002024,1000,1000,1000,1000,0,num_3,0.47879249998368323,,30,5,2026-03-12_10h39.06.875,2026A_exp2,2022.2.4,59.945030393317886,
0,0,6.1,0.0,1,0,9,9,52,,,,,76.37125560012646,77.01768450019881,77.01768450019881,77.51872020005248,315,315,77.51872020005248,77.51872020005248,77.51872020005248,77.51872020005248,77.51872020005248,77.51872020005248,77.51872020005248,77.51872020005248,77.51872020005248,77.88524850015529,77.88524850015529,77.88524850015529,77.88524850015529,77.88524850015529,77.88524850015529,77.88524850015529,77.88524850015529,77.88524850015529,0,1,[0.0012384001165628433],[0.36720019998028874],77.88524850015529,78.08596720010974,6.1,78.08596720010974,1,6.1,1,1,1000,num_4,0.765800999943167,,30,5,2026-03-12_10h39.06.875,2026A_exp2,2022.2.4,59.945030393317886,
1000,1,3.7,3.7,0,0,10,10,59,,,,,78.86936410004273,79.5201199001167,79.5201199001167,80.02107930020429,45,315,80.02107930020429,80.02107930020429,80.02107930020429,80.02107930020429,80.02107930020429,80.02107930020429,80.02107930020429,80.02107930020429,80.02107930020429,80.37102330010384,80.37102330010384,80.37102330010384,80.37102330010384,80.37102330010384,80.37102330010384,80.37102330010384,80.37102330010384,80.37102330010384,0,1,[0.0008505999576300383],[0.35097009991295636],80.37102330010384,80.57330020004883,1000,80.57330020004883,1000,1000,1000,1000,1,num_2,0.41353020002134144,,30,5,2026-03-12_10h39.06.875,2026A_exp2,2022.2.4,59.945030393317886,
1,0,0.0,0.0,0,0,11,11,87,,,,,81.00482939998619,81.65558280004188,81.65558280004188,82.15664110006765,315,315,82.15664110006765,82.15664110006765,82.15664110006765,82.15664110006765,82.15664110006765,82.15664110006765,82.15664110006765,82.15664110006765,82.15664110006765,82.52309220004827,82.52309220004827,82.52309220004827,82.52309220004827,82.52309220004827,82.52309220004827,82.52309220004827,82.52309220004827,82.52309220004827,0,1,[0.0013326001353561878],[0.36708330013789237],82.52309220004827,82.72341140010394,0.0,82.72341140010394,0,0.0,0,1,1000,num_1,0.42449799994938076,,30,5,2026-03-12_10h39.06.875,2026A_exp2,2022.2.4,59.945030393317886,
1000,1,3.7,0.0,0,0,12,12,39,,,,,83.17377530015074,83.82450170000084,83.82450170000084,84.30880710016936,45,45,84.30880710016936,84.30880710016936,84.30880710016936,84.30880710016936,84.30880710016936,84.30880710016936,84.30880710016936,84.30880710016936,84.30880710016936,84.67527580005117,84.67527580005117,84.67527580005117,84.67527580005117,84.67527580005117,84.67527580005117,84.67527580005117,84.67527580005117,84.67527580005117,0,1,[0.0013264999724924564],[0.3672907999716699],84.67527580005117,84.87774380017072,1000,84.87774380017072,1000,1000,1000,1000,1,num_2,0.9425480000209063,,30,5,2026-03-12_10h39.06.875,2026A_exp2,2022.2.4,59.945030393317886,
1000,1,4.9,6.1,1,0,13,13,5,,,,,85.84342629997991,86.49396720016375,86.49396720016375,86.99485330004245,315,45,86.99485330004245,86.99485330004245,86.99485330004245,86.99485330004245,86.99485330004245,86.99485330004245,86.99485330004245,86.99485330004245,86.99485330004245,87.36131910001859,87.36131910001859,87.36131910001859,87.36131910001859,87.36131910001859,87.36131910001859,87.36131910001859,87.36131910001859,87.36131910001859,23,0,,,87.36131910001859,87.56404010020196,1000,87.56404010020196,1000,1000,1000,1000,1,num_2,0.6148536999244243,,30,5,2026-03-12_10h39.06.875,2026A_exp2,2022.2.4,59.945030393317886,
1,0,4.9,6.1,0,0,14,14,82,,,,,88.19530810019933,88.84619550011121,88.84619550011121,89.33051860006526,315,45,89.33051860006526,89.33051860006526,89.33051860006526,89.33051860006526,89.33051860006526,89.33051860006526,89.33051860006526,89.33051860006526,89.33051860006526,89.69698050012812,89.69698050012812,89.69698050012812,89.69698050012812,89.69698050012812,89.69698050012812,89.69698050012812,89.69698050012812,89.69698050012812,0,1,[0.001329899998381734],[0.3671145001426339],89.69698050012812,89.89716410008259,4.9,89.89716410008259,1,4.9,1,1,1000,num_4,0.690250099869445,,30,5,2026-03-12_10h39.06.875,2026A_exp2,2022.2.4,59.945030393317886,
1,0,4.9,0.0,0,0,15,15,66,,,,,90.61494660004973,91.265302099986,91.265302099986,91.74961569998413,45,45,91.74961569998413,91.74961569998413,91.74961569998413,91.74961569998413,91.74961569998413,91.74961569998413,91.74961569998413,91.74961569998413,91.74961569998413,92.11594659998082,92.11594659998082,92.11594659998082,92.11594659998082,92.11594659998082,92.11594659998082,92.11594659998082,92.11594659998082,92.11594659998082,2,2,"[0.0012344000861048698, 0.15053469990380108]","[0.13358889985829592, 0.3671730998903513]",92.11594659998082,92.31627620011568,4.9,92.31627620011568,1,4.9,1,1,1000,num_4,0.6552211998496205,,30,5,2026-03-12_10h39.06.875,2026A_exp2,2022.2.4,59.945030393317886,
0,0,3.7,4.9,0,0,16,16,77,,,,,93.00013230019249,93.65103920013644,93.65103920013644,94.13548990013078,45,45,94.13548990013078,94.13548990013078,94.13548990013078,94.13548990013078,94.13548990013078,94.13548990013078,94.13548990013078,94.13548990013078,94.13548990013078,94.50182330003008,94.50182330003008,94.50182330003008,94.50182330003008,94.50182330003008,94.50182330003008,94.50182330003008,94.50182330003008,94.50182330003008,0,1,[0.0012488998472690582],[0.36709670000709593],94.50182330003008,94.70191780012101,4.9,94.70191780012101,1,4.9,1,1,1000,num_4,1.0694464999251068,,30,5,2026-03-12_10h39.06.875,2026A_exp2,2022.2.4,59.945030393317886,
1000,1,0.0,3.7,0,0,17,17,63,,,,,95.80304560018703,96.45377870020457,96.45377870020457,96.93813140015118,45,45,96.93813140015118,96.93813140015118,96.93813140015118,96.93813140015118,96.93813140015118,96.93813140015118,96.93813140015118,96.93813140015118,96.93813140015118,97.30465890001506,97.30465890001506,97.30465890001506,97.30465890001506,97.30465890001506,97.30465890001506,97.30465890001506,97.30465890001506,97.30465890001506,2,1,[0.0012407000176608562],[0.3504784998949617],97.30465890001506,97.5067481000442,1000,97.5067481000442,1000,1000,1000,1000,1,num_2,0.600045999744907,,30,5,2026-03-12_10h39.06.875,2026A_exp2,2022.2.4,59.945030393317886,
0,0,4.9,0.0,0,0,18,18,40,,,,,98.12199530005455,98.77265619998798,98.77265619998798,99.27387819997966,45,315,99.27387819997966,99.27387819997966,99.27387819997966,99.27387819997966,99.27387819997966,99.27387819997966,99.27387819997966,99.27387819997966,99.27387819997966,99.64019140019082,99.64019140019082,99.64019140019082,99.64019140019082,99.64019140019082,99.64019140019082,99.64019140019082,99.64019140019082,99.64019140019082,2,2,"[0.0012548998929560184, 0.06727860006503761]","[0.03377870004624128, 0.3674739000853151]",99.64019140019082,99.84054450015537,0.0,99.84054450015537,0,0.0,0,1,1000,num_1,0.7230612998828292,,30,5,2026-03-12_10h39.06.875,2026A_exp2,2022.2.4,59.945030393317886,
0,0,6.1,3.7,0,0,19,19,49,,,,,100.5911289001815,101.24174500000663,101.24174500000663,101.72816400020383,315,45,101.72816400020383,101.72816400020383,101.72816400020383,101.72816400020383,101.72816400020383,101.72816400020383,101.72816400020383,101.72816400020383,101.72816400020383,102.09449310018681,102.09449310018681,102.09449310018681,102.09449310018681,102.09449310018681,102.09449310018681,102.09449310018681,102.09449310018681,102.09449310018681,1,2,"[0.0009298000950366259, 0.2329266001470387]","[0.21770140016451478, 0.36754410015419126]",102.09449310018681,102.29422270017676,3.7,102.29422270017676,1,3.7,1,1,1000,num_4,0.8134411999490112,,30,5,2026-03-12_10h39.06.875,2026A_exp2,2022.2.4,59.945030393317886,
1000,1,6.1,4.9,0,0,20,20,51,,,,,103.12724720011465,,103.77845560014248,104.27989340014756,315,45,104.27989340014756,104.27989340014756,104.27989340014756,104.27989340014756,104.27989340014756,104.27989340014756,104.27989340014756,104.27989340014756,104.27989340014756,104.64672900014557,104.64672900014557,104.64672900014557,104.64672900014557,104.64672900014557,104.64672900014557,104.64672900014557,104.64672900014557,104.64672900014557,0,1,[0.0010601000394672155],[0.36689220019616187],104.64672900014557,,1000,104.86221000016667,1000,1000,1000,1000,0,num_3,1.0371574996970594,,30,5,2026-03-12_10h39.06.875,2026A_exp2,2022.2.4,59.945030393317886,
1,0,0.0,4.9,1,0,21,21,54,,,,,105.92979840002954,106.58009040006436,106.58009040006436,107.06463230005465,45,315,107.06463230005465,107.06463230005465,107.06463230005465,107.06463230005465,107.06463230005465,107.06463230005465,107.06463230005465,107.06463230005465,107.06463230005465,107.43141640000977,107.43141640000977,107.43141640000977,107.43141640000977,107.43141640000977,107.43141640000977,107.43141640000977,107.43141640000977,107.43141640000977,0,1,[0.0007528997957706451],[0.36904209991917014],107.43141640000977,107.6313952000346,4.9,107.6313952000346,1,4.9,1,1,1000,num_4,0.7078978999052197,,30,5,2026-03-12_10h39.06.875,2026A_exp2,2022.2.4,59.945030393317886,
1000,1,0.0,0.0,1,0,22,22,29,,,,,108.36540060001425,108.99944420019165,108.99944420019165,109.50082210008986,45,45,109.50082210008986,109.50082210008986,109.50082210008986,109.50082210008986,109.50082210008986,109.50082210008986,109.50082210008986,109.50082210008986,109.50082210008986,109.8672768000979,109.8672768000979,109.8672768000979,109.8672768000979,109.8672768000979,109.8672768000979,109.8672768000979,109.8672768000979,109.8672768000979,0,1,[0.001083299983292818],[0.3673206998500973],109.8672768000979,110.06970130000263,1000,110.06970130000263,1000,1000,1000,1000,1,num_2,0.6863019000738859,,30,5,2026-03-12_10h39.06.875,2026A_exp2,2022.2.4,59.945030393317886,
1000,1,0.0,3.7,0,0,23,23,76,,,,,110.78459280007519,111.4351459001191,111.4351459001191,111.93634140002541,45,315,111.93634140002541,111.93634140002541,111.93634140002541,111.93634140002541,111.93634140002541,111.93634140002541,111.93634140002541,111.93634140002541,111.93634140002541,112.3028832001146,112.3028832001146,112.3028832001146,112.3028832001146,112.3028832001146,112.3028832001146,112.3028832001146,112.3028832001146,112.3028832001146,10,2,"[0.0335033000446856, 0.2670909999869764]","[0.15027439990080893, 0.3672517000231892]",112.3028832001146,112.50548960012384,1000,112.50548960012384,1000,1000,1000,1000,1,num_2,0.8907701999414712,,30,5,2026-03-12_10h39.06.875,2026A_exp2,2022.2.4,59.945030393317886,
1000,1,6.1,6.1,1,0,24,24,22,,,,,113.42081470019184,114.07136670011096,114.07136670011096,114.57248750003055,315,45,114.57248750003055,114.57248750003055,114.57248750003055,114.57248750003055,114.57248750003055,114.57248750003055,114.57248750003055,114.57248750003055,114.57248750003055,114.92215030011721,114.92215030011721,114.92215030011721,114.92215030011721,114.92215030011721,114.92215030011721,114.92215030011721,114.92215030011721,114.92215030011721,2,1,[0.03347939997911453],[0.35044339997693896],114.92215030011721,115.12493859999813,1000,115.12493859999813,1000,1000,1000,1000,1,num_2,1.0783404000103474,,30,5,2026-03-12_10h39.06.875,2026A_exp2,2022.2.4,59.945030393317886,
1,0,6.1,6.1,1,0,25,25,47,,,,,116.22334200004116,116.8737706001848,116.8737706001848,117.37486880016513,315,315,117.37486880016513,117.37486880016513,117.37486880016513,117.37486880016513,117.37486880016513,117.37486880016513,117.37486880016513,117.37486880016513,117.37486880016513,117.74120689998381,117.74120689998381,117.74120689998381,117.74120689998381,117.74120689998381,117.74120689998381,117.74120689998381,117.74120689998381,117.74120689998381,1,2,"[0.0007457002066075802, 0.21779280016198754]","[0.20069349999539554, 0.36734140012413263]",117.74120689998381,117.94164770003408,6.1,117.94164770003408,1,6.1,1,1,1000,num_4,0.8939302999060601,,30,5,2026-03-12_10h39.06.875,2026A_exp2,2022.2.4,59.945030393317886,
1,0,0.0,6.1,1,0,26,26,19,,,,,118.85913760005496,119.49345260020345,119.49345260020345,119.99455870012753,315,315,119.99455870012753,119.99455870012753,119.99455870012753,119.99455870012753,119.99455870012753,119.99455870012753,119.99455870012753,119.99455870012753,119.99455870012753,120.36080820020288,120.36080820020288,120.36080820020288,120.36080820020288,120.36080820020288,120.36080820020288,120.36080820020288,120.36080820020288,120.36080820020288,0,1,[0.0013145999982953072],[0.36708980007097125],120.36080820020288,120.56120840017684,6.1,120.56120840017684,1,6.1,1,1,1000,num_4,0.4503549998626113,,30,5,2026-03-12_10h39.06.875,2026A_exp2,2022.2.4,59.945030393317886,
1,0,3.7,0.0,0,0,27,27,10,,,,,121.0281541000586,121.67889229999855,121.67889229999855,122.1798998999875,315,45,122.1798998999875,122.1798998999875,122.1798998999875,122.1798998999875,122.1798998999875,122.1798998999875,122.1798998999875,122.1798998999875,122.1798998999875,122.52982070017606,122.52982070017606,122.52982070017606,122.52982070017606,122.52982070017606,122.52982070017606,122.52982070017606,122.52982070017606,122.52982070017606,16,2,"[0.001056400127708912, 0.26716469996608794]","[0.08316100016236305, 0.28393450006842613]",122.52982070017606,122.73007709998637,3.7,122.74675990012474,1,3.7,1,1,1000,num_4,0.9521714998409152,,30,5,2026-03-12_10h39.06.875,2026A_exp2,2022.2.4,59.945030393317886,
1000,1,0.0,0.0,1,0,28,28,56,,,,,123.73121000011452,124.38135170005262,124.38135170005262,124.86602440010756,315,45,124.86602440010756,124.86602440010756,124.86602440010756,124.86602440010756,124.86602440010756,124.86602440010756,124.86602440010756,124.86602440010756,124.86602440010756,125.23283220012672,125.23283220012672,125.23283220012672,125.23283220012672,125.23283220012672,125.23283220012672,125.23283220012672,125.23283220012672,125.23283220012672,0,1,[0.0012378999963402748],[0.36813560011796653],125.23283220012672,125.4341464000754,1000,125.4341464000754,1000,1000,1000,1000,1,num_2,0.6569713000208139,,30,5,2026-03-12_10h39.06.875,2026A_exp2,2022.2.4,59.945030393317886,
1,0,3.7,6.1,1,0,29,29,68,,,,,126.11790510010906,126.76730780000798,126.76730780000798,127.2683197001461,45,315,127.2683197001461,127.2683197001461,127.2683197001461,127.2683197001461,127.2683197001461,127.2683197001461,127.2683197001461,127.2683197001461,127.2683197001461,127.63474220014177,127.63474220014177,127.63474220014177,127.63474220014177,127.63474220014177,127.63474220014177,127.63474220014177,127.63474220014177,127.63474220014177,0,1,[0.0008064999710768461],[0.367094999877736],127.63474220014177,127.83621290000156,6.1,127.83621290000156,1,6.1,1,1,1000,num_4,0.40742849977687,,30,5,2026-03-12_10h39.06.875,2026A_exp2,2022.2.4,59.945030393317886,
1000,1,0.0,0.0,0,0,30,30,57,,,,,128.26890330016613,128.919511300046,128.919511300046,129.4202011001762,315,315,129.4202011001762,129.4202011001762,129.4202011001762,129.4202011001762,129.4202011001762,129.4202011001762,129.4202011001762,129.4202011001762,129.4202011001762,129.7701748001855,129.7701748001855,129.7701748001855,129.7701748001855,129.7701748001855,129.7701748001855,129.7701748001855,129.7701748001855,129.7701748001855,0,1,[0.0007633999921381474],[0.35173760005272925],129.7701748001855,129.97025100002065,1000,129.97025100002065,1000,1000,1000,1000,1,num_2,0.6252578999847174,,30,5,2026-03-12_10h39.06.875,2026A_exp2,2022.2.4,59.945030393317886,
0,0,0.0,0.0,1,0,31,31,44,,,,,130.6210688999854,131.27186800003983,131.27186800003983,131.75644100015052,45,45,131.75644100015052,131.75644100015052,131.75644100015052,131.75644100015052,131.75644100015052,131.75644100015052,131.75644100015052,131.75644100015052,131.75644100015052,132.12231740006246,132.12231740006246,132.12231740006246,132.12231740006246,132.12231740006246,132.12231740006246,132.12231740006246,132.12231740006246,132.12231740006246,2,2,"[0.0009234000463038683, 0.15230330009944737]","[0.11905830004252493, 0.36715830001048744]",132.12231740006246,132.32248390000314,0.0,132.32248390000314,0,0.0,0,1,1000,num_1,0.3689749001059681,,30,5,2026-03-12_10h39.06.875,2026A_exp2,2022.2.4,59.945030393317886,
0,0,0.0,0.0,0,0,32,32,15,,,,,132.7241833000444,133.37384910020046,133.37384910020046,133.85827399999835,315,315,133.85827399999835,133.85827399999835,133.85827399999835,133.85827399999835,133.85827399999835,133.85827399999835,133.85827399999835,133.85827399999835,133.85827399999835,134.24148309999146,134.24148309999146,134.24148309999146,134.24148309999146,134.24148309999146,134.24148309999146,134.24148309999146,134.24148309999146,134.24148309999146,0,1,[0.0008277001325041056],[0.3822918999940157],134.24148309999146,134.44137300015427,0.0,134.44137300015427,0,0.0,0,1,1000,num_1,0.37848189985379577,,30,5,2026-03-12_10h39.06.875,2026A_exp2,2022.2.4,59.945030393317886,
1000,1,0.0,0.0,0,0,33,33,64,,,,,134.84226740011945,135.49304069997743,135.49304069997743,135.9770347001031,45,45,135.9770347001031,135.9770347001031,135.9770347001031,135.9770347001031,135.9770347001031,135.9770347001031,135.9770347001031,135.9770347001031,135.9770347001031,136.34333230019547,136.34333230019547,136.34333230019547,136.34333230019547,136.34333230019547,136.34333230019547,136.34333230019547,136.34333230019547,136.34333230019547,0,1,[0.0007444999646395445],[0.36675170017406344],136.34333230019547,136.54356630006805,1000,136.54356630006805,1000,1000,1000,1000,0,num_3,1.1719553996808827,,30,5,2026-03-12_10h39.06.875,2026A_exp2,2022.2.4,59.945030393317886,
1,0,0.0,0.0,1,0,34,34,6,,,,,137.74495860002935,138.39528060005978,138.39528060005978,138.89663980016485,45,315,138.89663980016485,138.89663980016485,138.89663980016485,138.89663980016485,138.89663980016485,138.89663980016485,138.89663980016485,138.89663980016485,138.89663980016485,139.26278990018182,139.26278990018182,139.26278990018182,139.26278990018182,139.26278990018182,139.26278990018182,139.26278990018182,139.26278990018182,139.26278990018182,1,2,"[0.000937500037252903, 0.20112799992784858]","[0.1835473000537604, 0.36717300000600517]",139.26278990018182,139.46303600003012,0.0,139.46303600003012,0,0.0,0,1,1000,num_1,0.6042443998157978,,30,5,2026-03-12_10h39.06.875,2026A_exp2,2022.2.4,59.945030393317886,
1,0,0.0,6.1,1,0,35,35,46,,,,,140.0973303001374,140.74806820019148,140.74806820019148,141.23253460018896,45,315,141.23253460018896,141.23253460018896,141.23253460018896,141.23253460018896,141.23253460018896,141.23253460018896,141.23253460018896,141.23253460018896,141.23253460018896,141.59893300011754,141.59893300011754,141.59893300011754,141.59893300011754,141.59893300011754,141.59893300011754,141.59893300011754,141.59893300011754,141.59893300011754,0,1,[0.0013226999435573816],[0.3664829998742789],141.59893300011754,141.79909680015408,6.1,141.79909680015408,1,6.1,1,1,1000,num_4,0.7092838997486979,,30,5,2026-03-12_10h39.06.875,2026A_exp2,2022.2.4,59.945030393317886,
1000,1,0.0,0.0,1,0,36,36,2,,,,,142.5332544001285,143.1671916001942,143.1671916001942,143.66818700009026,45,45,143.66818700009026,143.66818700009026,143.66818700009026,143.66818700009026,143.66818700009026,143.66818700009026,143.66818700009026,143.66818700009026,143.66818700009026,144.03464520000853,144.03464520000853,144.03464520000853,144.03464520000853,144.03464520000853,144.03464520000853,144.03464520000853,144.03464520000853,144.03464520000853,5,1,[0.0016544000245630741],[0.3002239998895675],144.03464520000853,144.2368646999821,1000,144.2368646999821,1000,1000,1000,1000,1,num_2,0.9985263999551535,,30,5,2026-03-12_10h39.06.875,2026A_exp2,2022.2.4,59.945030393317886,
1000,1,4.9,3.7,1,0,37,37,78,,,,,145.25271390005946,145.90317680011503,145.90317680011503,146.38751989998855,45,315,146.38751989998855,146.38751989998855,146.38751989998855,146.38751989998855,146.38751989998855,146.38751989998855,146.38751989998855,146.38751989998855,146.38751989998855,146.75398280005902,146.75398280005902,146.75398280005902,146.75398280005902,146.75398280005902,146.75398280005902,146.75398280005902,146.75398280005902,146.75398280005902,1,2,"[0.0012336999643594027, 0.18365779984742403]","[0.16712090000510216, 0.36708880006335676]",146.75398280005902,146.9542735000141,1000,146.9542735000141,1000,1000,1000,1000,0,num_3,0.9929621999617666,,30,5,2026-03-12_10h39.06.875,2026A_exp2,2022.2.4,59.945030393317886,
1000,1,0.0,0.0,0,0,38,38,65,,,,,147.97171339998022,148.6226319000125,148.6226319000125,149.1071295000147,315,315,149.1071295000147,149.1071295000147,149.1071295000147,149.1071295000147,149.1071295000147,149.1071295000147,149.1071295000147,149.1071295000147,149.1071295000147,149.47325280006044,149.47325280006044,149.47325280006044,149.47325280006044,149.47325280006044,149.47325280006044,149.47325280006044,149.47325280006044,149.47325280006044,0,1,[0.0007626998703926802],[0.3676539999432862],149.47325280006044,149.6737270001322,1000,149.6737270001322,1000,1000,1000,1000,1,num_2,0.7131872999016196,,30,5,2026-03-12_10h39.06.875,2026A_exp2,2022.2.4,59.945030393317886,
1000,1,0.0,0.0,0,0,39,39,7,,,,,150.40751390019432,151.0583449001424,151.0583449001424,151.54283410008065,315,315,151.54283410008065,151.54283410008065,151.54283410008065,151.54283410008065,151.54283410008065,151.54283410008065,151.54283410008065,151.54283410008065,151.54283410008065,151.90931740007363,151.90931740007363,151.90931740007363,151.90931740007363,151.90931740007363,151.90931740007363,151.90931740007363,151.90931740007363,151.90931740007363,0,1,[0.0012267001438885927],[0.3672248001676053],151.90931740007363,152.11091970000416,1000,152.11091970000416,1000,1000,1000,1000,1,num_2,0.628157600061968,,30,5,2026-03-12_10h39.06.875,2026A_exp2,2022.2.4,59.945030393317886,
1000,1,4.9,0.0,1,0,40,40,48,,,,,152.75996390008368,153.41030360013247,153.41030360013247,153.9119423001539,315,315,153.9119423001539,153.9119423001539,153.9119423001539,153.9119423001539,153.9119423001539,153.9119423001539,153.9119423001539,153.9119423001539,153.9119423001539,154.2782876000274,154.2782876000274,154.2782876000274,154.2782876000274,154.2782876000274,154.2782876000274,154.2782876000274,154.2782876000274,154.2782876000274,22,1,[0.1335026000160724],[0.1501561999320984],154.2782876000274,154.47864680015482,1000,154.47864680015482,1000,1000,1000,1000,0,num_3,0.748662699945271,,30,5,2026-03-12_10h39.06.875,2026A_exp2,2022.2.4,59.945030393317886,
0,0,6.1,0.0,0,0,41,41,41,,,,,155.24572940007783,155.89650660008192,155.89650660008192,156.3976464001462,315,315,156.3976464001462,156.3976464001462,156.3976464001462,156.3976464001462,156.3976464001462,156.3976464001462,156.3976464001462,156.3976464001462,156.3976464001462,156.7636735001579,156.7636735001579,156.7636735001579,156.7636735001579,156.7636735001579,156.7636735001579,156.7636735001579,156.7636735001579,156.7636735001579,3,1,[0.0014085001312196255],[0.3331508000846952],156.7636735001579,156.96395240002312,0.0,156.96395240002312,0,0.0,0,1,1000,num_1,0.6628789999522269,,30,5,2026-03-12_10h39.06.875,2026A_exp2,2022.2.4,59.945030393317886,
1000,1,3.7,6.1,1,0,42,42,75,,,,,157.64823710010387,158.29859670018777,158.29859670018777,158.78369090007618,45,45,158.78369090007618,158.78369090007618,158.78369090007618,158.78369090007618,158.78369090007618,158.78369090007618,158.78369090007618,158.78369090007618,158.78369090007618,159.1495099000167,159.1495099000167,159.1495099000167,159.1495099000167,159.1495099000167,159.1495099000167,159.1495099000167,159.1495099000167,159.1495099000167,1,2,"[0.0010166000574827194, 0.23114489996805787]","[0.21416800003498793, 0.36424760008230805]",159.1495099000167,159.34997590002604,1000,159.34997590002604,1000,1000,1000,1000,1,num_2,0.685122599825263,,30,5,2026-03-12_10h39.06.875,2026A_exp2,2022.2.4,59.945030393317886,
1000,1,0.0,3.7,1,0,43,43,88,,,,,160.06728820013814,160.7177790000569,160.7177790000569,161.20260219997726,315,315,161.20260219997726,161.20260219997726,161.20260219997726,161.20260219997726,161.20260219997726,161.20260219997726,161.20260219997726,161.20260219997726,161.20260219997726,161.56860950007103,161.56860950007103,161.56860950007103,161.56860950007103,161.56860950007103,161.56860950007103,161.56860950007103,161.56860950007103,161.56860950007103,0,1,[0.0007712000515311956],[0.367118300171569],161.56860950007103,161.76914690015838,1000,161.76914690015838,1000,1000,1000,1000,1,num_2,0.6817375000100583,,30,5,2026-03-12_10h39.06.875,2026A_exp2,2022.2.4,59.945030393317886,
0,0,3.7,0.0,1,0,44,44,1,,,,,162.46973690018058,163.10341740003787,163.10341740003787,163.62132340017706,315,315,163.62132340017706,163.62132340017706,163.62132340017706,163.62132340017706,163.62132340017706,163.62132340017706,163.62132340017706,163.62132340017706,163.62132340017706,163.97088950010948,163.97088950010948,163.97088950010948,163.97088950010948,163.97088950010948,163.97088950010948,163.97088950010948,163.97088950010948,163.97088950010948,0,1,[0.0008251001127064228],[0.35060700005851686],163.97088950010948,164.17121880012564,3.7,164.17121880012564,1,3.7,1,1,1000,num_4,0.6244236999191344,,30,5,2026-03-12_10h39.06.875,2026A_exp2,2022.2.4,59.945030393317886,
1,0,6.1,0.0,1,0,45,45,17,,,,,164.82191320019774,165.45593290007673,165.45593290007673,165.95698480005376,315,315,165.95698480005376,165.95698480005376,165.95698480005376,165.95698480005376,165.95698480005376,165.95698480005376,165.95698480005376,165.95698480005376,165.95698480005376,166.32368340017274,166.32368340017274,166.32368340017274,166.32368340017274,166.32368340017274,166.32368340017274,166.32368340017274,166.32368340017274,166.32368340017274,3,1,[0.0007438999600708485],[0.33412869996391237],166.32368340017274,166.52346850000322,0.0,166.52346850000322,0,0.0,0,1,1000,num_1,1.1115590000990778,,30,5,2026-03-12_10h39.06.875,2026A_exp2,2022.2.4,59.945030393317886,
1000,1,6.1,0.0,0,0,46,46,27,,,,,167.65823160018772,168.30896310019307,168.30896310019307,168.79326850012876,45,45,168.79326850012876,168.79326850012876,168.79326850012876,168.79326850012876,168.79326850012876,168.79326850012876,168.79326850012876,168.79326850012876,168.79326850012876,169.1596605000086,169.1596605000086,169.1596605000086,169.1596605000086,169.1596605000086,169.1596605000086,169.1596605000086,169.1596605000086,169.1596605000086,1,2,"[0.0012263001408427954, 0.152190700173378]","[0.13531490019522607, 0.36756690009497106]",169.1596605000086,169.36186600010842,1000,169.36186600010842,1000,1000,1000,1000,0,num_3,0.6572143998928368,,30,5,2026-03-12_10h39.06.875,2026A_exp2,2022.2.4,59.945030393317886,
1,0,4.9,4.9,1,0,47,47,9,,,,,170.04390790010802,170.69452200015076,170.69452200015076,171.19581090006977,315,315,171.19581090006977,171.19581090006977,171.19581090006977,171.19581090006977,171.19581090006977,171.19581090006977,171.19581090006977,171.19581090006977,171.19581090006977,171.56202850001864,171.56202850001864,171.56202850001864,171.56202850001864,171.56202850001864,171.56202850001864,171.56202850001864,171.56202850001864,171.56202850001864,0,1,[0.0012397000100463629],[0.3673791999462992],171.56202850001864,171.76243760017678,4.9,171.76243760017678,1,4.9,1,1,1000,num_4,0.681459799874574,,30,5,2026-03-12_10h39.06.875,2026A_exp2,2022.2.4,59.945030393317886,
1,0,0.0,0.0,1,0,48,48,38,,,,,172.46293859998696,173.11374659999274,173.11374659999274,173.60339420009404,315,45,173.60339420009404,173.60339420009404,173.60339420009404,173.60339420009404,173.60339420009404,173.60339420009404,173.60339420009404,173.60339420009404,173.60339420009404,173.96450500003994,173.96450500003994,173.96450500003994,173.96450500003994,173.96450500003994,173.96450500003994,173.96450500003994,173.96450500003994,173.96450500003994,3,4,"[0.0016171000897884369, 0.14977410016581416, 0.24990719999186695, 0.29992580018006265]","[0.13297210005111992, 0.23312460002489388, 0.2833593999966979, 0.36664970009587705]",173.96450500003994,174.1647950001061,0.0,174.1647950001061,0,0.0,0,1,1000,num_1,0.7108040999155492,,30,5,2026-03-12_10h39.06.875,2026A_exp2,2022.2.4,59.945030393317886,
1000,1,3.7,0.0,0,0,49,49,86,,,,,174.8987519000657,175.5495345001109,175.5495345001109,176.03385340003297,315,45,176.03385340003297,176.03385340003297,176.03385340003297,176.03385340003297,176.03385340003297,176.03385340003297,176.03385340003297,176.03385340003297,176.03385340003297,176.40032640006393,176.40032640006393,176.40032640006393,176.40032640006393,176.40032640006393,176.40032640006393,176.40032640006393,176.40032640006393,176.40032640006393,21,1,[0.050297999987378716],[0.08354929997585714],176.40032640006393,176.60254790005274,1000,176.60254790005274,1000,1000,1000,1000,0,num_3,0.7362504997290671,,30,5,2026-03-12_10h39.06.875,2026A_exp2,2022.2.4,59.945030393317886,
1000,1,0.0,0.0,1,0,50,50,55,,,,,177.36774050001986,178.01837060018443,178.01837060018443,178.50529680005275,45,45,178.50529680005275,178.50529680005275,178.50529680005275,178.50529680005275,178.50529680005275,178.50529680005275,178.50529680005275,178.50529680005275,178.50529680005275,178.86980580003,178.86980580003,178.86980580003,178.86980580003,178.86980580003,178.86980580003,178.86980580003,178.86980580003,178.86980580003,1,2,"[0.0011693001724779606, 0.16543469997122884]","[0.14862460014410317, 0.36481190007179976]",178.86980580003,179.0722988001071,1000,179.0722988001071,1000,1000,1000,1000,1,num_2,0.8345348997972906,,30,5,2026-03-12_10h39.06.875,2026A_exp2,2022.2.4,59.945030393317886,
1000,1,0.0,6.1,1,0,51,51,74,,,,,179.93682840000838,180.57252060016617,180.57252060016617,181.07193710003048,45,45,181.07193710003048,181.07193710003048,181.07193710003048,181.07193710003048,181.07193710003048,181.07193710003048,181.07193710003048,181.07193710003048,181.07193710003048,181.4406006000936,181.4406006000936,181.4406006000936,181.4406006000936,181.4406006000936,181.4406006000936,181.4406006000936,181.4406006000936,181.4406006000936,1,2,"[0.0009192998986691236, 0.10120959999039769]","[0.0842917999252677, 0.36950699985027313]",181.4406006000936,181.65550580015406,1000,181.65550580015406,1000,1000,1000,1000,1,num_2,0.5717503998894244,,30,5,2026-03-12_10h39.06.875,2026A_exp2,2022.2.4,59.945030393317886,
1,0,4.9,0.0,1,0,52,52,34,,,,,182.25593480002135,182.9064412000589,182.9064412000589,183.39089400018565,45,315,183.39089400018565,183.39089400018565,183.39089400018565,183.39089400018565,183.39089400018565,183.39089400018565,183.39089400018565,183.39089400018565,183.39089400018565,183.75883950013667,183.75883950013667,183.75883950013667,183.75883950013667,183.75883950013667,183.75883950013667,183.75883950013667,183.75883950013667,183.75883950013667,6,1,[0.0007452999707311392],[0.28482390008866787],183.75883950013667,183.95811260002665,0.0,183.95811260002665,0,0.0,0,1,1000,num_1,1.0292946000117809,,30,5,2026-03-12_10h39.06.875,2026A_exp2,2022.2.4,59.945030393317886,
1,0,3.7,0.0,1,0,53,53,30,,,,,185.0092615999747,185.65972040011548,185.65972040011548,186.14584680018015,315,315,186.14584680018015,186.14584680018015,186.14584680018015,186.14584680018015,186.14584680018015,186.14584680018015,186.14584680018015,186.14584680018015,186.14584680018015,186.52716260007583,186.52716260007583,186.52716260007583,186.52716260007583,186.52716260007583,186.52716260007583,186.52716260007583,186.52716260007583,186.52716260007583,23,1,[0.0010824000928550959],[0.01782710012048483],186.52716260007583,186.7274096000474,0.0,186.7274096000474,0,0.0,0,1,1000,num_1,0.6675251997075975,,30,5,2026-03-12_10h39.06.875,2026A_exp2,2022.2.4,59.945030393317886,
1000,1,3.7,0.0,0,0,54,54,35,,,,,187.41120250010863,188.04505400010385,188.04505400010385,188.54705810011365,45,315,188.54705810011365,188.54705810011365,188.54705810011365,188.54705810011365,188.54705810011365,188.54705810011365,188.54705810011365,188.54705810011365,188.54705810011365,188.9133125001099,188.9133125001099,188.9133125001099,188.9133125001099,188.9133125001099,188.9133125001099,188.9133125001099,188.9133125001099,188.9133125001099,6,4,"[0.032948700012639165, 0.08280469989404082, 0.1831779999192804, 0.2516538000199944]","[0.049628800014033914, 0.1664940998889506, 0.23401499981991947, 0.3700041000265628]",188.9133125001099,189.1136748001445,1000,189.1136748001445,1000,1000,1000,1000,0,num_3,0.5538699999451637,,30,5,2026-03-12_10h39.06.875,2026A_exp2,2022.2.4,59.945030393317886,
1000,1,0.0,6.1,0,0,55,55,16,,,,,189.6809346000664,190.3310383001808,190.3310383001808,190.8324520001188,45,45,190.8324520001188,190.8324520001188,190.8324520001188,190.8324520001188,190.8324520001188,190.8324520001188,190.8324520001188,190.8324520001188,190.8324520001188,191.19983900012448,191.19983900012448,191.19983900012448,191.19983900012448,191.19983900012448,191.19983900012448,191.19983900012448,191.19983900012448,191.19983900012448,0,1,[0.0008040000684559345],[0.3688926000613719],191.19983900012448,191.40229970007204,1000,191.40229970007204,1000,1000,1000,1000,1,num_2,0.5132654998451471,,30,5,2026-03-12_10h39.06.875,2026A_exp2,2022.2.4,59.945030393317886,
1000,1,0.0,0.0,0,0,56,56,89,,,,,191.93242179998197,192.58316650008783,192.58316650008783,193.0847153000068,315,45,193.0847153000068,193.0847153000068,193.0847153000068,193.0847153000068,193.0847153000068,193.0847153000068,193.0847153000068,193.0847153000068,193.0847153000068,193.43442210019566,193.43442210019566,193.43442210019566,193.43442210019566,193.43442210019566,193.43442210019566,193.43442210019566,193.43442210019566,193.43442210019566,9,2,"[0.0007984000258147717, 0.2006202000193298]","[0.18389099999330938, 0.233811300015077]",193.43442210019566,193.63478359999135,1000,193.63478359999135,1000,1000,1000,1000,1,num_2,0.7608550998847932,,30,5,2026-03-12_10h39.06.875,2026A_exp2,2022.2.4,59.945030393317886,
1,0,0.0,4.9,0,0,57,57,14,,,,,194.4185252999887,195.06927290000021,195.06927290000021,195.57184690004215,45,315,195.57184690004215,195.57184690004215,195.57184690004215,195.57184690004215,195.57184690004215,195.57184690004215,195.57184690004215,195.57184690004215,195.57184690004215,195.92045340011828,195.92045340011828,195.92045340011828,195.92045340011828,195.92045340011828,195.92045340011828,195.92045340011828,195.92045340011828,195.92045340011828,20,1,[0.03314840001985431],[0.06681820005178452],195.92045340011828,196.12057960010134,0.0,196.12057960010134,0,0.0,0,1,1000,num_1,1.1945160999894142,,30,5,2026-03-12_10h39.06.875,2026A_exp2,2022.2.4,59.945030393317886,
1000,1,3.7,0.0,0,0,58,58,69,,,,,197.33835510001518,197.97218040004373,197.97218040004373,198.4730428000912,45,315,198.4730428000912,198.4730428000912,198.4730428000912,198.4730428000912,198.4730428000912,198.4730428000912,198.4730428000912,198.4730428000912,198.4730428000912,198.84057060000487,198.84057060000487,198.84057060000487,198.84057060000487,198.84057060000487,198.84057060000487,198.84057060000487,198.84057060000487,198.84057060000487,0,1,[0.0014163998421281576],[0.36778909992426634],198.84057060000487,199.03994310018606,1000,199.03994310018606,1000,1000,1000,1000,0,num_3,0.7953065999317914,,30,5,2026-03-12_10h39.06.875,2026A_exp2,2022.2.4,59.945030393317886,
1000,1,0.0,4.9,1,0,59,59,37,,,,,199.8572462000884,,200.50874750013463,200.99238660000265,45,315,200.99238660000265,200.99238660000265,200.99238660000265,200.99238660000265,200.99238660000265,200.99238660000265,200.99238660000265,200.99238660000265,200.99238660000265,201.35861320002005,201.35861320002005,201.35861320002005,201.35861320002005,201.35861320002005,201.35861320002005,201.35861320002005,201.35861320002005,201.35861320002005,23,0,,,201.35861320002005,201.5595873000566,1000,201.5761108000297,1000,1000,1000,1000,1,num_2,0.5552910999394953,,30,5,2026-03-12_10h39.06.875,2026A_exp2,2022.2.4,59.945030393317886,
1000,1,6.1,0.0,0,0,60,60,58,,,,,202.15973519999534,202.7948989002034,202.7948989002034,203.2945760001894,45,45,203.2945760001894,203.2945760001894,203.2945760001894,203.2945760001894,203.2945760001894,203.2945760001894,203.2945760001894,203.2945760001894,203.2945760001894,203.6610732001718,203.6610732001718,203.6610732001718,203.6610732001718,203.6610732001718,203.6610732001718,203.6610732001718,203.6610732001718,203.6610732001718,1,2,"[0.0007825000211596489, 0.36715349997393787]","[0.35042140004225075, 0.36715739988721907]",203.6610732001718,203.8618368001189,1000,203.8618368001189,1000,1000,1000,1000,0,num_3,0.540852899895981,,30,5,2026-03-12_10h39.06.875,2026A_exp2,2022.2.4,59.945030393317886,
1,0,0.0,0.0,1,0,61,61,83,,,,,204.4285697999876,205.06234579999,205.06234579999,205.58049149997532,315,45,205.58049149997532,205.58049149997532,205.58049149997532,205.58049149997532,205.58049149997532,205.58049149997532,205.58049149997532,205.58049149997532,205.58049149997532,205.93026740010828,205.93026740010828,205.93026740010828,205.93026740010828,205.93026740010828,205.93026740010828,205.93026740010828,205.93026740010828,205.93026740010828,6,2,"[0.0010233998764306307, 0.20004919986240566]","[0.18388159992173314, 0.2836323999799788]",205.93026740010828,206.13009520014748,0.0,206.13009520014748,0,0.0,0,1,1000,num_1,0.6174033998977393,,30,5,2026-03-12_10h39.06.875,2026A_exp2,2022.2.4,59.945030393317886,
1000,1,0.0,4.9,0,0,62,62,0,,,,,206.7641692000907,207.41482609999366,207.41482609999366,207.89967519999482,315,315,207.89967519999482,207.89967519999482,207.89967519999482,207.89967519999482,207.89967519999482,207.89967519999482,207.89967519999482,207.89967519999482,207.89967519999482,208.26580050005578,208.26580050005578,208.26580050005578,208.26580050005578,208.26580050005578,208.26580050005578,208.26580050005578,208.26580050005578,208.26580050005578,16,2,"[0.0009337000083178282, 0.16695869993418455]","[0.06719669979065657, 0.21715619997121394]",208.26580050005578,208.46671300008893,1000,208.46671300008893,1000,1000,1000,1000,1,num_2,0.4489263999275863,,30,5,2026-03-12_10h39.06.875,2026A_exp2,2022.2.4,59.945030393317886,
1000,1,0.0,0.0,0,0,63,63,72,,,,,208.93355740001425,209.58362070005387,209.58362070005387,210.0686352001503,45,45,210.0686352001503,210.0686352001503,210.0686352001503,210.0686352001503,210.0686352001503,210.0686352001503,210.0686352001503,210.0686352001503,210.0686352001503,210.4351982001681,210.4351982001681,210.4351982001681,210.4351982001681,210.4351982001681,210.4351982001681,210.4351982001681,210.4351982001681,210.4351982001681,1,2,"[0.0009436998516321182, 0.36794989998452365]","[0.3504993999376893, 0.36795379989780486]",210.4351982001681,210.636254100129,1000,210.636254100129,1000,1000,1000,1000,1,num_2,0.7509228999260813,,30,5,2026-03-12_10h39.06.875,2026A_exp2,2022.2.4,59.945030393317886,
1000,1,4.9,0.0,1,0,64,64,12,,,,,211.40300230006687,212.0528697001282,212.0528697001282,212.55401100008748,45,45,212.55401100008748,212.55401100008748,212.55401100008748,212.55401100008748,212.55401100008748,212.55401100008748,212.55401100008748,212.55401100008748,212.55401100008748,212.92001900007017,212.92001900007017,212.92001900007017,212.92001900007017,212.92001900007017,212.92001900007017,212.92001900007017,212.92001900007017,212.92001900007017,23,0,,,212.92001900007017,213.12084079999477,1000,213.12084079999477,1000,1000,1000,1000,0,num_3,0.7788732999470085,,30,5,2026-03-12_10h39.06.875,2026A_exp2,2022.2.4,59.945030393317886,
1000,1,6.1,4.9,0,0,65,65,81,,,,,213.92109480011277,214.57159389997832,214.57159389997832,215.05648670019582,45,315,215.05648670019582,215.05648670019582,215.05648670019582,215.05648670019582,215.05648670019582,215.05648670019582,215.05648670019582,215.05648670019582,215.05648670019582,215.42276850016788,215.42276850016788,215.42276850016788,215.42276850016788,215.42276850016788,215.42276850016788,215.42276850016788,215.42276850016788,215.42276850016788,0,1,[0.0008148001506924629],[0.3673153999261558],215.42276850016788,215.62312730005942,1000,215.62312730005942,1000,1000,1000,1000,1,num_2,0.5647231000475585,,30,5,2026-03-12_10h39.06.875,2026A_exp2,2022.2.4,59.945030393317886,
1000,1,0.0,6.1,0,0,66,66,20,,,,,216.20709739997983,216.8571526000742,216.8571526000742,217.341757300077,45,315,217.341757300077,217.341757300077,217.341757300077,217.341757300077,217.341757300077,217.341757300077,217.341757300077,217.341757300077,217.341757300077,217.70806860015728,217.70806860015728,217.70806860015728,217.70806860015728,217.70806860015728,217.70806860015728,217.70806860015728,217.70806860015728,217.70806860015728,5,3,"[0.0008030000608414412, 0.2338308000471443, 0.3006384999025613]","[0.21757919993251562, 0.28391520003788173, 0.3350000998470932]",217.70806860015728,217.90854590013623,1000,217.90854590013623,1000,1000,1000,1000,1,num_2,0.5589135999325663,,30,5,2026-03-12_10h39.06.875,2026A_exp2,2022.2.4,59.945030393317886,
1,0,0.0,0.0,0,0,67,67,80,,,,,218.4921719999984,219.14317980012856,219.14317980012856,219.62768970010802,45,45,219.62768970010802,219.62768970010802,219.62768970010802,219.62768970010802,219.62768970010802,219.62768970010802,219.62768970010802,219.62768970010802,219.62768970010802,219.99365489999764,219.99365489999764,219.99365489999764,219.99365489999764,219.99365489999764,219.99365489999764,219.99365489999764,219.99365489999764,219.99365489999764,1,2,"[0.0008191999513655901, 0.23366399994120002]","[0.21724459994584322, 0.3672070000320673]",219.99365489999764,220.19404700002633,0.0,220.19404700002633,0,0.0,0,1,1000,num_1,0.40095809986814857,,30,5,2026-03-12_10h39.06.875,2026A_exp2,2022.2.4,59.945030393317886,
1,0,0.0,0.0,1,0,68,68,33,,,,,220.61099560000002,221.2617216000799,221.2617216000799,221.74610210000537,45,45,221.74610210000537,221.74610210000537,221.74610210000537,221.74610210000537,221.74610210000537,221.74610210000537,221.74610210000537,221.74610210000537,221.74610210000537,222.11253340006806,222.11253340006806,222.11253340006806,222.11253340006806,222.11253340006806,222.11253340006806,222.11253340006806,222.11253340006806,222.11253340006806,6,4,"[0.05023230006918311, 0.21676369989290833, 0.2505022999830544, 0.2838935998734087]","[0.20023089996539056, 0.2338582999072969, 0.26710109994746745, 0.36727520008571446]",222.11253340006806,222.3132721001748,0.0,222.3132721001748,0,0.0,0,1,1000,num_1,0.3535438997205347,,30,5,2026-03-12_10h39.06.875,2026A_exp2,2022.2.4,59.945030393317886,
1000,1,4.9,0.0,0,0,69,69,50,,,,,222.69645859999582,223.33050879999064,223.33050879999064,223.83179680001922,45,45,223.83179680001922,223.83179680001922,223.83179680001922,223.83179680001922,223.83179680001922,223.83179680001922,223.83179680001922,223.83179680001922,223.83179680001922,224.19787969999015,224.19787969999015,224.19787969999015,224.19787969999015,224.19787969999015,224.19787969999015,224.19787969999015,224.19787969999015,224.19787969999015,8,5,"[0.0007446999661624432, 0.15011220006272197, 0.2004675001371652, 0.3001280000898987, 0.3671182000543922]","[0.11658470006659627, 0.183740200009197, 0.23371320008300245, 0.35029760003089905, 0.3671216000802815]",224.19787969999015,224.39841360016726,1000,224.39841360016726,1000,1000,1000,1000,0,num_3,0.5892057998571545,,30,5,2026-03-12_10h39.06.875,2026A_exp2,2022.2.4,59.945030393317886,
1000,1,6.1,0.0,1,0,70,70,79,,,,,225.01583090005443,225.66632440011017,225.66632440011017,226.15083960001357,45,315,226.15083960001357,226.15083960001357,226.15083960001357,226.15083960001357,226.15083960001357,226.15083960001357,226.15083960001357,226.15083960001357,226.15083960001357,226.51694010011852,226.51694010011852,226.51694010011852,226.51694010011852,226.51694010011852,226.51694010011852,226.51694010011852,226.51694010011852,226.51694010011852,0,1,[0.0009800998959690332],[0.3671068998519331],226.51694010011852,226.71771370014176,1000,226.71771370014176,1000,1000,1000,1000,0,num_3,0.5013259998522699,,30,5,2026-03-12_10h39.06.875,2026A_exp2,2022.2.4,59.945030393317886,
1,0,3.7,0.0,0,0,71,71,26,,,,,227.23452990013175,227.88519729999825,227.88519729999825,228.38632640009746,315,45,228.38632640009746,228.38632640009746,228.38632640009746,228.38632640009746,228.38632640009746,228.38632640009746,228.38632640009746,228.38632640009746,228.38632640009746,228.75254010013305,228.75254010013305,228.75254010013305,228.75254010013305,228.75254010013305,228.75254010013305,228.75254010013305,228.75254010013305,228.75254010013305,0,1,[0.0009220999199897051],[0.3669642999302596],228.75254010013305,228.95270630018786,3.7,228.95270630018786,1,3.7,1,1,1000,num_4,0.682536699809134,,30,5,2026-03-12_10h39.06.875,2026A_exp2,2022.2.4,59.945030393317886,
1,0,0.0,4.9,0,0,72,72,32,,,,,229.65358460019343,230.3040216001682,230.3040216001682,230.7883576999884,315,315,230.7883576999884,230.7883576999884,230.7883576999884,230.7883576999884,230.7883576999884,230.7883576999884,230.7883576999884,230.7883576999884,230.7883576999884,231.1548574999906,231.1548574999906,231.1548574999906,231.1548574999906,231.1548574999906,231.1548574999906,231.1548574999906,231.1548574999906,231.1548574999906,23,0,,,231.1548574999906,231.3551050000824,0.0,231.3551050000824,0,0.0,0,1,1000,num_1,0.7357742998283356,,30,5,2026-03-12_10h39.06.875,2026A_exp2,2022.2.4,59.945030393317886,
1,0,0.0,4.9,0,0,73,73,70,,,,,232.12262689997442,232.75630890019238,232.75630890019238,233.25774969998747,45,45,233.25774969998747,233.25774969998747,233.25774969998747,233.25774969998747,233.25774969998747,233.25774969998747,233.25774969998747,233.25774969998747,233.25774969998747,233.62402160000056,233.62402160000056,233.62402160000056,233.62402160000056,233.62402160000056,233.62402160000056,233.62402160000056,233.62402160000056,233.62402160000056,4,2,"[0.0007562998216599226, 0.30037389998324215]","[0.2836996999103576, 0.3339375997893512]",233.62402160000056,233.82418600004166,0.0,233.82418600004166,0,0.0,0,1,1000,num_1,0.6666555998381227,,30,5,2026-03-12_10h39.06.875,2026A_exp2,2022.2.4,59.945030393317886,
1000,1,4.9,3.7,0,0,74,74,28,,,,,234.50826450018212,235.14211860019714,235.14211860019714,235.64350660005584,315,45,235.64350660005584,235.64350660005584,235.64350660005584,235.64350660005584,235.64350660005584,235.64350660005584,235.64350660005584,235.64350660005584,235.64350660005584,236.00972510012798,236.00972510012798,236.00972510012798,236.00972510012798,236.00972510012798,236.00972510012798,236.00972510012798,236.00972510012798,236.00972510012798,2,3,"[0.0009033000096678734, 0.15009839995764196, 0.300899000139907]","[0.13340819999575615, 0.28412560001015663, 0.36699569993652403]",236.00972510012798,236.21048690006137,1000,236.21048690006137,1000,1000,1000,1000,0,num_3,0.6886297997552902,,30,5,2026-03-12_10h39.06.875,2026A_exp2,2022.2.4,59.945030393317886,
0,0,4.9,0.0,0,0,75,75,84,,,,,236.92740240017883,237.57790080015548,237.57790080015548,238.06237750011496,315,315,238.06237750011496,238.06237750011496,238.06237750011496,238.06237750011496,238.06237750011496,238.06237750011496,238.06237750011496,238.06237750011496,238.06237750011496,238.4287121000234,238.4287121000234,238.4287121000234,238.4287121000234,238.4287121000234,238.4287121000234,238.4287121000234,238.4287121000234,238.4287121000234,22,1,[0.21705430001020432],[0.23363819997757673],238.4287121000234,238.62919130013324,0.0,238.62919130013324,0,0.0,0,1,1000,num_1,0.6458203997462988,,30,5,2026-03-12_10h39.06.875,2026A_exp2,2022.2.4,59.945030393317886,
1000,1,0.0,0.0,1,0,76,76,3,,,,,239.29651430016384,239.94703420018777,239.94703420018777,240.43179240007885,45,45,240.43179240007885,240.43179240007885,240.43179240007885,240.43179240007885,240.43179240007885,240.43179240007885,240.43179240007885,240.43179240007885,240.43179240007885,240.7981451000087,240.7981451000087,240.7981451000087,240.7981451000087,240.7981451000087,240.7981451000087,240.7981451000087,240.7981451000087,240.7981451000087,0,1,[0.0007476999890059233],[0.36768729984760284],240.7981451000087,240.99831110006198,1000,240.99831110006198,1000,1000,1000,1000,1,num_2,0.8447067998349667,,30,5,2026-03-12_10h39.06.875,2026A_exp2,2022.2.4,59.945030393317886,
1,0,0.0,6.1,0,0,77,77,24,,,,,241.86565140006132,242.51629519998096,242.51629519998096,243.0176074001938,45,315,243.0176074001938,243.0176074001938,243.0176074001938,243.0176074001938,243.0176074001938,243.0176074001938,243.0176074001938,243.0176074001938,243.0176074001938,243.36698920000345,243.36698920000345,243.36698920000345,243.36698920000345,243.36698920000345,243.36698920000345,243.36698920000345,243.36698920000345,243.36698920000345,20,1,[0.2998422998934984],[0.3330442998558283],243.36698920000345,243.56736580003053,0.0,243.56736580003053,0,0.0,0,1,1000,num_1,0.6439368997234851,,30,5,2026-03-12_10h39.06.875,2026A_exp2,2022.2.4,59.945030393317886,
1000,1,6.1,3.7,1,0,78,78,11,,,,,244.23461470007896,244.86867480003275,244.86867480003275,245.3698066000361,45,315,245.3698066000361,245.3698066000361,245.3698066000361,245.3698066000361,245.3698066000361,245.3698066000361,245.3698066000361,245.3698066000361,245.3698066000361,245.736389500089,245.736389500089,245.736389500089,245.736389500089,245.736389500089,245.736389500089,245.736389500089,245.736389500089,245.736389500089,11,3,"[0.10020579979754984, 0.23387909983284771, 0.3004919998347759]","[0.21709199994802475, 0.2672197998035699, 0.350772799924016]",245.736389500089,245.93724030000158,1000,245.93724030000158,1000,1000,1000,1000,0,num_3,1.1062810998409986,,30,5,2026-03-12_10h39.06.875,2026A_exp2,2022.2.4,59.945030393317886,
1000,1,0.0,0.0,0,0,79,79,45,,,,,247.07118150009774,247.721496200189,247.721496200189,248.20579260005616,315,45,248.20579260005616,248.20579260005616,248.20579260005616,248.20579260005616,248.20579260005616,248.20579260005616,248.20579260005616,248.20579260005616,248.20579260005616,248.5722928000614,248.5722928000614,248.5722928000614,248.5722928000614,248.5722928000614,248.5722928000614,248.5722928000614,248.5722928000614,248.5722928000614,5,3,"[0.033392899902537465, 0.08434959989972413, 0.2003395000938326]","[0.06748580001294613, 0.18341939989477396, 0.36725550005212426]",248.5722928000614,248.77242680010386,1000,248.77242680010386,1000,1000,1000,1000,1,num_2,1.1186660998500884,,30,5,2026-03-12_10h39.06.875,2026A_exp2,2022.2.4,59.945030393317886,
1000,1,0.0,6.1,0,0,80,80,61,,,,,249.90718069998547,250.55767590017058,250.55767590017058,251.05882600019686,315,315,251.05882600019686,251.05882600019686,251.05882600019686,251.05882600019686,251.05882600019686,251.05882600019686,251.05882600019686,251.05882600019686,251.05882600019686,251.4085250000935,251.4085250000935,251.4085250000935,251.4085250000935,251.4085250000935,251.4085250000935,251.4085250000935,251.4085250000935,251.4085250000935,3,2,"[0.0008006000425666571, 0.28377599990926683]","[0.2672406998462975, 0.3337913998402655]",251.4085250000935,251.60911850002594,1000,251.60911850002594,1000,1000,1000,1000,1,num_2,0.5220391999464482,,30,5,2026-03-12_10h39.06.875,2026A_exp2,2022.2.4,59.945030393317886,
1000,1,0.0,6.1,1,0,81,81,13,,,,,252.15951190004125,252.8097265001852,252.8097265001852,253.31079880008474,45,45,253.31079880008474,253.31079880008474,253.31079880008474,253.31079880008474,253.31079880008474,253.31079880008474,253.31079880008474,253.31079880008474,253.31079880008474,253.66095000016503,253.66095000016503,253.66095000016503,253.66095000016503,253.66095000016503,253.66095000016503,253.66095000016503,253.66095000016503,253.66095000016503,21,1,[0.0009457000996917486],[0.017206500051543117],253.66095000016503,253.86103470018134,1000,253.86103470018134,1000,1000,1000,1000,1,num_2,0.5506033999845386,,30,5,2026-03-12_10h39.06.875,2026A_exp2,2022.2.4,59.945030393317886,
1,0,6.1,0.0,0,0,82,82,85,,,,,254.42840500012971,255.07878380012698,255.07878380012698,255.5633189000655,45,45,255.5633189000655,255.5633189000655,255.5633189000655,255.5633189000655,255.5633189000655,255.5633189000655,255.5633189000655,255.5633189000655,255.5633189000655,255.92965280008502,255.92965280008502,255.92965280008502,255.92965280008502,255.92965280008502,255.92965280008502,255.92965280008502,255.92965280008502,255.92965280008502,1,2,"[0.0010246001183986664, 0.10241089994087815]","[0.08321209996938705, 0.36683970014564693]",255.92965280008502,256.1300046001561,6.1,256.1300046001561,1,6.1,1,1,1000,num_4,1.0251358998939395,,30,5,2026-03-12_10h39.06.875,2026A_exp2,2022.2.4,59.945030393317886,
0,0,6.1,0.0,1,0,83,83,25,,,,,257.18105770018883,257.83255839999765,257.83255839999765,258.31603490002453,315,45,258.31603490002453,258.31603490002453,258.31603490002453,258.31603490002453,258.31603490002453,258.31603490002453,258.31603490002453,258.31603490002453,258.31603490002453,258.68242030008696,258.68242030008696,258.68242030008696,258.68242030008696,258.68242030008696,258.68242030008696,258.68242030008696,258.68242030008696,258.68242030008696,18,1,[0.0007864001672714949],[0.08405439998023212],258.68242030008696,258.8826413000934,6.1,258.8826413000934,1,6.1,1,1,1000,num_4,0.6970064998604357,,30,5,2026-03-12_10h39.06.875,2026A_exp2,2022.2.4,59.945030393317886,
1000,1,3.7,6.1,0,0,84,84,60,,,,,259.6005913000554,260.2509736001957,260.2509736001957,260.7352322000079,45,45,260.7352322000079,260.7352322000079,260.7352322000079,260.7352322000079,260.7352322000079,260.7352322000079,260.7352322000079,260.7352322000079,260.7352322000079,261.10149310017005,261.10149310017005,261.10149310017005,261.10149310017005,261.10149310017005,261.10149310017005,261.10149310017005,261.10149310017005,261.10149310017005,0,1,[0.0007509000133723021],[0.36815340002067387],261.10149310017005,261.30196870001964,1000,261.30196870001964,1000,1000,1000,1000,1,num_2,0.4457560000009835,,30,5,2026-03-12_10h39.06.875,2026A_exp2,2022.2.4,59.945030393317886,
1000,1,0.0,3.7,1,0,85,85,4,,,,,261.7690364001319,262.41972230002284,262.41972230002284,262.9209279001225,315,45,262.9209279001225,262.9209279001225,262.9209279001225,262.9209279001225,262.9209279001225,262.9209279001225,262.9209279001225,262.9209279001225,262.9209279001225,263.2707672000397,263.2707672000397,263.2707672000397,263.2707672000397,263.2707672000397,263.2707672000397,263.2707672000397,263.2707672000397,263.2707672000397,2,2,"[0.0009505001362413168, 0.15020340005867183]","[0.11697490001097322, 0.35037620016373694]",263.2707672000397,263.4707321000751,1000,263.4707321000751,1000,1000,1000,1000,1,num_2,0.4766594998072833,,30,5,2026-03-12_10h39.06.875,2026A_exp2,2022.2.4,59.945030393317886,
1000,1,0.0,3.7,0,0,86,86,43,,,,,263.9715138000902,264.6215300001204,264.6215300001204,265.1229620000813,45,315,265.1229620000813,265.1229620000813,265.1229620000813,265.1229620000813,265.1229620000813,265.1229620000813,265.1229620000813,265.1229620000813,265.1229620000813,265.4890028000809,265.4890028000809,265.4890028000809,265.4890028000809,265.4890028000809,265.4890028000809,265.4890028000809,265.4890028000809,265.4890028000809,19,3,"[0.017524899914860725, 0.1502354999538511, 0.250277099898085]","[0.03375189984217286, 0.18369299988262355, 0.2667759000323713]",265.4890028000809,265.68958190013655,1000,265.68958190013655,1000,1000,1000,1000,1,num_2,0.4902204000391066,,30,5,2026-03-12_10h39.06.875,2026A_exp2,2022.2.4,59.945030393317886,
1000,1,0.0,0.0,1,0,87,87,73,,,,,266.20678070001304,266.85731230000965,266.85731230000965,267.35820990009233,315,315,267.35820990009233,267.35820990009233,267.35820990009233,267.35820990009233,267.35820990009233,267.35820990009233,267.35820990009233,267.35820990009233,267.35820990009233,267.7081997001078,267.7081997001078,267.7081997001078,267.7081997001078,267.7081997001078,267.7081997001078,267.7081997001078,267.7081997001078,267.7081997001078,5,4,"[0.00078959995880723, 0.11736459983512759, 0.16755039989948273, 0.21776199992746115]","[0.10062029981054366, 0.1505741998553276, 0.20059649995528162, 0.3342759998049587]",267.7081997001078,267.9087020000443,1000,267.9087020000443,1000,1000,1000,1000,1,num_2,1.054972999729216,,30,5,2026-03-12_10h39.06.875,2026A_exp2,2022.2.4,59.945030393317886,
1000,1,0.0,4.9,0,0,88,88,8,,,,,268.9928325000219,269.64333110000007,269.64333110000007,270.12826790008694,45,45,270.12826790008694,270.12826790008694,270.12826790008694,270.12826790008694,270.12826790008694,270.12826790008694,270.12826790008694,270.12826790008694,270.12826790008694,270.4946278000716,270.4946278000716,270.4946278000716,270.4946278000716,270.4946278000716,270.4946278000716,270.4946278000716,270.4946278000716,270.4946278000716,23,0,,,270.4946278000716,270.6944719001185,1000,270.6944719001185,1000,1000,1000,1000,1,num_2,0.42868990008719265,,30,5,2026-03-12_10h39.06.875,2026A_exp2,2022.2.4,59.945030393317886,
1,0,0.0,0.0,1,0,89,89,31,,,,,271.1450076000765,271.7955258002039,271.7955258002039,272.2800275001209,45,315,272.2800275001209,272.2800275001209,272.2800275001209,272.2800275001209,272.2800275001209,272.2800275001209,272.2800275001209,272.2800275001209,272.2800275001209,272.6464236001484,272.6464236001484,272.6464236001484,272.6464236001484,272.6464236001484,272.6464236001484,272.6464236001484,272.6464236001484,272.6464236001484,10,3,"[0.0009336001239717007, 0.20064020017161965, 0.35078850015997887]","[0.1669628000818193, 0.2338497000746429, 0.36732119997031987]",272.6464236001484,272.8466946000699,0.0,272.8466946000699,0,0.0,0,1,1000,num_1,0.43697429983876646,,30,5,2026-03-12_10h39.06.875,2026A_exp2,2022.2.4,59.945030393317886,
,,,,,,,,,,,,,,,,,,,,,,,,,,,,,,,,,,,,,,,,,,,,,,,,,,,,273.3195863000583,,,,,,,
