validity,detectorcomp,contrastCW,contrastCCW,precueCWorCCW,block_80trials.thisRepN,block_80trials.thisTrialN,block_80trials.thisN,block_80trials.thisIndex,etRecord.started,etRecord.stopped,text.started,text.stopped,text_4.started,text_4.stopped,text_6.started,text_6.stopped,oriCW,oriCCW,roi_2.started,grating_UR.started,grating_UL.started,grating_LR.started,grating_LL.started,noise_UR.started,noise_UL.started,noise_LR.started,noise_LL.started,roi_2.stopped,grating_UR.stopped,grating_UL.stopped,grating_LR.stopped,grating_LL.stopped,noise_UR.stopped,noise_UL.stopped,noise_LR.stopped,noise_LL.stopped,outframe,roi_2.numLooks,roi_2.timesOn,roi_2.timesOff,text_2.started,text_2.stopped,probedcontrast,key_resp.started,respdetect,relevantContrast,correctDetect,TorFdetect,respCWorCCW,key_resp.keys,key_resp.rt,feedback_display_.started,participantNo,blockNo,date,expName,psychopyVersion,frameRate,
1000,1,4.9,3.7,0,0,0,0,40,3.279978409409523e-05,3.279978409409523e-05,55.07087659998797,57.076581300003454,57.076581300003454,57.70818810001947,57.70818810001947,58.23650239990093,45,45,58.23650239990093,58.23650239990093,58.23650239990093,58.23650239990093,58.23650239990093,58.23650239990093,58.23650239990093,58.23650239990093,58.23650239990093,58.5757583999075,58.5757583999075,58.5757583999075,58.5757583999075,58.5757583999075,58.5757583999075,58.5757583999075,58.5757583999075,58.5757583999075,0,1,[0.0017347000539302826],[0.3671617000363767],58.5757583999075,58.78347679995932,1000,58.78347679995932,1000,1000,1000,1000,0,num_3,0.5844401000067592,,31,12,2026-03-12_14h22.19.753,2026A_exp2,2022.2.4,59.96167248632054,
1,0,6.1,4.9,1,0,1,1,11,,,,,59.393488300032914,60.043993999948725,60.043993999948725,60.54522860003635,45,45,60.54522860003635,60.54522860003635,60.54522860003635,60.54522860003635,60.54522860003635,60.54522860003635,60.54522860003635,60.54522860003635,60.54522860003635,60.91142789996229,60.91142789996229,60.91142789996229,60.91142789996229,60.91142789996229,60.91142789996229,60.91142789996229,60.91142789996229,60.91142789996229,0,1,[0.0010511998552829027],[0.3672964998986572],60.91142789996229,61.11186269996688,4.9,61.11186269996688,1,4.9,1,1,1000,num_4,0.6720333001576364,,31,12,2026-03-12_14h22.19.753,2026A_exp2,2022.2.4,59.96167248632054,
1000,1,6.1,0.0,1,0,2,2,57,,,,,61.81241720006801,62.446333499858156,62.446333499858156,62.9476228998974,315,45,62.9476228998974,62.9476228998974,62.9476228998974,62.9476228998974,62.9476228998974,62.9476228998974,62.9476228998974,62.9476228998974,62.9476228998974,63.314027399988845,63.314027399988845,63.314027399988845,63.314027399988845,63.314027399988845,63.314027399988845,63.314027399988845,63.314027399988845,63.314027399988845,0,1,[0.0012688001152127981],[0.36704930011183023],63.314027399988845,63.515919799916446,1000,63.515919799916446,1000,1000,1000,1000,0,num_3,0.45169649994932115,,31,12,2026-03-12_14h22.19.753,2026A_exp2,2022.2.4,59.96167248632054,
1000,1,0.0,0.0,0,0,3,3,7,,,,,63.998080200050026,64.64859810005873,64.64859810005873,65.14971999987029,45,45,65.14971999987029,65.14971999987029,65.14971999987029,65.14971999987029,65.14971999987029,65.14971999987029,65.14971999987029,65.14971999987029,65.14971999987029,65.51620860002004,65.51620860002004,65.51620860002004,65.51620860002004,65.51620860002004,65.51620860002004,65.51620860002004,65.51620860002004,65.51620860002004,0,1,[0.0012596999295055866],[0.3672442000824958],65.51620860002004,65.71850459999405,1000,65.71850459999405,1000,1000,1000,1000,0,num_3,0.6095839000772685,,31,12,2026-03-12_14h22.19.753,2026A_exp2,2022.2.4,59.96167248632054,
1000,1,0.0,3.7,1,0,4,4,84,,,,,66.3505515998695,67.0011040000245,67.0011040000245,67.50220089987852,315,315,67.50220089987852,67.50220089987852,67.50220089987852,67.50220089987852,67.50220089987852,67.50220089987852,67.50220089987852,67.50220089987852,67.50220089987852,67.8518809999805,67.8518809999805,67.8518809999805,67.8518809999805,67.8518809999805,67.8518809999805,67.8518809999805,67.8518809999805,67.8518809999805,0,1,[0.0012335998471826315],[0.35046679992228746],67.8518809999805,68.05406889994629,1000,68.05406889994629,1000,1000,1000,1000,1,num_2,0.4416695998515934,,31,12,2026-03-12_14h22.19.753,2026A_exp2,2022.2.4,59.96167248632054,
1,0,0.0,3.7,1,0,5,5,35,,,,,68.51932749990374,69.16997230006382,69.16997230006382,69.67095929989591,315,45,69.67095929989591,69.67095929989591,69.67095929989591,69.67095929989591,69.67095929989591,69.67095929989591,69.67095929989591,69.67095929989591,69.67095929989591,70.03728489996865,70.03728489996865,70.03728489996865,70.03728489996865,70.03728489996865,70.03728489996865,70.03728489996865,70.03728489996865,70.03728489996865,0,1,[0.0012019001878798008],[0.36725530005060136],70.03728489996865,70.23760310001671,3.7,70.23760310001671,1,3.7,1,1,1000,num_4,0.7232584999874234,,31,12,2026-03-12_14h22.19.753,2026A_exp2,2022.2.4,59.96167248632054,
1,0,4.9,3.7,1,0,6,6,27,,,,,70.9882118999958,71.63897540001199,71.63897540001199,72.12345189996995,45,45,72.12345189996995,72.12345189996995,72.12345189996995,72.12345189996995,72.12345189996995,72.12345189996995,72.12345189996995,72.12345189996995,72.12345189996995,72.48988589993678,72.48988589993678,72.48988589993678,72.48988589993678,72.48988589993678,72.48988589993678,72.48988589993678,72.48988589993678,72.48988589993678,0,1,[0.001191300107166171],[0.3673407998867333],72.48988589993678,72.68998540006578,3.7,72.68998540006578,0,3.7,1,0,1000,num_1,0.5025702000129968,,31,12,2026-03-12_14h22.19.753,2026A_exp2,2022.2.4,59.96167248632054,
0,0,0.0,0.0,1,0,7,7,2,,,,,73.22390159987845,73.85785529995337,73.85785529995337,74.35889859986492,315,315,74.35889859986492,74.35889859986492,74.35889859986492,74.35889859986492,74.35889859986492,74.35889859986492,74.35889859986492,74.35889859986492,74.35889859986492,74.72536789998412,74.72536789998412,74.72536789998412,74.72536789998412,74.72536789998412,74.72536789998412,74.72536789998412,74.72536789998412,74.72536789998412,7,1,[0.0010704000014811754],[0.26696999999694526],74.72536789998412,74.92546819988638,0.0,74.92546819988638,0,0.0,0,1,1000,num_1,0.9541358000133187,,31,12,2026-03-12_14h22.19.753,2026A_exp2,2022.2.4,59.96167248632054,
1000,1,3.7,0.0,0,0,8,8,76,,,,,75.90974889998324,76.56050650007091,76.56050650007091,77.04504980007187,45,315,77.04504980007187,77.04504980007187,77.04504980007187,77.04504980007187,77.04504980007187,77.04504980007187,77.04504980007187,77.04504980007187,77.04504980007187,77.41145329992287,77.41145329992287,77.41145329992287,77.41145329992287,77.41145329992287,77.41145329992287,77.41145329992287,77.41145329992287,77.41145329992287,0,1,[0.0012322000693529844],[0.36725590005517006],77.41145329992287,77.61174990003929,1000,77.61174990003929,1000,1000,1000,1000,0,num_3,0.5564778000116348,,31,12,2026-03-12_14h22.19.753,2026A_exp2,2022.2.4,59.96167248632054,
1000,1,3.7,6.1,1,0,9,9,48,,,,,78.19539749994874,78.84610249986872,78.84610249986872,79.34721640008502,315,45,79.34721640008502,79.34721640008502,79.34721640008502,79.34721640008502,79.34721640008502,79.34721640008502,79.34721640008502,79.34721640008502,79.34721640008502,79.69724739994854,79.69724739994854,79.69724739994854,79.69724739994854,79.69724739994854,79.69724739994854,79.69724739994854,79.69724739994854,79.69724739994854,0,1,[0.0012387000024318695],[0.3499334000516683],79.69724739994854,79.92157820006832,1000,79.92157820006832,1000,1000,1000,1000,1,num_2,0.49486740003339946,,31,12,2026-03-12_14h22.19.753,2026A_exp2,2022.2.4,59.96167248632054,
1000,1,0.0,4.9,0,0,10,10,61,,,,,80.4474500999786,81.08312009996735,81.08312009996735,81.58269100007601,315,45,81.58269100007601,81.58269100007601,81.58269100007601,81.58269100007601,81.58269100007601,81.58269100007601,81.58269100007601,81.58269100007601,81.58269100007601,81.94900180003606,81.94900180003606,81.94900180003606,81.94900180003606,81.94900180003606,81.94900180003606,81.94900180003606,81.94900180003606,81.94900180003606,0,1,[0.000761799979954958],[0.36696340003982186],81.94900180003606,82.14941409998573,1000,82.14941409998573,1000,1000,1000,1000,1,num_2,0.4993253001011908,,31,12,2026-03-12_14h22.19.753,2026A_exp2,2022.2.4,59.96167248632054,
1000,1,0.0,0.0,1,0,11,11,9,,,,,82.6667042998597,83.31721169990487,83.31721169990487,83.81830030004494,315,315,83.81830030004494,83.81830030004494,83.81830030004494,83.81830030004494,83.81830030004494,83.81830030004494,83.81830030004494,83.81830030004494,83.81830030004494,84.18490749993362,84.18490749993362,84.18490749993362,84.18490749993362,84.18490749993362,84.18490749993362,84.18490749993362,84.18490749993362,84.18490749993362,16,1,[0.0012777999509125948],[0.11706570000387728],84.18490749993362,84.38763969996944,1000,84.38763969996944,1000,1000,1000,1000,0,num_3,0.916098800022155,,31,12,2026-03-12_14h22.19.753,2026A_exp2,2022.2.4,59.96167248632054,
1,0,6.1,0.0,1,0,12,12,70,,,,,85.31928059994243,85.96996039990336,85.96996039990336,86.47108909999952,315,315,86.47108909999952,86.47108909999952,86.47108909999952,86.47108909999952,86.47108909999952,86.47108909999952,86.47108909999952,86.47108909999952,86.47108909999952,86.83753559994511,86.83753559994511,86.83753559994511,86.83753559994511,86.83753559994511,86.83753559994511,86.83753559994511,86.83753559994511,86.83753559994511,0,1,[0.0012137999292463064],[0.3674200000241399],86.83753559994511,87.03757859999314,0.0,87.03757859999314,0,0.0,0,1,1000,num_1,0.8741422998718917,,31,12,2026-03-12_14h22.19.753,2026A_exp2,2022.2.4,59.96167248632054,
1000,1,3.7,3.7,0,0,13,13,72,,,,,87.93837479990907,88.57263879990205,88.57263879990205,89.08998370007612,315,45,89.08998370007612,89.08998370007612,89.08998370007612,89.08998370007612,89.08998370007612,89.08998370007612,89.08998370007612,89.08998370007612,89.08998370007612,89.4402447999455,89.4402447999455,89.4402447999455,89.4402447999455,89.4402447999455,89.4402447999455,89.4402447999455,89.4402447999455,89.4402447999455,0,1,[0.004417399875819683],[0.36551169981248677],89.4402447999455,89.64459499996156,1000,89.64459499996156,1000,1000,1000,1000,0,num_3,0.4912248000036925,,31,12,2026-03-12_14h22.19.753,2026A_exp2,2022.2.4,59.96167248632054,
1,0,0.0,4.9,1,0,14,14,37,,,,,90.15733679989353,90.80816309992224,90.80816309992224,91.30930389999412,315,45,91.30930389999412,91.30930389999412,91.30930389999412,91.30930389999412,91.30930389999412,91.30930389999412,91.30930389999412,91.30930389999412,91.30930389999412,91.6756225998979,91.6756225998979,91.6756225998979,91.6756225998979,91.6756225998979,91.6756225998979,91.6756225998979,91.6756225998979,91.6756225998979,0,1,[0.0012238000053912401],[0.36707719997502863],91.6756225998979,91.87585649988614,4.9,91.87585649988614,1,4.9,1,1,1000,num_4,0.5964222000911832,,31,12,2026-03-12_14h22.19.753,2026A_exp2,2022.2.4,59.96167248632054,
1,0,3.7,0.0,1,0,15,15,12,,,,,92.49299780000001,93.14369329996407,93.14369329996407,93.62816439988092,315,315,93.62816439988092,93.62816439988092,93.62816439988092,93.62816439988092,93.62816439988092,93.62816439988092,93.62816439988092,93.62816439988092,93.62816439988092,93.99472519988194,93.99472519988194,93.99472519988194,93.99472519988194,93.99472519988194,93.99472519988194,93.99472519988194,93.99472519988194,93.99472519988194,23,0,,,93.99472519988194,94.19483170006424,0.0,94.19483170006424,0,0.0,0,1,1000,num_1,0.5337074999697506,,31,12,2026-03-12_14h22.19.753,2026A_exp2,2022.2.4,59.96167248632054,
1000,1,0.0,0.0,1,0,16,16,85,,,,,94.74529349990189,95.39607979985885,95.39607979985885,95.88056050008163,315,315,95.88056050008163,95.88056050008163,95.88056050008163,95.88056050008163,95.88056050008163,95.88056050008163,95.88056050008163,95.88056050008163,95.88056050008163,96.24661979987286,96.24661979987286,96.24661979987286,96.24661979987286,96.24661979987286,96.24661979987286,96.24661979987286,96.24661979987286,96.24661979987286,23,0,,,96.24661979987286,96.44874879997224,1000,96.44874879997224,1000,1000,1000,1000,0,num_3,0.6076197999063879,,31,12,2026-03-12_14h22.19.753,2026A_exp2,2022.2.4,59.96167248632054,
1,0,0.0,0.0,1,0,17,17,69,,,,,97.0809662998654,97.73180809989572,97.73180809989572,98.23284039995633,45,315,98.23284039995633,98.23284039995633,98.23284039995633,98.23284039995633,98.23284039995633,98.23284039995633,98.23284039995633,98.23284039995633,98.23284039995633,98.59980660001747,98.59980660001747,98.59980660001747,98.59980660001747,98.59980660001747,98.59980660001747,98.59980660001747,98.59980660001747,98.59980660001747,5,2,"[0.050097100203856826, 0.11697860015556216]","[0.10021340008825064, 0.3665945001412183]",98.59980660001747,98.79946810007095,0.0,98.79946810007095,0,0.0,0,1,1000,num_1,0.8414386999793351,,31,12,2026-03-12_14h22.19.753,2026A_exp2,2022.2.4,59.96167248632054,
1,0,0.0,6.1,1,0,18,18,50,,,,,99.66683480003849,100.31765979994088,100.31765979994088,100.80210309987888,315,315,100.80210309987888,100.80210309987888,100.80210309987888,100.80210309987888,100.80210309987888,100.80210309987888,100.80210309987888,100.80210309987888,100.80210309987888,101.16854109987617,101.16854109987617,101.16854109987617,101.16854109987617,101.16854109987617,101.16854109987617,101.16854109987617,101.16854109987617,101.16854109987617,9,2,"[0.001043899916112423, 0.23503799992613494]","[0.08752720011398196, 0.3686043000780046]",101.16854109987617,101.3725073998794,6.1,101.3725073998794,1,6.1,1,1,1000,num_4,0.427469199988991,,31,12,2026-03-12_14h22.19.753,2026A_exp2,2022.2.4,59.96167248632054,
1000,1,3.7,0.0,1,0,19,19,19,,,,,101.81910179997794,102.46979189990088,102.46979189990088,102.97094550007023,45,315,102.97094550007023,102.97094550007023,102.97094550007023,102.97094550007023,102.97094550007023,102.97094550007023,102.97094550007023,102.97094550007023,102.97094550007023,103.33737950003706,103.33737950003706,103.33737950003706,103.33737950003706,103.33737950003706,103.33737950003706,103.33737950003706,103.33737950003706,103.33737950003706,8,4,"[0.0011893999762833118, 0.05012149992398918, 0.15022079995833337, 0.21710620005615056]","[0.01737589994445443, 0.13365929992869496, 0.18366340012289584, 0.3338279000017792]",103.33737950003706,103.53916139993817,1000,103.53916139993817,1000,1000,1000,1000,0,num_3,0.44558950001373887,,31,12,2026-03-12_14h22.19.753,2026A_exp2,2022.2.4,59.96167248632054,
1000,1,0.0,0.0,0,0,20,20,15,,,,,104.00457779993303,104.6553288998548,104.6553288998548,105.15650849998929,315,45,105.15650849998929,105.15650849998929,105.15650849998929,105.15650849998929,105.15650849998929,105.15650849998929,105.15650849998929,105.15650849998929,105.15650849998929,105.52286170003936,105.52286170003936,105.52286170003936,105.52286170003936,105.52286170003936,105.52286170003936,105.52286170003936,105.52286170003936,105.52286170003936,23,0,,,105.52286170003936,105.72488049999811,1000,105.72488049999811,1000,1000,1000,1000,1,num_2,1.9636945000384003,,31,12,2026-03-12_14h22.19.753,2026A_exp2,2022.2.4,59.96167248632054,
0,0,6.1,0.0,0,0,21,21,74,,,,,107.70827300008386,108.35896850004792,108.35896850004792,108.8602124999743,315,315,108.8602124999743,108.8602124999743,108.8602124999743,108.8602124999743,108.8602124999743,108.8602124999743,108.8602124999743,108.8602124999743,108.8602124999743,109.22661979985423,109.22661979985423,109.22661979985423,109.22661979985423,109.22661979985423,109.22661979985423,109.22661979985423,109.22661979985423,109.22661979985423,1,2,"[0.0012075998820364475, 0.06672769994474947]","[0.049985599936917424, 0.3673631998244673]",109.22661979985423,109.42679090006277,0.0,109.42679090006277,0,0.0,0,1,1000,num_1,0.7657150002196431,,31,12,2026-03-12_14h22.19.753,2026A_exp2,2022.2.4,59.96167248632054,
1,0,0.0,3.7,1,0,22,22,14,,,,,110.21070010005496,110.86125850002281,110.86125850002281,111.34624950005673,45,45,111.34624950005673,111.34624950005673,111.34624950005673,111.34624950005673,111.34624950005673,111.34624950005673,111.34624950005673,111.34624950005673,111.34624950005673,111.71211980003864,111.71211980003864,111.71211980003864,111.71211980003864,111.71211980003864,111.71211980003864,111.71211980003864,111.71211980003864,111.71211980003864,0,1,[0.0007772999815642834],[0.367115399800241],111.71211980003864,111.91232339991257,3.7,111.91232339991257,0,3.7,1,0,1000,num_1,0.5843466999940574,,31,12,2026-03-12_14h22.19.753,2026A_exp2,2022.2.4,59.96167248632054,
1,0,6.1,0.0,0,0,23,23,21,,,,,112.5137046999298,113.16381329996511,113.16381329996511,113.66498279990628,315,45,113.66498279990628,113.66498279990628,113.66498279990628,113.66498279990628,113.66498279990628,113.66498279990628,113.66498279990628,113.66498279990628,113.66498279990628,114.03135359985754,114.03135359985754,114.03135359985754,114.03135359985754,114.03135359985754,114.03135359985754,114.03135359985754,114.03135359985754,114.03135359985754,4,1,[0.06689530005678535],[0.3672948000021279],114.03135359985754,114.2315664999187,6.1,114.2315664999187,0,6.1,1,0,1000,num_1,0.5690403999760747,,31,12,2026-03-12_14h22.19.753,2026A_exp2,2022.2.4,59.96167248632054,
1,0,6.1,0.0,1,0,24,24,89,,,,,114.83200659998693,115.48286679992452,115.48286679992452,115.96721470006742,315,45,115.96721470006742,115.96721470006742,115.96721470006742,115.96721470006742,115.96721470006742,115.96721470006742,115.96721470006742,115.96721470006742,115.96721470006742,116.33366929995827,116.33366929995827,116.33366929995827,116.33366929995827,116.33366929995827,116.33366929995827,116.33366929995827,116.33366929995827,116.33366929995827,16,2,"[0.001160699874162674, 0.1003274000249803]","[0.08363839983940125, 0.13381719985045493]",116.33366929995827,116.53386850003153,0.0,116.53386850003153,0,0.0,0,1,1000,num_1,0.8348028999753296,,31,12,2026-03-12_14h22.19.753,2026A_exp2,2022.2.4,59.96167248632054,
1,0,0.0,0.0,1,0,25,25,39,,,,,117.38465479994193,118.03543849987909,118.03543849987909,118.51991669996642,45,45,118.51991669996642,118.51991669996642,118.51991669996642,118.51991669996642,118.51991669996642,118.51991669996642,118.51991669996642,118.51991669996642,118.51991669996642,118.88615899998695,118.88615899998695,118.88615899998695,118.88615899998695,118.88615899998695,118.88615899998695,118.88615899998695,118.88615899998695,118.88615899998695,10,1,[0.1668644999153912],[0.36678999988362193],118.88615899998695,119.08662349986844,0.0,119.08662349986844,0,0.0,0,1,1000,num_1,0.9772758001927286,,31,12,2026-03-12_14h22.19.753,2026A_exp2,2022.2.4,59.96167248632054,
0,0,0.0,0.0,0,0,26,26,59,,,,,120.08721989998594,120.73782749986276,120.73782749986276,121.23625910002738,45,315,121.23625910002738,121.23625910002738,121.23625910002738,121.23625910002738,121.23625910002738,121.23625910002738,121.23625910002738,121.23625910002738,121.23625910002738,121.58894270006567,121.58894270006567,121.58894270006567,121.58894270006567,121.58894270006567,121.58894270006567,121.58894270006567,121.58894270006567,121.58894270006567,0,1,[0.003836599877104163],[0.3644333998672664],121.58894270006567,121.78919659997337,0.0,121.78919659997337,0,0.0,0,1,1000,num_1,0.6993126000743359,,31,12,2026-03-12_14h22.19.753,2026A_exp2,2022.2.4,59.96167248632054,
1000,1,0.0,4.9,1,0,27,27,66,,,,,122.50655970000662,123.15688719996251,123.15688719996251,123.64149269997142,315,315,123.64149269997142,123.64149269997142,123.64149269997142,123.64149269997142,123.64149269997142,123.64149269997142,123.64149269997142,123.64149269997142,123.64149269997142,124.00791359995492,124.00791359995492,124.00791359995492,124.00791359995492,124.00791359995492,124.00791359995492,124.00791359995492,124.00791359995492,124.00791359995492,0,1,[0.0011921999976038933],[0.3671480000484735],124.00791359995492,124.20972259994596,1000,124.20972259994596,1000,1000,1000,1000,1,num_2,0.6392766998615116,,31,12,2026-03-12_14h22.19.753,2026A_exp2,2022.2.4,59.96167248632054,
1000,1,3.7,3.7,0,0,28,28,63,,,,,124.87548839999363,125.5262857999187,125.5262857999187,126.02739889989607,315,45,126.02739889989607,126.02739889989607,126.02739889989607,126.02739889989607,126.02739889989607,126.02739889989607,126.02739889989607,126.02739889989607,126.02739889989607,126.39338069991209,126.39338069991209,126.39338069991209,126.39338069991209,126.39338069991209,126.39338069991209,126.39338069991209,126.39338069991209,126.39338069991209,0,1,[0.0011946000158786774],[0.3664832999929786],126.39338069991209,126.5936676999554,1000,126.5936676999554,1000,1000,1000,1000,0,num_3,0.43061250005848706,,31,12,2026-03-12_14h22.19.753,2026A_exp2,2022.2.4,59.96167248632054,
1,0,0.0,6.1,1,0,29,29,36,,,,,127.04424969991669,127.6950829999987,127.6950829999987,128.19607489998452,45,45,128.19607489998452,128.19607489998452,128.19607489998452,128.19607489998452,128.19607489998452,128.19607489998452,128.19607489998452,128.19607489998452,128.19607489998452,128.5625604998786,128.5625604998786,128.5625604998786,128.5625604998786,128.5625604998786,128.5625604998786,128.5625604998786,128.5625604998786,128.5625604998786,2,3,"[0.001353199826553464, 0.10029289987869561, 0.35037409979850054]","[0.08367559988982975, 0.3341090998146683, 0.36735839978791773]",128.5625604998786,128.76272209989838,6.1,128.76272209989838,1,6.1,1,1,1000,num_4,0.4693161998875439,,31,12,2026-03-12_14h22.19.753,2026A_exp2,2022.2.4,59.96167248632054,
1,0,4.9,0.0,1,0,30,30,65,,,,,129.246669099899,129.89720380003564,129.89720380003564,130.39824820007198,45,45,130.39824820007198,130.39824820007198,130.39824820007198,130.39824820007198,130.39824820007198,130.39824820007198,130.39824820007198,130.39824820007198,130.39824820007198,130.76483300002292,130.76483300002292,130.76483300002292,130.76483300002292,130.76483300002292,130.76483300002292,130.76483300002292,130.76483300002292,130.76483300002292,6,5,"[0.0011991001665592194, 0.08345170016400516, 0.20016650017350912, 0.250347200082615, 0.3169511000160128]","[0.06668080016970634, 0.16692139999940991, 0.21689640008844435, 0.30034340010024607, 0.36711400002241135]",130.76483300002292,130.96505649993196,0.0,130.96505649993196,0,0.0,0,1,1000,num_1,0.7471761999186128,,31,12,2026-03-12_14h22.19.753,2026A_exp2,2022.2.4,59.96167248632054,
1000,1,0.0,4.9,0,0,31,31,26,,,,,131.73219039989635,132.38301109988242,132.38301109988242,132.86740539991297,315,315,132.86740539991297,132.86740539991297,132.86740539991297,132.86740539991297,132.86740539991297,132.86740539991297,132.86740539991297,132.86740539991297,132.86740539991297,133.23383509996347,133.23383509996347,133.23383509996347,133.23383509996347,133.23383509996347,133.23383509996347,133.23383509996347,133.23383509996347,133.23383509996347,5,1,[0.0836264998652041],[0.3671523998491466],133.23383509996347,133.43635610002093,1000,133.43635610002093,1000,1000,1000,1000,1,num_2,0.5481064999476075,,31,12,2026-03-12_14h22.19.753,2026A_exp2,2022.2.4,59.96167248632054,
1000,1,4.9,0.0,1,0,32,32,10,,,,,134.00134929991327,134.65197080001235,134.65197080001235,135.15315450006165,45,45,135.15315450006165,135.15315450006165,135.15315450006165,135.15315450006165,135.15315450006165,135.15315450006165,135.15315450006165,135.15315450006165,135.15315450006165,135.51951380004175,135.51951380004175,135.51951380004175,135.51951380004175,135.51951380004175,135.51951380004175,135.51951380004175,135.51951380004175,135.51951380004175,0,1,[0.001218999968841672],[0.3671810000669211],135.51951380004175,135.72192729986273,1000,135.72192729986273,1000,1000,1000,1000,0,num_3,0.3909155000001192,,31,12,2026-03-12_14h22.19.753,2026A_exp2,2022.2.4,59.96167248632054,
1000,1,0.0,3.7,1,0,33,33,13,,,,,136.13668400002643,136.78742309985682,136.78742309985682,137.288652200019,315,45,137.288652200019,137.288652200019,137.288652200019,137.288652200019,137.288652200019,137.288652200019,137.288652200019,137.288652200019,137.288652200019,137.65459310007282,137.65459310007282,137.65459310007282,137.65459310007282,137.65459310007282,137.65459310007282,137.65459310007282,137.65459310007282,137.65459310007282,0,1,[0.0011852998286485672],[0.3672952000051737],137.65459310007282,137.8569201999344,1000,137.8569201999344,1000,1000,1000,1000,1,num_2,0.4557789999525994,,31,12,2026-03-12_14h22.19.753,2026A_exp2,2022.2.4,59.96167248632054,
1000,1,0.0,6.1,1,0,34,34,71,,,,,138.3388869999908,138.98969580000266,138.98969580000266,139.4906675000675,45,45,139.4906675000675,139.4906675000675,139.4906675000675,139.4906675000675,139.4906675000675,139.4906675000675,139.4906675000675,139.4906675000675,139.4906675000675,139.8571573998779,139.8571573998779,139.8571573998779,139.8571573998779,139.8571573998779,139.8571573998779,139.8571573998779,139.8571573998779,139.8571573998779,3,4,"[0.0012286000419408083, 0.03337610000744462, 0.06704119988717139, 0.10010759998112917]","[0.017143100034445524, 0.0501137999817729, 0.08354229992255569, 0.36694770003668964]",139.8571573998779,140.05935240001418,1000,140.05935240001418,1000,1000,1000,1000,1,num_2,0.40539309987798333,,31,12,2026-03-12_14h22.19.753,2026A_exp2,2022.2.4,59.96167248632054,
0,0,0.0,3.7,0,0,35,35,34,,,,,140.4911785000004,141.14152859989554,141.14152859989554,141.64281079987995,315,315,141.64281079987995,141.64281079987995,141.64281079987995,141.64281079987995,141.64281079987995,141.64281079987995,141.64281079987995,141.64281079987995,141.64281079987995,142.00949069997296,142.00949069997296,142.00949069997296,142.00949069997296,142.00949069997296,142.00949069997296,142.00949069997296,142.00949069997296,142.00949069997296,23,0,,,142.00949069997296,142.20937810000032,3.7,142.20937810000032,1,3.7,1,1,1000,num_4,0.7504451000131667,,31,12,2026-03-12_14h22.19.753,2026A_exp2,2022.2.4,59.96167248632054,
1000,1,4.9,4.9,1,0,36,36,68,,,,,142.9768757999409,143.62720340001397,143.62720340001397,144.1117773000151,315,45,144.1117773000151,144.1117773000151,144.1117773000151,144.1117773000151,144.1117773000151,144.1117773000151,144.1117773000151,144.1117773000151,144.1117773000151,144.47812279989012,144.47812279989012,144.47812279989012,144.47812279989012,144.47812279989012,144.47812279989012,144.47812279989012,144.47812279989012,144.47812279989012,1,2,"[0.0007493000011891127, 0.16729639982804656]","[0.1501752999611199, 0.3672094000503421]",144.47812279989012,144.67854380002245,1000,144.67854380002245,1000,1000,1000,1000,1,num_2,0.5532354000024498,,31,12,2026-03-12_14h22.19.753,2026A_exp2,2022.2.4,59.96167248632054,
1,0,0.0,0.0,0,0,37,37,55,,,,,145.26255270000547,145.91443490004167,145.91443490004167,146.39776490000077,315,315,146.39776490000077,146.39776490000077,146.39776490000077,146.39776490000077,146.39776490000077,146.39776490000077,146.39776490000077,146.39776490000077,146.39776490000077,146.76410660007969,146.76410660007969,146.76410660007969,146.76410660007969,146.76410660007969,146.76410660007969,146.76410660007969,146.76410660007969,146.76410660007969,0,1,[0.0007471002172678709],[0.3672854001633823],146.76410660007969,146.96399289998226,0.0,146.96399289998226,0,0.0,0,1,1000,num_1,0.7076754001900554,,31,12,2026-03-12_14h22.19.753,2026A_exp2,2022.2.4,59.96167248632054,
1000,1,0.0,3.7,0,0,38,38,46,,,,,147.69815309997648,148.33199770003557,148.33199770003557,148.83306019986048,315,315,148.83306019986048,148.83306019986048,148.83306019986048,148.83306019986048,148.83306019986048,148.83306019986048,148.83306019986048,148.83306019986048,148.83306019986048,149.20004349993542,149.20004349993542,149.20004349993542,149.20004349993542,149.20004349993542,149.20004349993542,149.20004349993542,149.20004349993542,149.20004349993542,1,2,"[0.0007048998959362507, 0.06752999988384545]","[0.050629899837076664, 0.36799889989197254]",149.20004349993542,149.40000810008496,1000,149.40000810008496,1000,1000,1000,1000,1,num_2,0.464303300017491,,31,12,2026-03-12_14h22.19.753,2026A_exp2,2022.2.4,59.96167248632054,
1000,1,0.0,6.1,1,0,39,39,43,,,,,149.8838460999541,150.53434909996577,150.53434909996577,151.03540759999305,315,315,151.03540759999305,151.03540759999305,151.03540759999305,151.03540759999305,151.03540759999305,151.03540759999305,151.03540759999305,151.03540759999305,151.03540759999305,151.38537360006012,151.38537360006012,151.38537360006012,151.38537360006012,151.38537360006012,151.38537360006012,151.38537360006012,151.38537360006012,151.38537360006012,12,1,[0.19985480001196265],[0.3502879000734538],151.38537360006012,151.58620429993607,1000,151.58620429993607,1000,1000,1000,1000,1,num_2,0.39001039997674525,,31,12,2026-03-12_14h22.19.753,2026A_exp2,2022.2.4,59.96167248632054,
1,0,0.0,0.0,0,0,40,40,24,,,,,152.00258690002374,152.65301420004107,152.65301420004107,153.137407500064,45,315,153.137407500064,153.137407500064,153.137407500064,153.137407500064,153.137407500064,153.137407500064,153.137407500064,153.137407500064,153.137407500064,153.50403099996038,153.50403099996038,153.50403099996038,153.50403099996038,153.50403099996038,153.50403099996038,153.50403099996038,153.50403099996038,153.50403099996038,0,1,[0.0007366000209003687],[0.3671525998506695],153.50403099996038,153.70397839997895,0.0,153.70397839997895,0,0.0,0,1,1000,num_1,0.8485914999619126,,31,12,2026-03-12_14h22.19.753,2026A_exp2,2022.2.4,59.96167248632054,
1,0,6.1,0.0,0,0,41,41,47,,,,,154.57154699997045,155.20575269986875,155.20575269986875,155.7069099000655,45,315,155.7069099000655,155.7069099000655,155.7069099000655,155.7069099000655,155.7069099000655,155.7069099000655,155.7069099000655,155.7069099000655,155.7069099000655,156.073076199973,156.073076199973,156.073076199973,156.073076199973,156.073076199973,156.073076199973,156.073076199973,156.073076199973,156.073076199973,0,1,[0.0006943999323993921],[0.36692450009286404],156.073076199973,156.27331619989127,6.1,156.27331619989127,0,6.1,1,0,1000,num_1,0.5022791000083089,,31,12,2026-03-12_14h22.19.753,2026A_exp2,2022.2.4,59.96167248632054,
1000,1,3.7,0.0,1,0,42,42,38,,,,,156.80726370005868,157.45798379997723,157.45798379997723,157.9422277000267,315,315,157.9422277000267,157.9422277000267,157.9422277000267,157.9422277000267,157.9422277000267,157.9422277000267,157.9422277000267,157.9422277000267,157.9422277000267,158.30857439991087,158.30857439991087,158.30857439991087,158.30857439991087,158.30857439991087,158.30857439991087,158.30857439991087,158.30857439991087,158.30857439991087,22,1,[0.000705100130289793],[0.017428399994969368],158.30857439991087,158.50890320003964,1000,158.50890320003964,1000,1000,1000,1000,1,num_2,0.7709691000636667,,31,12,2026-03-12_14h22.19.753,2026A_exp2,2022.2.4,59.96167248632054,
1,0,0.0,0.0,0,0,43,43,79,,,,,159.30972660006955,159.96031360002235,159.96031360002235,160.44479510001838,315,315,160.44479510001838,160.44479510001838,160.44479510001838,160.44479510001838,160.44479510001838,160.44479510001838,160.44479510001838,160.44479510001838,160.44479510001838,160.8111272000242,160.8111272000242,160.8111272000242,160.8111272000242,160.8111272000242,160.8111272000242,160.8111272000242,160.8111272000242,160.8111272000242,4,4,"[0.0007333999965339899, 0.08284040004946291, 0.11637619999237359, 0.1830634002108127]","[0.04933370021171868, 0.09940710011869669, 0.1662963000126183, 0.3671761001460254]",160.8111272000242,161.01140860002488,0.0,161.01140860002488,0,0.0,0,1,1000,num_1,0.8370308000594378,,31,12,2026-03-12_14h22.19.753,2026A_exp2,2022.2.4,59.96167248632054,
1000,1,6.1,0.0,1,0,44,44,25,,,,,161.87897409987636,162.52956230007112,162.52956230007112,163.03095360007137,45,315,163.03095360007137,163.03095360007137,163.03095360007137,163.03095360007137,163.03095360007137,163.03095360007137,163.03095360007137,163.03095360007137,163.03095360007137,163.3814453999512,163.3814453999512,163.3814453999512,163.3814453999512,163.3814453999512,163.3814453999512,163.3814453999512,163.3814453999512,163.3814453999512,0,1,[0.0007201000116765499],[0.35023130010813475],163.3814453999512,163.58087769988924,1000,163.58087769988924,1000,1000,1000,1000,0,num_3,0.4194962000474334,,31,12,2026-03-12_14h22.19.753,2026A_exp2,2022.2.4,59.96167248632054,
1000,1,0.0,4.9,0,0,45,45,6,,,,,164.03154319990426,164.6817349998746,164.6817349998746,165.16648770007305,45,45,165.16648770007305,165.16648770007305,165.16648770007305,165.16648770007305,165.16648770007305,165.16648770007305,165.16648770007305,165.16648770007305,165.16648770007305,165.53252359991893,165.53252359991893,165.53252359991893,165.53252359991893,165.53252359991893,165.53252359991893,165.53252359991893,165.53252359991893,165.53252359991893,0,1,[0.0009318999946117401],[0.3670781999826431],165.53252359991893,165.73296869988553,1000,165.73296869988553,1000,1000,1000,1000,1,num_2,0.49931770004332066,,31,12,2026-03-12_14h22.19.753,2026A_exp2,2022.2.4,59.96167248632054,
1,0,0.0,0.0,1,0,46,46,42,,,,,166.25015219999477,166.90059489989653,166.90059489989653,167.40196619997732,315,45,167.40196619997732,167.40196619997732,167.40196619997732,167.40196619997732,167.40196619997732,167.40196619997732,167.40196619997732,167.40196619997732,167.40196619997732,167.7682266999036,167.7682266999036,167.7682266999036,167.7682266999036,167.7682266999036,167.7682266999036,167.7682266999036,167.7682266999036,167.7682266999036,0,1,[0.0007865000516176224],[0.36735940002836287],167.7682266999036,167.96840139990672,0.0,167.96840139990672,0,0.0,0,1,1000,num_1,0.6478242001030594,,31,12,2026-03-12_14h22.19.753,2026A_exp2,2022.2.4,59.96167248632054,
1,0,0.0,4.9,0,0,47,47,3,,,,,168.63564909994602,169.26962599996477,169.26962599996477,169.77067209989764,45,315,169.77067209989764,169.77067209989764,169.77067209989764,169.77067209989764,169.77067209989764,169.77067209989764,169.77067209989764,169.77067209989764,169.77067209989764,170.1370767999906,170.1370767999906,170.1370767999906,170.1370767999906,170.1370767999906,170.1370767999906,170.1370767999906,170.1370767999906,170.1370767999906,0,1,[0.0007070000283420086],[0.367339399876073],170.1370767999906,170.33736600005068,0.0,170.33736600005068,0,0.0,0,1,1000,num_1,0.7029548999853432,,31,12,2026-03-12_14h22.19.753,2026A_exp2,2022.2.4,59.96167248632054,
1,0,0.0,6.1,1,0,48,48,31,,,,,171.07283099996857,171.72252699988894,171.72252699988894,172.22363070002757,315,315,172.22363070002757,172.22363070002757,172.22363070002757,172.22363070002757,172.22363070002757,172.22363070002757,172.22363070002757,172.22363070002757,172.22363070002757,172.58944060001522,172.58944060001522,172.58944060001522,172.58944060001522,172.58944060001522,172.58944060001522,172.58944060001522,172.58944060001522,172.58944060001522,0,1,[0.0007675997912883759],[0.36630719993263483],172.58944060001522,172.7897383000236,6.1,172.7897383000236,1,6.1,1,1,1000,num_4,0.5141221999656409,,31,12,2026-03-12_14h22.19.753,2026A_exp2,2022.2.4,59.96167248632054,
1000,1,0.0,0.0,0,0,49,49,5,,,,,173.32358309999108,173.95767279993743,173.95767279993743,174.45910069998354,45,45,174.45910069998354,174.45910069998354,174.45910069998354,174.45910069998354,174.45910069998354,174.45910069998354,174.45910069998354,174.45910069998354,174.45910069998354,174.82526459987275,174.82526459987275,174.82526459987275,174.82526459987275,174.82526459987275,174.82526459987275,174.82526459987275,174.82526459987275,174.82526459987275,0,1,[0.0007625999860465527],[0.3670179001055658],174.82526459987275,175.02549999998882,1000,175.02549999998882,1000,1000,1000,1000,0,num_3,0.7910376999061555,,31,12,2026-03-12_14h22.19.753,2026A_exp2,2022.2.4,59.96167248632054,
1,0,3.7,3.7,1,0,50,50,30,,,,,175.84307889989577,176.49360470008105,176.49360470008105,176.97800259990618,315,315,176.97800259990618,176.97800259990618,176.97800259990618,176.97800259990618,176.97800259990618,176.97800259990618,176.97800259990618,176.97800259990618,176.97800259990618,177.344293900067,177.344293900067,177.344293900067,177.344293900067,177.344293900067,177.344293900067,177.344293900067,177.344293900067,177.344293900067,0,1,[0.001281500095501542],[0.3671795001719147],177.344293900067,177.5444642000366,3.7,177.5444642000366,0,3.7,1,0,1000,num_1,0.7837412999942899,,31,12,2026-03-12_14h22.19.753,2026A_exp2,2022.2.4,59.96167248632054,
1000,1,6.1,0.0,0,0,51,51,81,,,,,178.34556000004523,178.99598630005494,178.99598630005494,179.4972230999265,315,315,179.4972230999265,179.4972230999265,179.4972230999265,179.4972230999265,179.4972230999265,179.4972230999265,179.4972230999265,179.4972230999265,179.4972230999265,179.8634828000795,179.8634828000795,179.8634828000795,179.8634828000795,179.8634828000795,179.8634828000795,179.8634828000795,179.8634828000795,179.8634828000795,23,0,,,179.8634828000795,180.063714500051,1000,180.063714500051,1000,1000,1000,1000,0,num_3,0.4397849999368191,,31,12,2026-03-12_14h22.19.753,2026A_exp2,2022.2.4,59.96167248632054,
1000,1,4.9,0.0,1,0,52,52,77,,,,,180.53087499993853,181.1651939000003,181.1651939000003,181.66632289998233,315,315,181.66632289998233,181.66632289998233,181.66632289998233,181.66632289998233,181.66632289998233,181.66632289998233,181.66632289998233,181.66632289998233,181.66632289998233,182.0324321000371,182.0324321000371,182.0324321000371,182.0324321000371,182.0324321000371,182.0324321000371,182.0324321000371,182.0324321000371,182.0324321000371,5,4,"[0.0007096000481396914, 0.21673949994146824, 0.2667578000109643, 0.30103780003264546]","[0.2000955999828875, 0.2501044000964612, 0.2833521000575274, 0.3507634000852704]",182.0324321000371,182.23352800006978,1000,182.23352800006978,1000,1000,1000,1000,0,num_3,0.5024435000959784,,31,12,2026-03-12_14h22.19.753,2026A_exp2,2022.2.4,59.96167248632054,
1,0,3.7,0.0,0,0,53,53,87,,,,,182.7667107998859,183.4007395999506,183.4007395999506,183.90148340002634,45,45,183.90148340002634,183.90148340002634,183.90148340002634,183.90148340002634,183.90148340002634,183.90148340002634,183.90148340002634,183.90148340002634,183.90148340002634,184.26804029988125,184.26804029988125,184.26804029988125,184.26804029988125,184.26804029988125,184.26804029988125,184.26804029988125,184.26804029988125,184.26804029988125,1,2,"[0.0007110000587999821, 0.08444890007376671]","[0.05051530012860894, 0.36735960002988577]",184.26804029988125,184.46833830000833,3.7,184.46833830000833,1,3.7,1,1,1000,num_4,0.6272403001785278,,31,12,2026-03-12_14h22.19.753,2026A_exp2,2022.2.4,59.96167248632054,
1,0,3.7,4.9,1,0,54,54,18,,,,,185.11889629997313,185.75283810007386,185.75283810007386,186.25397760001943,315,45,186.25397760001943,186.25397760001943,186.25397760001943,186.25397760001943,186.25397760001943,186.25397760001943,186.25397760001943,186.25397760001943,186.25397760001943,186.6203220000025,186.6203220000025,186.6203220000025,186.6203220000025,186.6203220000025,186.6203220000025,186.6203220000025,186.6203220000025,186.6203220000025,0,1,[0.0007361001335084438],[0.3675210000947118],186.6203220000025,186.82057589991018,4.9,186.82057589991018,1,4.9,1,1,1000,num_4,0.6279867999255657,,31,12,2026-03-12_14h22.19.753,2026A_exp2,2022.2.4,59.96167248632054,
1,0,6.1,4.9,1,0,55,55,64,,,,,187.47103539993986,188.10507180006243,188.10507180006243,188.60623829998076,45,45,188.60623829998076,188.60623829998076,188.60623829998076,188.60623829998076,188.60623829998076,188.60623829998076,188.60623829998076,188.60623829998076,188.60623829998076,188.97275110008195,188.97275110008195,188.97275110008195,188.97275110008195,188.97275110008195,188.97275110008195,188.97275110008195,188.97275110008195,188.97275110008195,0,1,[0.0007225999142974615],[0.3673824998550117],188.97275110008195,189.17273820005357,4.9,189.17273820005357,1,4.9,1,1,1000,num_4,0.6916682000737637,,31,12,2026-03-12_14h22.19.753,2026A_exp2,2022.2.4,59.96167248632054,
1,0,3.7,6.1,0,0,56,56,52,,,,,189.89010099996813,190.52438089996576,190.52438089996576,191.02557309996337,315,45,191.02557309996337,191.02557309996337,191.02557309996337,191.02557309996337,191.02557309996337,191.02557309996337,191.02557309996337,191.02557309996337,191.02557309996337,191.39170449995436,191.39170449995436,191.39170449995436,191.39170449995436,191.39170449995436,191.39170449995436,191.39170449995436,191.39170449995436,191.39170449995436,0,1,[0.0008994000963866711],[0.3668547999113798],191.39170449995436,191.59222229989246,3.7,191.59222229989246,1,3.7,1,1,1000,num_4,0.9598034999798983,,31,12,2026-03-12_14h22.19.753,2026A_exp2,2022.2.4,59.96167248632054,
0,0,4.9,0.0,1,0,57,57,67,,,,,192.5762432999909,193.21037849993445,193.21037849993445,193.71133999992162,315,315,193.71133999992162,193.71133999992162,193.71133999992162,193.71133999992162,193.71133999992162,193.71133999992162,193.71133999992162,193.71133999992162,193.71133999992162,194.07773989997804,194.07773989997804,194.07773989997804,194.07773989997804,194.07773989997804,194.07773989997804,194.07773989997804,194.07773989997804,194.07773989997804,0,1,[0.0007272001821547747],[0.36702110012993217],194.07773989997804,194.27785749989562,4.9,194.27785749989562,1,4.9,1,1,1000,num_4,0.770495800068602,,31,12,2026-03-12_14h22.19.753,2026A_exp2,2022.2.4,59.96167248632054,
1,0,0.0,0.0,1,0,58,58,49,,,,,195.07883660006337,195.71287370007485,195.71287370007485,196.2143153999932,315,45,196.2143153999932,196.2143153999932,196.2143153999932,196.2143153999932,196.2143153999932,196.2143153999932,196.2143153999932,196.2143153999932,196.2143153999932,196.580333000049,196.580333000049,196.580333000049,196.580333000049,196.580333000049,196.580333000049,196.580333000049,196.580333000049,196.580333000049,7,4,"[0.0007232001516968012, 0.11672820011153817, 0.16689270013011992, 0.20014450000599027]","[0.04975980008020997, 0.13347690016962588, 0.18355840002186596, 0.36708630016073585]",196.580333000049,196.78053759993054,0.0,196.78053759993054,0,0.0,0,1,1000,num_1,0.5314122999552637,,31,12,2026-03-12_14h22.19.753,2026A_exp2,2022.2.4,59.96167248632054,
1,0,0.0,6.1,0,0,59,59,0,,,,,197.33116409997456,197.98263079999015,197.98263079999015,198.46639829990454,45,45,198.46639829990454,198.46639829990454,198.46639829990454,198.46639829990454,198.46639829990454,198.46639829990454,198.46639829990454,198.46639829990454,198.46639829990454,198.83249170007184,198.83249170007184,198.83249170007184,198.83249170007184,198.83249170007184,198.83249170007184,198.83249170007184,198.83249170007184,198.83249170007184,0,1,[0.000696699833497405],[0.36716549983248115],198.83249170007184,199.03280490008183,0.0,199.03280490008183,0,0.0,0,1,1000,num_1,0.6077838998753577,,31,12,2026-03-12_14h22.19.753,2026A_exp2,2022.2.4,59.96167248632054,
1000,1,3.7,0.0,0,0,60,60,56,,,,,199.6679173000157,200.31738259992562,200.31738259992562,200.802092500031,315,315,200.802092500031,200.802092500031,200.802092500031,200.802092500031,200.802092500031,200.802092500031,200.802092500031,200.802092500031,200.802092500031,201.18486849986948,201.18486849986948,201.18486849986948,201.18486849986948,201.18486849986948,201.18486849986948,201.18486849986948,201.18486849986948,201.18486849986948,7,2,"[0.08319199993275106, 0.13322680001147091]","[0.10034059989266098, 0.38337159994989634]",201.18486849986948,201.3852144998964,1000,201.3852144998964,1000,1000,1000,1000,0,num_3,0.8314261001069099,,31,12,2026-03-12_14h22.19.753,2026A_exp2,2022.2.4,59.96167248632054,
0,0,6.1,4.9,0,0,61,61,22,,,,,202.23658020002767,202.886553700082,202.886553700082,203.38753359997645,45,315,203.38753359997645,203.38753359997645,203.38753359997645,203.38753359997645,203.38753359997645,203.38753359997645,203.38753359997645,203.38753359997645,203.38753359997645,203.7539808000438,203.7539808000438,203.7539808000438,203.7539808000438,203.7539808000438,203.7539808000438,203.7539808000438,203.7539808000438,203.7539808000438,1,2,"[0.0007525000255554914, 0.35104970005340874]","[0.33433900005184114, 0.3674200000241399]",203.7539808000438,203.95473999995738,4.9,203.95473999995738,1,4.9,1,1,1000,num_4,0.6609271999914199,,31,12,2026-03-12_14h22.19.753,2026A_exp2,2022.2.4,59.96167248632054,
1,0,4.9,3.7,0,0,62,62,44,,,,,204.6382657000795,205.27239589998499,205.27239589998499,205.7735784999095,45,315,205.7735784999095,205.7735784999095,205.7735784999095,205.7735784999095,205.7735784999095,205.7735784999095,205.7735784999095,205.7735784999095,205.7735784999095,206.1400580999907,206.1400580999907,206.1400580999907,206.1400580999907,206.1400580999907,206.1400580999907,206.1400580999907,206.1400580999907,206.1400580999907,0,1,[0.0007235000375658274],[0.3678965999279171],206.1400580999907,206.34022519993596,4.9,206.34022519993596,1,4.9,1,1,1000,num_4,0.6835155999287963,,31,12,2026-03-12_14h22.19.753,2026A_exp2,2022.2.4,59.96167248632054,
1000,1,4.9,0.0,0,0,63,63,41,,,,,207.04072569985874,207.6755061999429,207.6755061999429,208.17587079992518,315,45,208.17587079992518,208.17587079992518,208.17587079992518,208.17587079992518,208.17587079992518,208.17587079992518,208.17587079992518,208.17587079992518,208.17587079992518,208.54209330002777,208.54209330002777,208.54209330002777,208.54209330002777,208.54209330002777,208.54209330002777,208.54209330002777,208.54209330002777,208.54209330002777,23,0,,,208.54209330002777,208.742343199905,1000,208.742343199905,1000,1000,1000,1000,0,num_3,0.6094943000935018,,31,12,2026-03-12_14h22.19.753,2026A_exp2,2022.2.4,59.96167248632054,
1000,1,0.0,0.0,0,0,64,64,17,,,,,209.37704809987918,210.0270408000797,210.0270408000797,210.52831259998493,315,45,210.52831259998493,210.52831259998493,210.52831259998493,210.52831259998493,210.52831259998493,210.52831259998493,210.52831259998493,210.52831259998493,210.52831259998493,210.89513389999047,210.89513389999047,210.89513389999047,210.89513389999047,210.89513389999047,210.89513389999047,210.89513389999047,210.89513389999047,210.89513389999047,23,0,,,210.89513389999047,211.0947004999034,1000,211.0947004999034,1000,1000,1000,1000,1,num_2,1.0891078000422567,,31,12,2026-03-12_14h22.19.753,2026A_exp2,2022.2.4,59.96167248632054,
1000,1,4.9,0.0,0,0,65,65,54,,,,,212.21262670005672,212.8632581999991,212.8632581999991,213.34766149986535,45,45,213.34766149986535,213.34766149986535,213.34766149986535,213.34766149986535,213.34766149986535,213.34766149986535,213.34766149986535,213.34766149986535,213.34766149986535,213.7139906999655,213.7139906999655,213.7139906999655,213.7139906999655,213.7139906999655,213.7139906999655,213.7139906999655,213.7139906999655,213.7139906999655,0,1,[0.000700599979609251],[0.3672374999150634],213.7139906999655,213.91433229995891,1000,213.91433229995891,1000,1000,1000,1000,0,num_3,0.4458005998749286,,31,12,2026-03-12_14h22.19.753,2026A_exp2,2022.2.4,59.96167248632054,
1,0,0.0,4.9,0,0,66,66,73,,,,,214.3815613000188,215.0322135000024,215.0322135000024,215.516839500051,45,315,215.516839500051,215.516839500051,215.516839500051,215.516839500051,215.516839500051,215.516839500051,215.516839500051,215.516839500051,215.516839500051,215.88361899997108,215.88361899997108,215.88361899997108,215.88361899997108,215.88361899997108,215.88361899997108,215.88361899997108,215.88361899997108,215.88361899997108,0,1,[0.0008997998666018248],[0.368317199870944],215.88361899997108,216.0830504000187,0.0,216.0830504000187,0,0.0,0,1,1000,num_1,0.7975413000676781,,31,12,2026-03-12_14h22.19.753,2026A_exp2,2022.2.4,59.96167248632054,
0,0,4.9,3.7,0,0,67,67,28,,,,,216.90053960005753,217.5514485000167,217.5514485000167,218.03562320000492,45,45,218.03562320000492,218.03562320000492,218.03562320000492,218.03562320000492,218.03562320000492,218.03562320000492,218.03562320000492,218.03562320000492,218.03562320000492,218.4020465000067,218.4020465000067,218.4020465000067,218.4020465000067,218.4020465000067,218.4020465000067,218.4020465000067,218.4020465000067,218.4020465000067,23,0,,,218.4020465000067,218.60219620005228,3.7,218.60219620005228,1,3.7,1,1,1000,num_4,0.9098026999272406,,31,12,2026-03-12_14h22.19.753,2026A_exp2,2022.2.4,59.96167248632054,
1,0,4.9,0.0,0,0,68,68,53,,,,,219.5365249000024,220.17070330004208,220.17070330004208,220.67167020007037,45,315,220.67167020007037,220.67167020007037,220.67167020007037,220.67167020007037,220.67167020007037,220.67167020007037,220.67167020007037,220.67167020007037,220.67167020007037,221.03815150004812,221.03815150004812,221.03815150004812,221.03815150004812,221.03815150004812,221.03815150004812,221.03815150004812,221.03815150004812,221.03815150004812,0,1,[0.0008733000140637159],[0.3670401000417769],221.03815150004812,221.23924340005033,4.9,221.23924340005033,1,4.9,1,1,1000,num_4,0.6082576001062989,,31,12,2026-03-12_14h22.19.753,2026A_exp2,2022.2.4,59.96167248632054,
1,0,6.1,0.0,0,0,69,69,82,,,,,221.87223179987632,222.50649140006863,222.50649140006863,223.0071815000847,45,315,223.0071815000847,223.0071815000847,223.0071815000847,223.0071815000847,223.0071815000847,223.0071815000847,223.0071815000847,223.0071815000847,223.0071815000847,223.37357669998892,223.37357669998892,223.37357669998892,223.37357669998892,223.37357669998892,223.37357669998892,223.37357669998892,223.37357669998892,223.37357669998892,17,4,"[0.083832599921152, 0.13412439986132085, 0.30087470007129014, 0.33407039986923337]","[0.10038880002684891, 0.15077139995992184, 0.31759069999679923, 0.3672984999138862]",223.37357669998892,223.57376890000887,6.1,223.57376890000887,1,6.1,1,1,1000,num_4,0.4904954000376165,,31,12,2026-03-12_14h22.19.753,2026A_exp2,2022.2.4,59.96167248632054,
1000,1,6.1,6.1,1,0,70,70,8,,,,,224.0910322999116,224.72494679992087,224.72494679992087,225.22640109993517,315,315,225.22640109993517,225.22640109993517,225.22640109993517,225.22640109993517,225.22640109993517,225.22640109993517,225.22640109993517,225.22640109993517,225.22640109993517,225.59265400003642,225.59265400003642,225.59265400003642,225.59265400003642,225.59265400003642,225.59265400003642,225.59265400003642,225.59265400003642,225.59265400003642,23,0,,,225.59265400003642,225.7933924999088,1000,225.7933924999088,1000,1000,1000,1000,1,num_2,1.2865904998034239,,31,12,2026-03-12_14h22.19.753,2026A_exp2,2022.2.4,59.96167248632054,
1000,1,3.7,4.9,0,0,71,71,45,,,,,227.1109684999101,227.76265019993298,227.76265019993298,228.24656779994257,315,315,228.24656779994257,228.24656779994257,228.24656779994257,228.24656779994257,228.24656779994257,228.24656779994257,228.24656779994257,228.24656779994257,228.24656779994257,228.6126796999015,228.6126796999015,228.6126796999015,228.6126796999015,228.6126796999015,228.6126796999015,228.6126796999015,228.6126796999015,228.6126796999015,3,3,"[0.0011990999337285757, 0.05009739985689521, 0.08292009984143078]","[0.017837899969890714, 0.0661752000451088, 0.3664802999701351]",228.6126796999015,228.81257329997607,1000,228.81257329997607,1000,1000,1000,1000,0,num_3,0.5792216998524964,,31,12,2026-03-12_14h22.19.753,2026A_exp2,2022.2.4,59.96167248632054,
1,0,6.1,3.7,1,0,72,72,51,,,,,229.41330850007944,230.06387409986928,230.06387409986928,230.56505670002662,45,315,230.56505670002662,230.56505670002662,230.56505670002662,230.56505670002662,230.56505670002662,230.56505670002662,230.56505670002662,230.56505670002662,230.56505670002662,230.9146145998966,230.9146145998966,230.9146145998966,230.9146145998966,230.9146145998966,230.9146145998966,230.9146145998966,230.9146145998966,230.9146145998966,16,3,"[0.03345780004747212, 0.1172222001478076, 0.16715670004487038]","[0.10100600006990135, 0.13366040005348623, 0.18374480004422367]",230.9146145998966,231.1151429999154,3.7,231.1151429999154,1,3.7,1,1,1000,num_4,0.8691245999652892,,31,12,2026-03-12_14h22.19.753,2026A_exp2,2022.2.4,59.96167248632054,
1,0,6.1,6.1,1,0,73,73,23,,,,,232.0159163000062,232.64996149996296,232.64996149996296,233.15080319996923,45,315,233.15080319996923,233.15080319996923,233.15080319996923,233.15080319996923,233.15080319996923,233.15080319996923,233.15080319996923,233.15080319996923,233.15080319996923,233.51729990006424,233.51729990006424,233.51729990006424,233.51729990006424,233.51729990006424,233.51729990006424,233.51729990006424,233.51729990006424,233.51729990006424,0,1,[0.0007380000315606594],[0.3673783000558615],233.51729990006424,233.71747249993496,6.1,233.71747249993496,1,6.1,1,1,1000,num_4,0.5467330000828952,,31,12,2026-03-12_14h22.19.753,2026A_exp2,2022.2.4,59.96167248632054,
1000,1,0.0,4.9,0,0,74,74,60,,,,,234.28472459991463,234.93527020001784,234.93527020001784,235.42005029995926,315,315,235.42005029995926,235.42005029995926,235.42005029995926,235.42005029995926,235.42005029995926,235.42005029995926,235.42005029995926,235.42005029995926,235.42005029995926,235.78612950001843,235.78612950001843,235.78612950001843,235.78612950001843,235.78612950001843,235.78612950001843,235.78612950001843,235.78612950001843,235.78612950001843,0,1,[0.0006813001818954945],[0.3664575000293553],235.78612950001843,235.9864173999522,1000,235.9864173999522,1000,1000,1000,1000,1,num_2,0.765503800008446,,31,12,2026-03-12_14h22.19.753,2026A_exp2,2022.2.4,59.96167248632054,
1000,1,3.7,6.1,1,0,75,75,58,,,,,236.77063839999028,237.42113099992275,237.42113099992275,237.92218460002914,315,315,237.92218460002914,237.92218460002914,237.92218460002914,237.92218460002914,237.92218460002914,237.92218460002914,237.92218460002914,237.92218460002914,237.92218460002914,238.2721474999562,238.2721474999562,238.2721474999562,238.2721474999562,238.2721474999562,238.2721474999562,238.2721474999562,238.2721474999562,238.2721474999562,3,3,"[0.0007390000391751528, 0.10055069997906685, 0.23400599998421967]","[0.08391709998250008, 0.20082569983787835, 0.3512697999831289]",238.2721474999562,238.47237019985914,1000,238.47237019985914,1000,1000,1000,1000,1,num_2,0.6871758999768645,,31,12,2026-03-12_14h22.19.753,2026A_exp2,2022.2.4,59.96167248632054,
1000,1,6.1,6.1,0,0,76,76,16,,,,,239.1896490000654,239.84020169987343,239.84020169987343,240.32467840006575,315,45,240.32467840006575,240.32467840006575,240.32467840006575,240.32467840006575,240.32467840006575,240.32467840006575,240.32467840006575,240.32467840006575,240.32467840006575,240.69109670002945,240.69109670002945,240.69109670002945,240.69109670002945,240.69109670002945,240.69109670002945,240.69109670002945,240.69109670002945,240.69109670002945,5,4,"[0.0007662000134587288, 0.16707750014029443, 0.2170499002095312, 0.2840499000158161]","[0.11702370014972985, 0.20028390013612807, 0.2669438000302762, 0.3673099000006914]",240.69109670002945,240.89128510002047,1000,240.89128510002047,1000,1000,1000,1000,1,num_2,0.8204665000084788,,31,12,2026-03-12_14h22.19.753,2026A_exp2,2022.2.4,59.96167248632054,
1000,1,6.1,3.7,0,0,77,77,75,,,,,241.7421764000319,242.39274169993587,242.39274169993587,242.87720119999722,45,315,242.87720119999722,242.87720119999722,242.87720119999722,242.87720119999722,242.87720119999722,242.87720119999722,242.87720119999722,242.87720119999722,242.87720119999722,243.2436070998665,243.2436070998665,243.2436070998665,243.2436070998665,243.2436070998665,243.2436070998665,243.2436070998665,243.2436070998665,243.2436070998665,23,0,,,243.2436070998665,243.44383100001141,1000,243.44383100001141,1000,1000,1000,1000,0,num_3,0.43594300001859665,,31,12,2026-03-12_14h22.19.753,2026A_exp2,2022.2.4,59.96167248632054,
1,0,0.0,0.0,0,0,78,78,88,,,,,243.9109793000389,244.54512170003727,244.54512170003727,245.04586940002628,45,45,245.04586940002628,245.04586940002628,245.04586940002628,245.04586940002628,245.04586940002628,245.04586940002628,245.04586940002628,245.04586940002628,245.04586940002628,245.41265279985964,245.41265279985964,245.41265279985964,245.41265279985964,245.41265279985964,245.41265279985964,245.41265279985964,245.41265279985964,245.41265279985964,0,1,[0.0007382000330835581],[0.36766059999354184],245.41265279985964,245.61264519998804,0.0,245.61264519998804,0,0.0,0,1,1000,num_1,0.8513489000033587,,31,12,2026-03-12_14h22.19.753,2026A_exp2,2022.2.4,59.96167248632054,
1000,1,6.1,6.1,1,0,79,79,4,,,,,246.48025709996,247.13115549995564,247.13115549995564,247.6156305000186,315,45,247.6156305000186,247.6156305000186,247.6156305000186,247.6156305000186,247.6156305000186,247.6156305000186,247.6156305000186,247.6156305000186,247.6156305000186,247.98199709993787,247.98199709993787,247.98199709993787,247.98199709993787,247.98199709993787,247.98199709993787,247.98199709993787,247.98199709993787,247.98199709993787,2,1,[0.03366789990104735],[0.367345699807629],247.98199709993787,248.1842598998919,1000,248.1842598998919,1000,1000,1000,1000,1,num_2,0.7836869999300689,,31,12,2026-03-12_14h22.19.753,2026A_exp2,2022.2.4,59.96167248632054,
1000,1,6.1,0.0,1,0,80,80,83,,,,,248.99981339997612,249.65027710003778,249.65027710003778,250.1348011000082,45,45,250.1348011000082,250.1348011000082,250.1348011000082,250.1348011000082,250.1348011000082,250.1348011000082,250.1348011000082,250.1348011000082,250.1348011000082,250.5010695999954,250.5010695999954,250.5010695999954,250.5010695999954,250.5010695999954,250.5010695999954,250.5010695999954,250.5010695999954,250.5010695999954,9,3,"[0.0012129000388085842, 0.15001760004088283, 0.35026969993487]","[0.1334015999455005, 0.21690140012651682, 0.36702540004625916]",250.5010695999954,250.70358179998584,1000,250.70358179998584,1000,1000,1000,1000,0,num_3,0.45678020012564957,,31,12,2026-03-12_14h22.19.753,2026A_exp2,2022.2.4,59.96167248632054,
1000,1,0.0,0.0,1,0,81,81,78,,,,,251.18508059997112,251.83587810001336,251.83587810001336,252.33685020008124,315,45,252.33685020008124,252.33685020008124,252.33685020008124,252.33685020008124,252.33685020008124,252.33685020008124,252.33685020008124,252.33685020008124,252.33685020008124,252.68651999998838,252.68651999998838,252.68651999998838,252.68651999998838,252.68651999998838,252.68651999998838,252.68651999998838,252.68651999998838,252.68651999998838,0,1,[0.0011945997830480337],[0.35067939991131425],252.68651999998838,252.88875949988142,1000,252.90364059992135,1000,1000,1000,1000,1,num_2,0.8085326000582427,,31,12,2026-03-12_14h22.19.753,2026A_exp2,2022.2.4,59.96167248632054,
1,0,3.7,4.9,1,0,82,82,20,,,,,253.74090229999274,254.3883318998851,254.3883318998851,254.8895457999315,45,315,254.8895457999315,254.8895457999315,254.8895457999315,254.8895457999315,254.8895457999315,254.8895457999315,254.8895457999315,254.8895457999315,254.8895457999315,255.25578729994595,255.25578729994595,255.25578729994595,255.25578729994595,255.25578729994595,255.25578729994595,255.25578729994595,255.25578729994595,255.25578729994595,8,2,"[0.11696200002916157, 0.3004715000279248]","[0.28378170006908476, 0.36717829992994666]",255.25578729994595,255.45615300000645,4.9,255.45615300000645,1,4.9,1,1,1000,num_4,0.9682688000611961,,31,12,2026-03-12_14h22.19.753,2026A_exp2,2022.2.4,59.96167248632054,
1,0,0.0,6.1,1,0,83,83,33,,,,,256.44028369989246,257.09099419997074,257.09099419997074,257.5922817999963,45,315,257.5922817999963,257.5922817999963,257.5922817999963,257.5922817999963,257.5922817999963,257.5922817999963,257.5922817999963,257.5922817999963,257.5922817999963,257.94248649990186,257.94248649990186,257.94248649990186,257.94248649990186,257.94248649990186,257.94248649990186,257.94248649990186,257.94248649990186,257.94248649990186,2,3,"[0.0011863999534398317, 0.16705180006101727, 0.26712449989281595]","[0.15041020000353456, 0.2503345999866724, 0.3501420000102371]",257.94248649990186,258.14207499986514,6.1,258.14207499986514,1,6.1,1,1,1000,num_4,0.5056760001461953,,31,12,2026-03-12_14h22.19.753,2026A_exp2,2022.2.4,59.96167248632054,
0,0,3.7,0.0,0,0,84,84,62,,,,,258.6758641998749,259.32669880008325,259.32669880008325,259.8110036998987,315,45,259.8110036998987,259.8110036998987,259.8110036998987,259.8110036998987,259.8110036998987,259.8110036998987,259.8110036998987,259.8110036998987,259.8110036998987,260.1773405999411,260.1773405999411,260.1773405999411,260.1773405999411,260.1773405999411,260.1773405999411,260.1773405999411,260.1773405999411,260.1773405999411,8,4,"[0.0014206001069396734, 0.20006559998728335, 0.283126600086689, 0.3669108999893069]","[0.18383150012232363, 0.21691130008548498, 0.3166511000599712, 0.3669151000212878]",260.1773405999411,260.37776069995016,0.0,260.37776069995016,0,0.0,0,1,1000,num_1,0.8071637998800725,,31,12,2026-03-12_14h22.19.753,2026A_exp2,2022.2.4,59.96167248632054,
1,0,6.1,0.0,1,0,85,85,80,,,,,261.21178309991956,261.86230829986744,261.86230829986744,262.3531760999467,315,45,262.3531760999467,262.3531760999467,262.3531760999467,262.3531760999467,262.3531760999467,262.3531760999467,262.3531760999467,262.3531760999467,262.3531760999467,262.71333599998616,262.71333599998616,262.71333599998616,262.71333599998616,262.71333599998616,262.71333599998616,262.71333599998616,262.71333599998616,262.71333599998616,2,3,"[0.0011877999641001225, 0.25178409996442497, 0.2851305000949651]","[0.23499240004457533, 0.2682789000682533, 0.3684525000862777]",262.71333599998616,262.9173111000564,0.0,262.9173111000564,0,0.0,0,1,1000,num_1,0.6834497000090778,,31,12,2026-03-12_14h22.19.753,2026A_exp2,2022.2.4,59.96167248632054,
1,0,0.0,3.7,1,0,86,86,32,,,,,263.63089650007896,264.28159140003845,264.28159140003845,264.76606890000403,45,45,264.76606890000403,264.76606890000403,264.76606890000403,264.76606890000403,264.76606890000403,264.76606890000403,264.76606890000403,264.76606890000403,264.76606890000403,265.1324712999631,265.1324712999631,265.1324712999631,265.1324712999631,265.1324712999631,265.1324712999631,265.1324712999631,265.1324712999631,265.1324712999631,20,2,"[0.1168136999476701, 0.26695120008662343]","[0.15018170000985265, 0.2836710000410676]",265.1324712999631,265.33253120002337,3.7,265.33253120002337,1,3.7,1,1,1000,num_4,0.6115353000350296,,31,12,2026-03-12_14h22.19.753,2026A_exp2,2022.2.4,59.96167248632054,
1000,1,0.0,0.0,0,0,87,87,86,,,,,265.96773869986646,266.6173578999005,266.6173578999005,267.11845429986715,315,315,267.11845429986715,267.11845429986715,267.11845429986715,267.11845429986715,267.11845429986715,267.11845429986715,267.11845429986715,267.11845429986715,267.11845429986715,267.4844194999896,267.4844194999896,267.4844194999896,267.4844194999896,267.4844194999896,267.4844194999896,267.4844194999896,267.4844194999896,267.4844194999896,0,1,[0.0012596000451594591],[0.36701539997011423],267.4844194999896,267.6871324998792,1000,267.6871324998792,1000,1000,1000,1000,0,num_3,1.3936125000473112,,31,12,2026-03-12_14h22.19.753,2026A_exp2,2022.2.4,59.96167248632054,
1000,1,6.1,0.0,1,0,88,88,29,,,,,269.10294839995913,269.753786199959,269.753786199959,270.2547734999098,45,315,270.2547734999098,270.2547734999098,270.2547734999098,270.2547734999098,270.2547734999098,270.2547734999098,270.2547734999098,270.2547734999098,270.2547734999098,270.62136469990946,270.62136469990946,270.62136469990946,270.62136469990946,270.62136469990946,270.62136469990946,270.62136469990946,270.62136469990946,270.62136469990946,4,3,"[0.03346850001253188, 0.06685480009764433, 0.11698200018145144]","[0.050261300057172775, 0.10018589999526739, 0.36710830009542406]",270.62136469990946,270.82320309989154,1000,270.82320309989154,1000,1000,1000,1000,0,num_3,0.38428550004027784,,31,12,2026-03-12_14h22.19.753,2026A_exp2,2022.2.4,59.96167248632054,
1000,1,0.0,0.0,1,0,89,89,1,,,,,271.2384156000335,271.88901540008374,271.88901540008374,272.39040570007637,315,315,272.39040570007637,272.39040570007637,272.39040570007637,272.39040570007637,272.39040570007637,272.39040570007637,272.39040570007637,272.39040570007637,272.39040570007637,272.75676989997737,272.75676989997737,272.75676989997737,272.75676989997737,272.75676989997737,272.75676989997737,272.75676989997737,272.75676989997737,272.75676989997737,1,2,"[0.0011558998376131058, 0.20035749999806285]","[0.18368299980647862, 0.3672358999028802]",272.75676989997737,272.959241699893,1000,272.959241699893,1000,1000,1000,1000,0,num_3,0.7762523998972028,,31,12,2026-03-12_14h22.19.753,2026A_exp2,2022.2.4,59.96167248632054,
,,,,,,,,,,,,,,,,,,,,,,,,,,,,,,,,,,,,,,,,,,,,,,,,,,,,273.7617470000405,,,,,,,
