validity,detectorcomp,contrastCW,contrastCCW,precueCWorCCW,block_80trials.thisRepN,block_80trials.thisTrialN,block_80trials.thisN,block_80trials.thisIndex,etRecord.started,etRecord.stopped,text.started,text.stopped,text_4.started,text_4.stopped,text_6.started,text_6.stopped,oriCW,oriCCW,roi_2.started,grating_UR.started,grating_UL.started,grating_LR.started,grating_LL.started,noise_UR.started,noise_UL.started,noise_LR.started,noise_LL.started,roi_2.stopped,grating_UR.stopped,grating_UL.stopped,grating_LR.stopped,grating_LL.stopped,noise_UR.stopped,noise_UL.stopped,noise_LR.stopped,noise_LL.stopped,outframe,roi_2.numLooks,roi_2.timesOn,roi_2.timesOff,text_2.started,text_2.stopped,probedcontrast,key_resp.started,respdetect,relevantContrast,correctDetect,TorFdetect,respCWorCCW,key_resp.keys,key_resp.rt,feedback_display_.started,participantNo,blockNo,date,expName,psychopyVersion,frameRate,
1000,1,0.0,4.9,0,0,0,0,27,5.819997750222683e-05,5.819997750222683e-05,59.54540820000693,61.54904279997572,61.54904279997572,62.181640599970706,62.181640599970706,62.700244200008456,315,45,62.700244200008456,62.700244200008456,62.700244200008456,62.700244200008456,62.700244200008456,62.700244200008456,62.700244200008456,62.700244200008456,62.700244200008456,63.04927560000215,63.04927560000215,63.04927560000215,63.04927560000215,63.04927560000215,63.04927560000215,63.04927560000215,63.04927560000215,63.04927560000215,23,0,,,63.04927560000215,63.256406800006516,1000,63.256406800006516,1000,1000,1000,1000,0,num_3,0.4441363000078127,,28,8,2026-03-05_16h09.44.963,2026A_exp2,2022.2.4,59.83838848974379,
1,0,3.7,6.1,1,0,1,1,6,,,,,63.71665799996117,64.36709159996826,64.36709159996826,64.85172719997354,45,45,64.85172719997354,64.85172719997354,64.85172719997354,64.85172719997354,64.85172719997354,64.85172719997354,64.85172719997354,64.85172719997354,64.85172719997354,65.21805769996718,65.21805769996718,65.21805769996718,65.21805769996718,65.21805769996718,65.21805769996718,65.21805769996718,65.21805769996718,65.21805769996718,23,0,,,65.21805769996718,65.41823640000075,6.1,65.41823640000075,0,6.1,1,0,1000,num_1,0.4576736000017263,,28,8,2026-03-05_16h09.44.963,2026A_exp2,2022.2.4,59.83838848974379,
1,0,0.0,3.7,0,0,2,2,2,,,,,65.90222749998793,66.55275689996779,66.55275689996779,67.03721039998345,315,45,67.03721039998345,67.03721039998345,67.03721039998345,67.03721039998345,67.03721039998345,67.03721039998345,67.03721039998345,67.03721039998345,67.03721039998345,67.40365260001272,67.40365260001272,67.40365260001272,67.40365260001272,67.40365260001272,67.40365260001272,67.40365260001272,67.40365260001272,67.40365260001272,23,0,,,67.40365260001272,67.60356590000447,0.0,67.60356590000447,1,0.0,0,0,1000,num_4,0.44091710000066087,,28,8,2026-03-05_16h09.44.963,2026A_exp2,2022.2.4,59.83838848974379,
1000,1,4.9,4.9,1,0,3,3,85,,,,,68.07092719996581,68.7214937999961,68.7214937999961,69.20587100001285,45,315,69.20587100001285,69.20587100001285,69.20587100001285,69.20587100001285,69.20587100001285,69.20587100001285,69.20587100001285,69.20587100001285,69.20587100001285,69.57244720001472,69.57244720001472,69.57244720001472,69.57244720001472,69.57244720001472,69.57244720001472,69.57244720001472,69.57244720001472,69.57244720001472,10,2,"[0.0012101000174880028, 0.1502129000145942]","[0.13360340002691373, 0.23377600003732368]",69.57244720001472,69.77493339998182,1000,69.77493339998182,1000,1000,1000,1000,0,num_3,0.5894738999777474,,28,8,2026-03-05_16h09.44.963,2026A_exp2,2022.2.4,59.83838848974379,
1000,1,0.0,4.9,1,0,4,4,73,,,,,70.38996070000576,71.04060979996575,71.04060979996575,71.54171879997011,45,315,71.54171879997011,71.54171879997011,71.54171879997011,71.54171879997011,71.54171879997011,71.54171879997011,71.54171879997011,71.54171879997011,71.54171879997011,71.89142249996075,71.89142249996075,71.89142249996075,71.89142249996075,71.89142249996075,71.89142249996075,71.89142249996075,71.89142249996075,71.89142249996075,14,2,"[0.0012632000143639743, 0.11687590001383796]","[0.10006690002046525, 0.15029020002111793]",71.89142249996075,72.09335099998862,1000,72.10837809997611,1000,1000,1000,1000,0,num_3,0.5113768000155687,,28,8,2026-03-05_16h09.44.963,2026A_exp2,2022.2.4,59.83838848974379,
1,0,0.0,6.1,0,0,5,5,57,,,,,72.64212279999629,73.29280489997473,73.29280489997473,73.77729080000427,315,45,73.77729080000427,73.77729080000427,73.77729080000427,73.77729080000427,73.77729080000427,73.77729080000427,73.77729080000427,73.77729080000427,73.77729080000427,74.14369499997701,74.14369499997701,74.14369499997701,74.14369499997701,74.14369499997701,74.14369499997701,74.14369499997701,74.14369499997701,74.14369499997701,2,2,"[0.00119859998812899, 0.3172743999748491]","[0.2838278000126593, 0.36718980001751333]",74.14369499997701,74.34373929997673,0.0,74.34373929997673,0,0.0,0,1,1000,num_1,0.43717449996620417,,28,8,2026-03-05_16h09.44.963,2026A_exp2,2022.2.4,59.83838848974379,
1,0,6.1,0.0,1,0,6,6,38,,,,,74.81089879997307,75.4616182000027,75.4616182000027,75.9460716000176,45,315,75.9460716000176,75.9460716000176,75.9460716000176,75.9460716000176,75.9460716000176,75.9460716000176,75.9460716000176,75.9460716000176,75.9460716000176,76.312318900018,76.312318900018,76.312318900018,76.312318900018,76.312318900018,76.312318900018,76.312318900018,76.312318900018,76.312318900018,23,0,,,76.312318900018,76.51268159999745,0.0,76.51268159999745,1,0.0,0,0,1000,num_4,0.4276608999934979,,28,8,2026-03-05_16h09.44.963,2026A_exp2,2022.2.4,59.83838848974379,
0,0,0.0,0.0,0,0,7,7,67,,,,,76.96299590001581,77.61387349996949,77.61387349996949,78.09824600000866,315,45,78.09824600000866,78.09824600000866,78.09824600000866,78.09824600000866,78.09824600000866,78.09824600000866,78.09824600000866,78.09824600000866,78.09824600000866,78.46457349997945,78.46457349997945,78.46457349997945,78.46457349997945,78.46457349997945,78.46457349997945,78.46457349997945,78.46457349997945,78.46457349997945,23,0,,,78.46457349997945,78.66486419999273,0.0,78.66486419999273,0,0.0,0,1,1000,num_1,0.38701760000549257,,28,8,2026-03-05_16h09.44.963,2026A_exp2,2022.2.4,59.83838848974379,
1000,1,4.9,4.9,1,0,8,8,26,,,,,79.08177290001186,79.73260180000216,79.73260180000216,80.21678239997709,315,315,80.21678239997709,80.21678239997709,80.21678239997709,80.21678239997709,80.21678239997709,80.21678239997709,80.21678239997709,80.21678239997709,80.21678239997709,80.58348460000707,80.58348460000707,80.58348460000707,80.58348460000707,80.58348460000707,80.58348460000707,80.58348460000707,80.58348460000707,80.58348460000707,23,0,,,80.58348460000707,80.78540509997401,1000,80.78540509997401,1000,1000,1000,1000,0,num_3,0.578491699998267,,28,8,2026-03-05_16h09.44.963,2026A_exp2,2022.2.4,59.83838848974379,
1,0,4.9,0.0,0,0,9,9,87,,,,,81.38409780000802,82.03491749998648,82.03491749998648,82.53585549996933,315,45,82.53585549996933,82.53585549996933,82.53585549996933,82.53585549996933,82.53585549996933,82.53585549996933,82.53585549996933,82.53585549996933,82.53585549996933,82.88574100000551,82.88574100000551,82.88574100000551,82.88574100000551,82.88574100000551,82.88574100000551,82.88574100000551,82.88574100000551,82.88574100000551,22,0,,,82.88574100000551,83.08585269999458,4.9,83.10245179996127,1,4.9,1,1,1000,num_4,0.4785400999826379,,28,8,2026-03-05_16h09.44.963,2026A_exp2,2022.2.4,59.83838848974379,
1,0,6.1,6.1,0,0,10,10,51,,,,,83.6029860000126,84.25377630000003,84.25377630000003,84.7382149999612,315,45,84.7382149999612,84.7382149999612,84.7382149999612,84.7382149999612,84.7382149999612,84.7382149999612,84.7382149999612,84.7382149999612,84.7382149999612,85.10477829998126,85.10477829998126,85.10477829998126,85.10477829998126,85.10477829998126,85.10477829998126,85.10477829998126,85.10477829998126,85.10477829998126,23,0,,,85.10477829998126,85.30486819997896,6.1,85.30486819997896,1,6.1,1,1,1000,num_4,0.47576929995557293,,28,8,2026-03-05_16h09.44.963,2026A_exp2,2022.2.4,59.83838848974379,
1,0,0.0,0.0,0,0,11,11,49,,,,,85.8052386000054,86.45601919997716,86.45601919997716,86.94043899996905,315,315,86.94043899996905,86.94043899996905,86.94043899996905,86.94043899996905,86.94043899996905,86.94043899996905,86.94043899996905,86.94043899996905,86.94043899996905,87.30679770000279,87.30679770000279,87.30679770000279,87.30679770000279,87.30679770000279,87.30679770000279,87.30679770000279,87.30679770000279,87.30679770000279,23,0,,,87.30679770000279,87.51257469999837,0.0,87.51257469999837,0,0.0,0,1,1000,num_1,0.5397286000079475,,28,8,2026-03-05_16h09.44.963,2026A_exp2,2022.2.4,59.83838848974379,
1,0,0.0,4.9,1,0,12,12,65,,,,,88.07417829998303,88.72492159996182,88.72492159996182,89.20909550000215,45,45,89.20909550000215,89.20909550000215,89.20909550000215,89.20909550000215,89.20909550000215,89.20909550000215,89.20909550000215,89.20909550000215,89.20909550000215,89.57576639996842,89.57576639996842,89.57576639996842,89.57576639996842,89.57576639996842,89.57576639996842,89.57576639996842,89.57576639996842,89.57576639996842,21,1,[0.0012494000256992877],[0.03339970001252368],89.57576639996842,89.77601410000352,4.9,89.77601410000352,1,4.9,1,1,1000,num_4,0.5166276000090875,,28,8,2026-03-05_16h09.44.963,2026A_exp2,2022.2.4,59.83838848974379,
1,0,0.0,0.0,1,0,13,13,53,,,,,90.30977900000289,90.96041210001567,90.96041210001567,91.44480519997887,315,45,91.44480519997887,91.44480519997887,91.44480519997887,91.44480519997887,91.44480519997887,91.44480519997887,91.44480519997887,91.44480519997887,91.44480519997887,91.81135169998743,91.81135169998743,91.81135169998743,91.81135169998743,91.81135169998743,91.81135169998743,91.81135169998743,91.81135169998743,91.81135169998743,13,3,"[0.0013043999788351357, 0.16696879995288327, 0.23351729998830706]","[0.11684410000452772, 0.20024679997004569, 0.25012909999350086]",91.81135169998743,92.01146750000771,0.0,92.01146750000771,0,0.0,0,1,1000,num_1,0.3209521000389941,,28,8,2026-03-05_16h09.44.963,2026A_exp2,2022.2.4,59.83838848974379,
1000,1,0.0,3.7,1,0,14,14,75,,,,,92.3617945999722,93.01251119998051,93.01251119998051,93.49686020001536,45,45,93.49686020001536,93.49686020001536,93.49686020001536,93.49686020001536,93.49686020001536,93.49686020001536,93.49686020001536,93.49686020001536,93.49686020001536,93.86322609998751,93.86322609998751,93.86322609998751,93.86322609998751,93.86322609998751,93.86322609998751,93.86322609998751,93.86322609998751,93.86322609998751,23,0,,,93.86322609998751,94.06335219996981,1000,94.06335219996981,1000,1000,1000,1000,0,num_3,0.7248221999616362,,28,8,2026-03-05_16h09.44.963,2026A_exp2,2022.2.4,59.83838848974379,
1000,1,0.0,0.0,1,0,15,15,70,,,,,94.81510080001317,95.45018400001572,95.45018400001572,95.96666689997073,45,315,95.96666689997073,95.96666689997073,95.96666689997073,95.96666689997073,95.96666689997073,95.96666689997073,95.96666689997073,95.96666689997073,95.96666689997073,96.31608959997538,96.31608959997538,96.31608959997538,96.31608959997538,96.31608959997538,96.31608959997538,96.31608959997538,96.31608959997538,96.31608959997538,22,0,,,96.31608959997538,96.51616699999431,1000,96.53346120001515,1000,1000,1000,1000,0,num_3,0.566729900019709,,28,8,2026-03-05_16h09.44.963,2026A_exp2,2022.2.4,59.83838848974379,
1,0,4.9,0.0,1,0,16,16,48,,,,,97.11679160001222,97.76681940001436,97.76681940001436,98.2681850999943,315,315,98.2681850999943,98.2681850999943,98.2681850999943,98.2681850999943,98.2681850999943,98.2681850999943,98.2681850999943,98.2681850999943,98.2681850999943,98.63475789997028,98.63475789997028,98.63475789997028,98.63475789997028,98.63475789997028,98.63475789997028,98.63475789997028,98.63475789997028,98.63475789997028,23,0,,,98.63475789997028,98.8349290000042,0.0,98.8349290000042,0,0.0,0,1,1000,num_1,0.585166200005915,,28,8,2026-03-05_16h09.44.963,2026A_exp2,2022.2.4,59.83838848974379,
1,0,0.0,3.7,0,0,17,17,22,,,,,99.45187310001347,100.08595539996168,100.08595539996168,100.58740730001591,315,315,100.58740730001591,100.58740730001591,100.58740730001591,100.58740730001591,100.58740730001591,100.58740730001591,100.58740730001591,100.58740730001591,100.58740730001591,100.95378719997825,100.95378719997825,100.95378719997825,100.95378719997825,100.95378719997825,100.95378719997825,100.95378719997825,100.95378719997825,100.95378719997825,18,3,"[0.08391340001253411, 0.18409080000128597, 0.26746509998338297]","[0.10068520001368597, 0.21741099999053404, 0.3008495999965817]",100.95378719997825,101.15393349999795,0.0,101.15393349999795,1,0.0,0,0,1000,num_4,0.7705596000305377,,28,8,2026-03-05_16h09.44.963,2026A_exp2,2022.2.4,59.83838848974379,
1,0,0.0,0.0,0,0,18,18,19,,,,,101.9546594999847,102.6109151999699,102.6109151999699,103.09876259998418,315,45,103.09876259998418,103.09876259998418,103.09876259998418,103.09876259998418,103.09876259998418,103.09876259998418,103.09876259998418,103.09876259998418,103.09876259998418,103.45619449997321,103.45619449997321,103.45619449997321,103.45619449997321,103.45619449997321,103.45619449997321,103.45619449997321,103.45619449997321,103.45619449997321,14,2,"[0.036715099995490164, 0.0981737999827601]","[0.08143429999472573, 0.19826680002734065]",103.45619449997321,103.65654060000088,0.0,103.65654060000088,1,0.0,0,0,1000,num_4,0.6119943000376225,,28,8,2026-03-05_16h09.44.963,2026A_exp2,2022.2.4,59.83838848974379,
0,0,3.7,6.1,1,0,19,19,17,,,,,104.29032029997325,104.94115829997463,104.94115829997463,105.42544749996159,45,315,105.42544749996159,105.42544749996159,105.42544749996159,105.42544749996159,105.42544749996159,105.42544749996159,105.42544749996159,105.42544749996159,105.42544749996159,105.79168369999388,105.79168369999388,105.79168369999388,105.79168369999388,105.79168369999388,105.79168369999388,105.79168369999388,105.79168369999388,105.79168369999388,23,0,,,105.79168369999388,105.99206969997613,3.7,105.99206969997613,0,3.7,1,0,1000,num_1,0.9326772000058554,,28,8,2026-03-05_16h09.44.963,2026A_exp2,2022.2.4,59.83838848974379,
1000,1,0.0,6.1,1,0,20,20,3,,,,,106.94315040000947,107.59364759997698,107.59364759997698,108.07826480001677,45,45,108.07826480001677,108.07826480001677,108.07826480001677,108.07826480001677,108.07826480001677,108.07826480001677,108.07826480001677,108.07826480001677,108.07826480001677,108.44454870000482,108.44454870000482,108.44454870000482,108.44454870000482,108.44454870000482,108.44454870000482,108.44454870000482,108.44454870000482,108.44454870000482,5,2,"[0.06674229999771342, 0.31721470004413277]","[0.2838581000105478, 0.3673693000455387]",108.44454870000482,108.64654459996382,1000,108.64654459996382,1000,1000,1000,1000,0,num_3,0.6226384000037797,,28,8,2026-03-05_16h09.44.963,2026A_exp2,2022.2.4,59.83838848974379,
1,0,3.7,0.0,1,0,21,21,59,,,,,109.29542909999145,109.94590019999305,109.94590019999305,110.4472689999966,315,315,110.4472689999966,110.4472689999966,110.4472689999966,110.4472689999966,110.4472689999966,110.4472689999966,110.4472689999966,110.4472689999966,110.4472689999966,110.81366779998643,110.81366779998643,110.81366779998643,110.81366779998643,110.81366779998643,110.81366779998643,110.81366779998643,110.81366779998643,110.81366779998643,23,0,,,110.81366779998643,111.01393570000073,0.0,111.01393570000073,1,0.0,0,0,1000,num_4,0.4146176000358537,,28,8,2026-03-05_16h09.44.963,2026A_exp2,2022.2.4,59.83838848974379,
1,0,6.1,6.1,0,0,22,22,11,,,,,111.4474730999791,112.0979626000044,112.0979626000044,112.58256090001669,45,315,112.58256090001669,112.58256090001669,112.58256090001669,112.58256090001669,112.58256090001669,112.58256090001669,112.58256090001669,112.58256090001669,112.58256090001669,112.94913889997406,112.94913889997406,112.94913889997406,112.94913889997406,112.94913889997406,112.94913889997406,112.94913889997406,112.94913889997406,112.94913889997406,23,0,,,112.94913889997406,113.1492961999611,6.1,113.1492961999611,0,6.1,1,0,1000,num_1,1.254480000003241,,28,8,2026-03-05_16h09.44.963,2026A_exp2,2022.2.4,59.83838848974379,
1000,1,3.7,4.9,0,0,23,23,13,,,,,114.43391229998088,115.0844619999989,115.0844619999989,115.56899409997277,45,315,115.56899409997277,115.56899409997277,115.56899409997277,115.56899409997277,115.56899409997277,115.56899409997277,115.56899409997277,115.56899409997277,115.56899409997277,115.93541949999053,115.93541949999053,115.93541949999053,115.93541949999053,115.93541949999053,115.93541949999053,115.93541949999053,115.93541949999053,115.93541949999053,23,0,,,115.93541949999053,116.13715510000475,1000,116.13715510000475,1000,1000,1000,1000,0,num_3,0.5787598999449983,,28,8,2026-03-05_16h09.44.963,2026A_exp2,2022.2.4,59.83838848974379,
1000,1,0.0,0.0,0,0,24,24,41,,,,,116.7362742999685,117.38682289997814,117.38682289997814,117.88803289999487,45,45,117.88803289999487,117.88803289999487,117.88803289999487,117.88803289999487,117.88803289999487,117.88803289999487,117.88803289999487,117.88803289999487,117.88803289999487,118.25431990000652,118.25431990000652,118.25431990000652,118.25431990000652,118.25431990000652,118.25431990000652,118.25431990000652,118.25431990000652,118.25431990000652,23,0,,,118.25431990000652,118.45659030001843,1000,118.45659030001843,1000,1000,1000,1000,1,num_2,0.596263799990993,,28,8,2026-03-05_16h09.44.963,2026A_exp2,2022.2.4,59.83838848974379,
1,0,4.9,0.0,1,0,25,25,15,,,,,119.07182339997962,119.7222053000005,119.7222053000005,120.22370480000973,45,45,120.22370480000973,120.22370480000973,120.22370480000973,120.22370480000973,120.22370480000973,120.22370480000973,120.22370480000973,120.22370480000973,120.22370480000973,120.58995459997095,120.58995459997095,120.58995459997095,120.58995459997095,120.58995459997095,120.58995459997095,120.58995459997095,120.58995459997095,120.58995459997095,23,0,,,120.58995459997095,120.79020160000073,0.0,120.79020160000073,0,0.0,0,1,1000,num_1,0.5587538999971002,,28,8,2026-03-05_16h09.44.963,2026A_exp2,2022.2.4,59.83838848974379,
1,0,3.7,4.9,0,0,26,26,31,,,,,121.37418390001403,122.02490299998317,122.02490299998317,122.50917460001074,45,315,122.50917460001074,122.50917460001074,122.50917460001074,122.50917460001074,122.50917460001074,122.50917460001074,122.50917460001074,122.50917460001074,122.50917460001074,122.87563729996327,122.87563729996327,122.87563729996327,122.87563729996327,122.87563729996327,122.87563729996327,122.87563729996327,122.87563729996327,122.87563729996327,23,0,,,122.87563729996327,123.0759583999752,3.7,123.0759583999752,0,3.7,1,0,1000,num_1,0.7204083999968134,,28,8,2026-03-05_16h09.44.963,2026A_exp2,2022.2.4,59.83838848974379,
1,0,6.1,0.0,0,0,27,27,24,,,,,123.82634580001468,124.47742879996076,124.47742879996076,124.96157400001539,45,45,124.96157400001539,124.96157400001539,124.96157400001539,124.96157400001539,124.96157400001539,124.96157400001539,124.96157400001539,124.96157400001539,124.96157400001539,125.32809779996751,125.32809779996751,125.32809779996751,125.32809779996751,125.32809779996751,125.32809779996751,125.32809779996751,125.32809779996751,125.32809779996751,23,0,,,125.32809779996751,125.52826499997173,6.1,125.52826499997173,1,6.1,1,1,1000,num_4,0.4046129999915138,,28,8,2026-03-05_16h09.44.963,2026A_exp2,2022.2.4,59.83838848974379,
1000,1,4.9,0.0,1,0,28,28,28,,,,,125.96203569998033,126.61271289997967,126.61271289997967,127.09722299996065,315,315,127.09722299996065,127.09722299996065,127.09722299996065,127.09722299996065,127.09722299996065,127.09722299996065,127.09722299996065,127.09722299996065,127.09722299996065,127.4636848999653,127.4636848999653,127.4636848999653,127.4636848999653,127.4636848999653,127.4636848999653,127.4636848999653,127.4636848999653,127.4636848999653,23,0,,,127.4636848999653,127.66557690000627,1000,127.66557690000627,1000,1000,1000,1000,0,num_3,0.6029729999718256,,28,8,2026-03-05_16h09.44.963,2026A_exp2,2022.2.4,59.83838848974379,
1000,1,0.0,6.1,0,0,29,29,83,,,,,128.29777359997388,128.94838560000062,128.94838560000062,129.44962269999087,45,45,129.44962269999087,129.44962269999087,129.44962269999087,129.44962269999087,129.44962269999087,129.44962269999087,129.44962269999087,129.44962269999087,129.44962269999087,129.81594820000464,129.81594820000464,129.81594820000464,129.81594820000464,129.81594820000464,129.81594820000464,129.81594820000464,129.81594820000464,129.81594820000464,23,0,,,129.81594820000464,130.01834050001344,1000,130.01834050001344,1000,1000,1000,1000,0,num_3,0.5380875000264496,,28,8,2026-03-05_16h09.44.963,2026A_exp2,2022.2.4,59.83838848974379,
1000,1,0.0,0.0,0,0,30,30,47,,,,,130.58344770001713,131.23408749996452,131.23408749996452,131.7351071999874,45,45,131.7351071999874,131.7351071999874,131.7351071999874,131.7351071999874,131.7351071999874,131.7351071999874,131.7351071999874,131.7351071999874,131.7351071999874,132.08477369998582,132.08477369998582,132.08477369998582,132.08477369998582,132.08477369998582,132.08477369998582,132.08477369998582,132.08477369998582,132.08477369998582,22,0,,,132.08477369998582,132.28518199996324,1000,132.28518199996324,1000,1000,1000,1000,1,num_2,0.598630900029093,,28,8,2026-03-05_16h09.44.963,2026A_exp2,2022.2.4,59.83838848974379,
1000,1,4.9,0.0,0,0,31,31,20,,,,,132.9022832000046,133.5530939999735,133.5530939999735,134.05427409999538,315,315,134.05427409999538,134.05427409999538,134.05427409999538,134.05427409999538,134.05427409999538,134.05427409999538,134.05427409999538,134.05427409999538,134.05427409999538,134.4206008000183,134.4206008000183,134.4206008000183,134.4206008000183,134.4206008000183,134.4206008000183,134.4206008000183,134.4206008000183,134.4206008000183,23,0,,,134.4206008000183,134.62258409999777,1000,134.62258409999777,1000,1000,1000,1000,0,num_3,0.6380699999863282,,28,8,2026-03-05_16h09.44.963,2026A_exp2,2022.2.4,59.83838848974379,
1000,1,6.1,0.0,1,0,32,32,79,,,,,135.28808620001655,135.93883110000752,135.93883110000752,136.43985069997143,45,45,136.43985069997143,136.43985069997143,136.43985069997143,136.43985069997143,136.43985069997143,136.43985069997143,136.43985069997143,136.43985069997143,136.43985069997143,136.80631959997118,136.80631959997118,136.80631959997118,136.80631959997118,136.80631959997118,136.80631959997118,136.80631959997118,136.80631959997118,136.80631959997118,23,0,,,136.80631959997118,137.01007809996372,1000,137.01007809996372,1000,1000,1000,1000,0,num_3,0.7858052999945357,,28,8,2026-03-05_16h09.44.963,2026A_exp2,2022.2.4,59.83838848974379,
1000,1,4.9,4.9,0,0,33,33,34,,,,,137.823932099971,138.47454369999468,138.47454369999468,138.97553569998126,315,45,138.97553569998126,138.97553569998126,138.97553569998126,138.97553569998126,138.97553569998126,138.97553569998126,138.97553569998126,138.97553569998126,138.97553569998126,139.34220939996885,139.34220939996885,139.34220939996885,139.34220939996885,139.34220939996885,139.34220939996885,139.34220939996885,139.34220939996885,139.34220939996885,23,0,,,139.34220939996885,139.54464729997562,1000,139.54464729997562,1000,1000,1000,1000,1,num_2,0.95654480002122,,28,8,2026-03-05_16h09.44.963,2026A_exp2,2022.2.4,59.83838848974379,
1000,1,0.0,0.0,0,0,34,34,5,,,,,140.52667270001257,141.17744240001775,141.17744240001775,141.6783922999748,315,45,141.6783922999748,141.6783922999748,141.6783922999748,141.6783922999748,141.6783922999748,141.6783922999748,141.6783922999748,141.6783922999748,141.6783922999748,142.0447373999632,142.0447373999632,142.0447373999632,142.0447373999632,142.0447373999632,142.0447373999632,142.0447373999632,142.0447373999632,142.0447373999632,23,0,,,142.0447373999632,142.24701160000404,1000,142.24701160000404,1000,1000,1000,1000,0,num_3,0.5648817999754101,,28,8,2026-03-05_16h09.44.963,2026A_exp2,2022.2.4,59.83838848974379,
1000,1,0.0,0.0,1,0,35,35,62,,,,,142.8289381999639,143.47955559997354,143.47955559997354,143.98081370000727,45,45,143.98081370000727,143.98081370000727,143.98081370000727,143.98081370000727,143.98081370000727,143.98081370000727,143.98081370000727,143.98081370000727,143.98081370000727,144.3471330999746,144.3471330999746,144.3471330999746,144.3471330999746,144.3471330999746,144.3471330999746,144.3471330999746,144.3471330999746,144.3471330999746,23,0,,,144.3471330999746,144.54931460000807,1000,144.54931460000807,1000,1000,1000,1000,1,num_2,0.7032258000108413,,28,8,2026-03-05_16h09.44.963,2026A_exp2,2022.2.4,59.83838848974379,
1000,1,3.7,0.0,0,0,36,36,37,,,,,145.28136029996676,145.9321964000119,145.9321964000119,146.43315759999678,315,45,146.43315759999678,146.43315759999678,146.43315759999678,146.43315759999678,146.43315759999678,146.43315759999678,146.43315759999678,146.43315759999678,146.43315759999678,146.7829112999607,146.7829112999607,146.7829112999607,146.7829112999607,146.7829112999607,146.7829112999607,146.7829112999607,146.7829112999607,146.7829112999607,22,0,,,146.7829112999607,146.98566209996352,1000,146.98566209996352,1000,1000,1000,1000,0,num_3,0.5703299000160769,,28,8,2026-03-05_16h09.44.963,2026A_exp2,2022.2.4,59.83838848974379,
1000,1,0.0,0.0,1,0,37,37,71,,,,,147.58370720001403,148.23442759999307,148.23442759999307,148.73555539996596,45,315,148.73555539996596,148.73555539996596,148.73555539996596,148.73555539996596,148.73555539996596,148.73555539996596,148.73555539996596,148.73555539996596,148.73555539996596,149.1019146000035,149.1019146000035,149.1019146000035,149.1019146000035,149.1019146000035,149.1019146000035,149.1019146000035,149.1019146000035,149.1019146000035,23,0,,,149.1019146000035,149.30375939997612,1000,149.30375939997612,1000,1000,1000,1000,0,num_3,0.6359860000084154,,28,8,2026-03-05_16h09.44.963,2026A_exp2,2022.2.4,59.83838848974379,
1000,1,6.1,0.0,0,0,38,38,80,,,,,149.96996750001563,150.62004519999027,150.62004519999027,151.12125460000243,315,315,151.12125460000243,151.12125460000243,151.12125460000243,151.12125460000243,151.12125460000243,151.12125460000243,151.12125460000243,151.12125460000243,151.12125460000243,151.4708937999676,151.4708937999676,151.4708937999676,151.4708937999676,151.4708937999676,151.4708937999676,151.4708937999676,151.4708937999676,151.4708937999676,22,0,,,151.4708937999676,151.67286529997364,1000,151.67286529997364,1000,1000,1000,1000,0,num_3,0.6352750000078231,,28,8,2026-03-05_16h09.44.963,2026A_exp2,2022.2.4,59.83838848974379,
1,0,3.7,6.1,0,0,39,39,55,,,,,152.33871290000388,152.99814009998227,152.99814009998227,153.4899988999823,45,45,153.4899988999823,153.4899988999823,153.4899988999823,153.4899988999823,153.4899988999823,153.4899988999823,153.4899988999823,153.4899988999823,153.4899988999823,153.85659639997175,153.85659639997175,153.85659639997175,153.85659639997175,153.85659639997175,153.85659639997175,153.85659639997175,153.85659639997175,153.85659639997175,23,0,,,153.85659639997175,154.0569634999847,3.7,154.0569634999847,0,3.7,1,0,1000,num_1,1.0830270000151359,,28,8,2026-03-05_16h09.44.963,2026A_exp2,2022.2.4,59.83838848974379,
1,0,6.1,3.7,0,0,40,40,86,,,,,155.15798550000181,155.80862179998076,155.80862179998076,156.29297660000157,315,45,156.29297660000157,156.29297660000157,156.29297660000157,156.29297660000157,156.29297660000157,156.29297660000157,156.29297660000157,156.29297660000157,156.29297660000157,156.65946799999801,156.65946799999801,156.65946799999801,156.65946799999801,156.65946799999801,156.65946799999801,156.65946799999801,156.65946799999801,156.65946799999801,23,0,,,156.65946799999801,156.85955339996144,6.1,156.85955339996144,0,6.1,1,0,1000,num_1,2.041411700018216,,28,8,2026-03-05_16h09.44.963,2026A_exp2,2022.2.4,59.83838848974379,
1000,1,6.1,3.7,1,0,41,41,45,,,,,158.9284031999996,159.5790542999748,159.5790542999748,160.0635503999656,315,315,160.0635503999656,160.0635503999656,160.0635503999656,160.0635503999656,160.0635503999656,160.0635503999656,160.0635503999656,160.0635503999656,160.0635503999656,160.42986540001584,160.42986540001584,160.42986540001584,160.42986540001584,160.42986540001584,160.42986540001584,160.42986540001584,160.42986540001584,160.42986540001584,23,0,,,160.42986540001584,160.63152110000374,1000,160.63152110000374,1000,1000,1000,1000,1,num_2,1.0767625999869779,,28,8,2026-03-05_16h09.44.963,2026A_exp2,2022.2.4,59.83838848974379,
1,0,6.1,6.1,1,0,42,42,89,,,,,161.7312108000042,162.38192439998966,162.38192439998966,162.88303849997465,45,45,162.88303849997465,162.88303849997465,162.88303849997465,162.88303849997465,162.88303849997465,162.88303849997465,162.88303849997465,162.88303849997465,162.88303849997465,163.2493123000022,163.2493123000022,163.2493123000022,163.2493123000022,163.2493123000022,163.2493123000022,163.2493123000022,163.2493123000022,163.2493123000022,23,0,,,163.2493123000022,163.44965490000322,6.1,163.44965490000322,0,6.1,1,0,1000,num_1,1.5395665999967605,,28,8,2026-03-05_16h09.44.963,2026A_exp2,2022.2.4,59.83838848974379,
1,0,0.0,0.0,1,0,43,43,82,,,,,165.0177796999924,165.66840139997657,165.66840139997657,166.1530306999921,45,45,166.1530306999921,166.1530306999921,166.1530306999921,166.1530306999921,166.1530306999921,166.1530306999921,166.1530306999921,166.1530306999921,166.1530306999921,166.51930859999266,166.51930859999266,166.51930859999266,166.51930859999266,166.51930859999266,166.51930859999266,166.51930859999266,166.51930859999266,166.51930859999266,23,0,,,166.51930859999266,166.71947869996075,0.0,166.71947869996075,1,0.0,0,0,1000,num_4,0.5810587999876589,,28,8,2026-03-05_16h09.44.963,2026A_exp2,2022.2.4,59.83838848974379,
1,0,0.0,0.0,0,0,44,44,0,,,,,167.3202159999637,167.97079749999102,167.97079749999102,168.45495879999362,45,45,168.45495879999362,168.45495879999362,168.45495879999362,168.45495879999362,168.45495879999362,168.45495879999362,168.45495879999362,168.45495879999362,168.45495879999362,168.82169040001463,168.82169040001463,168.82169040001463,168.82169040001463,168.82169040001463,168.82169040001463,168.82169040001463,168.82169040001463,168.82169040001463,23,0,,,168.82169040001463,169.02188939996995,0.0,169.02188939996995,1,0.0,0,0,1000,num_4,0.6384902999852784,,28,8,2026-03-05_16h09.44.963,2026A_exp2,2022.2.4,59.83838848974379,
1000,1,6.1,3.7,0,0,45,45,61,,,,,169.6891107999836,170.33979940001154,170.33979940001154,170.82408799999394,315,45,170.82408799999394,170.82408799999394,170.82408799999394,170.82408799999394,170.82408799999394,170.82408799999394,170.82408799999394,170.82408799999394,170.82408799999394,171.1907279000152,171.1907279000152,171.1907279000152,171.1907279000152,171.1907279000152,171.1907279000152,171.1907279000152,171.1907279000152,171.1907279000152,23,0,,,171.1907279000152,171.3930453999783,1000,171.3930453999783,1000,1000,1000,1000,0,num_3,0.787219499994535,,28,8,2026-03-05_16h09.44.963,2026A_exp2,2022.2.4,59.83838848974379,
1000,1,4.9,0.0,0,0,46,46,78,,,,,172.2085486999713,172.84237959998427,172.84237959998427,173.34333399997558,45,315,173.34333399997558,173.34333399997558,173.34333399997558,173.34333399997558,173.34333399997558,173.34333399997558,173.34333399997558,173.34333399997558,173.34333399997558,173.7099009999656,173.7099009999656,173.7099009999656,173.7099009999656,173.7099009999656,173.7099009999656,173.7099009999656,173.7099009999656,173.7099009999656,23,0,,,173.7099009999656,173.91226369998185,1000,173.91226369998185,1000,1000,1000,1000,1,num_2,0.7961512000183575,,28,8,2026-03-05_16h09.44.963,2026A_exp2,2022.2.4,59.83838848974379,
1,0,3.7,3.7,1,0,47,47,64,,,,,174.7274607999716,175.37807350000367,175.37807350000367,175.879246699973,45,315,175.879246699973,175.879246699973,175.879246699973,175.879246699973,175.879246699973,175.879246699973,175.879246699973,175.879246699973,175.879246699973,176.22909859998617,176.22909859998617,176.22909859998617,176.22909859998617,176.22909859998617,176.22909859998617,176.22909859998617,176.22909859998617,176.22909859998617,22,0,,,176.22909859998617,176.4292631999706,3.7,176.4460012000054,0,3.7,1,0,1000,num_1,1.3341897000209428,,28,8,2026-03-05_16h09.44.963,2026A_exp2,2022.2.4,59.83838848974379,
1000,1,3.7,3.7,1,0,48,48,88,,,,,177.79723450000165,178.44796570000472,178.44796570000472,178.9324079999933,45,315,178.9324079999933,178.9324079999933,178.9324079999933,178.9324079999933,178.9324079999933,178.9324079999933,178.9324079999933,178.9324079999933,178.9324079999933,179.29861659999005,179.29861659999005,179.29861659999005,179.29861659999005,179.29861659999005,179.29861659999005,179.29861659999005,179.29861659999005,179.29861659999005,23,0,,,179.29861659999005,179.50059519999195,1000,179.50059519999195,1000,1000,1000,1000,0,num_3,0.8237010999582708,,28,8,2026-03-05_16h09.44.963,2026A_exp2,2022.2.4,59.83838848974379,
1000,1,3.7,6.1,0,0,49,49,81,,,,,180.34984139999142,181.00051450001774,181.00051450001774,181.50150469999062,315,315,181.50150469999062,181.50150469999062,181.50150469999062,181.50150469999062,181.50150469999062,181.50150469999062,181.50150469999062,181.50150469999062,181.50150469999062,181.86800620000577,181.86800620000577,181.86800620000577,181.86800620000577,181.86800620000577,181.86800620000577,181.86800620000577,181.86800620000577,181.86800620000577,23,0,,,181.86800620000577,182.06921709998278,1000,182.06921709998278,1000,1000,1000,1000,0,num_3,1.5186360999941826,,28,8,2026-03-05_16h09.44.963,2026A_exp2,2022.2.4,59.83838848974379,
0,0,0.0,0.0,0,0,50,50,69,,,,,183.60298089997377,184.25378199998522,184.25378199998522,184.76999940001406,45,315,184.76999940001406,184.76999940001406,184.76999940001406,184.76999940001406,184.76999940001406,184.76999940001406,184.76999940001406,184.76999940001406,184.76999940001406,185.12129109998932,185.12129109998932,185.12129109998932,185.12129109998932,185.12129109998932,185.12129109998932,185.12129109998932,185.12129109998932,185.12129109998932,23,0,,,185.12129109998932,185.32147670001723,0.0,185.32147670001723,1,0.0,0,0,1000,num_4,1.387317400018219,,28,8,2026-03-05_16h09.44.963,2026A_exp2,2022.2.4,59.83838848974379,
1000,1,6.1,4.9,1,0,51,51,76,,,,,186.7395264999941,187.39045409997925,187.39045409997925,187.8745501000085,45,315,187.8745501000085,187.8745501000085,187.8745501000085,187.8745501000085,187.8745501000085,187.8745501000085,187.8745501000085,187.8745501000085,187.8745501000085,188.24109909997787,188.24109909997787,188.24109909997787,188.24109909997787,188.24109909997787,188.24109909997787,188.24109909997787,188.24109909997787,188.24109909997787,23,0,,,188.24109909997787,188.44342349999351,1000,188.44342349999351,1000,1000,1000,1000,0,num_3,1.0653830000082962,,28,8,2026-03-05_16h09.44.963,2026A_exp2,2022.2.4,59.83838848974379,
1,0,0.0,6.1,0,0,52,52,72,,,,,189.5257857000106,190.17630589997862,190.17630589997862,190.67749249999179,45,45,190.67749249999179,190.67749249999179,190.67749249999179,190.67749249999179,190.67749249999179,190.67749249999179,190.67749249999179,190.67749249999179,190.67749249999179,191.04397609998705,191.04397609998705,191.04397609998705,191.04397609998705,191.04397609998705,191.04397609998705,191.04397609998705,191.04397609998705,191.04397609998705,23,0,,,191.04397609998705,191.24403980001807,0.0,191.24403980001807,0,0.0,0,1,1000,num_1,0.7686798000358976,,28,8,2026-03-05_16h09.44.963,2026A_exp2,2022.2.4,59.83838848974379,
1000,1,6.1,0.0,0,0,53,53,8,,,,,192.04478799999924,192.6998839000007,192.6998839000007,193.19561019999674,45,315,193.19561019999674,193.19561019999674,193.19561019999674,193.19561019999674,193.19561019999674,193.19561019999674,193.19561019999674,193.19561019999674,193.19561019999674,193.5461886000121,193.5461886000121,193.5461886000121,193.5461886000121,193.5461886000121,193.5461886000121,193.5461886000121,193.5461886000121,193.5461886000121,23,0,,,193.5461886000121,193.74844389996724,1000,193.74844389996724,1000,1000,1000,1000,1,num_2,0.8953920000349171,,28,8,2026-03-05_16h09.44.963,2026A_exp2,2022.2.4,59.83838848974379,
1000,1,3.7,0.0,1,0,54,54,33,,,,,194.66412709996803,195.31480880000163,195.31480880000163,195.81595909997122,45,45,195.81595909997122,195.81595909997122,195.81595909997122,195.81595909997122,195.81595909997122,195.81595909997122,195.81595909997122,195.81595909997122,195.81595909997122,196.18238830001792,196.18238830001792,196.18238830001792,196.18238830001792,196.18238830001792,196.18238830001792,196.18238830001792,196.18238830001792,196.18238830001792,23,0,,,196.18238830001792,196.38424390001455,1000,196.38424390001455,1000,1000,1000,1000,0,num_3,1.1165611000033095,,28,8,2026-03-05_16h09.44.963,2026A_exp2,2022.2.4,59.83838848974379,
1,0,0.0,0.0,0,0,55,55,29,,,,,197.51713250001194,198.16764090000652,198.16764090000652,198.65226399997482,315,45,198.65226399997482,198.65226399997482,198.65226399997482,198.65226399997482,198.65226399997482,198.65226399997482,198.65226399997482,198.65226399997482,198.65226399997482,199.01850700000068,199.01850700000068,199.01850700000068,199.01850700000068,199.01850700000068,199.01850700000068,199.01850700000068,199.01850700000068,199.01850700000068,23,0,,,199.01850700000068,199.2186350999982,0.0,199.2186350999982,0,0.0,0,1,1000,num_1,1.7937695000437088,,28,8,2026-03-05_16h09.44.963,2026A_exp2,2022.2.4,59.83838848974379,
1,0,0.0,3.7,1,0,56,56,10,,,,,201.03722200001357,201.687922800018,201.687922800018,202.17231539997738,45,45,202.17231539997738,202.17231539997738,202.17231539997738,202.17231539997738,202.17231539997738,202.17231539997738,202.17231539997738,202.17231539997738,202.17231539997738,202.53872389998287,202.53872389998287,202.53872389998287,202.53872389998287,202.53872389998287,202.53872389998287,202.53872389998287,202.53872389998287,202.53872389998287,23,0,,,202.53872389998287,202.73880270001246,3.7,202.73880270001246,0,3.7,1,0,1000,num_1,0.6259675000328571,,28,8,2026-03-05_16h09.44.963,2026A_exp2,2022.2.4,59.83838848974379,
1,0,0.0,3.7,1,0,57,57,12,,,,,203.38939739996567,204.0410525999614,204.0410525999614,204.54123749997234,45,315,204.54123749997234,204.54123749997234,204.54123749997234,204.54123749997234,204.54123749997234,204.54123749997234,204.54123749997234,204.54123749997234,204.54123749997234,204.9075857999851,204.9075857999851,204.9075857999851,204.9075857999851,204.9075857999851,204.9075857999851,204.9075857999851,204.9075857999851,204.9075857999851,23,0,,,204.9075857999851,205.107821099984,3.7,205.107821099984,1,3.7,1,1,1000,num_4,0.37705989996902645,,28,8,2026-03-05_16h09.44.963,2026A_exp2,2022.2.4,59.83838848974379,
0,0,3.7,3.7,0,0,58,58,63,,,,,205.50824220001232,206.15899540000828,206.15899540000828,206.64334229996894,315,45,206.64334229996894,206.64334229996894,206.64334229996894,206.64334229996894,206.64334229996894,206.64334229996894,206.64334229996894,206.64334229996894,206.64334229996894,207.00980559998425,207.00980559998425,207.00980559998425,207.00980559998425,207.00980559998425,207.00980559998425,207.00980559998425,207.00980559998425,207.00980559998425,23,0,,,207.00980559998425,207.2098805999849,3.7,207.2098805999849,1,3.7,1,1,1000,num_4,1.1860050999675877,,28,8,2026-03-05_16h09.44.963,2026A_exp2,2022.2.4,59.83838848974379,
1000,1,6.1,6.1,0,0,59,59,50,,,,,208.42789799999446,209.07862679997925,209.07862679997925,209.5629665000015,315,45,209.5629665000015,209.5629665000015,209.5629665000015,209.5629665000015,209.5629665000015,209.5629665000015,209.5629665000015,209.5629665000015,209.5629665000015,209.9294721999904,209.9294721999904,209.9294721999904,209.9294721999904,209.9294721999904,209.9294721999904,209.9294721999904,209.9294721999904,209.9294721999904,23,0,,,209.9294721999904,210.13180879998254,1000,210.13180879998254,1000,1000,1000,1000,0,num_3,0.8967810000176542,,28,8,2026-03-05_16h09.44.963,2026A_exp2,2022.2.4,59.83838848974379,
1,0,0.0,4.9,0,0,60,60,35,,,,,211.04720600001747,211.69780199998058,211.69780199998058,212.19886589999078,315,45,212.19886589999078,212.19886589999078,212.19886589999078,212.19886589999078,212.19886589999078,212.19886589999078,212.19886589999078,212.19886589999078,212.19886589999078,212.56540670001414,212.56540670001414,212.56540670001414,212.56540670001414,212.56540670001414,212.56540670001414,212.56540670001414,212.56540670001414,212.56540670001414,23,0,,,212.56540670001414,212.76554980000947,0.0,212.76554980000947,1,0.0,0,0,1000,num_4,0.7501979999942705,,28,8,2026-03-05_16h09.44.963,2026A_exp2,2022.2.4,59.83838848974379,
1000,1,6.1,0.0,1,0,61,61,52,,,,,213.5329478000058,214.18369919998804,214.18369919998804,214.66813339997316,315,45,214.66813339997316,214.66813339997316,214.66813339997316,214.66813339997316,214.66813339997316,214.66813339997316,214.66813339997316,214.66813339997316,214.66813339997316,215.0346325999708,215.0346325999708,215.0346325999708,215.0346325999708,215.0346325999708,215.0346325999708,215.0346325999708,215.0346325999708,215.0346325999708,23,0,,,215.0346325999708,215.2366426999797,1000,215.2366426999797,1000,1000,1000,1000,1,num_2,0.9120994000113569,,28,8,2026-03-05_16h09.44.963,2026A_exp2,2022.2.4,59.83838848974379,
1000,1,0.0,3.7,1,0,62,62,43,,,,,216.1688517999719,216.81955499999458,216.81955499999458,217.32062989997212,45,315,217.32062989997212,217.32062989997212,217.32062989997212,217.32062989997212,217.32062989997212,217.32062989997212,217.32062989997212,217.32062989997212,217.32062989997212,217.68711960001383,217.68711960001383,217.68711960001383,217.68711960001383,217.68711960001383,217.68711960001383,217.68711960001383,217.68711960001383,217.68711960001383,23,0,,,217.68711960001383,217.88748289999785,1000,217.88748289999785,1000,1000,1000,1000,1,num_2,1.661627400026191,,28,8,2026-03-05_16h09.44.963,2026A_exp2,2022.2.4,59.83838848974379,
0,0,0.0,0.0,0,0,63,63,4,,,,,219.57258789998014,220.2064692999702,220.2064692999702,220.70732659997884,315,45,220.70732659997884,220.70732659997884,220.70732659997884,220.70732659997884,220.70732659997884,220.70732659997884,220.70732659997884,220.70732659997884,220.70732659997884,221.07379769999534,221.07379769999534,221.07379769999534,221.07379769999534,221.07379769999534,221.07379769999534,221.07379769999534,221.07379769999534,221.07379769999534,23,0,,,221.07379769999534,221.27405619999627,0.0,221.27405619999627,1,0.0,0,0,1000,num_4,0.834692400007043,,28,8,2026-03-05_16h09.44.963,2026A_exp2,2022.2.4,59.83838848974379,
1000,1,3.7,3.7,1,0,64,64,46,,,,,222.12492949998705,222.77557319996413,222.77557319996413,223.2599404999637,315,45,223.2599404999637,223.2599404999637,223.2599404999637,223.2599404999637,223.2599404999637,223.2599404999637,223.2599404999637,223.2599404999637,223.2599404999637,223.6264000000083,223.6264000000083,223.6264000000083,223.6264000000083,223.6264000000083,223.6264000000083,223.6264000000083,223.6264000000083,223.6264000000083,23,0,,,223.6264000000083,223.82864779996453,1000,223.82864779996453,1000,1000,1000,1000,0,num_3,0.9912708000047132,,28,8,2026-03-05_16h09.44.963,2026A_exp2,2022.2.4,59.83838848974379,
1000,1,0.0,0.0,1,0,65,65,42,,,,,224.84438109997427,225.4948427999625,225.4948427999625,225.9960929999943,315,315,225.9960929999943,225.9960929999943,225.9960929999943,225.9960929999943,225.9960929999943,225.9960929999943,225.9960929999943,225.9960929999943,225.9960929999943,226.34578989999136,226.34578989999136,226.34578989999136,226.34578989999136,226.34578989999136,226.34578989999136,226.34578989999136,226.34578989999136,226.34578989999136,22,0,,,226.34578989999136,226.54809019999811,1000,226.54809019999811,1000,1000,1000,1000,1,num_2,1.3608618999714963,,28,8,2026-03-05_16h09.44.963,2026A_exp2,2022.2.4,59.83838848974379,
1000,1,4.9,3.7,1,0,66,66,14,,,,,227.9307650999981,228.58172419999028,228.58172419999028,229.08242130000144,45,45,229.08242130000144,229.08242130000144,229.08242130000144,229.08242130000144,229.08242130000144,229.08242130000144,229.08242130000144,229.08242130000144,229.08242130000144,229.44879850000143,229.44879850000143,229.44879850000143,229.44879850000143,229.44879850000143,229.44879850000143,229.44879850000143,229.44879850000143,229.44879850000143,23,0,,,229.44879850000143,229.65133969997987,1000,229.65133969997987,1000,1000,1000,1000,0,num_3,2.097551300015766,,28,8,2026-03-05_16h09.44.963,2026A_exp2,2022.2.4,59.83838848974379,
1000,1,3.7,0.0,1,0,67,67,21,,,,,231.76810370001476,232.41856749996077,232.41856749996077,232.90290009998716,315,45,232.90290009998716,232.90290009998716,232.90290009998716,232.90290009998716,232.90290009998716,232.90290009998716,232.90290009998716,232.90290009998716,232.90290009998716,233.26934050000273,233.26934050000273,233.26934050000273,233.26934050000273,233.26934050000273,233.26934050000273,233.26934050000273,233.26934050000273,233.26934050000273,23,0,,,233.26934050000273,233.4714326999965,1000,233.4714326999965,1000,1000,1000,1000,1,num_2,0.9097186999861151,,28,8,2026-03-05_16h09.44.963,2026A_exp2,2022.2.4,59.83838848974379,
1,0,0.0,3.7,1,0,68,68,25,,,,,234.4035651999875,235.05450909998035,235.05450909998035,235.55561470001703,315,45,235.55561470001703,235.55561470001703,235.55561470001703,235.55561470001703,235.55561470001703,235.55561470001703,235.55561470001703,235.55561470001703,235.55561470001703,235.92207490000874,235.92207490000874,235.92207490000874,235.92207490000874,235.92207490000874,235.92207490000874,235.92207490000874,235.92207490000874,235.92207490000874,23,0,,,235.92207490000874,236.1221917999792,3.7,236.1221917999792,0,3.7,1,0,1000,num_1,1.1697718999930657,,28,8,2026-03-05_16h09.44.963,2026A_exp2,2022.2.4,59.83838848974379,
1000,1,3.7,3.7,0,0,69,69,16,,,,,237.32353890000377,237.9741738999728,237.9741738999728,238.4585933999624,315,45,238.4585933999624,238.4585933999624,238.4585933999624,238.4585933999624,238.4585933999624,238.4585933999624,238.4585933999624,238.4585933999624,238.4585933999624,238.82504339999286,238.82504339999286,238.82504339999286,238.82504339999286,238.82504339999286,238.82504339999286,238.82504339999286,238.82504339999286,238.82504339999286,23,0,,,238.82504339999286,239.02712210000027,1000,239.02712210000027,1000,1000,1000,1000,1,num_2,1.0009651000145823,,28,8,2026-03-05_16h09.44.963,2026A_exp2,2022.2.4,59.83838848974379,
1,0,0.0,0.0,0,0,70,70,66,,,,,240.05956049996894,240.71031210001092,240.71031210001092,241.21126060001552,315,315,241.21126060001552,241.21126060001552,241.21126060001552,241.21126060001552,241.21126060001552,241.21126060001552,241.21126060001552,241.21126060001552,241.21126060001552,241.57767209998565,241.57767209998565,241.57767209998565,241.57767209998565,241.57767209998565,241.57767209998565,241.57767209998565,241.57767209998565,241.57767209998565,23,0,,,241.57767209998565,241.7779848999926,0.0,241.7779848999926,0,0.0,0,1,1000,num_1,1.2264737999648787,,28,8,2026-03-05_16h09.44.963,2026A_exp2,2022.2.4,59.83838848974379,
1,0,6.1,4.9,0,0,71,71,30,,,,,243.0292477000039,243.679876899987,243.679876899987,244.16431799996644,315,45,244.16431799996644,244.16431799996644,244.16431799996644,244.16431799996644,244.16431799996644,244.16431799996644,244.16431799996644,244.16431799996644,244.16431799996644,244.53070730000036,244.53070730000036,244.53070730000036,244.53070730000036,244.53070730000036,244.53070730000036,244.53070730000036,244.53070730000036,244.53070730000036,23,0,,,244.53070730000036,244.73084450000897,6.1,244.73084450000897,1,6.1,1,1,1000,num_4,0.9611614000168629,,28,8,2026-03-05_16h09.44.963,2026A_exp2,2022.2.4,59.83838848974379,
1000,1,0.0,0.0,1,0,72,72,39,,,,,245.7155089000007,246.34933779999847,246.34933779999847,246.85029259999283,45,45,246.85029259999283,246.85029259999283,246.85029259999283,246.85029259999283,246.85029259999283,246.85029259999283,246.85029259999283,246.85029259999283,246.85029259999283,247.21652169997105,247.21652169997105,247.21652169997105,247.21652169997105,247.21652169997105,247.21652169997105,247.21652169997105,247.21652169997105,247.21652169997105,23,0,,,247.21652169997105,247.41865110001527,1000,247.41865110001527,1000,1000,1000,1000,0,num_3,0.6099123999592848,,28,8,2026-03-05_16h09.44.963,2026A_exp2,2022.2.4,59.83838848974379,
1,0,0.0,4.9,1,0,73,73,36,,,,,248.05098299996462,248.70155230001546,248.70155230001546,249.20257769996533,45,45,249.20257769996533,249.20257769996533,249.20257769996533,249.20257769996533,249.20257769996533,249.20257769996533,249.20257769996533,249.20257769996533,249.20257769996533,249.5691008999711,249.5691008999711,249.5691008999711,249.5691008999711,249.5691008999711,249.5691008999711,249.5691008999711,249.5691008999711,249.5691008999711,23,0,,,249.5691008999711,249.76931940001668,4.9,249.76931940001668,0,4.9,1,0,1000,num_1,0.7625889999908395,,28,8,2026-03-05_16h09.44.963,2026A_exp2,2022.2.4,59.83838848974379,
1,0,3.7,4.9,0,0,74,74,84,,,,,250.55328409996582,251.2040285000112,251.2040285000112,251.70506850001402,45,45,251.70506850001402,251.70506850001402,251.70506850001402,251.70506850001402,251.70506850001402,251.70506850001402,251.70506850001402,251.70506850001402,251.70506850001402,252.05492560000857,252.05492560000857,252.05492560000857,252.05492560000857,252.05492560000857,252.05492560000857,252.05492560000857,252.05492560000857,252.05492560000857,22,0,,,252.05492560000857,252.25495169998612,3.7,252.25495169998612,1,3.7,1,1,1000,num_4,0.9729651999659836,,28,8,2026-03-05_16h09.44.963,2026A_exp2,2022.2.4,59.83838848974379,
1,0,4.9,0.0,0,0,75,75,23,,,,,253.25611539999954,253.90679709997494,253.90679709997494,254.39106090000132,45,315,254.39106090000132,254.39106090000132,254.39106090000132,254.39106090000132,254.39106090000132,254.39106090000132,254.39106090000132,254.39106090000132,254.39106090000132,254.75753259996418,254.75753259996418,254.75753259996418,254.75753259996418,254.75753259996418,254.75753259996418,254.75753259996418,254.75753259996418,254.75753259996418,23,0,,,254.75753259996418,254.95785389997764,4.9,254.95785389997764,1,4.9,1,1,1000,num_4,0.7102223999681883,,28,8,2026-03-05_16h09.44.963,2026A_exp2,2022.2.4,59.83838848974379,
1000,1,0.0,4.9,0,0,76,76,9,,,,,255.69189389998792,256.34256650001043,256.34256650001043,256.82686669996474,315,45,256.82686669996474,256.82686669996474,256.82686669996474,256.82686669996474,256.82686669996474,256.82686669996474,256.82686669996474,256.82686669996474,256.82686669996474,257.1932760999771,257.1932760999771,257.1932760999771,257.1932760999771,257.1932760999771,257.1932760999771,257.1932760999771,257.1932760999771,257.1932760999771,23,0,,,257.1932760999771,257.39534509996884,1000,257.39534509996884,1000,1000,1000,1000,1,num_2,0.8251337999827228,,28,8,2026-03-05_16h09.44.963,2026A_exp2,2022.2.4,59.83838848974379,
1000,1,4.9,4.9,1,0,77,77,60,,,,,258.2444461999694,258.8949171999702,258.8949171999702,259.3960463000112,45,315,259.3960463000112,259.3960463000112,259.3960463000112,259.3960463000112,259.3960463000112,259.3960463000112,259.3960463000112,259.3960463000112,259.3960463000112,259.745848999999,259.745848999999,259.745848999999,259.745848999999,259.745848999999,259.745848999999,259.745848999999,259.745848999999,259.745848999999,22,0,,,259.745848999999,259.94796919997316,1000,259.96266379998997,1000,1000,1000,1000,1,num_2,0.5854872000054456,,28,8,2026-03-05_16h09.44.963,2026A_exp2,2022.2.4,59.83838848974379,
1000,1,3.7,0.0,1,0,78,78,44,,,,,260.5633930999902,261.2138293000171,261.2138293000171,261.7151974000153,315,315,261.7151974000153,261.7151974000153,261.7151974000153,261.7151974000153,261.7151974000153,261.7151974000153,261.7151974000153,261.7151974000153,261.7151974000153,262.0815726000001,262.0815726000001,262.0815726000001,262.0815726000001,262.0815726000001,262.0815726000001,262.0815726000001,262.0815726000001,262.0815726000001,23,0,,,262.0815726000001,262.2832504999824,1000,262.2832504999824,1000,1000,1000,1000,0,num_3,1.0009498999570496,,28,8,2026-03-05_16h09.44.963,2026A_exp2,2022.2.4,59.83838848974379,
1000,1,4.9,6.1,1,0,79,79,18,,,,,263.2995577999973,263.9500293000019,263.9500293000019,264.4512537000119,315,315,264.4512537000119,264.4512537000119,264.4512537000119,264.4512537000119,264.4512537000119,264.4512537000119,264.4512537000119,264.4512537000119,264.4512537000119,264.8176297000027,264.8176297000027,264.8176297000027,264.8176297000027,264.8176297000027,264.8176297000027,264.8176297000027,264.8176297000027,264.8176297000027,23,0,,,264.8176297000027,265.01902740000514,1000,265.01902740000514,1000,1000,1000,1000,1,num_2,0.825800699996762,,28,8,2026-03-05_16h09.44.963,2026A_exp2,2022.2.4,59.83838848974379,
1000,1,0.0,0.0,1,0,80,80,40,,,,,265.868814299989,266.5193421000149,266.5193421000149,267.0205891999649,315,45,267.0205891999649,267.0205891999649,267.0205891999649,267.0205891999649,267.0205891999649,267.0205891999649,267.0205891999649,267.0205891999649,267.0205891999649,267.3868102999986,267.3868102999986,267.3868102999986,267.3868102999986,267.3868102999986,267.3868102999986,267.3868102999986,267.3868102999986,267.3868102999986,23,0,,,267.3868102999986,267.5889035,1000,267.5889035,1000,1000,1000,1000,1,num_2,0.6794342999928631,,28,8,2026-03-05_16h09.44.963,2026A_exp2,2022.2.4,59.83838848974379,
1000,1,6.1,6.1,0,0,81,81,74,,,,,268.28786189999664,268.9383877000073,268.9383877000073,269.43942559999414,45,315,269.43942559999414,269.43942559999414,269.43942559999414,269.43942559999414,269.43942559999414,269.43942559999414,269.43942559999414,269.43942559999414,269.43942559999414,269.8059849999845,269.8059849999845,269.8059849999845,269.8059849999845,269.8059849999845,269.8059849999845,269.8059849999845,269.8059849999845,269.8059849999845,23,0,,,269.8059849999845,270.03179269999964,1000,270.03179269999964,1000,1000,1000,1000,0,num_3,0.4532857000012882,,28,8,2026-03-05_16h09.44.963,2026A_exp2,2022.2.4,59.83838848974379,
1000,1,6.1,0.0,0,0,82,82,58,,,,,270.50671929999953,271.15732699999353,271.15732699999353,271.6418083999888,45,45,271.6418083999888,271.6418083999888,271.6418083999888,271.6418083999888,271.6418083999888,271.6418083999888,271.6418083999888,271.6418083999888,271.6418083999888,272.008131199982,272.008131199982,272.008131199982,272.008131199982,272.008131199982,272.008131199982,272.008131199982,272.008131199982,272.008131199982,23,0,,,272.008131199982,272.2103269000072,1000,272.2103269000072,1000,1000,1000,1000,1,num_2,0.6819601999595761,,28,8,2026-03-05_16h09.44.963,2026A_exp2,2022.2.4,59.83838848974379,
1,0,6.1,0.0,1,0,83,83,54,,,,,272.90918999997666,273.5596273000119,273.5596273000119,274.06075010000495,315,45,274.06075010000495,274.06075010000495,274.06075010000495,274.06075010000495,274.06075010000495,274.06075010000495,274.06075010000495,274.06075010000495,274.06075010000495,274.42719760001637,274.42719760001637,274.42719760001637,274.42719760001637,274.42719760001637,274.42719760001637,274.42719760001637,274.42719760001637,274.42719760001637,23,0,,,274.42719760001637,274.62742029997753,0.0,274.62742029997753,0,0.0,0,1,1000,num_1,0.8095509000122547,,28,8,2026-03-05_16h09.44.963,2026A_exp2,2022.2.4,59.83838848974379,
1000,1,4.9,0.0,1,0,84,84,7,,,,,275.4615884000086,276.11214529996505,276.11214529996505,276.5967377999914,45,315,276.5967377999914,276.5967377999914,276.5967377999914,276.5967377999914,276.5967377999914,276.5967377999914,276.5967377999914,276.5967377999914,276.5967377999914,276.9631101000123,276.9631101000123,276.9631101000123,276.9631101000123,276.9631101000123,276.9631101000123,276.9631101000123,276.9631101000123,276.9631101000123,23,0,,,276.9631101000123,277.1649652000051,1000,277.1649652000051,1000,1000,1000,1000,0,num_3,0.6880826000124216,,28,8,2026-03-05_16h09.44.963,2026A_exp2,2022.2.4,59.83838848974379,
1000,1,6.1,6.1,0,0,85,85,56,,,,,277.8806353000109,278.5313764999737,278.5313764999737,279.0324496999965,315,315,279.0324496999965,279.0324496999965,279.0324496999965,279.0324496999965,279.0324496999965,279.0324496999965,279.0324496999965,279.0324496999965,279.0324496999965,279.3823286999832,279.3823286999832,279.3823286999832,279.3823286999832,279.3823286999832,279.3823286999832,279.3823286999832,279.3823286999832,279.3823286999832,22,0,,,279.3823286999832,279.5838471999741,1000,279.5989914999809,1000,1000,1000,1000,0,num_3,0.7099331999779679,,28,8,2026-03-05_16h09.44.963,2026A_exp2,2022.2.4,59.83838848974379,
1,0,0.0,3.7,0,0,86,86,1,,,,,280.3331851999974,280.9837669999688,280.9837669999688,281.4849226999795,315,315,281.4849226999795,281.4849226999795,281.4849226999795,281.4849226999795,281.4849226999795,281.4849226999795,281.4849226999795,281.4849226999795,281.4849226999795,281.851364800008,281.851364800008,281.851364800008,281.851364800008,281.851364800008,281.851364800008,281.851364800008,281.851364800008,281.851364800008,23,0,,,281.851364800008,282.05152420001104,0.0,282.05152420001104,0,0.0,0,1,1000,num_1,0.721311200002674,,28,8,2026-03-05_16h09.44.963,2026A_exp2,2022.2.4,59.83838848974379,
1000,1,6.1,4.9,0,0,87,87,77,,,,,282.80227649997687,283.45285349996993,283.45285349996993,283.9374242000049,315,315,283.9374242000049,283.9374242000049,283.9374242000049,283.9374242000049,283.9374242000049,283.9374242000049,283.9374242000049,283.9374242000049,283.9374242000049,284.30359939998016,284.30359939998016,284.30359939998016,284.30359939998016,284.30359939998016,284.30359939998016,284.30359939998016,284.30359939998016,284.30359939998016,23,0,,,284.30359939998016,284.5059034000151,1000,284.5059034000151,1000,1000,1000,1000,1,num_2,0.6429020999930799,,28,8,2026-03-05_16h09.44.963,2026A_exp2,2022.2.4,59.83838848974379,
1000,1,0.0,3.7,0,0,88,88,32,,,,,285.17137419997016,285.82200029998785,285.82200029998785,286.32281300000614,315,45,286.32281300000614,286.32281300000614,286.32281300000614,286.32281300000614,286.32281300000614,286.32281300000614,286.32281300000614,286.32281300000614,286.32281300000614,286.68946079997113,286.68946079997113,286.68946079997113,286.68946079997113,286.68946079997113,286.68946079997113,286.68946079997113,286.68946079997113,286.68946079997113,23,0,,,286.68946079997113,286.8915768999723,1000,286.8915768999723,1000,1000,1000,1000,0,num_3,0.4006793000153266,,28,8,2026-03-05_16h09.44.963,2026A_exp2,2022.2.4,59.83838848974379,
1000,1,6.1,0.0,0,0,89,89,68,,,,,287.32352269999683,287.97428299998865,287.97428299998865,288.47532640001737,315,315,288.47532640001737,288.47532640001737,288.47532640001737,288.47532640001737,288.47532640001737,288.47532640001737,288.47532640001737,288.47532640001737,288.47532640001737,288.82489990000613,288.82489990000613,288.82489990000613,288.82489990000613,288.82489990000613,288.82489990000613,288.82489990000613,288.82489990000613,288.82489990000613,22,0,,,288.82489990000613,289.0270843000035,1000,289.0270843000035,1000,1000,1000,1000,0,num_3,0.44132689997786656,,28,8,2026-03-05_16h09.44.963,2026A_exp2,2022.2.4,59.83838848974379,
,,,,,,,,,,,,,,,,,,,,,,,,,,,,,,,,,,,,,,,,,,,,,,,,,,,,289.4995204000152,,,,,,,
