validity,detectorcomp,contrastCW,contrastCCW,precueCWorCCW,block_80trials.thisRepN,block_80trials.thisTrialN,block_80trials.thisN,block_80trials.thisIndex,etRecord.started,etRecord.stopped,text.started,text.stopped,text_4.started,text_4.stopped,text_6.started,text_6.stopped,oriCW,oriCCW,roi_2.started,grating_UR.started,grating_UL.started,grating_LR.started,grating_LL.started,noise_UR.started,noise_UL.started,noise_LR.started,noise_LL.started,roi_2.stopped,grating_UR.stopped,grating_UL.stopped,grating_LR.stopped,grating_LL.stopped,noise_UR.stopped,noise_UL.stopped,noise_LR.stopped,noise_LL.stopped,outframe,roi_2.numLooks,roi_2.timesOn,roi_2.timesOff,text_2.started,text_2.stopped,probedcontrast,key_resp.started,respdetect,relevantContrast,correctDetect,TorFdetect,respCWorCCW,key_resp.keys,key_resp.rt,feedback_display_.started,participantNo,blockNo,date,expName,psychopyVersion,frameRate,
1000,1,0.0,3.7,0,0,0,0,63,6.470002699643373e-05,6.470002699643373e-05,53.83813879999798,55.840923799958546,55.840923799958546,56.474432299961336,56.474432299961336,56.993456900003366,45,315,56.993456900003366,56.993456900003366,56.993456900003366,56.993456900003366,56.993456900003366,56.993456900003366,56.993456900003366,56.993456900003366,56.993456900003366,57.34202669997467,57.34202669997467,57.34202669997467,57.34202669997467,57.34202669997467,57.34202669997467,57.34202669997467,57.34202669997467,57.34202669997467,0,1,[0.0009194000158458948],[0.3676376999937929],57.34202669997467,57.54940689995419,1000,57.54940689995419,1000,1000,1000,1000,1,num_2,0.508514599991031,,27,5,2026-03-05_13h30.46.403,2026A_exp2,2022.2.4,60.02119948837275,
1000,1,0.0,0.0,1,0,1,1,55,,,,,58.07636069995351,58.72676099999808,58.72676099999808,59.21120609994978,45,45,59.21120609994978,59.21120609994978,59.21120609994978,59.21120609994978,59.21120609994978,59.21120609994978,59.21120609994978,59.21120609994978,59.21120609994978,59.57763929996872,59.57763929996872,59.57763929996872,59.57763929996872,59.57763929996872,59.57763929996872,59.57763929996872,59.57763929996872,59.57763929996872,1,1,[0.01738239999394864],[0.36690229998202994],59.57763929996872,59.779850899998564,1000,59.779850899998564,1000,1000,1000,1000,0,num_3,0.374013599997852,,27,5,2026-03-05_13h30.46.403,2026A_exp2,2022.2.4,60.02119948837275,
1000,1,0.0,4.9,0,0,2,2,0,,,,,60.178296600002795,60.828917199978605,60.828917199978605,61.32989850000013,315,315,61.32989850000013,61.32989850000013,61.32989850000013,61.32989850000013,61.32989850000013,61.32989850000013,61.32989850000013,61.32989850000013,61.32989850000013,61.67970519996015,61.67970519996015,61.67970519996015,61.67970519996015,61.67970519996015,61.67970519996015,61.67970519996015,61.67970519996015,61.67970519996015,0,1,[0.0012553000124171376],[0.3504612999968231],61.67970519996015,61.88154739997117,1000,61.88154739997117,1000,1000,1000,1000,1,num_2,0.4159832000150345,,27,5,2026-03-05_13h30.46.403,2026A_exp2,2022.2.4,60.02119948837275,
1000,1,4.9,0.0,0,0,3,3,50,,,,,62.313722599996254,62.964370400004555,62.964370400004555,63.46538839995628,315,45,63.46538839995628,63.46538839995628,63.46538839995628,63.46538839995628,63.46538839995628,63.46538839995628,63.46538839995628,63.46538839995628,63.46538839995628,63.83167779998621,63.83167779998621,63.83167779998621,63.83167779998621,63.83167779998621,63.83167779998621,63.83167779998621,63.83167779998621,63.83167779998621,0,1,[0.0012944999616593122],[0.3672580999555066],63.83167779998621,64.03456249996088,1000,64.03456249996088,1000,1000,1000,1000,0,num_3,0.3594846000196412,,27,5,2026-03-05_13h30.46.403,2026A_exp2,2022.2.4,60.02119948837275,
1000,1,0.0,0.0,0,0,4,4,89,,,,,64.41591179999523,65.0664690999547,65.0664690999547,65.56753389997175,315,45,65.56753389997175,65.56753389997175,65.56753389997175,65.56753389997175,65.56753389997175,65.56753389997175,65.56753389997175,65.56753389997175,65.56753389997175,65.93397289997665,65.93397289997665,65.93397289997665,65.93397289997665,65.93397289997665,65.93397289997665,65.93397289997665,65.93397289997665,65.93397289997665,1,2,"[0.001269600004889071, 0.23363839997909963]","[0.21695380000164732, 0.3667757000075653]",65.93397289997665,66.13585289998446,1000,66.13585289998446,1000,1000,1000,1000,1,num_2,0.5771191999665461,,27,5,2026-03-05_13h30.46.403,2026A_exp2,2022.2.4,60.02119948837275,
1000,1,4.9,6.1,0,0,5,5,36,,,,,66.7348362999619,67.3854703999823,67.3854703999823,67.8698181999498,45,315,67.8698181999498,67.8698181999498,67.8698181999498,67.8698181999498,67.8698181999498,67.8698181999498,67.8698181999498,67.8698181999498,67.8698181999498,68.23650709999492,68.23650709999492,68.23650709999492,68.23650709999492,68.23650709999492,68.23650709999492,68.23650709999492,68.23650709999492,68.23650709999492,4,3,"[0.0009361000265926123, 0.20050789997912943, 0.30060379998758435]","[0.18388349999440834, 0.2838836999726482, 0.3509722999879159]",68.23650709999492,68.43816459999653,1000,68.45326129999012,1000,1000,1000,1000,1,num_2,0.6353548999759369,,27,5,2026-03-05_13h30.46.403,2026A_exp2,2022.2.4,60.02119948837275,
1000,1,3.7,3.7,0,0,6,6,59,,,,,69.10371519997716,69.75440309999976,69.75440309999976,70.25549339997815,315,45,70.25549339997815,70.25549339997815,70.25549339997815,70.25549339997815,70.25549339997815,70.25549339997815,70.25549339997815,70.25549339997815,70.25549339997815,70.62202249997063,70.62202249997063,70.62202249997063,70.62202249997063,70.62202249997063,70.62202249997063,70.62202249997063,70.62202249997063,70.62202249997063,23,0,,,70.62202249997063,70.82391969999298,1000,70.82391969999298,1000,1000,1000,1000,0,num_3,0.42608550004661083,,27,5,2026-03-05_13h30.46.403,2026A_exp2,2022.2.4,60.02119948837275,
1000,1,0.0,3.7,1,0,7,7,88,,,,,71.27245539997239,71.92298779997509,71.92298779997509,72.42447440000251,45,45,72.42447440000251,72.42447440000251,72.42447440000251,72.42447440000251,72.42447440000251,72.42447440000251,72.42447440000251,72.42447440000251,72.42447440000251,72.79086239996832,72.79086239996832,72.79086239996832,72.79086239996832,72.79086239996832,72.79086239996832,72.79086239996832,72.79086239996832,72.79086239996832,23,0,,,72.79086239996832,72.99321839999175,1000,72.99321839999175,1000,1000,1000,1000,1,num_2,0.4082329999655485,,27,5,2026-03-05_13h30.46.403,2026A_exp2,2022.2.4,60.02119948837275,
1000,1,0.0,0.0,0,0,8,8,65,,,,,73.4247377999709,74.07550509995781,74.07550509995781,74.57643179997103,315,315,74.57643179997103,74.57643179997103,74.57643179997103,74.57643179997103,74.57643179997103,74.57643179997103,74.57643179997103,74.57643179997103,74.57643179997103,74.92628959997091,74.92628959997091,74.92628959997091,74.92628959997091,74.92628959997091,74.92628959997091,74.92628959997091,74.92628959997091,74.92628959997091,22,0,,,74.92628959997091,75.12904999998864,1000,75.14317120000487,1000,1000,1000,1000,1,num_2,0.40188110002782196,,27,5,2026-03-05_13h30.46.403,2026A_exp2,2022.2.4,60.02119948837275,
0,0,3.7,0.0,1,0,9,9,1,,,,,75.56019509996986,76.2108440999873,76.2108440999873,76.71197780000512,45,45,76.71197780000512,76.71197780000512,76.71197780000512,76.71197780000512,76.71197780000512,76.71197780000512,76.71197780000512,76.71197780000512,76.71197780000512,77.07835999998497,77.07835999998497,77.07835999998497,77.07835999998497,77.07835999998497,77.07835999998497,77.07835999998497,77.07835999998497,77.07835999998497,23,0,,,77.07835999998497,77.27852189994883,3.7,77.27852189994883,1,3.7,1,1,1000,num_4,0.9955897000036202,,27,5,2026-03-05_13h30.46.403,2026A_exp2,2022.2.4,60.02119948837275,
1,0,0.0,0.0,1,0,10,10,31,,,,,78.29616729996633,78.94695769995451,78.94695769995451,79.43127369997092,315,45,79.43127369997092,79.43127369997092,79.43127369997092,79.43127369997092,79.43127369997092,79.43127369997092,79.43127369997092,79.43127369997092,79.43127369997092,79.79788420000114,79.79788420000114,79.79788420000114,79.79788420000114,79.79788420000114,79.79788420000114,79.79788420000114,79.79788420000114,79.79788420000114,23,0,,,79.79788420000114,79.99800139997387,0.0,79.99800139997387,0,0.0,0,1,1000,num_1,0.6037463000393473,,27,5,2026-03-05_13h30.46.403,2026A_exp2,2022.2.4,60.02119948837275,
1000,1,0.0,0.0,0,0,11,11,62,,,,,80.63187969999854,81.28261609998299,81.28261609998299,81.76704529998824,45,315,81.76704529998824,81.76704529998824,81.76704529998824,81.76704529998824,81.76704529998824,81.76704529998824,81.76704529998824,81.76704529998824,81.76704529998824,82.13350929995067,82.13350929995067,82.13350929995067,82.13350929995067,82.13350929995067,82.13350929995067,82.13350929995067,82.13350929995067,82.13350929995067,0,1,[0.0012147999950684607],[0.36715449998155236],82.13350929995067,82.33534109999891,1000,82.33534109999891,1000,1000,1000,1000,1,num_2,0.4658771999529563,,27,5,2026-03-05_13h30.46.403,2026A_exp2,2022.2.4,60.02119948837275,
1000,1,4.9,0.0,1,0,12,12,12,,,,,82.81789309997112,83.46818899997743,83.46818899997743,83.96910769998794,45,45,83.96910769998794,83.96910769998794,83.96910769998794,83.96910769998794,83.96910769998794,83.96910769998794,83.96910769998794,83.96910769998794,83.96910769998794,84.33544569998048,84.33544569998048,84.33544569998048,84.33544569998048,84.33544569998048,84.33544569998048,84.33544569998048,84.33544569998048,84.33544569998048,23,0,,,84.33544569998048,84.53637839999283,1000,84.53637839999283,1000,1000,1000,1000,0,num_3,0.6644585999893025,,27,5,2026-03-05_13h30.46.403,2026A_exp2,2022.2.4,60.02119948837275,
1,0,0.0,0.0,1,0,13,13,38,,,,,85.21976019995054,85.87062679999508,85.87062679999508,86.37168609997025,45,45,86.37168609997025,86.37168609997025,86.37168609997025,86.37168609997025,86.37168609997025,86.37168609997025,86.37168609997025,86.37168609997025,86.37168609997025,86.7381061000051,86.7381061000051,86.7381061000051,86.7381061000051,86.7381061000051,86.7381061000051,86.7381061000051,86.7381061000051,86.7381061000051,23,0,,,86.7381061000051,86.95285760000115,0.0,86.95285760000115,1,0.0,0,0,1000,num_4,0.8012736999662593,,27,5,2026-03-05_13h30.46.403,2026A_exp2,2022.2.4,60.02119948837275,
0,0,6.1,0.0,1,0,14,14,25,,,,,87.77225969999563,88.42278019996593,88.42278019996593,88.9322899999679,315,45,88.9322899999679,88.9322899999679,88.9322899999679,88.9322899999679,88.9322899999679,88.9322899999679,88.9322899999679,88.9322899999679,88.9322899999679,89.29064629995264,89.29064629995264,89.29064629995264,89.29064629995264,89.29064629995264,89.29064629995264,89.29064629995264,89.29064629995264,89.29064629995264,23,0,,,89.29064629995264,89.49085069994908,6.1,89.49085069994908,1,6.1,1,1,1000,num_4,0.8705078000202775,,27,5,2026-03-05_13h30.46.403,2026A_exp2,2022.2.4,60.02119948837275,
1000,1,0.0,0.0,0,0,15,15,64,,,,,90.39150480000535,91.02561029995559,91.02561029995559,91.5268280999735,315,45,91.5268280999735,91.5268280999735,91.5268280999735,91.5268280999735,91.5268280999735,91.5268280999735,91.5268280999735,91.5268280999735,91.5268280999735,91.89328379998915,91.89328379998915,91.89328379998915,91.89328379998915,91.89328379998915,91.89328379998915,91.89328379998915,91.89328379998915,91.89328379998915,23,0,,,91.89328379998915,92.09515569999348,1000,92.09515569999348,1000,1000,1000,1000,1,num_2,0.5220539000001736,,27,5,2026-03-05_13h30.46.403,2026A_exp2,2022.2.4,60.02119948837275,
0,0,6.1,0.0,0,0,16,16,41,,,,,92.64409319998231,93.29851160000544,93.29851160000544,93.77888379996875,315,45,93.77888379996875,93.77888379996875,93.77888379996875,93.77888379996875,93.77888379996875,93.77888379996875,93.77888379996875,93.77888379996875,93.77888379996875,94.14504360000137,94.14504360000137,94.14504360000137,94.14504360000137,94.14504360000137,94.14504360000137,94.14504360000137,94.14504360000137,94.14504360000137,23,0,,,94.14504360000137,94.34557369997492,0.0,94.34557369997492,0,0.0,0,1,1000,num_1,0.5996615000185557,,27,5,2026-03-05_13h30.46.403,2026A_exp2,2022.2.4,60.02119948837275,
0,0,6.1,3.7,0,0,17,17,49,,,,,94.9630147999851,95.61955089995172,95.61955089995172,96.11485239997273,315,315,96.11485239997273,96.11485239997273,96.11485239997273,96.11485239997273,96.11485239997273,96.11485239997273,96.11485239997273,96.11485239997273,96.11485239997273,96.48112389998278,96.48112389998278,96.48112389998278,96.48112389998278,96.48112389998278,96.48112389998278,96.48112389998278,96.48112389998278,96.48112389998278,23,0,,,96.48112389998278,96.68143449997297,3.7,96.68143449997297,0,3.7,1,0,1000,num_1,0.6642816999810748,,27,5,2026-03-05_13h30.46.403,2026A_exp2,2022.2.4,60.02119948837275,
1000,1,0.0,4.9,0,0,18,18,8,,,,,97.36560809996445,98.02432629995747,98.02432629995747,98.51835059997393,315,45,98.51835059997393,98.51835059997393,98.51835059997393,98.51835059997393,98.51835059997393,98.51835059997393,98.51835059997393,98.51835059997393,98.51835059997393,98.88337189995218,98.88337189995218,98.88337189995218,98.88337189995218,98.88337189995218,98.88337189995218,98.88337189995218,98.88337189995218,98.88337189995218,23,0,,,98.88337189995218,99.08568979997654,1000,99.08568979997654,1000,1000,1000,1000,1,num_2,0.46041470003547147,,27,5,2026-03-05_13h30.46.403,2026A_exp2,2022.2.4,60.02119948837275,
1000,1,0.0,6.1,1,0,19,19,13,,,,,99.56744039995829,100.21817039995221,100.21817039995221,100.71923539997078,45,315,100.71923539997078,100.71923539997078,100.71923539997078,100.71923539997078,100.71923539997078,100.71923539997078,100.71923539997078,100.71923539997078,100.71923539997078,101.08581369998865,101.08581369998865,101.08581369998865,101.08581369998865,101.08581369998865,101.08581369998865,101.08581369998865,101.08581369998865,101.08581369998865,23,0,,,101.08581369998865,101.28791209997144,1000,101.28791209997144,1000,1000,1000,1000,1,num_2,0.43345370003953576,,27,5,2026-03-05_13h30.46.403,2026A_exp2,2022.2.4,60.02119948837275,
0,0,6.1,0.0,1,0,20,20,52,,,,,101.73638369998662,102.38710769999307,102.38710769999307,102.88792859995738,315,45,102.88792859995738,102.88792859995738,102.88792859995738,102.88792859995738,102.88792859995738,102.88792859995738,102.88792859995738,102.88792859995738,102.88792859995738,103.25464800000191,103.25464800000191,103.25464800000191,103.25464800000191,103.25464800000191,103.25464800000191,103.25464800000191,103.25464800000191,103.25464800000191,23,0,,,103.25464800000191,103.46796330000507,6.1,103.46796330000507,1,6.1,1,1,1000,num_4,0.8302206000080332,,27,5,2026-03-05_13h30.46.403,2026A_exp2,2022.2.4,60.02119948837275,
1000,1,4.9,6.1,1,0,21,21,5,,,,,104.32230010000058,104.97286239999812,104.97286239999812,105.48374169995077,315,315,105.48374169995077,105.48374169995077,105.48374169995077,105.48374169995077,105.48374169995077,105.48374169995077,105.48374169995077,105.48374169995077,105.48374169995077,105.8403330000001,105.8403330000001,105.8403330000001,105.8403330000001,105.8403330000001,105.8403330000001,105.8403330000001,105.8403330000001,105.8403330000001,0,1,[0.0034946000087074935],[0.3651265000225976],105.8403330000001,106.04324509995058,1000,106.04324509995058,1000,1000,1000,1000,1,num_2,0.4134699000278488,,27,5,2026-03-05_13h30.46.403,2026A_exp2,2022.2.4,60.02119948837275,
1000,1,3.7,0.0,0,0,22,22,39,,,,,106.47471330000553,107.12511999998242,107.12511999998242,107.60949619999155,315,315,107.60949619999155,107.60949619999155,107.60949619999155,107.60949619999155,107.60949619999155,107.60949619999155,107.60949619999155,107.60949619999155,107.60949619999155,107.97583889996167,107.97583889996167,107.97583889996167,107.97583889996167,107.97583889996167,107.97583889996167,107.97583889996167,107.97583889996167,107.97583889996167,0,1,[0.001118200016207993],[0.3673956000129692],107.97583889996167,108.17823149997275,1000,108.17823149997275,1000,1000,1000,1000,0,num_3,0.6388045999919996,,27,5,2026-03-05_13h30.46.403,2026A_exp2,2022.2.4,60.02119948837275,
1000,1,0.0,3.7,0,0,23,23,76,,,,,108.84344099997543,109.49423319997732,109.49423319997732,109.99536359997,45,315,109.99536359997,109.99536359997,109.99536359997,109.99536359997,109.99536359997,109.99536359997,109.99536359997,109.99536359997,109.99536359997,110.36173469998175,110.36173469998175,110.36173469998175,110.36173469998175,110.36173469998175,110.36173469998175,110.36173469998175,110.36173469998175,110.36173469998175,1,2,"[0.0012540000025182962, 0.36706159997265786]","[0.3504687999957241, 0.36706659995252267]",110.36173469998175,110.56390710000414,1000,110.56390710000414,1000,1000,1000,1000,1,num_2,0.41384090000065044,,27,5,2026-03-05_13h30.46.403,2026A_exp2,2022.2.4,60.02119948837275,
1,0,4.9,4.9,1,0,24,24,9,,,,,110.99554829997942,111.65639369998826,111.65639369998826,112.15314959996613,315,45,112.15314959996613,112.15314959996613,112.15314959996613,112.15314959996613,112.15314959996613,112.15314959996613,112.15314959996613,112.15314959996613,112.15314959996613,112.51390959997661,112.51390959997661,112.51390959997661,112.51390959997661,112.51390959997661,112.51390959997661,112.51390959997661,112.51390959997661,112.51390959997661,22,1,[0.21670620003715158],[0.23347700003068894],112.51390959997661,112.71440759999678,4.9,112.71440759999678,1,4.9,1,1,1000,num_4,0.6152227999991737,,27,5,2026-03-05_13h30.46.403,2026A_exp2,2022.2.4,60.02119948837275,
1000,1,6.1,3.7,1,0,25,25,11,,,,,113.3479335999582,113.99867679999443,113.99867679999443,114.49976009997772,315,45,114.49976009997772,114.49976009997772,114.49976009997772,114.49976009997772,114.49976009997772,114.49976009997772,114.49976009997772,114.49976009997772,114.49976009997772,114.84954979998292,114.84954979998292,114.84954979998292,114.84954979998292,114.84954979998292,114.84954979998292,114.84954979998292,114.84954979998292,114.84954979998292,10,1,[0.16694600001210347],[0.35030859999824315],114.84954979998292,115.0695163999917,1000,115.0695163999917,1000,1000,1000,1000,0,num_3,0.4835915999719873,,27,5,2026-03-05_13h30.46.403,2026A_exp2,2022.2.4,60.02119948837275,
1000,1,0.0,6.1,0,0,26,26,61,,,,,115.56988099997398,116.22860049997689,116.22860049997689,116.72417770000175,45,45,116.72417770000175,116.72417770000175,116.72417770000175,116.72417770000175,116.72417770000175,116.72417770000175,116.72417770000175,116.72417770000175,116.72417770000175,117.08517189999111,117.08517189999111,117.08517189999111,117.08517189999111,117.08517189999111,117.08517189999111,117.08517189999111,117.08517189999111,117.08517189999111,6,2,"[0.0025900000473484397, 0.16705730004468933]","[0.1338067000033334, 0.31720160000259057]",117.08517189999111,117.28737499995623,1000,117.28737499995623,1000,1000,1000,1000,1,num_2,0.3536615999764763,,27,5,2026-03-05_13h30.46.403,2026A_exp2,2022.2.4,60.02119948837275,
1000,1,0.0,4.9,1,0,27,27,37,,,,,117.66888879996259,118.3197000999935,118.3197000999935,118.82071879995055,45,315,118.82071879995055,118.82071879995055,118.82071879995055,118.82071879995055,118.82071879995055,118.82071879995055,118.82071879995055,118.82071879995055,118.82071879995055,119.18721289996756,119.18721289996756,119.18721289996756,119.18721289996756,119.18721289996756,119.18721289996756,119.18721289996756,119.18721289996756,119.18721289996756,3,3,"[0.0013072000001557171, 0.05012520001037046, 0.31711429997812957]","[0.03364849998615682, 0.28377109998837113, 0.36727499996777624]",119.18721289996756,119.39030589995673,1000,119.39030589995673,1000,1000,1000,1000,1,num_2,0.39564549998613074,,27,5,2026-03-05_13h30.46.403,2026A_exp2,2022.2.4,60.02119948837275,
1000,1,3.7,0.0,0,0,28,28,35,,,,,119.8045244999812,120.45510189997731,120.45510189997731,120.95624279999174,315,45,120.95624279999174,120.95624279999174,120.95624279999174,120.95624279999174,120.95624279999174,120.95624279999174,120.95624279999174,120.95624279999174,120.95624279999174,121.3226800999837,121.3226800999837,121.3226800999837,121.3226800999837,121.3226800999837,121.3226800999837,121.3226800999837,121.3226800999837,121.3226800999837,21,1,[0.28373259998625144],[0.31724389997543767],121.3226800999837,121.5248477999703,1000,121.5248477999703,1000,1000,1000,1000,1,num_2,0.5724388000089675,,27,5,2026-03-05_13h30.46.403,2026A_exp2,2022.2.4,60.02119948837275,
1000,1,0.0,0.0,1,0,29,29,3,,,,,122.12332149996655,122.77443900000071,122.77443900000071,123.27528750000056,315,315,123.27528750000056,123.27528750000056,123.27528750000056,123.27528750000056,123.27528750000056,123.27528750000056,123.27528750000056,123.27528750000056,123.27528750000056,123.64146109996364,123.64146109996364,123.64146109996364,123.64146109996364,123.64146109996364,123.64146109996364,123.64146109996364,123.64146109996364,123.64146109996364,23,0,,,123.64146109996364,123.84394529997371,1000,123.84394529997371,1000,1000,1000,1000,0,num_3,0.6772081999806687,,27,5,2026-03-05_13h30.46.403,2026A_exp2,2022.2.4,60.02119948837275,
1000,1,4.9,0.0,1,0,30,30,48,,,,,124.54246419999981,125.19317389995558,125.19317389995558,125.69407049997244,45,315,125.69407049997244,125.69407049997244,125.69407049997244,125.69407049997244,125.69407049997244,125.69407049997244,125.69407049997244,125.69407049997244,125.69407049997244,126.06079789996147,126.06079789996147,126.06079789996147,126.06079789996147,126.06079789996147,126.06079789996147,126.06079789996147,126.06079789996147,126.06079789996147,3,4,"[0.0012235000031068921, 0.11666930001229048, 0.30050449998816475, 0.3339892000076361]","[0.1000857999897562, 0.2839009999879636, 0.3171866000047885, 0.36721569998189807]",126.06079789996147,126.26317279995419,1000,126.26317279995419,1000,1000,1000,1000,0,num_3,0.6587263000546955,,27,5,2026-03-05_13h30.46.403,2026A_exp2,2022.2.4,60.02119948837275,
1000,1,0.0,0.0,1,0,31,31,2,,,,,126.94487899995875,127.59562399995048,127.59562399995048,128.09675969998352,315,315,128.09675969998352,128.09675969998352,128.09675969998352,128.09675969998352,128.09675969998352,128.09675969998352,128.09675969998352,128.09675969998352,128.09675969998352,128.46312420000322,128.46312420000322,128.46312420000322,128.46312420000322,128.46312420000322,128.46312420000322,128.46312420000322,128.46312420000322,128.46312420000322,23,0,,,128.46312420000322,128.66551229998004,1000,128.66551229998004,1000,1000,1000,1000,1,num_2,0.4406990999705158,,27,5,2026-03-05_13h30.46.403,2026A_exp2,2022.2.4,60.02119948837275,
1000,1,0.0,0.0,0,0,32,32,7,,,,,129.1303762999596,129.78111479996005,129.78111479996005,130.2821958999848,45,45,130.2821958999848,130.2821958999848,130.2821958999848,130.2821958999848,130.2821958999848,130.2821958999848,130.2821958999848,130.2821958999848,130.2821958999848,130.6486697999644,130.6486697999644,130.6486697999644,130.6486697999644,130.6486697999644,130.6486697999644,130.6486697999644,130.6486697999644,130.6486697999644,22,1,[0.13363589998334646],[0.15021699998760596],130.6486697999644,130.85099619999528,1000,130.85099619999528,1000,1000,1000,1000,1,num_2,0.4145081999595277,,27,5,2026-03-05_13h30.46.403,2026A_exp2,2022.2.4,60.02119948837275,
1,0,0.0,0.0,1,0,33,33,83,,,,,131.28250929998467,131.93293309997534,131.93293309997534,132.4444423999521,315,315,132.4444423999521,132.4444423999521,132.4444423999521,132.4444423999521,132.4444423999521,132.4444423999521,132.4444423999521,132.4444423999521,132.4444423999521,132.80087239999557,132.80087239999557,132.80087239999557,132.80087239999557,132.80087239999557,132.80087239999557,132.80087239999557,132.80087239999557,132.80087239999557,23,0,,,132.80087239999557,133.00097729999106,0.0,133.00097729999106,1,0.0,0,0,1000,num_4,0.7283134000026621,,27,5,2026-03-05_13h30.46.403,2026A_exp2,2022.2.4,60.02119948837275,
1000,1,6.1,4.9,0,0,34,34,51,,,,,133.7515802999842,134.40415089996532,134.40415089996532,134.8866946999915,45,45,134.8866946999915,134.8866946999915,134.8866946999915,134.8866946999915,134.8866946999915,134.8866946999915,134.8866946999915,134.8866946999915,134.8866946999915,135.25324289995478,135.25324289995478,135.25324289995478,135.25324289995478,135.25324289995478,135.25324289995478,135.25324289995478,135.25324289995478,135.25324289995478,19,2,"[0.0015463000163435936, 0.083419100032188]","[0.032651100016664714, 0.11637649999465793]",135.25324289995478,135.45528399996692,1000,135.45528399996692,1000,1000,1000,1000,0,num_3,0.5619595000171103,,27,5,2026-03-05_13h30.46.403,2026A_exp2,2022.2.4,60.02119948837275,
1000,1,6.1,6.1,1,0,35,35,22,,,,,136.03741279995302,136.68805749999592,136.68805749999592,137.18904389999807,45,45,137.18904389999807,137.18904389999807,137.18904389999807,137.18904389999807,137.18904389999807,137.18904389999807,137.18904389999807,137.18904389999807,137.18904389999807,137.5555223999545,137.5555223999545,137.5555223999545,137.5555223999545,137.5555223999545,137.5555223999545,137.5555223999545,137.5555223999545,137.5555223999545,23,0,,,137.5555223999545,137.7575317999581,1000,137.7575317999581,1000,1000,1000,1000,1,num_2,0.7640414000488818,,27,5,2026-03-05_13h30.46.403,2026A_exp2,2022.2.4,60.02119948837275,
0,0,0.0,0.0,1,0,36,36,44,,,,,138.53976739995414,139.1904336999869,139.1904336999869,139.69155519997003,45,315,139.69155519997003,139.69155519997003,139.69155519997003,139.69155519997003,139.69155519997003,139.69155519997003,139.69155519997003,139.69155519997003,139.69155519997003,140.0581251999829,140.0581251999829,140.0581251999829,140.0581251999829,140.0581251999829,140.0581251999829,140.0581251999829,140.0581251999829,140.0581251999829,0,1,[0.0011886999709531665],[0.367243199958466],140.0581251999829,140.2582080999855,0.0,140.2582080999855,1,0.0,0,0,1000,num_4,0.782454099971801,,27,5,2026-03-05_13h30.46.403,2026A_exp2,2022.2.4,60.02119948837275,
1,0,4.9,0.0,1,0,37,37,34,,,,,141.05894389998866,141.7098616999574,141.7098616999574,142.1938506999868,315,45,142.1938506999868,142.1938506999868,142.1938506999868,142.1938506999868,142.1938506999868,142.1938506999868,142.1938506999868,142.1938506999868,142.1938506999868,142.56057229998987,142.56057229998987,142.56057229998987,142.56057229998987,142.56057229998987,142.56057229998987,142.56057229998987,142.56057229998987,142.56057229998987,23,0,,,142.56057229998987,142.76070769998478,0.0,142.76070769998478,0,0.0,0,1,1000,num_1,0.6409742000396363,,27,5,2026-03-05_13h30.46.403,2026A_exp2,2022.2.4,60.02119948837275,
1,0,3.7,0.0,0,0,38,38,26,,,,,143.4279436999932,144.0787241999642,144.0787241999642,144.57967119995737,45,315,144.57967119995737,144.57967119995737,144.57967119995737,144.57967119995737,144.57967119995737,144.57967119995737,144.57967119995737,144.57967119995737,144.57967119995737,144.92962499998976,144.92962499998976,144.92962499998976,144.92962499998976,144.92962499998976,144.92962499998976,144.92962499998976,144.92962499998976,144.92962499998976,23,0,,,144.92962499998976,145.1296823999728,3.7,145.1296823999728,1,3.7,1,1,1000,num_4,0.6154532000073232,,27,5,2026-03-05_13h30.46.403,2026A_exp2,2022.2.4,60.02119948837275,
1000,1,0.0,0.0,0,0,39,39,72,,,,,145.76380039996002,146.41582819999894,146.41582819999894,146.9338286999846,315,45,146.9338286999846,146.9338286999846,146.9338286999846,146.9338286999846,146.9338286999846,146.9338286999846,146.9338286999846,146.9338286999846,146.9338286999846,147.2820690999506,147.2820690999506,147.2820690999506,147.2820690999506,147.2820690999506,147.2820690999506,147.2820690999506,147.2820690999506,147.2820690999506,23,0,,,147.2820690999506,147.49772469996242,1000,147.49772469996242,1000,1000,1000,1000,0,num_3,0.5118249999941327,,27,5,2026-03-05_13h30.46.403,2026A_exp2,2022.2.4,60.02119948837275,
1000,1,0.0,0.0,1,0,40,40,29,,,,,148.03254299995024,148.68343869998353,148.68343869998353,149.18444689997705,45,45,149.18444689997705,149.18444689997705,149.18444689997705,149.18444689997705,149.18444689997705,149.18444689997705,149.18444689997705,149.18444689997705,149.18444689997705,149.55093069997383,149.55093069997383,149.55093069997383,149.55093069997383,149.55093069997383,149.55093069997383,149.55093069997383,149.55093069997383,149.55093069997383,22,1,[0.25022940000053495],[0.2667014999897219],149.55093069997383,149.75290139997378,1000,149.75290139997378,1000,1000,1000,1000,0,num_3,0.4572162000113167,,27,5,2026-03-05_13h30.46.403,2026A_exp2,2022.2.4,60.02119948837275,
0,0,3.7,0.0,0,0,41,41,18,,,,,150.23478359996807,150.88546329998644,150.88546329998644,151.38672489998862,45,45,151.38672489998862,151.38672489998862,151.38672489998862,151.38672489998862,151.38672489998862,151.38672489998862,151.38672489998862,151.38672489998862,151.38672489998862,151.75315869995393,151.75315869995393,151.75315869995393,151.75315869995393,151.75315869995393,151.75315869995393,151.75315869995393,151.75315869995393,151.75315869995393,23,0,,,151.75315869995393,151.9531795999501,0.0,151.9531795999501,0,0.0,0,1,1000,num_1,0.6079186000279151,,27,5,2026-03-05_13h30.46.403,2026A_exp2,2022.2.4,60.02119948837275,
1000,1,0.0,3.7,0,0,42,42,21,,,,,152.5871455000015,153.23807289998513,153.23807289998513,153.73939239996253,45,45,153.73939239996253,153.73939239996253,153.73939239996253,153.73939239996253,153.73939239996253,153.73939239996253,153.73939239996253,153.73939239996253,153.73939239996253,154.08871629997157,154.08871629997157,154.08871629997157,154.08871629997157,154.08871629997157,154.08871629997157,154.08871629997157,154.08871629997157,154.08871629997157,0,1,[0.00436329998774454],[0.3636904999730177],154.08871629997157,154.29062419995898,1000,154.29062419995898,1000,1000,1000,1000,1,num_2,0.5259283999912441,,27,5,2026-03-05_13h30.46.403,2026A_exp2,2022.2.4,60.02119948837275,
1000,1,0.0,6.1,0,0,43,43,20,,,,,154.8395650999737,155.48990439996123,155.48990439996123,155.974519099982,45,315,155.974519099982,155.974519099982,155.974519099982,155.974519099982,155.974519099982,155.974519099982,155.974519099982,155.974519099982,155.974519099982,156.34102709998842,156.34102709998842,156.34102709998842,156.34102709998842,156.34102709998842,156.34102709998842,156.34102709998842,156.34102709998842,156.34102709998842,23,0,,,156.34102709998842,156.54283039999427,1000,156.54283039999427,1000,1000,1000,1000,1,num_2,0.42674590001115575,,27,5,2026-03-05_13h30.46.403,2026A_exp2,2022.2.4,60.02119948837275,
1000,1,6.1,0.0,0,0,44,44,58,,,,,156.99518859997625,157.64216659998056,157.64216659998056,158.1433379999944,45,45,158.1433379999944,158.1433379999944,158.1433379999944,158.1433379999944,158.1433379999944,158.1433379999944,158.1433379999944,158.1433379999944,158.1433379999944,158.5097081999993,158.5097081999993,158.5097081999993,158.5097081999993,158.5097081999993,158.5097081999993,158.5097081999993,158.5097081999993,158.5097081999993,23,0,,,158.5097081999993,158.7120489999652,1000,158.7120489999652,1000,1000,1000,1000,0,num_3,0.7211340999929234,,27,5,2026-03-05_13h30.46.403,2026A_exp2,2022.2.4,60.02119948837275,
1000,1,4.9,3.7,1,0,45,45,78,,,,,159.46130480000284,160.1114020999521,160.1114020999521,160.612607499992,315,315,160.612607499992,160.612607499992,160.612607499992,160.612607499992,160.612607499992,160.612607499992,160.612607499992,160.612607499992,160.612607499992,160.97894239996094,160.97894239996094,160.97894239996094,160.97894239996094,160.97894239996094,160.97894239996094,160.97894239996094,160.97894239996094,160.97894239996094,23,0,,,160.97894239996094,161.20863339997595,1000,161.20863339997595,1000,1000,1000,1000,1,num_2,0.41691130003891885,,27,5,2026-03-05_13h30.46.403,2026A_exp2,2022.2.4,60.02119948837275,
1000,1,6.1,0.0,0,0,46,46,27,,,,,161.646225399978,162.29692319995956,162.29692319995956,162.79802429996198,45,315,162.79802429996198,162.79802429996198,162.79802429996198,162.79802429996198,162.79802429996198,162.79802429996198,162.79802429996198,162.79802429996198,162.79802429996198,163.16437559999758,163.16437559999758,163.16437559999758,163.16437559999758,163.16437559999758,163.16437559999758,163.16437559999758,163.16437559999758,163.16437559999758,23,0,,,163.16437559999758,163.36675379995722,1000,163.36675379995722,1000,1000,1000,1000,0,num_3,0.5859974999912083,,27,5,2026-03-05_13h30.46.403,2026A_exp2,2022.2.4,60.02119948837275,
1,0,0.0,4.9,0,0,47,47,70,,,,,163.98186209995765,164.63264929997968,164.63264929997968,165.13364109996473,45,315,165.13364109996473,165.13364109996473,165.13364109996473,165.13364109996473,165.13364109996473,165.13364109996473,165.13364109996473,165.13364109996473,165.13364109996473,165.5001890999847,165.5001890999847,165.5001890999847,165.5001890999847,165.5001890999847,165.5001890999847,165.5001890999847,165.5001890999847,165.5001890999847,23,0,,,165.5001890999847,165.70043179998174,0.0,165.70043179998174,0,0.0,0,1,1000,num_1,0.7813468999811448,,27,5,2026-03-05_13h30.46.403,2026A_exp2,2022.2.4,60.02119948837275,
1,0,0.0,4.9,1,0,48,48,54,,,,,166.50091979996068,167.15185149997706,167.15185149997706,167.6372623000061,315,315,167.6372623000061,167.6372623000061,167.6372623000061,167.6372623000061,167.6372623000061,167.6372623000061,167.6372623000061,167.6372623000061,167.6372623000061,168.00261239998508,168.00261239998508,168.00261239998508,168.00261239998508,168.00261239998508,168.00261239998508,168.00261239998508,168.00261239998508,168.00261239998508,9,1,[0.0017015000339597464],[0.23187730001518503],168.00261239998508,168.2029156999779,4.9,168.2029156999779,1,4.9,1,1,1000,num_4,0.7106401000055484,,27,5,2026-03-05_13h30.46.403,2026A_exp2,2022.2.4,60.02119948837275,
1000,1,0.0,6.1,1,0,49,49,42,,,,,168.93679309997242,169.58776369999396,169.58776369999396,170.07190369995078,315,45,170.07190369995078,170.07190369995078,170.07190369995078,170.07190369995078,170.07190369995078,170.07190369995078,170.07190369995078,170.07190369995078,170.07190369995078,170.43849489995046,170.43849489995046,170.43849489995046,170.43849489995046,170.43849489995046,170.43849489995046,170.43849489995046,170.43849489995046,170.43849489995046,11,2,"[0.11685589997796342, 0.20027690002461895]","[0.13378069997997954, 0.3671641999972053]",170.43849489995046,170.64037439995445,1000,170.64037439995445,1000,1000,1000,1000,1,num_2,0.5535273000132293,,27,5,2026-03-05_13h30.46.403,2026A_exp2,2022.2.4,60.02119948837275,
0,0,3.7,4.9,0,0,50,50,77,,,,,171.22242059995187,171.87323490000563,171.87323490000563,172.37434989999747,315,45,172.37434989999747,172.37434989999747,172.37434989999747,172.37434989999747,172.37434989999747,172.37434989999747,172.37434989999747,172.37434989999747,172.37434989999747,172.74068319995422,172.74068319995422,172.74068319995422,172.74068319995422,172.74068319995422,172.74068319995422,172.74068319995422,172.74068319995422,172.74068319995422,23,0,,,172.74068319995422,172.9409981999779,4.9,172.9409981999779,1,4.9,1,1,1000,num_4,0.5971419999841601,,27,5,2026-03-05_13h30.46.403,2026A_exp2,2022.2.4,60.02119948837275,
1,0,0.0,0.0,0,0,51,51,80,,,,,173.55947129998822,174.20895649999147,174.20895649999147,174.70996139995987,45,315,174.70996139995987,174.70996139995987,174.70996139995987,174.70996139995987,174.70996139995987,174.70996139995987,174.70996139995987,174.70996139995987,174.70996139995987,175.07646169996588,175.07646169996588,175.07646169996588,175.07646169996588,175.07646169996588,175.07646169996588,175.07646169996588,175.07646169996588,175.07646169996588,8,1,[0.0011906999861821532],[0.2502960000419989],175.07646169996588,175.27667789999396,0.0,175.27667789999396,0,0.0,0,1,1000,num_1,0.7243111999705434,,27,5,2026-03-05_13h30.46.403,2026A_exp2,2022.2.4,60.02119948837275,
1000,1,3.7,0.0,0,0,52,52,86,,,,,176.02735319995554,176.67790710000554,176.67790710000554,177.16249419999076,315,45,177.16249419999076,177.16249419999076,177.16249419999076,177.16249419999076,177.16249419999076,177.16249419999076,177.16249419999076,177.16249419999076,177.16249419999076,177.52848659997107,177.52848659997107,177.52848659997107,177.52848659997107,177.52848659997107,177.52848659997107,177.52848659997107,177.52848659997107,177.52848659997107,23,0,,,177.52848659997107,177.76215099997353,1000,177.76215099997353,1000,1000,1000,1000,0,num_3,0.5668501000036485,,27,5,2026-03-05_13h30.46.403,2026A_exp2,2022.2.4,60.02119948837275,
1,0,0.0,6.1,1,0,53,53,19,,,,,178.34623949998058,178.9970328999916,178.9970328999916,179.498013000004,315,45,179.498013000004,179.498013000004,179.498013000004,179.498013000004,179.498013000004,179.498013000004,179.498013000004,179.498013000004,179.498013000004,179.86469889996806,179.86469889996806,179.86469889996806,179.86469889996806,179.86469889996806,179.86469889996806,179.86469889996806,179.86469889996806,179.86469889996806,22,1,[0.3350382000207901],[0.3521972000016831],179.86469889996806,180.06480709998868,6.1,180.06480709998868,1,6.1,1,1,1000,num_4,0.48801969998748973,,27,5,2026-03-05_13h30.46.403,2026A_exp2,2022.2.4,60.02119948837275,
1000,1,0.0,6.1,0,0,54,54,16,,,,,180.5817406999995,181.23268349998398,181.23268349998398,181.7335114000016,45,45,181.7335114000016,181.7335114000016,181.7335114000016,181.7335114000016,181.7335114000016,181.7335114000016,181.7335114000016,181.7335114000016,181.7335114000016,182.10020939999959,182.10020939999959,182.10020939999959,182.10020939999959,182.10020939999959,182.10020939999959,182.10020939999959,182.10020939999959,182.10020939999959,23,0,,,182.10020939999959,182.3018730999902,1000,182.3018730999902,1000,1000,1000,1000,1,num_2,0.46731849998468533,,27,5,2026-03-05_13h30.46.403,2026A_exp2,2022.2.4,60.02119948837275,
1,0,6.1,0.0,1,0,55,55,17,,,,,182.80090039997594,183.4513953999849,183.4513953999849,183.95059899997432,315,45,183.95059899997432,183.95059899997432,183.95059899997432,183.95059899997432,183.95059899997432,183.95059899997432,183.95059899997432,183.95059899997432,183.95059899997432,184.30232879996765,184.30232879996765,184.30232879996765,184.30232879996765,184.30232879996765,184.30232879996765,184.30232879996765,184.30232879996765,184.30232879996765,9,3,"[0.03176109999185428, 0.08094139996683225, 0.2812613999703899]","[0.04861539998091757, 0.2644842999870889, 0.31443689996376634]",184.30232879996765,184.50255899998592,0.0,184.50255899998592,0,0.0,0,1,1000,num_1,0.5709517000359483,,27,5,2026-03-05_13h30.46.403,2026A_exp2,2022.2.4,60.02119948837275,
1000,1,0.0,3.7,1,0,56,56,4,,,,,185.10308879998047,185.75889699999243,185.75889699999243,186.23807739996118,45,315,186.23807739996118,186.23807739996118,186.23807739996118,186.23807739996118,186.23807739996118,186.23807739996118,186.23807739996118,186.23807739996118,186.23807739996118,186.60444749996532,186.60444749996532,186.60444749996532,186.60444749996532,186.60444749996532,186.60444749996532,186.60444749996532,186.60444749996532,186.60444749996532,23,0,,,186.60444749996532,186.80655719997594,1000,186.80655719997594,1000,1000,1000,1000,1,num_2,0.4991105000372045,,27,5,2026-03-05_13h30.46.403,2026A_exp2,2022.2.4,60.02119948837275,
1000,1,6.1,0.0,1,0,57,57,79,,,,,187.32185700000264,187.97272369998973,187.97272369998973,188.4737032999983,315,315,188.4737032999983,188.4737032999983,188.4737032999983,188.4737032999983,188.4737032999983,188.4737032999983,188.4737032999983,188.4737032999983,188.4737032999983,188.84016679995693,188.84016679995693,188.84016679995693,188.84016679995693,188.84016679995693,188.84016679995693,188.84016679995693,188.84016679995693,188.84016679995693,23,0,,,188.84016679995693,189.04227209999226,1000,189.04227209999226,1000,1000,1000,1000,0,num_3,0.5432310000178404,,27,5,2026-03-05_13h30.46.403,2026A_exp2,2022.2.4,60.02119948837275,
1000,1,0.0,0.0,0,0,58,58,57,,,,,189.60752679995494,190.25833469995996,190.25833469995996,190.75928719999501,315,315,190.75928719999501,190.75928719999501,190.75928719999501,190.75928719999501,190.75928719999501,190.75928719999501,190.75928719999501,190.75928719999501,190.75928719999501,191.1257675999659,191.1257675999659,191.1257675999659,191.1257675999659,191.1257675999659,191.1257675999659,191.1257675999659,191.1257675999659,191.1257675999659,23,0,,,191.1257675999659,191.32790929998737,1000,191.32790929998737,1000,1000,1000,1000,0,num_3,0.6808078999747522,,27,5,2026-03-05_13h30.46.403,2026A_exp2,2022.2.4,60.02119948837275,
1000,1,3.7,6.1,1,0,59,59,75,,,,,192.02709529997082,192.67724359995918,192.67724359995918,193.16180579998763,315,45,193.16180579998763,193.16180579998763,193.16180579998763,193.16180579998763,193.16180579998763,193.16180579998763,193.16180579998763,193.16180579998763,193.16180579998763,193.52826229995117,193.52826229995117,193.52826229995117,193.52826229995117,193.52826229995117,193.52826229995117,193.52826229995117,193.52826229995117,193.52826229995117,23,0,,,193.52826229995117,193.7304787999601,1000,193.7304787999601,1000,1000,1000,1000,1,num_2,0.47175640001660213,,27,5,2026-03-05_13h30.46.403,2026A_exp2,2022.2.4,60.02119948837275,
0,0,4.9,0.0,0,0,60,60,84,,,,,194.22895349998726,194.87946679996094,194.87946679996094,195.3802515999996,315,315,195.3802515999996,195.3802515999996,195.3802515999996,195.3802515999996,195.3802515999996,195.3802515999996,195.3802515999996,195.3802515999996,195.3802515999996,195.7304477999569,195.7304477999569,195.7304477999569,195.7304477999569,195.7304477999569,195.7304477999569,195.7304477999569,195.7304477999569,195.7304477999569,10,3,"[0.08364299999084324, 0.1532147999969311, 0.2530457000248134]","[0.13627610000548884, 0.2363743000314571, 0.3367568000103347]",195.7304477999569,195.93406629998935,0.0,195.94720399996731,0,0.0,0,1,1000,num_1,0.5745407000067644,,27,5,2026-03-05_13h30.46.403,2026A_exp2,2022.2.4,60.02119948837275,
1000,1,3.7,6.1,0,0,61,61,60,,,,,196.54944589996012,197.19989940000232,197.19989940000232,197.70518279995304,45,315,197.70518279995304,197.70518279995304,197.70518279995304,197.70518279995304,197.70518279995304,197.70518279995304,197.70518279995304,197.70518279995304,197.70518279995304,198.06610339996405,198.06610339996405,198.06610339996405,198.06610339996405,198.06610339996405,198.06610339996405,198.06610339996405,198.06610339996405,198.06610339996405,23,0,,,198.06610339996405,198.26642840000568,1000,198.26642840000568,1000,1000,1000,1000,1,num_2,0.4309040000080131,,27,5,2026-03-05_13h30.46.403,2026A_exp2,2022.2.4,60.02119948837275,
1,0,6.1,0.0,0,0,62,62,85,,,,,198.71905209997203,199.36730659997556,199.36730659997556,199.8685250999988,45,315,199.8685250999988,199.8685250999988,199.8685250999988,199.8685250999988,199.8685250999988,199.8685250999988,199.8685250999988,199.8685250999988,199.8685250999988,200.23485869995784,200.23485869995784,200.23485869995784,200.23485869995784,200.23485869995784,200.23485869995784,200.23485869995784,200.23485869995784,200.23485869995784,23,0,,,200.23485869995784,200.4469398999936,6.1,200.4469398999936,1,6.1,1,1,1000,num_4,0.6901207999908365,,27,5,2026-03-05_13h30.46.403,2026A_exp2,2022.2.4,60.02119948837275,
0,0,4.9,0.0,0,0,63,63,40,,,,,201.16926749999402,201.80320739996387,201.80320739996387,202.30406070000026,315,315,202.30406070000026,202.30406070000026,202.30406070000026,202.30406070000026,202.30406070000026,202.30406070000026,202.30406070000026,202.30406070000026,202.30406070000026,202.67071749997558,202.67071749997558,202.67071749997558,202.67071749997558,202.67071749997558,202.67071749997558,202.67071749997558,202.67071749997558,202.67071749997558,23,0,,,202.67071749997558,202.87086239998462,0.0,202.87086239998462,0,0.0,0,1,1000,num_1,1.7070109999622218,,27,5,2026-03-05_13h30.46.403,2026A_exp2,2022.2.4,60.02119948837275,
1000,1,0.0,0.0,1,0,64,64,73,,,,,204.6057602999499,205.25661349995062,205.25661349995062,205.75055979995523,45,315,205.75055979995523,205.75055979995523,205.75055979995523,205.75055979995523,205.75055979995523,205.75055979995523,205.75055979995523,205.75055979995523,205.75055979995523,206.10747709998395,206.10747709998395,206.10747709998395,206.10747709998395,206.10747709998395,206.10747709998395,206.10747709998395,206.10747709998395,206.10747709998395,23,0,,,206.10747709998395,206.30948289996013,1000,206.30948289996013,1000,1000,1000,1000,1,num_2,0.4272876000031829,,27,5,2026-03-05_13h30.46.403,2026A_exp2,2022.2.4,60.02119948837275,
1,0,0.0,0.0,0,0,65,65,87,,,,,206.75806569994893,207.4085800999892,207.4085800999892,207.90986769995652,45,45,207.90986769995652,207.90986769995652,207.90986769995652,207.90986769995652,207.90986769995652,207.90986769995652,207.90986769995652,207.90986769995652,207.90986769995652,208.2594954999513,208.2594954999513,208.2594954999513,208.2594954999513,208.2594954999513,208.2594954999513,208.2594954999513,208.2594954999513,208.2594954999513,18,3,"[0.15048649994423613, 0.2504874999867752, 0.33384739997563884]","[0.18376779998652637, 0.26719239994417876, 0.35069469996960834]",208.2594954999513,208.45986879995326,0.0,208.45986879995326,1,0.0,0,0,1000,num_4,0.7258775000227615,,27,5,2026-03-05_13h30.46.403,2026A_exp2,2022.2.4,60.02119948837275,
1000,1,0.0,0.0,0,0,66,66,45,,,,,209.21091829997022,209.86124779999955,209.86124779999955,210.34568299999228,45,45,210.34568299999228,210.34568299999228,210.34568299999228,210.34568299999228,210.34568299999228,210.34568299999228,210.34568299999228,210.34568299999228,210.34568299999228,210.71209339995403,210.71209339995403,210.71209339995403,210.71209339995403,210.71209339995403,210.71209339995403,210.71209339995403,210.71209339995403,210.71209339995403,23,0,,,210.71209339995403,210.9121804999886,1000,210.9121804999886,1000,1000,1000,1000,1,num_2,0.5848447000025772,,27,5,2026-03-05_13h30.46.403,2026A_exp2,2022.2.4,60.02119948837275,
1000,1,0.0,3.7,0,0,67,67,43,,,,,211.51288389996625,212.16351609997218,212.16351609997218,212.66467639995972,315,45,212.66467639995972,212.66467639995972,212.66467639995972,212.66467639995972,212.66467639995972,212.66467639995972,212.66467639995972,212.66467639995972,212.66467639995972,213.01429779996397,213.01429779996397,213.01429779996397,213.01429779996397,213.01429779996397,213.01429779996397,213.01429779996397,213.01429779996397,213.01429779996397,22,0,,,213.01429779996397,213.2383225999656,1000,213.2383225999656,1000,1000,1000,1000,1,num_2,0.4672353999922052,,27,5,2026-03-05_13h30.46.403,2026A_exp2,2022.2.4,60.02119948837275,
1,0,3.7,0.0,0,0,68,68,10,,,,,213.73160189995542,214.38248679996468,214.38248679996468,214.88328769995132,45,315,214.88328769995132,214.88328769995132,214.88328769995132,214.88328769995132,214.88328769995132,214.88328769995132,214.88328769995132,214.88328769995132,214.88328769995132,215.24994299997343,215.24994299997343,215.24994299997343,215.24994299997343,215.24994299997343,215.24994299997343,215.24994299997343,215.24994299997343,215.24994299997343,23,0,,,215.24994299997343,215.44994129997212,3.7,215.44994129997212,1,3.7,1,1,1000,num_4,0.686798800015822,,27,5,2026-03-05_13h30.46.403,2026A_exp2,2022.2.4,60.02119948837275,
1,0,0.0,0.0,1,0,69,69,33,,,,,216.167405199958,216.81821269996,216.81821269996,217.31916929996805,45,45,217.31916929996805,217.31916929996805,217.31916929996805,217.31916929996805,217.31916929996805,217.31916929996805,217.31916929996805,217.31916929996805,217.31916929996805,217.68564479995985,217.68564479995985,217.68564479995985,217.68564479995985,217.68564479995985,217.68564479995985,217.68564479995985,217.68564479995985,217.68564479995985,21,1,[0.29993520001880825],[0.333284399996046],217.68564479995985,217.88590160000604,0.0,217.88590160000604,1,0.0,0,0,1000,num_4,0.5475759000401013,,27,5,2026-03-05_13h30.46.403,2026A_exp2,2022.2.4,60.02119948837275,
1000,1,0.0,0.0,1,0,70,70,56,,,,,218.45311679999577,219.10383869998623,219.10383869998623,219.58804760000203,45,45,219.58804760000203,219.58804760000203,219.58804760000203,219.58804760000203,219.58804760000203,219.58804760000203,219.58804760000203,219.58804760000203,219.58804760000203,219.95446899998933,219.95446899998933,219.95446899998933,219.95446899998933,219.95446899998933,219.95446899998933,219.95446899998933,219.95446899998933,219.95446899998933,7,3,"[0.03357139998115599, 0.10033749998547137, 0.18364209996070713]","[0.06683939998038113, 0.13364670000737533, 0.3671599999652244]",219.95446899998933,220.15680489997612,1000,220.15680489997612,1000,1000,1000,1000,1,num_2,0.7002467000274919,,27,5,2026-03-05_13h30.46.403,2026A_exp2,2022.2.4,60.02119948837275,
1000,1,0.0,3.7,0,0,71,71,23,,,,,220.8721526999725,221.52280029997928,221.52280029997928,222.02411619998747,315,315,222.02411619998747,222.02411619998747,222.02411619998747,222.02411619998747,222.02411619998747,222.02411619998747,222.02411619998747,222.02411619998747,222.02411619998747,222.3902431000024,222.3902431000024,222.3902431000024,222.3902431000024,222.3902431000024,222.3902431000024,222.3902431000024,222.3902431000024,222.3902431000024,22,1,[0.3334284000447951],[0.3501653000130318],222.3902431000024,222.59217550000176,1000,222.59217550000176,1000,1000,1000,1000,1,num_2,0.49647519999416545,,27,5,2026-03-05_13h30.46.403,2026A_exp2,2022.2.4,60.02119948837275,
1000,1,6.1,4.9,0,0,72,72,81,,,,,223.10759979998693,223.7584023999516,223.7584023999516,224.259487000003,315,45,224.259487000003,224.259487000003,224.259487000003,224.259487000003,224.259487000003,224.259487000003,224.259487000003,224.259487000003,224.259487000003,224.60933239996666,224.60933239996666,224.60933239996666,224.60933239996666,224.60933239996666,224.60933239996666,224.60933239996666,224.60933239996666,224.60933239996666,21,1,[0.10017780005000532],[0.11685520003084093],224.60933239996666,224.8118862999836,1000,224.8118862999836,1000,1000,1000,1000,1,num_2,0.48581189999822527,,27,5,2026-03-05_13h30.46.403,2026A_exp2,2022.2.4,60.02119948837275,
0,0,0.0,0.0,0,0,73,73,15,,,,,225.32656429999042,225.97720269998536,225.97720269998536,226.4784555999795,45,45,226.4784555999795,226.4784555999795,226.4784555999795,226.4784555999795,226.4784555999795,226.4784555999795,226.4784555999795,226.4784555999795,226.4784555999795,226.82829719997244,226.82829719997244,226.82829719997244,226.82829719997244,226.82829719997244,226.82829719997244,226.82829719997244,226.82829719997244,226.82829719997244,21,1,[0.1502827000222169],[0.16707040002802387],226.82829719997244,227.0313694999786,0.0,227.04523069999414,1,0.0,0,0,1000,num_4,0.7885742000071332,,27,5,2026-03-05_13h30.46.403,2026A_exp2,2022.2.4,60.02119948837275,
1000,1,4.9,3.7,0,0,74,74,28,,,,,227.86260579997906,228.51318459998583,228.51318459998583,229.01420409994898,45,315,229.01420409994898,229.01420409994898,229.01420409994898,229.01420409994898,229.01420409994898,229.01420409994898,229.01420409994898,229.01420409994898,229.01420409994898,229.3803765999619,229.3803765999619,229.3803765999619,229.3803765999619,229.3803765999619,229.3803765999619,229.3803765999619,229.3803765999619,229.3803765999619,23,0,,,229.3803765999619,229.58086109999567,1000,229.58086109999567,1000,1000,1000,1000,0,num_3,0.43630030000349507,,27,5,2026-03-05_13h30.46.403,2026A_exp2,2022.2.4,60.02119948837275,
1,0,4.9,6.1,0,0,75,75,82,,,,,230.04794729995774,230.70057699998142,230.70057699998142,231.19999850000022,315,45,231.19999850000022,231.19999850000022,231.19999850000022,231.19999850000022,231.19999850000022,231.19999850000022,231.19999850000022,231.19999850000022,231.19999850000022,231.54963829996996,231.54963829996996,231.54963829996996,231.54963829996996,231.54963829996996,231.54963829996996,231.54963829996996,231.54963829996996,231.54963829996996,22,0,,,231.54963829996996,231.76456919999328,4.9,231.76456919999328,0,4.9,1,0,1000,num_1,0.7812733000027947,,27,5,2026-03-05_13h30.46.403,2026A_exp2,2022.2.4,60.02119948837275,
0,0,0.0,3.7,1,0,76,76,53,,,,,232.56703189999098,233.21777619997738,233.21777619997738,233.71904039999936,315,45,233.71904039999936,233.71904039999936,233.71904039999936,233.71904039999936,233.71904039999936,233.71904039999936,233.71904039999936,233.71904039999936,233.71904039999936,234.0854647999513,234.0854647999513,234.0854647999513,234.0854647999513,234.0854647999513,234.0854647999513,234.0854647999513,234.0854647999513,234.0854647999513,23,0,,,234.0854647999513,234.28569399996195,0.0,234.28569399996195,0,0.0,0,1,1000,num_1,0.7158369999960996,,27,5,2026-03-05_13h30.46.403,2026A_exp2,2022.2.4,60.02119948837275,
1000,1,3.7,4.9,1,0,77,77,71,,,,,235.01960699999472,235.67022619995987,235.67022619995987,236.15486339997733,315,45,236.15486339997733,236.15486339997733,236.15486339997733,236.15486339997733,236.15486339997733,236.15486339997733,236.15486339997733,236.15486339997733,236.15486339997733,236.52110399998492,236.52110399998492,236.52110399998492,236.52110399998492,236.52110399998492,236.52110399998492,236.52110399998492,236.52110399998492,236.52110399998492,23,0,,,236.52110399998492,236.72331019997364,1000,236.72331019997364,1000,1000,1000,1000,1,num_2,0.4535446999943815,,27,5,2026-03-05_13h30.46.403,2026A_exp2,2022.2.4,60.02119948837275,
1,0,3.7,6.1,1,0,78,78,68,,,,,237.2051080999663,237.85590609995415,237.85590609995415,238.35686840000562,45,45,238.35686840000562,238.35686840000562,238.35686840000562,238.35686840000562,238.35686840000562,238.35686840000562,238.35686840000562,238.35686840000562,238.35686840000562,238.72337829996832,238.72337829996832,238.72337829996832,238.72337829996832,238.72337829996832,238.72337829996832,238.72337829996832,238.72337829996832,238.72337829996832,22,1,[0.03347650001524016],[0.05030010000336915],238.72337829996832,238.92364920000546,6.1,238.92364920000546,1,6.1,1,1,1000,num_4,0.6218348999973387,,27,5,2026-03-05_13h30.46.403,2026A_exp2,2022.2.4,60.02119948837275,
1,0,6.1,6.1,1,0,79,79,47,,,,,239.57412000000477,240.21770049998304,240.21770049998304,240.7142923999927,315,315,240.7142923999927,240.7142923999927,240.7142923999927,240.7142923999927,240.7142923999927,240.7142923999927,240.7142923999927,240.7142923999927,240.7142923999927,241.07577100000344,241.07577100000344,241.07577100000344,241.07577100000344,241.07577100000344,241.07577100000344,241.07577100000344,241.07577100000344,241.07577100000344,23,0,,,241.07577100000344,241.27594540000428,6.1,241.27594540000428,1,6.1,1,1,1000,num_4,0.5095147999818437,,27,5,2026-03-05_13h30.46.403,2026A_exp2,2022.2.4,60.02119948837275,
1,0,0.0,6.1,0,0,80,80,24,,,,,241.80984839994926,242.45421949995216,242.45421949995216,242.945556199993,45,315,242.945556199993,242.945556199993,242.945556199993,242.945556199993,242.945556199993,242.945556199993,242.945556199993,242.945556199993,242.945556199993,243.311329499993,243.311329499993,243.311329499993,243.311329499993,243.311329499993,243.311329499993,243.311329499993,243.311329499993,243.311329499993,22,1,[0.21666400000685826],[0.23344149999320507],243.311329499993,243.51144380000187,0.0,243.51144380000187,1,0.0,0,0,1000,num_4,0.841544300026726,,27,5,2026-03-05_13h30.46.403,2026A_exp2,2022.2.4,60.02119948837275,
1,0,0.0,4.9,0,0,81,81,14,,,,,244.37886139994953,245.02967530000024,245.02967530000024,245.51420259999577,45,45,245.51420259999577,245.51420259999577,245.51420259999577,245.51420259999577,245.51420259999577,245.51420259999577,245.51420259999577,245.51420259999577,245.51420259999577,245.88058139994973,245.88058139994973,245.88058139994973,245.88058139994973,245.88058139994973,245.88058139994973,245.88058139994973,245.88058139994973,245.88058139994973,3,3,"[0.017505499999970198, 0.1334631000063382, 0.1670153000159189]","[0.11700500000733882, 0.15026500000385568, 0.3667997000156902]",245.88058139994973,246.08326579997083,0.0,246.08326579997083,0,0.0,0,1,1000,num_1,0.7423784999991767,,27,5,2026-03-05_13h30.46.403,2026A_exp2,2022.2.4,60.02119948837275,
1,0,3.7,0.0,1,0,82,82,30,,,,,246.84816189995036,247.49897419998888,247.49897419998888,247.99985530000413,45,315,247.99985530000413,247.99985530000413,247.99985530000413,247.99985530000413,247.99985530000413,247.99985530000413,247.99985530000413,247.99985530000413,247.99985530000413,248.36641039996175,248.36641039996175,248.36641039996175,248.36641039996175,248.36641039996175,248.36641039996175,248.36641039996175,248.36641039996175,248.36641039996175,9,3,"[0.05039260000921786, 0.13386800000444055, 0.3006079000188038]","[0.10062689997721463, 0.2673824999947101, 0.35079749999567866]",248.36641039996175,248.56663189997198,0.0,248.56663189997198,0,0.0,0,1,1000,num_1,0.786070899979677,,27,5,2026-03-05_13h30.46.403,2026A_exp2,2022.2.4,60.02119948837275,
1000,1,4.9,0.0,1,0,83,83,67,,,,,249.38385759998346,250.03454259998398,250.03454259998398,250.5190411999938,315,315,250.5190411999938,250.5190411999938,250.5190411999938,250.5190411999938,250.5190411999938,250.5190411999938,250.5190411999938,250.5190411999938,250.5190411999938,250.88548289996106,250.88548289996106,250.88548289996106,250.88548289996106,250.88548289996106,250.88548289996106,250.88548289996106,250.88548289996106,250.88548289996106,16,4,"[0.06671099999221042, 0.15022099995985627, 0.2669216999784112, 0.3503093000035733]","[0.10012590000405908, 0.16699669999070466, 0.30027479998534545, 0.3671926999813877]",250.88548289996106,251.087482599949,1000,251.087482599949,1000,1000,1000,1000,0,num_3,0.6100763999857008,,27,5,2026-03-05_13h30.46.403,2026A_exp2,2022.2.4,60.02119948837275,
1000,1,0.0,6.1,1,0,84,84,74,,,,,251.72003099997528,252.37038829998346,252.37038829998346,252.87140720000025,45,45,252.87140720000025,252.87140720000025,252.87140720000025,252.87140720000025,252.87140720000025,252.87140720000025,252.87140720000025,252.87140720000025,252.87140720000025,253.22116149996873,253.22116149996873,253.22116149996873,253.22116149996873,253.22116149996873,253.22116149996873,253.22116149996873,253.22116149996873,253.22116149996873,15,2,"[0.001202500017825514, 0.28389349998906255]","[0.08367000002181157, 0.3172088999999687]",253.22116149996873,253.42340139998123,1000,253.42340139998123,1000,1000,1000,1000,1,num_2,0.6492780999979004,,27,5,2026-03-05_13h30.46.403,2026A_exp2,2022.2.4,60.02119948837275,
1,0,0.0,6.1,1,0,85,85,46,,,,,254.0888315999764,254.7392946999753,254.7392946999753,255.22382509999443,45,315,255.22382509999443,255.22382509999443,255.22382509999443,255.22382509999443,255.22382509999443,255.22382509999443,255.22382509999443,255.22382509999443,255.22382509999443,255.59018050000304,255.59018050000304,255.59018050000304,255.59018050000304,255.59018050000304,255.59018050000304,255.59018050000304,255.59018050000304,255.59018050000304,0,1,[0.0013282999861985445],[0.36702850001165643],255.59018050000304,255.79052099998808,6.1,255.79052099998808,1,6.1,1,1,1000,num_4,0.5702759999549016,,27,5,2026-03-05_13h30.46.403,2026A_exp2,2022.2.4,60.02119948837275,
1,0,0.0,4.9,0,0,86,86,32,,,,,256.3909367999877,257.0417123999796,257.0417123999796,257.5261597999488,45,315,257.5261597999488,257.5261597999488,257.5261597999488,257.5261597999488,257.5261597999488,257.5261597999488,257.5261597999488,257.5261597999488,257.5261597999488,257.89251869998407,257.89251869998407,257.89251869998407,257.89251869998407,257.89251869998407,257.89251869998407,257.89251869998407,257.89251869998407,257.89251869998407,23,0,,,257.89251869998407,258.09282179997535,0.0,258.09282179997535,0,0.0,0,1,1000,num_1,0.6366387999732979,,27,5,2026-03-05_13h30.46.403,2026A_exp2,2022.2.4,60.02119948837275,
1,0,4.9,0.0,0,0,87,87,66,,,,,258.7600384999532,259.4107453000033,259.4107453000033,259.8952144999639,45,315,259.8952144999639,259.8952144999639,259.8952144999639,259.8952144999639,259.8952144999639,259.8952144999639,259.8952144999639,259.8952144999639,259.8952144999639,260.2616547999787,260.2616547999787,260.2616547999787,260.2616547999787,260.2616547999787,260.2616547999787,260.2616547999787,260.2616547999787,260.2616547999787,22,1,[0.11687680002069101],[0.13361100002657622],260.2616547999787,260.46188139996957,4.9,260.46188139996957,1,4.9,1,1,1000,num_4,0.6113958000205457,,27,5,2026-03-05_13h30.46.403,2026A_exp2,2022.2.4,60.02119948837275,
1000,1,3.7,0.0,0,0,88,88,69,,,,,261.09773169999244,261.7463974999846,261.7463974999846,262.2475937999552,45,45,262.2475937999552,262.2475937999552,262.2475937999552,262.2475937999552,262.2475937999552,262.2475937999552,262.2475937999552,262.2475937999552,262.2475937999552,262.6139531999943,262.6139531999943,262.6139531999943,262.6139531999943,262.6139531999943,262.6139531999943,262.6139531999943,262.6139531999943,262.6139531999943,22,1,[0.13392980000935495],[0.15050799999153242],262.6139531999943,262.8467170999502,1000,262.8467170999502,1000,1000,1000,1000,0,num_3,0.6262243000091985,,27,5,2026-03-05_13h30.46.403,2026A_exp2,2022.2.4,60.02119948837275,
1,0,0.0,0.0,1,0,89,89,6,,,,,263.498133599991,264.14884999999776,264.14884999999776,264.6663708999986,315,315,264.6663708999986,264.6663708999986,264.6663708999986,264.6663708999986,264.6663708999986,264.6663708999986,264.6663708999986,264.6663708999986,264.6663708999986,265.0164075999637,265.0164075999637,265.0164075999637,265.0164075999637,265.0164075999637,265.0164075999637,265.0164075999637,265.0164075999637,265.0164075999637,23,0,,,265.0164075999637,265.2164738999563,0.0,265.2164738999563,0,0.0,0,1,1000,num_1,0.833338399999775,,27,5,2026-03-05_13h30.46.403,2026A_exp2,2022.2.4,60.02119948837275,
,,,,,,,,,,,,,,,,,,,,,,,,,,,,,,,,,,,,,,,,,,,,,,,,,,,,266.09582170000067,,,,,,,
