validity,detectorcomp,contrastCW,contrastCCW,precueCWorCCW,block_80trials.thisRepN,block_80trials.thisTrialN,block_80trials.thisN,block_80trials.thisIndex,etRecord.started,etRecord.stopped,text.started,text.stopped,text_4.started,text_4.stopped,text_6.started,text_6.stopped,oriCW,oriCCW,roi_2.started,grating_UR.started,grating_UL.started,grating_LR.started,grating_LL.started,noise_UR.started,noise_UL.started,noise_LR.started,noise_LL.started,roi_2.stopped,grating_UR.stopped,grating_UL.stopped,grating_LR.stopped,grating_LL.stopped,noise_UR.stopped,noise_UL.stopped,noise_LR.stopped,noise_LL.stopped,outframe,roi_2.numLooks,roi_2.timesOn,roi_2.timesOff,text_2.started,text_2.stopped,probedcontrast,key_resp.started,respdetect,relevantContrast,correctDetect,TorFdetect,respCWorCCW,key_resp.keys,key_resp.rt,feedback_display_.started,participantNo,blockNo,date,expName,psychopyVersion,frameRate,
1000,1,4.9,4.9,1,0,0,0,68,4.780001472681761e-05,4.780001472681761e-05,53.058992800011765,55.06188689998817,55.06188689998817,55.69600759999594,55.69600759999594,56.21552620001603,315,45,56.21552620001603,56.21552620001603,56.21552620001603,56.21552620001603,56.21552620001603,56.21552620001603,56.21552620001603,56.21552620001603,56.21552620001603,56.56372630002443,56.56372630002443,56.56372630002443,56.56372630002443,56.56372630002443,56.56372630002443,56.56372630002443,56.56372630002443,56.56372630002443,23,0,,,56.56372630002443,56.771280999993905,1000,56.771280999993905,1000,1000,1000,1000,1,num_2,0.7040876999963075,,22,4,2026-03-04_10h41.06.631,2026A_exp2,2022.2.4,59.945030393317886,
1,0,0.0,6.1,1,0,1,1,36,,,,,57.49790189997293,58.14846340002259,58.14846340002259,58.64974580000853,315,315,58.64974580000853,58.64974580000853,58.64974580000853,58.64974580000853,58.64974580000853,58.64974580000853,58.64974580000853,58.64974580000853,58.64974580000853,59.01621029997477,59.01621029997477,59.01621029997477,59.01621029997477,59.01621029997477,59.01621029997477,59.01621029997477,59.01621029997477,59.01621029997477,23,0,,,59.01621029997477,59.2163291000179,6.1,59.2163291000179,1,6.1,1,1,1000,num_4,0.7154749000328593,,22,4,2026-03-04_10h41.06.631,2026A_exp2,2022.2.4,59.945030393317886,
1000,1,4.9,3.7,0,0,2,2,40,,,,,59.95043989998521,60.60097610001685,60.60097610001685,61.08551439997973,315,315,61.08551439997973,61.08551439997973,61.08551439997973,61.08551439997973,61.08551439997973,61.08551439997973,61.08551439997973,61.08551439997973,61.08551439997973,61.45174879999831,61.45174879999831,61.45174879999831,61.45174879999831,61.45174879999831,61.45174879999831,61.45174879999831,61.45174879999831,61.45174879999831,23,0,,,61.45174879999831,61.65405960002681,1000,61.65405960002681,1000,1000,1000,1000,0,num_3,0.7740319999866188,,22,4,2026-03-04_10h41.06.631,2026A_exp2,2022.2.4,59.945030393317886,
1000,1,3.7,3.7,0,0,3,3,72,,,,,62.45300660002977,63.10363829997368,63.10363829997368,63.60475380002754,315,315,63.60475380002754,63.60475380002754,63.60475380002754,63.60475380002754,63.60475380002754,63.60475380002754,63.60475380002754,63.60475380002754,63.60475380002754,63.97104560001753,63.97104560001753,63.97104560001753,63.97104560001753,63.97104560001753,63.97104560001753,63.97104560001753,63.97104560001753,63.97104560001753,23,0,,,63.97104560001753,64.17343309998978,1000,64.17343309998978,1000,1000,1000,1000,0,num_3,0.7897263999911956,,22,4,2026-03-04_10h41.06.631,2026A_exp2,2022.2.4,59.945030393317886,
1000,1,6.1,0.0,1,0,4,4,57,,,,,64.98888810002245,65.63951549999183,65.63951549999183,66.14061910001328,315,315,66.14061910001328,66.14061910001328,66.14061910001328,66.14061910001328,66.14061910001328,66.14061910001328,66.14061910001328,66.14061910001328,66.14061910001328,66.506991799979,66.506991799979,66.506991799979,66.506991799979,66.506991799979,66.506991799979,66.506991799979,66.506991799979,66.506991799979,23,0,,,66.506991799979,66.7087051999988,1000,66.7087051999988,1000,1000,1000,1000,0,num_3,0.5675004000077024,,22,4,2026-03-04_10h41.06.631,2026A_exp2,2022.2.4,59.945030393317886,
1000,1,6.1,3.7,0,0,5,5,75,,,,,67.30792880000081,67.96677960001398,67.96677960001398,68.47423699998762,45,315,68.47423699998762,68.47423699998762,68.47423699998762,68.47423699998762,68.47423699998762,68.47423699998762,68.47423699998762,68.47423699998762,68.47423699998762,68.80928139999742,68.80928139999742,68.80928139999742,68.80928139999742,68.80928139999742,68.80928139999742,68.80928139999742,68.80928139999742,68.80928139999742,22,0,,,68.80928139999742,69.00956320000114,1000,69.00956320000114,1000,1000,1000,1000,1,num_2,0.609257600037381,,22,4,2026-03-04_10h41.06.631,2026A_exp2,2022.2.4,59.945030393317886,
1000,1,0.0,4.9,1,0,6,6,66,,,,,69.64340719999745,70.29402179998579,70.29402179998579,70.79532059998019,315,45,70.79532059998019,70.79532059998019,70.79532059998019,70.79532059998019,70.79532059998019,70.79532059998019,70.79532059998019,70.79532059998019,70.79532059998019,71.16168249998009,71.16168249998009,71.16168249998009,71.16168249998009,71.16168249998009,71.16168249998009,71.16168249998009,71.16168249998009,71.16168249998009,23,0,,,71.16168249998009,71.36439020000398,1000,71.36439020000398,1000,1000,1000,1000,1,num_2,1.0468161999597214,,22,4,2026-03-04_10h41.06.631,2026A_exp2,2022.2.4,59.945030393317886,
1000,1,0.0,0.0,1,0,7,7,9,,,,,72.42937640001765,73.0801917000208,73.0801917000208,73.58162469998933,315,315,73.58162469998933,73.58162469998933,73.58162469998933,73.58162469998933,73.58162469998933,73.58162469998933,73.58162469998933,73.58162469998933,73.58162469998933,73.94779700000072,73.94779700000072,73.94779700000072,73.94779700000072,73.94779700000072,73.94779700000072,73.94779700000072,73.94779700000072,73.94779700000072,23,0,,,73.94779700000072,74.14909199997783,1000,74.14909199997783,1000,1000,1000,1000,0,num_3,0.6937038999749348,,22,4,2026-03-04_10h41.06.631,2026A_exp2,2022.2.4,59.945030393317886,
1000,1,0.0,4.9,0,0,8,8,26,,,,,74.86536990001332,75.51593689998845,75.51593689998845,76.01717940001981,45,45,76.01717940001981,76.01717940001981,76.01717940001981,76.01717940001981,76.01717940001981,76.01717940001981,76.01717940001981,76.01717940001981,76.01717940001981,76.38338860002114,76.38338860002114,76.38338860002114,76.38338860002114,76.38338860002114,76.38338860002114,76.38338860002114,76.38338860002114,76.38338860002114,23,0,,,76.38338860002114,76.58561010000994,1000,76.58561010000994,1000,1000,1000,1000,1,num_2,1.0811738999909721,,22,4,2026-03-04_10h41.06.631,2026A_exp2,2022.2.4,59.945030393317886,
1,0,6.1,0.0,1,0,9,9,70,,,,,77.6847037000116,78.33531870000297,78.33531870000297,78.83637269999599,315,45,78.83637269999599,78.83637269999599,78.83637269999599,78.83637269999599,78.83637269999599,78.83637269999599,78.83637269999599,78.83637269999599,78.83637269999599,79.20306179998443,79.20306179998443,79.20306179998443,79.20306179998443,79.20306179998443,79.20306179998443,79.20306179998443,79.20306179998443,79.20306179998443,23,0,,,79.20306179998443,79.40325839997968,0.0,79.40325839997968,0,0.0,0,1,1000,num_1,1.4643910999875516,,22,4,2026-03-04_10h41.06.631,2026A_exp2,2022.2.4,59.945030393317886,
1,0,0.0,0.0,1,0,10,10,69,,,,,80.88788599998225,81.53858529997524,81.53858529997524,82.02312979998533,45,315,82.02312979998533,82.02312979998533,82.02312979998533,82.02312979998533,82.02312979998533,82.02312979998533,82.02312979998533,82.02312979998533,82.02312979998533,82.38951680000173,82.38951680000173,82.38951680000173,82.38951680000173,82.38951680000173,82.38951680000173,82.38951680000173,82.38951680000173,82.38951680000173,23,0,,,82.38951680000173,82.58978630002821,0.0,82.58978630002821,1,0.0,0,0,1000,num_4,1.637745600019116,,22,4,2026-03-04_10h41.06.631,2026A_exp2,2022.2.4,59.945030393317886,
1000,1,0.0,4.9,0,0,11,11,60,,,,,84.25790480000433,84.90869810001459,84.90869810001459,85.39321250002831,315,315,85.39321250002831,85.39321250002831,85.39321250002831,85.39321250002831,85.39321250002831,85.39321250002831,85.39321250002831,85.39321250002831,85.39321250002831,85.75950580002973,85.75950580002973,85.75950580002973,85.75950580002973,85.75950580002973,85.75950580002973,85.75950580002973,85.75950580002973,85.75950580002973,23,0,,,85.75950580002973,85.96157260000473,1000,85.96157260000473,1000,1000,1000,1000,0,num_3,0.8417274000239559,,22,4,2026-03-04_10h41.06.631,2026A_exp2,2022.2.4,59.945030393317886,
1000,1,0.0,0.0,1,0,12,12,1,,,,,86.82723689998966,87.47792799997842,87.47792799997842,87.97891170001822,315,315,87.97891170001822,87.97891170001822,87.97891170001822,87.97891170001822,87.97891170001822,87.97891170001822,87.97891170001822,87.97891170001822,87.97891170001822,88.34545590000926,88.34545590000926,88.34545590000926,88.34545590000926,88.34545590000926,88.34545590000926,88.34545590000926,88.34545590000926,88.34545590000926,23,0,,,88.34545590000926,88.54749059997266,1000,88.54749059997266,1000,1000,1000,1000,0,num_3,1.8556421000394039,,22,4,2026-03-04_10h41.06.631,2026A_exp2,2022.2.4,59.945030393317886,
1000,1,4.9,0.0,0,0,13,13,41,,,,,90.43089610000607,91.08147520001512,91.08147520001512,91.58264119998785,45,315,91.58264119998785,91.58264119998785,91.58264119998785,91.58264119998785,91.58264119998785,91.58264119998785,91.58264119998785,91.58264119998785,91.58264119998785,91.94913720001932,91.94913720001932,91.94913720001932,91.94913720001932,91.94913720001932,91.94913720001932,91.94913720001932,91.94913720001932,91.94913720001932,23,0,,,91.94913720001932,92.14940170000773,1000,92.14940170000773,1000,1000,1000,1000,0,num_3,0.6542634000070393,,22,4,2026-03-04_10h41.06.631,2026A_exp2,2022.2.4,59.945030393317886,
1,0,0.0,6.1,1,0,14,14,33,,,,,92.8333760999958,93.48389079998014,93.48389079998014,93.98510539997369,315,45,93.98510539997369,93.98510539997369,93.98510539997369,93.98510539997369,93.98510539997369,93.98510539997369,93.98510539997369,93.98510539997369,93.98510539997369,94.35151609999593,94.35151609999593,94.35151609999593,94.35151609999593,94.35151609999593,94.35151609999593,94.35151609999593,94.35151609999593,94.35151609999593,23,0,,,94.35151609999593,94.55168460001005,6.1,94.55168460001005,1,6.1,1,1,1000,num_4,1.0830221999785863,,22,4,2026-03-04_10h41.06.631,2026A_exp2,2022.2.4,59.945030393317886,
1000,1,3.7,3.7,0,0,15,15,63,,,,,95.6526832000236,96.3033830000204,96.3033830000204,96.78777450002963,45,315,96.78777450002963,96.78777450002963,96.78777450002963,96.78777450002963,96.78777450002963,96.78777450002963,96.78777450002963,96.78777450002963,96.78777450002963,97.15432939998573,97.15432939998573,97.15432939998573,97.15432939998573,97.15432939998573,97.15432939998573,97.15432939998573,97.15432939998573,97.15432939998573,23,0,,,97.15432939998573,97.35666470002616,1000,97.35666470002616,1000,1000,1000,1000,0,num_3,0.8144234999781474,,22,4,2026-03-04_10h41.06.631,2026A_exp2,2022.2.4,59.945030393317886,
1000,1,4.9,0.0,0,0,16,16,54,,,,,98.18855710001662,98.83933360001538,98.83933360001538,99.34036069997819,315,45,99.34036069997819,99.34036069997819,99.34036069997819,99.34036069997819,99.34036069997819,99.34036069997819,99.34036069997819,99.34036069997819,99.34036069997819,99.70643919997383,99.70643919997383,99.70643919997383,99.70643919997383,99.70643919997383,99.70643919997383,99.70643919997383,99.70643919997383,99.70643919997383,23,0,,,99.70643919997383,99.9088365000207,1000,99.9088365000207,1000,1000,1000,1000,0,num_3,0.7817500000237487,,22,4,2026-03-04_10h41.06.631,2026A_exp2,2022.2.4,59.945030393317886,
0,0,4.9,0.0,1,0,17,17,67,,,,,100.70810940000229,101.35845719999634,101.35845719999634,101.85954969999148,315,315,101.85954969999148,101.85954969999148,101.85954969999148,101.85954969999148,101.85954969999148,101.85954969999148,101.85954969999148,101.85954969999148,101.85954969999148,102.22607099998277,102.22607099998277,102.22607099998277,102.22607099998277,102.22607099998277,102.22607099998277,102.22607099998277,102.22607099998277,102.22607099998277,23,0,,,102.22607099998277,102.42630659998395,4.9,102.42630659998395,1,4.9,1,1,1000,num_4,0.8967159999883734,,22,4,2026-03-04_10h41.06.631,2026A_exp2,2022.2.4,59.945030393317886,
1,0,6.1,4.9,1,0,18,18,64,,,,,103.34361749998061,103.99444079998648,103.99444079998648,104.49563149997266,315,45,104.49563149997266,104.49563149997266,104.49563149997266,104.49563149997266,104.49563149997266,104.49563149997266,104.49563149997266,104.49563149997266,104.49563149997266,104.84532439999748,104.84532439999748,104.84532439999748,104.84532439999748,104.84532439999748,104.84532439999748,104.84532439999748,104.84532439999748,104.84532439999748,22,0,,,104.84532439999748,105.04558510001516,4.9,105.04558510001516,1,4.9,1,1,1000,num_4,1.02145370002836,,22,4,2026-03-04_10h41.06.631,2026A_exp2,2022.2.4,59.945030393317886,
1000,1,3.7,6.1,1,0,19,19,48,,,,,106.0968973999843,106.7471064000274,106.7471064000274,107.24831290001748,45,315,107.24831290001748,107.24831290001748,107.24831290001748,107.24831290001748,107.24831290001748,107.24831290001748,107.24831290001748,107.24831290001748,107.24831290001748,107.61469379998744,107.61469379998744,107.61469379998744,107.61469379998744,107.61469379998744,107.61469379998744,107.61469379998744,107.61469379998744,107.61469379998744,23,0,,,107.61469379998744,107.81688160001067,1000,107.81688160001067,1000,1000,1000,1000,1,num_2,0.5788662999984808,,22,4,2026-03-04_10h41.06.631,2026A_exp2,2022.2.4,59.945030393317886,
1,0,3.7,0.0,0,0,20,20,87,,,,,108.41586439998355,109.066149100021,109.066149100021,109.56730230001267,45,45,109.56730230001267,109.56730230001267,109.56730230001267,109.56730230001267,109.56730230001267,109.56730230001267,109.56730230001267,109.56730230001267,109.56730230001267,109.93361120001646,109.93361120001646,109.93361120001646,109.93361120001646,109.93361120001646,109.93361120001646,109.93361120001646,109.93361120001646,109.93361120001646,23,0,,,109.93361120001646,110.13385029998608,3.7,110.13385029998608,1,3.7,1,1,1000,num_4,1.3329607999767177,,22,4,2026-03-04_10h41.06.631,2026A_exp2,2022.2.4,59.945030393317886,
1,0,0.0,3.7,1,0,21,21,14,,,,,111.48517950001406,112.13580789999105,112.13580789999105,112.62042980000842,315,45,112.62042980000842,112.62042980000842,112.62042980000842,112.62042980000842,112.62042980000842,112.62042980000842,112.62042980000842,112.62042980000842,112.62042980000842,112.98671889997786,112.98671889997786,112.98671889997786,112.98671889997786,112.98671889997786,112.98671889997786,112.98671889997786,112.98671889997786,112.98671889997786,23,0,,,112.98671889997786,113.18704210000578,3.7,113.18704210000578,1,3.7,1,1,1000,num_4,0.776620099961292,,22,4,2026-03-04_10h41.06.631,2026A_exp2,2022.2.4,59.945030393317886,
0,0,3.7,0.0,0,0,22,22,62,,,,,113.98771600000327,114.63853330002166,114.63853330002166,115.12283200002275,45,315,115.12283200002275,115.12283200002275,115.12283200002275,115.12283200002275,115.12283200002275,115.12283200002275,115.12283200002275,115.12283200002275,115.12283200002275,115.48933720000787,115.48933720000787,115.48933720000787,115.48933720000787,115.48933720000787,115.48933720000787,115.48933720000787,115.48933720000787,115.48933720000787,23,0,,,115.48933720000787,115.68958770000609,0.0,115.68958770000609,0,0.0,0,1,1000,num_1,0.8489822999690659,,22,4,2026-03-04_10h41.06.631,2026A_exp2,2022.2.4,59.945030393317886,
1,0,6.1,0.0,0,0,23,23,47,,,,,116.55687779997243,117.20732579997275,117.20732579997275,117.70781920000445,315,315,117.70781920000445,117.70781920000445,117.70781920000445,117.70781920000445,117.70781920000445,117.70781920000445,117.70781920000445,117.70781920000445,117.70781920000445,118.05859239998972,118.05859239998972,118.05859239998972,118.05859239998972,118.05859239998972,118.05859239998972,118.05859239998972,118.05859239998972,118.05859239998972,23,0,,,118.05859239998972,118.25852159998612,6.1,118.25852159998612,1,6.1,1,1,1000,num_4,1.1123121000127867,,22,4,2026-03-04_10h41.06.631,2026A_exp2,2022.2.4,59.945030393317886,
1,0,0.0,3.7,1,0,24,24,32,,,,,119.39316500001587,120.04391329997452,120.04391329997452,120.52818219998153,315,315,120.52818219998153,120.52818219998153,120.52818219998153,120.52818219998153,120.52818219998153,120.52818219998153,120.52818219998153,120.52818219998153,120.52818219998153,120.89471670001512,120.89471670001512,120.89471670001512,120.89471670001512,120.89471670001512,120.89471670001512,120.89471670001512,120.89471670001512,120.89471670001512,23,0,,,120.89471670001512,121.09493309998652,3.7,121.09493309998652,0,3.7,1,0,1000,num_1,1.1319109000032768,,22,4,2026-03-04_10h41.06.631,2026A_exp2,2022.2.4,59.945030393317886,
1000,1,0.0,0.0,0,0,25,25,15,,,,,122.24588890001178,122.89673839998432,122.89673839998432,123.38128339999821,45,315,123.38128339999821,123.38128339999821,123.38128339999821,123.38128339999821,123.38128339999821,123.38128339999821,123.38128339999821,123.38128339999821,123.38128339999821,123.74760639999295,123.74760639999295,123.74760639999295,123.74760639999295,123.74760639999295,123.74760639999295,123.74760639999295,123.74760639999295,123.74760639999295,23,0,,,123.74760639999295,123.94805160001852,1000,123.94805160001852,1000,1000,1000,1000,0,num_3,0.5754751999629661,,22,4,2026-03-04_10h41.06.631,2026A_exp2,2022.2.4,59.945030393317886,
1000,1,0.0,0.0,0,0,26,26,17,,,,,124.54828930000076,125.19899090001127,125.19899090001127,125.7000564999762,45,315,125.7000564999762,125.7000564999762,125.7000564999762,125.7000564999762,125.7000564999762,125.7000564999762,125.7000564999762,125.7000564999762,125.7000564999762,126.06648889998905,126.06648889998905,126.06648889998905,126.06648889998905,126.06648889998905,126.06648889998905,126.06648889998905,126.06648889998905,126.06648889998905,23,0,,,126.06648889998905,126.26773070002673,1000,126.26773070002673,1000,1000,1000,1000,0,num_3,0.5605762000195682,,22,4,2026-03-04_10h41.06.631,2026A_exp2,2022.2.4,59.945030393317886,
0,0,4.9,3.7,0,0,27,27,28,,,,,126.85059619997628,127.50135400000727,127.50135400000727,128.00230900000315,315,45,128.00230900000315,128.00230900000315,128.00230900000315,128.00230900000315,128.00230900000315,128.00230900000315,128.00230900000315,128.00230900000315,128.00230900000315,128.35214249999262,128.35214249999262,128.35214249999262,128.35214249999262,128.35214249999262,128.35214249999262,128.35214249999262,128.35214249999262,128.35214249999262,22,0,,,128.35214249999262,128.5524027000065,3.7,128.56909639999503,0,3.7,1,0,1000,num_1,0.8429035000153817,,22,4,2026-03-04_10h41.06.631,2026A_exp2,2022.2.4,59.945030393317886,
1000,1,3.7,0.0,0,0,28,28,76,,,,,129.43652520002797,130.0872692000121,130.0872692000121,130.57174139999552,315,45,130.57174139999552,130.57174139999552,130.57174139999552,130.57174139999552,130.57174139999552,130.57174139999552,130.57174139999552,130.57174139999552,130.57174139999552,130.937968800019,130.937968800019,130.937968800019,130.937968800019,130.937968800019,130.937968800019,130.937968800019,130.937968800019,130.937968800019,23,0,,,130.937968800019,131.14012689999072,1000,131.14012689999072,1000,1000,1000,1000,0,num_3,1.0146370999864303,,22,4,2026-03-04_10h41.06.631,2026A_exp2,2022.2.4,59.945030393317886,
1000,1,3.7,6.1,1,0,29,29,58,,,,,132.17255010001827,132.82342610001797,132.82342610001797,133.32432720001088,315,315,133.32432720001088,133.32432720001088,133.32432720001088,133.32432720001088,133.32432720001088,133.32432720001088,133.32432720001088,133.32432720001088,133.32432720001088,133.69081539998297,133.69081539998297,133.69081539998297,133.69081539998297,133.69081539998297,133.69081539998297,133.69081539998297,133.69081539998297,133.69081539998297,23,0,,,133.69081539998297,133.8928366000182,1000,133.8928366000182,1000,1000,1000,1000,1,num_2,0.49418419995345175,,22,4,2026-03-04_10h41.06.631,2026A_exp2,2022.2.4,59.945030393317886,
1000,1,0.0,0.0,0,0,30,30,7,,,,,134.4082769000088,135.05887210002402,135.05887210002402,135.55988499999512,315,315,135.55988499999512,135.55988499999512,135.55988499999512,135.55988499999512,135.55988499999512,135.55988499999512,135.55988499999512,135.55988499999512,135.55988499999512,135.92627960001118,135.92627960001118,135.92627960001118,135.92627960001118,135.92627960001118,135.92627960001118,135.92627960001118,135.92627960001118,135.92627960001118,23,0,,,135.92627960001118,136.12861060001887,1000,136.12861060001887,1000,1000,1000,1000,0,num_3,0.49145489995134994,,22,4,2026-03-04_10h41.06.631,2026A_exp2,2022.2.4,59.945030393317886,
1000,1,3.7,4.9,0,0,31,31,45,,,,,136.643717799976,137.29449409997324,137.29449409997324,137.79560249997303,315,315,137.79560249997303,137.79560249997303,137.79560249997303,137.79560249997303,137.79560249997303,137.79560249997303,137.79560249997303,137.79560249997303,137.79560249997303,138.16180920001352,138.16180920001352,138.16180920001352,138.16180920001352,138.16180920001352,138.16180920001352,138.16180920001352,138.16180920001352,138.16180920001352,23,0,,,138.16180920001352,138.36420559999533,1000,138.36420559999533,1000,1000,1000,1000,0,num_3,0.5107341000111774,,22,4,2026-03-04_10h41.06.631,2026A_exp2,2022.2.4,59.945030393317886,
1,0,4.9,3.7,1,0,32,32,27,,,,,138.8959028000245,139.54673310002545,139.54673310002545,140.04775969998445,45,45,140.04775969998445,140.04775969998445,140.04775969998445,140.04775969998445,140.04775969998445,140.04775969998445,140.04775969998445,140.04775969998445,140.04775969998445,140.41423330002,140.41423330002,140.41423330002,140.41423330002,140.41423330002,140.41423330002,140.41423330002,140.41423330002,140.41423330002,23,0,,,140.41423330002,140.6144013000303,3.7,140.6144013000303,1,3.7,1,1,1000,num_4,0.7888886000146158,,22,4,2026-03-04_10h41.06.631,2026A_exp2,2022.2.4,59.945030393317886,
1000,1,0.0,0.0,1,0,33,33,78,,,,,141.43205399997532,142.08249370002886,142.08249370002886,142.56679830001667,315,45,142.56679830001667,142.56679830001667,142.56679830001667,142.56679830001667,142.56679830001667,142.56679830001667,142.56679830001667,142.56679830001667,142.56679830001667,142.93322669999907,142.93322669999907,142.93322669999907,142.93322669999907,142.93322669999907,142.93322669999907,142.93322669999907,142.93322669999907,142.93322669999907,23,0,,,142.93322669999907,143.133556100016,1000,143.133556100016,1000,1000,1000,1000,0,num_3,0.525701799953822,,22,4,2026-03-04_10h41.06.631,2026A_exp2,2022.2.4,59.945030393317886,
1000,1,4.9,0.0,1,0,34,34,10,,,,,143.68405540002277,144.3347626000177,144.3347626000177,144.8359225000022,315,315,144.8359225000022,144.8359225000022,144.8359225000022,144.8359225000022,144.8359225000022,144.8359225000022,144.8359225000022,144.8359225000022,144.8359225000022,145.20207539998228,145.20207539998228,145.20207539998228,145.20207539998228,145.20207539998228,145.20207539998228,145.20207539998228,145.20207539998228,145.20207539998228,23,0,,,145.20207539998228,145.40435440000147,1000,145.40435440000147,1000,1000,1000,1000,0,num_3,0.45498709997627884,,22,4,2026-03-04_10h41.06.631,2026A_exp2,2022.2.4,59.945030393317886,
0,0,6.1,0.0,0,0,35,35,74,,,,,145.88636030000634,146.53708620002726,146.53708620002726,147.03808420000132,45,315,147.03808420000132,147.03808420000132,147.03808420000132,147.03808420000132,147.03808420000132,147.03808420000132,147.03808420000132,147.03808420000132,147.03808420000132,147.4045173000195,147.4045173000195,147.4045173000195,147.4045173000195,147.4045173000195,147.4045173000195,147.4045173000195,147.4045173000195,147.4045173000195,23,0,,,147.4045173000195,147.60480740002822,0.0,147.60480740002822,0,0.0,0,1,1000,num_1,0.8544550000224262,,22,4,2026-03-04_10h41.06.631,2026A_exp2,2022.2.4,59.945030393317886,
1000,1,6.1,0.0,1,0,36,36,83,,,,,148.48906430002535,149.13958660000935,149.13958660000935,149.62387800001306,45,45,149.62387800001306,149.62387800001306,149.62387800001306,149.62387800001306,149.62387800001306,149.62387800001306,149.62387800001306,149.62387800001306,149.62387800001306,149.99027479998767,149.99027479998767,149.99027479998767,149.99027479998767,149.99027479998767,149.99027479998767,149.99027479998767,149.99027479998767,149.99027479998767,23,0,,,149.99027479998767,150.19274510000832,1000,150.19274510000832,1000,1000,1000,1000,0,num_3,0.4984391999896616,,22,4,2026-03-04_10h41.06.631,2026A_exp2,2022.2.4,59.945030393317886,
1,0,0.0,6.1,1,0,37,37,31,,,,,150.70769710000604,151.35851460002596,151.35851460002596,151.85961970000062,45,45,151.85961970000062,151.85961970000062,151.85961970000062,151.85961970000062,151.85961970000062,151.85961970000062,151.85961970000062,151.85961970000062,151.85961970000062,152.22609130002093,152.22609130002093,152.22609130002093,152.22609130002093,152.22609130002093,152.22609130002093,152.22609130002093,152.22609130002093,152.22609130002093,23,0,,,152.22609130002093,152.42629570001736,6.1,152.42629570001736,1,6.1,1,1,1000,num_4,0.6647688000230119,,22,4,2026-03-04_10h41.06.631,2026A_exp2,2022.2.4,59.945030393317886,
1000,1,0.0,4.9,0,0,38,38,6,,,,,153.11019819998182,153.76096619997406,153.76096619997406,154.24525849998463,315,45,154.24525849998463,154.24525849998463,154.24525849998463,154.24525849998463,154.24525849998463,154.24525849998463,154.24525849998463,154.24525849998463,154.24525849998463,154.6117979999981,154.6117979999981,154.6117979999981,154.6117979999981,154.6117979999981,154.6117979999981,154.6117979999981,154.6117979999981,154.6117979999981,23,0,,,154.6117979999981,154.8135674999794,1000,154.8135674999794,1000,1000,1000,1000,1,num_2,1.3092662999988534,,22,4,2026-03-04_10h41.06.631,2026A_exp2,2022.2.4,59.945030393317886,
1,0,6.1,6.1,1,0,39,39,23,,,,,156.14674599998398,156.79718300001696,156.79718300001696,157.29826369998045,45,315,157.29826369998045,157.29826369998045,157.29826369998045,157.29826369998045,157.29826369998045,157.29826369998045,157.29826369998045,157.29826369998045,157.29826369998045,157.6481715000118,157.6481715000118,157.6481715000118,157.6481715000118,157.6481715000118,157.6481715000118,157.6481715000118,157.6481715000118,157.6481715000118,22,0,,,157.6481715000118,157.84833549999166,6.1,157.86510900000576,0,6.1,1,0,1000,num_1,0.9217147000017576,,22,4,2026-03-04_10h41.06.631,2026A_exp2,2022.2.4,59.945030393317886,
0,0,0.0,0.0,0,0,40,40,59,,,,,158.81582319998415,159.46633899997687,159.46633899997687,159.95092510001268,315,45,159.95092510001268,159.95092510001268,159.95092510001268,159.95092510001268,159.95092510001268,159.95092510001268,159.95092510001268,159.95092510001268,159.95092510001268,160.31743060000008,160.31743060000008,160.31743060000008,160.31743060000008,160.31743060000008,160.31743060000008,160.31743060000008,160.31743060000008,160.31743060000008,23,0,,,160.31743060000008,160.5175300000119,0.0,160.5175300000119,0,0.0,0,1,1000,num_1,0.901280999998562,,22,4,2026-03-04_10h41.06.631,2026A_exp2,2022.2.4,59.945030393317886,
1,0,3.7,3.7,1,0,41,41,30,,,,,161.43518869997934,162.08785230002832,162.08785230002832,162.57529549999163,315,315,162.57529549999163,162.57529549999163,162.57529549999163,162.57529549999163,162.57529549999163,162.57529549999163,162.57529549999163,162.57529549999163,162.57529549999163,162.93695730000036,162.93695730000036,162.93695730000036,162.93695730000036,162.93695730000036,162.93695730000036,162.93695730000036,162.93695730000036,162.93695730000036,23,0,,,162.93695730000036,163.14107429998694,3.7,163.14107429998694,0,3.7,1,0,1000,num_1,1.0621092999936081,,22,4,2026-03-04_10h41.06.631,2026A_exp2,2022.2.4,59.945030393317886,
1,0,0.0,0.0,0,0,42,42,88,,,,,164.22101420001127,164.85533920000307,164.85533920000307,165.35650440002792,315,45,165.35650440002792,165.35650440002792,165.35650440002792,165.35650440002792,165.35650440002792,165.35650440002792,165.35650440002792,165.35650440002792,165.35650440002792,165.72289049997926,165.72289049997926,165.72289049997926,165.72289049997926,165.72289049997926,165.72289049997926,165.72289049997926,165.72289049997926,165.72289049997926,23,0,,,165.72289049997926,165.922805899987,0.0,165.922805899987,1,0.0,0,0,1000,num_4,0.8725879999692552,,22,4,2026-03-04_10h41.06.631,2026A_exp2,2022.2.4,59.945030393317886,
1000,1,6.1,0.0,1,0,43,43,25,,,,,166.82398869999452,167.45795289997477,167.45795289997477,167.9590837000287,45,315,167.9590837000287,167.9590837000287,167.9590837000287,167.9590837000287,167.9590837000287,167.9590837000287,167.9590837000287,167.9590837000287,167.9590837000287,168.32545900001423,168.32545900001423,168.32545900001423,168.32545900001423,168.32545900001423,168.32545900001423,168.32545900001423,168.32545900001423,168.32545900001423,23,0,,,168.32545900001423,168.52584379998734,1000,168.52584379998734,1000,1000,1000,1000,0,num_3,1.173668599978555,,22,4,2026-03-04_10h41.06.631,2026A_exp2,2022.2.4,59.945030393317886,
1000,1,6.1,6.1,1,0,44,44,8,,,,,169.7268611000036,170.37761919997865,170.37761919997865,170.87860809999984,315,315,170.87860809999984,170.87860809999984,170.87860809999984,170.87860809999984,170.87860809999984,170.87860809999984,170.87860809999984,170.87860809999984,170.87860809999984,171.2450953000225,171.2450953000225,171.2450953000225,171.2450953000225,171.2450953000225,171.2450953000225,171.2450953000225,171.2450953000225,171.2450953000225,23,0,,,171.2450953000225,171.44693739997456,1000,171.44693739997456,1000,1000,1000,1000,0,num_3,1.0357891999883577,,22,4,2026-03-04_10h41.06.631,2026A_exp2,2022.2.4,59.945030393317886,
1,0,0.0,0.0,1,0,45,45,42,,,,,172.5127657999983,173.1638782999944,173.1638782999944,173.6647590000066,45,315,173.6647590000066,173.6647590000066,173.6647590000066,173.6647590000066,173.6647590000066,173.6647590000066,173.6647590000066,173.6647590000066,173.6647590000066,174.03106489998754,174.03106489998754,174.03106489998754,174.03106489998754,174.03106489998754,174.03106489998754,174.03106489998754,174.03106489998754,174.03106489998754,23,0,,,174.03106489998754,174.2317884999793,0.0,174.2317884999793,0,0.0,0,1,1000,num_1,1.8989061000174843,,22,4,2026-03-04_10h41.06.631,2026A_exp2,2022.2.4,59.945030393317886,
1000,1,3.7,0.0,1,0,46,46,19,,,,,176.14982819999568,176.80056940001668,176.80056940001668,177.28486920002615,45,45,177.28486920002615,177.28486920002615,177.28486920002615,177.28486920002615,177.28486920002615,177.28486920002615,177.28486920002615,177.28486920002615,177.28486920002615,177.65135599998757,177.65135599998757,177.65135599998757,177.65135599998757,177.65135599998757,177.65135599998757,177.65135599998757,177.65135599998757,177.65135599998757,23,0,,,177.65135599998757,177.85384120000526,1000,177.85384120000526,1000,1000,1000,1000,0,num_3,1.1248061999795027,,22,4,2026-03-04_10h41.06.631,2026A_exp2,2022.2.4,59.945030393317886,
1,0,0.0,0.0,0,0,47,47,55,,,,,179.0028423999902,179.65341470000567,179.65341470000567,180.15441389998887,315,45,180.15441389998887,180.15441389998887,180.15441389998887,180.15441389998887,180.15441389998887,180.15441389998887,180.15441389998887,180.15441389998887,180.15441389998887,180.5210043999832,180.5210043999832,180.5210043999832,180.5210043999832,180.5210043999832,180.5210043999832,180.5210043999832,180.5210043999832,180.5210043999832,23,0,,,180.5210043999832,180.72115240001585,0.0,180.72115240001585,1,0.0,0,0,1000,num_4,0.7385625000461005,,22,4,2026-03-04_10h41.06.631,2026A_exp2,2022.2.4,59.945030393317886,
1000,1,0.0,3.7,1,0,48,48,13,,,,,181.48852399998577,182.1391575000016,182.1391575000016,182.6237651000265,45,45,182.6237651000265,182.6237651000265,182.6237651000265,182.6237651000265,182.6237651000265,182.6237651000265,182.6237651000265,182.6237651000265,182.6237651000265,182.98996700003045,182.98996700003045,182.98996700003045,182.98996700003045,182.98996700003045,182.98996700003045,182.98996700003045,182.98996700003045,182.98996700003045,23,0,,,182.98996700003045,183.19075439998414,1000,183.19075439998414,1000,1000,1000,1000,1,num_2,0.4770946000353433,,22,4,2026-03-04_10h41.06.631,2026A_exp2,2022.2.4,59.945030393317886,
1,0,0.0,4.9,0,0,49,49,73,,,,,183.69059140002355,184.3413374000229,184.3413374000229,184.8259449999896,315,45,184.8259449999896,184.8259449999896,184.8259449999896,184.8259449999896,184.8259449999896,184.8259449999896,184.8259449999896,184.8259449999896,184.8259449999896,185.19233420002274,185.19233420002274,185.19233420002274,185.19233420002274,185.19233420002274,185.19233420002274,185.19233420002274,185.19233420002274,185.19233420002274,23,0,,,185.19233420002274,185.39247780002188,0.0,185.39247780002188,0,0.0,0,1,1000,num_1,0.7789329999941401,,22,4,2026-03-04_10h41.06.631,2026A_exp2,2022.2.4,59.945030393317886,
1,0,6.1,3.7,1,0,50,50,51,,,,,186.19325830001617,186.84402150003007,186.84402150003007,187.34486860001925,45,45,187.34486860001925,187.34486860001925,187.34486860001925,187.34486860001925,187.34486860001925,187.34486860001925,187.34486860001925,187.34486860001925,187.34486860001925,187.6948687999975,187.6948687999975,187.6948687999975,187.6948687999975,187.6948687999975,187.6948687999975,187.6948687999975,187.6948687999975,187.6948687999975,22,0,,,187.6948687999975,187.8950389000238,3.7,187.8950389000238,0,3.7,1,0,1000,num_1,0.6123909000307322,,22,4,2026-03-04_10h41.06.631,2026A_exp2,2022.2.4,59.945030393317886,
1000,1,6.1,6.1,0,0,51,51,16,,,,,188.52874480001628,189.17948250001064,189.17948250001064,189.66407790000085,315,45,189.66407790000085,189.66407790000085,189.66407790000085,189.66407790000085,189.66407790000085,189.66407790000085,189.66407790000085,189.66407790000085,189.66407790000085,190.03053599997656,190.03053599997656,190.03053599997656,190.03053599997656,190.03053599997656,190.03053599997656,190.03053599997656,190.03053599997656,190.03053599997656,23,0,,,190.03053599997656,190.23292440001387,1000,190.23292440001387,1000,1000,1000,1000,1,num_2,0.6016244000056759,,22,4,2026-03-04_10h41.06.631,2026A_exp2,2022.2.4,59.945030393317886,
0,0,0.0,3.7,0,0,52,52,34,,,,,190.86477220000234,191.5154003999778,191.5154003999778,192.01637570001185,45,45,192.01637570001185,192.01637570001185,192.01637570001185,192.01637570001185,192.01637570001185,192.01637570001185,192.01637570001185,192.01637570001185,192.01637570001185,192.38260469998932,192.38260469998932,192.38260469998932,192.38260469998932,192.38260469998932,192.38260469998932,192.38260469998932,192.38260469998932,192.38260469998932,23,0,,,192.38260469998932,192.5830188000109,3.7,192.5830188000109,1,3.7,1,1,1000,num_4,0.7002083999686874,,22,4,2026-03-04_10h41.06.631,2026A_exp2,2022.2.4,59.945030393317886,
1,0,3.7,0.0,1,0,53,53,12,,,,,193.30036190000828,193.95115899998927,193.95115899998927,194.45211900002323,315,315,194.45211900002323,194.45211900002323,194.45211900002323,194.45211900002323,194.45211900002323,194.45211900002323,194.45211900002323,194.45211900002323,194.45211900002323,194.801921700011,194.801921700011,194.801921700011,194.801921700011,194.801921700011,194.801921700011,194.801921700011,194.801921700011,194.801921700011,22,0,,,194.801921700011,195.0018610000261,0.0,195.0018610000261,0,0.0,0,1,1000,num_1,0.6411286999937147,,22,4,2026-03-04_10h41.06.631,2026A_exp2,2022.2.4,59.945030393317886,
0,0,6.1,4.9,0,0,54,54,22,,,,,195.66942350001773,196.32019509997917,196.32019509997917,196.80458569998154,45,315,196.80458569998154,196.80458569998154,196.80458569998154,196.80458569998154,196.80458569998154,196.80458569998154,196.80458569998154,196.80458569998154,196.80458569998154,197.1710499000037,197.1710499000037,197.1710499000037,197.1710499000037,197.1710499000037,197.1710499000037,197.1710499000037,197.1710499000037,197.1710499000037,23,0,,,197.1710499000037,197.37122400000226,4.9,197.37122400000226,0,4.9,1,0,1000,num_1,0.7038612999604084,,22,4,2026-03-04_10h41.06.631,2026A_exp2,2022.2.4,59.945030393317886,
1,0,0.0,6.1,1,0,55,55,50,,,,,198.10513659997378,198.75596669997321,198.75596669997321,199.24035410000943,45,45,199.24035410000943,199.24035410000943,199.24035410000943,199.24035410000943,199.24035410000943,199.24035410000943,199.24035410000943,199.24035410000943,199.24035410000943,199.6066157000023,199.6066157000023,199.6066157000023,199.6066157000023,199.6066157000023,199.6066157000023,199.6066157000023,199.6066157000023,199.6066157000023,23,0,,,199.6066157000023,199.80680680001387,6.1,199.80680680001387,1,6.1,1,1,1000,num_4,0.7161242000292987,,22,4,2026-03-04_10h41.06.631,2026A_exp2,2022.2.4,59.945030393317886,
1000,1,0.0,0.0,1,0,56,56,85,,,,,200.54110560001573,201.1914691000129,201.1914691000129,201.69274889997905,315,315,201.69274889997905,201.69274889997905,201.69274889997905,201.69274889997905,201.69274889997905,201.69274889997905,201.69274889997905,201.69274889997905,201.69274889997905,202.04249850002816,202.04249850002816,202.04249850002816,202.04249850002816,202.04249850002816,202.04249850002816,202.04249850002816,202.04249850002816,202.04249850002816,22,0,,,202.04249850002816,202.24280980002368,1000,202.24280980002368,1000,1000,1000,1000,1,num_2,1.2161454999586567,,22,4,2026-03-04_10h41.06.631,2026A_exp2,2022.2.4,59.945030393317886,
1,0,3.7,4.9,1,0,57,57,18,,,,,203.4771928000264,204.12794779997785,204.12794779997785,204.628582299978,315,45,204.628582299978,204.628582299978,204.628582299978,204.628582299978,204.628582299978,204.628582299978,204.628582299978,204.628582299978,204.628582299978,204.99544500000775,204.99544500000775,204.99544500000775,204.99544500000775,204.99544500000775,204.99544500000775,204.99544500000775,204.99544500000775,204.99544500000775,23,0,,,204.99544500000775,205.19562200002838,4.9,205.19562200002838,1,4.9,1,1,1000,num_4,0.5837722000433132,,22,4,2026-03-04_10h41.06.631,2026A_exp2,2022.2.4,59.945030393317886,
1,0,6.1,4.9,1,0,58,58,11,,,,,205.79631599999266,206.44695449998835,206.44695449998835,206.9316774000181,45,315,206.9316774000181,206.9316774000181,206.9316774000181,206.9316774000181,206.9316774000181,206.9316774000181,206.9316774000181,206.9316774000181,206.9316774000181,207.29781040002126,207.29781040002126,207.29781040002126,207.29781040002126,207.29781040002126,207.29781040002126,207.29781040002126,207.29781040002126,207.29781040002126,23,0,,,207.29781040002126,207.49799120001262,4.9,207.49799120001262,0,4.9,1,0,1000,num_1,0.913234299980104,,22,4,2026-03-04_10h41.06.631,2026A_exp2,2022.2.4,59.945030393317886,
1000,1,0.0,0.0,0,0,59,59,86,,,,,208.4319516000105,209.08283400000073,209.08283400000073,209.56718389998423,315,45,209.56718389998423,209.56718389998423,209.56718389998423,209.56718389998423,209.56718389998423,209.56718389998423,209.56718389998423,209.56718389998423,209.56718389998423,209.93356390000554,209.93356390000554,209.93356390000554,209.93356390000554,209.93356390000554,209.93356390000554,209.93356390000554,209.93356390000554,209.93356390000554,23,0,,,209.93356390000554,210.136370000022,1000,210.136370000022,1000,1000,1000,1000,0,num_3,0.6030905999941751,,22,4,2026-03-04_10h41.06.631,2026A_exp2,2022.2.4,59.945030393317886,
1,0,0.0,4.9,1,0,60,60,37,,,,,210.76772469998104,211.41854980000062,211.41854980000062,211.9195950999856,45,45,211.9195950999856,211.9195950999856,211.9195950999856,211.9195950999856,211.9195950999856,211.9195950999856,211.9195950999856,211.9195950999856,211.9195950999856,212.28608180000447,212.28608180000447,212.28608180000447,212.28608180000447,212.28608180000447,212.28608180000447,212.28608180000447,212.28608180000447,212.28608180000447,23,0,,,212.28608180000447,212.4861707999953,4.9,212.4861707999953,1,4.9,1,1,1000,num_4,0.7004094999865629,,22,4,2026-03-04_10h41.06.631,2026A_exp2,2022.2.4,59.945030393317886,
1000,1,3.7,0.0,0,0,61,61,56,,,,,213.2035826999927,213.85423070000252,213.85423070000252,214.3385948999785,45,45,214.3385948999785,214.3385948999785,214.3385948999785,214.3385948999785,214.3385948999785,214.3385948999785,214.3385948999785,214.3385948999785,214.3385948999785,214.7051917000208,214.7051917000208,214.7051917000208,214.7051917000208,214.7051917000208,214.7051917000208,214.7051917000208,214.7051917000208,214.7051917000208,23,0,,,214.7051917000208,214.90766610001447,1000,214.90766610001447,1000,1000,1000,1000,0,num_3,0.7917705000145361,,22,4,2026-03-04_10h41.06.631,2026A_exp2,2022.2.4,59.945030393317886,
1,0,6.1,0.0,1,0,62,62,89,,,,,215.72277480002958,216.3735153999878,216.3735153999878,216.85793380002724,45,45,216.85793380002724,216.85793380002724,216.85793380002724,216.85793380002724,216.85793380002724,216.85793380002724,216.85793380002724,216.85793380002724,216.85793380002724,217.22422769997502,217.22422769997502,217.22422769997502,217.22422769997502,217.22422769997502,217.22422769997502,217.22422769997502,217.22422769997502,217.22422769997502,23,0,,,217.22422769997502,217.42458579997765,0.0,217.42458579997765,0,0.0,0,1,1000,num_1,1.4267360999947414,,22,4,2026-03-04_10h41.06.631,2026A_exp2,2022.2.4,59.945030393317886,
1,0,0.0,4.9,0,0,63,63,3,,,,,218.87579339998774,219.52667180000572,219.52667180000572,220.0110406000167,45,45,220.0110406000167,220.0110406000167,220.0110406000167,220.0110406000167,220.0110406000167,220.0110406000167,220.0110406000167,220.0110406000167,220.0110406000167,220.37756460002856,220.37756460002856,220.37756460002856,220.37756460002856,220.37756460002856,220.37756460002856,220.37756460002856,220.37756460002856,220.37756460002856,23,0,,,220.37756460002856,220.57757610001136,0.0,220.57757610001136,0,0.0,0,1,1000,num_1,0.9538548999698833,,22,4,2026-03-04_10h41.06.631,2026A_exp2,2022.2.4,59.945030393317886,
1,0,3.7,4.9,1,0,64,64,20,,,,,221.56180079997284,222.21255230001407,222.21255230001407,222.69712869997602,45,45,222.69712869997602,222.69712869997602,222.69712869997602,222.69712869997602,222.69712869997602,222.69712869997602,222.69712869997602,222.69712869997602,222.69712869997602,223.0634290999733,223.0634290999733,223.0634290999733,223.0634290999733,223.0634290999733,223.0634290999733,223.0634290999733,223.0634290999733,223.0634290999733,23,0,,,223.0634290999733,223.26370260003023,4.9,223.26370260003023,1,4.9,1,1,1000,num_4,1.0111259000259452,,22,4,2026-03-04_10h41.06.631,2026A_exp2,2022.2.4,59.945030393317886,
1,0,3.7,6.1,0,0,65,65,52,,,,,224.29820680001285,224.9487977999961,224.9487977999961,225.43303610000294,315,45,225.43303610000294,225.43303610000294,225.43303610000294,225.43303610000294,225.43303610000294,225.43303610000294,225.43303610000294,225.43303610000294,225.43303610000294,225.79957730002934,225.79957730002934,225.79957730002934,225.79957730002934,225.79957730002934,225.79957730002934,225.79957730002934,225.79957730002934,225.79957730002934,23,0,,,225.79957730002934,225.9997801000136,3.7,225.9997801000136,0,3.7,1,0,1000,num_1,1.0114303000154905,,22,4,2026-03-04_10h41.06.631,2026A_exp2,2022.2.4,59.945030393317886,
1,0,0.0,0.0,1,0,66,66,49,,,,,227.034313799988,227.68471489998046,227.68471489998046,228.18614240002353,45,45,228.18614240002353,228.18614240002353,228.18614240002353,228.18614240002353,228.18614240002353,228.18614240002353,228.18614240002353,228.18614240002353,228.18614240002353,228.53563449997455,228.53563449997455,228.53563449997455,228.53563449997455,228.53563449997455,228.53563449997455,228.53563449997455,228.53563449997455,228.53563449997455,22,0,,,228.53563449997455,228.7358769000275,0.0,228.7358769000275,1,0.0,0,0,1000,num_4,0.8749143999884836,,22,4,2026-03-04_10h41.06.631,2026A_exp2,2022.2.4,59.945030393317886,
0,0,0.0,0.0,1,0,67,67,2,,,,,229.63666499999817,230.2874369000201,230.2874369000201,230.7718655000208,315,315,230.7718655000208,230.7718655000208,230.7718655000208,230.7718655000208,230.7718655000208,230.7718655000208,230.7718655000208,230.7718655000208,230.7718655000208,231.13823789998423,231.13823789998423,231.13823789998423,231.13823789998423,231.13823789998423,231.13823789998423,231.13823789998423,231.13823789998423,231.13823789998423,23,0,,,231.13823789998423,231.3385165000218,0.0,231.3385165000218,0,0.0,0,1,1000,num_1,1.224925999995321,,22,4,2026-03-04_10h41.06.631,2026A_exp2,2022.2.4,59.945030393317886,
1000,1,0.0,0.0,0,0,68,68,5,,,,,232.58963740000036,233.2402348999749,233.2402348999749,233.72481799998786,315,45,233.72481799998786,233.72481799998786,233.72481799998786,233.72481799998786,233.72481799998786,233.72481799998786,233.72481799998786,233.72481799998786,233.72481799998786,234.09135589998914,234.09135589998914,234.09135589998914,234.09135589998914,234.09135589998914,234.09135589998914,234.09135589998914,234.09135589998914,234.09135589998914,23,0,,,234.09135589998914,234.29328290000558,1000,234.29328290000558,1000,1000,1000,1000,0,num_3,1.2458510999567807,,22,4,2026-03-04_10h41.06.631,2026A_exp2,2022.2.4,59.945030393317886,
1000,1,0.0,3.7,0,0,69,69,46,,,,,235.55947169999126,236.20999090000987,236.20999090000987,236.71108739997726,315,315,236.71108739997726,236.71108739997726,236.71108739997726,236.71108739997726,236.71108739997726,236.71108739997726,236.71108739997726,236.71108739997726,236.71108739997726,237.07734550000168,237.07734550000168,237.07734550000168,237.07734550000168,237.07734550000168,237.07734550000168,237.07734550000168,237.07734550000168,237.07734550000168,23,0,,,237.07734550000168,237.27741560002323,1000,237.27741560002323,1000,1000,1000,1000,0,num_3,0.4853626000112854,,22,4,2026-03-04_10h41.06.631,2026A_exp2,2022.2.4,59.945030393317886,
1000,1,6.1,6.1,1,0,70,70,4,,,,,237.7781661999761,238.42897559999255,238.42897559999255,238.93003619997762,45,315,238.93003619997762,238.93003619997762,238.93003619997762,238.93003619997762,238.93003619997762,238.93003619997762,238.93003619997762,238.93003619997762,238.93003619997762,239.29641740000807,239.29641740000807,239.29641740000807,239.29641740000807,239.29641740000807,239.29641740000807,239.29641740000807,239.29641740000807,239.29641740000807,23,0,,,239.29641740000807,239.49911239999346,1000,239.49911239999346,1000,1000,1000,1000,1,num_2,0.5608014999888837,,22,4,2026-03-04_10h41.06.631,2026A_exp2,2022.2.4,59.945030393317886,
1,0,4.9,3.7,0,0,71,71,44,,,,,240.080622199981,240.73116620001383,240.73116620001383,241.23214460001327,45,45,241.23214460001327,241.23214460001327,241.23214460001327,241.23214460001327,241.23214460001327,241.23214460001327,241.23214460001327,241.23214460001327,241.23214460001327,241.59877039998537,241.59877039998537,241.59877039998537,241.59877039998537,241.59877039998537,241.59877039998537,241.59877039998537,241.59877039998537,241.59877039998537,23,0,,,241.59877039998537,241.7987717000069,4.9,241.7987717000069,1,4.9,1,1,1000,num_4,1.204501000000164,,22,4,2026-03-04_10h41.06.631,2026A_exp2,2022.2.4,59.945030393317886,
1,0,4.9,0.0,0,0,72,72,53,,,,,243.03338280000025,243.68419020000147,243.68419020000147,244.16860009997617,315,45,244.16860009997617,244.16860009997617,244.16860009997617,244.16860009997617,244.16860009997617,244.16860009997617,244.16860009997617,244.16860009997617,244.16860009997617,244.5350274000084,244.5350274000084,244.5350274000084,244.5350274000084,244.5350274000084,244.5350274000084,244.5350274000084,244.5350274000084,244.5350274000084,23,0,,,244.5350274000084,244.7351737000281,4.9,244.7351737000281,1,4.9,1,1,1000,num_4,2.011369699961506,,22,4,2026-03-04_10h41.06.631,2026A_exp2,2022.2.4,59.945030393317886,
1,0,4.9,0.0,1,0,73,73,65,,,,,246.77044569997815,247.4044745999854,247.4044745999854,247.90576569997938,45,315,247.90576569997938,247.90576569997938,247.90576569997938,247.90576569997938,247.90576569997938,247.90576569997938,247.90576569997938,247.90576569997938,247.90576569997938,248.2720321000088,248.2720321000088,248.2720321000088,248.2720321000088,248.2720321000088,248.2720321000088,248.2720321000088,248.2720321000088,248.2720321000088,23,0,,,248.2720321000088,248.47229280002648,0.0,248.47229280002648,0,0.0,0,1,1000,num_1,1.0028429999947548,,22,4,2026-03-04_10h41.06.631,2026A_exp2,2022.2.4,59.945030393317886,
1000,1,6.1,0.0,0,0,74,74,81,,,,,249.5065455000149,250.15725530002965,250.15725530002965,250.6417775999871,45,45,250.6417775999871,250.6417775999871,250.6417775999871,250.6417775999871,250.6417775999871,250.6417775999871,250.6417775999871,250.6417775999871,250.6417775999871,251.0079615000286,251.0079615000286,251.0079615000286,251.0079615000286,251.0079615000286,251.0079615000286,251.0079615000286,251.0079615000286,251.0079615000286,23,0,,,251.0079615000286,251.21037909999723,1000,251.21037909999723,1000,1000,1000,1000,0,num_3,0.5205167999956757,,22,4,2026-03-04_10h41.06.631,2026A_exp2,2022.2.4,59.945030393317886,
1000,1,0.0,6.1,1,0,75,75,71,,,,,251.7587871000287,252.4093845000025,252.4093845000025,252.91060369997285,315,315,252.91060369997285,252.91060369997285,252.91060369997285,252.91060369997285,252.91060369997285,252.91060369997285,252.91060369997285,252.91060369997285,252.91060369997285,253.2770861000172,253.2770861000172,253.2770861000172,253.2770861000172,253.2770861000172,253.2770861000172,253.2770861000172,253.2770861000172,253.2770861000172,23,0,,,253.2770861000172,253.47895969997626,1000,253.47895969997626,1000,1000,1000,1000,1,num_2,0.5163755000103265,,22,4,2026-03-04_10h41.06.631,2026A_exp2,2022.2.4,59.945030393317886,
1,0,0.0,6.1,0,0,76,76,0,,,,,254.01103200000944,254.66194130002987,254.66194130002987,255.1629722000216,315,315,255.1629722000216,255.1629722000216,255.1629722000216,255.1629722000216,255.1629722000216,255.1629722000216,255.1629722000216,255.1629722000216,255.1629722000216,255.5292741000303,255.5292741000303,255.5292741000303,255.5292741000303,255.5292741000303,255.5292741000303,255.5292741000303,255.5292741000303,255.5292741000303,23,0,,,255.5292741000303,255.729419899988,0.0,255.729419899988,0,0.0,0,1,1000,num_1,0.7140712999971583,,22,4,2026-03-04_10h41.06.631,2026A_exp2,2022.2.4,59.945030393317886,
1000,1,0.0,3.7,1,0,77,77,84,,,,,256.4635052999947,257.1142897999962,257.1142897999962,257.6152744999854,315,315,257.6152744999854,257.6152744999854,257.6152744999854,257.6152744999854,257.6152744999854,257.6152744999854,257.6152744999854,257.6152744999854,257.6152744999854,257.9650268999976,257.9650268999976,257.9650268999976,257.9650268999976,257.9650268999976,257.9650268999976,257.9650268999976,257.9650268999976,257.9650268999976,22,0,,,257.9650268999976,258.167207600025,1000,258.167207600025,1000,1000,1000,1000,0,num_3,1.3160082999966107,,22,4,2026-03-04_10h41.06.631,2026A_exp2,2022.2.4,59.945030393317886,
1,0,6.1,0.0,0,0,78,78,21,,,,,259.50007569999434,260.1506451999885,260.1506451999885,260.6517569000134,315,315,260.6517569000134,260.6517569000134,260.6517569000134,260.6517569000134,260.6517569000134,260.6517569000134,260.6517569000134,260.6517569000134,260.6517569000134,261.01801519998116,261.01801519998116,261.01801519998116,261.01801519998116,261.01801519998116,261.01801519998116,261.01801519998116,261.01801519998116,261.01801519998116,23,0,,,261.01801519998116,261.2184018000262,6.1,261.2184018000262,1,6.1,1,1,1000,num_4,0.9130576000316069,,22,4,2026-03-04_10h41.06.631,2026A_exp2,2022.2.4,59.945030393317886,
1000,1,6.1,0.0,1,0,79,79,29,,,,,262.15245819999836,262.80326309998054,262.80326309998054,263.28750849998323,315,45,263.28750849998323,263.28750849998323,263.28750849998323,263.28750849998323,263.28750849998323,263.28750849998323,263.28750849998323,263.28750849998323,263.28750849998323,263.65410480002174,263.65410480002174,263.65410480002174,263.65410480002174,263.65410480002174,263.65410480002174,263.65410480002174,263.65410480002174,263.65410480002174,23,0,,,263.65410480002174,263.85602329997346,1000,263.85602329997346,1000,1000,1000,1000,1,num_2,1.0432686999556608,,22,4,2026-03-04_10h41.06.631,2026A_exp2,2022.2.4,59.945030393317886,
1,0,0.0,0.0,0,0,80,80,24,,,,,264.9217937000212,265.5558528000256,265.5558528000256,266.05713779997313,315,315,266.05713779997313,266.05713779997313,266.05713779997313,266.05713779997313,266.05713779997313,266.05713779997313,266.05713779997313,266.05713779997313,266.05713779997313,266.4236167999916,266.4236167999916,266.4236167999916,266.4236167999916,266.4236167999916,266.4236167999916,266.4236167999916,266.4236167999916,266.4236167999916,23,0,,,266.4236167999916,266.6237853000057,0.0,266.6237853000057,1,0.0,0,0,1000,num_4,1.8678442999953404,,22,4,2026-03-04_10h41.06.631,2026A_exp2,2022.2.4,59.945030393317886,
1000,1,4.9,0.0,1,0,81,81,77,,,,,268.5088758000056,269.1597840000177,269.1597840000177,269.6607267999789,45,315,269.6607267999789,269.6607267999789,269.6607267999789,269.6607267999789,269.6607267999789,269.6607267999789,269.6607267999789,269.6607267999789,269.6607267999789,270.01043429999845,270.01043429999845,270.01043429999845,270.01043429999845,270.01043429999845,270.01043429999845,270.01043429999845,270.01043429999845,270.01043429999845,22,0,,,270.01043429999845,270.2124414999853,1000,270.2124414999853,1000,1000,1000,1000,0,num_3,0.6229503999929875,,22,4,2026-03-04_10h41.06.631,2026A_exp2,2022.2.4,59.945030393317886,
1000,1,3.7,0.0,1,0,82,82,38,,,,,270.86117980000563,271.5119495000108,271.5119495000108,272.01312269998016,315,315,272.01312269998016,272.01312269998016,272.01312269998016,272.01312269998016,272.01312269998016,272.01312269998016,272.01312269998016,272.01312269998016,272.01312269998016,272.3628843000042,272.3628843000042,272.3628843000042,272.3628843000042,272.3628843000042,272.3628843000042,272.3628843000042,272.3628843000042,272.3628843000042,22,0,,,272.3628843000042,272.5632942999946,1000,272.5632942999946,1000,1000,1000,1000,0,num_3,0.5515631000162102,,22,4,2026-03-04_10h41.06.631,2026A_exp2,2022.2.4,59.945030393317886,
1,0,0.0,3.7,1,0,83,83,35,,,,,273.1303168000304,273.7812379000243,273.7812379000243,274.2821132999961,315,45,274.2821132999961,274.2821132999961,274.2821132999961,274.2821132999961,274.2821132999961,274.2821132999961,274.2821132999961,274.2821132999961,274.2821132999961,274.6483204999822,274.6483204999822,274.6483204999822,274.6483204999822,274.6483204999822,274.6483204999822,274.6483204999822,274.6483204999822,274.6483204999822,23,0,,,274.6483204999822,274.8485710999812,3.7,274.8485710999812,1,3.7,1,1,1000,num_4,0.5142359000165015,,22,4,2026-03-04_10h41.06.631,2026A_exp2,2022.2.4,59.945030393317886,
1,0,0.0,0.0,0,0,84,84,79,,,,,275.3824807999772,276.03304800001206,276.03304800001206,276.5175919000176,45,315,276.5175919000176,276.5175919000176,276.5175919000176,276.5175919000176,276.5175919000176,276.5175919000176,276.5175919000176,276.5175919000176,276.5175919000176,276.8840163000277,276.8840163000277,276.8840163000277,276.8840163000277,276.8840163000277,276.8840163000277,276.8840163000277,276.8840163000277,276.8840163000277,23,0,,,276.8840163000277,277.08437340002274,0.0,277.08437340002274,1,0.0,0,0,1000,num_4,0.8785151999909431,,22,4,2026-03-04_10h41.06.631,2026A_exp2,2022.2.4,59.945030393317886,
1000,1,0.0,4.9,0,0,85,85,61,,,,,277.98507649998646,278.6386343999766,278.6386343999766,279.12014459999045,315,315,279.12014459999045,279.12014459999045,279.12014459999045,279.12014459999045,279.12014459999045,279.12014459999045,279.12014459999045,279.12014459999045,279.12014459999045,279.4867211999954,279.4867211999954,279.4867211999954,279.4867211999954,279.4867211999954,279.4867211999954,279.4867211999954,279.4867211999954,279.4867211999954,23,0,,,279.4867211999954,279.6891013000277,1000,279.6891013000277,1000,1000,1000,1000,1,num_2,0.609669599973131,,22,4,2026-03-04_10h41.06.631,2026A_exp2,2022.2.4,59.945030393317886,
1,0,6.1,0.0,1,0,86,86,80,,,,,280.32084230001783,280.9715360000264,280.9715360000264,281.4724711999879,315,315,281.4724711999879,281.4724711999879,281.4724711999879,281.4724711999879,281.4724711999879,281.4724711999879,281.4724711999879,281.4724711999879,281.4724711999879,281.83894119999604,281.83894119999604,281.83894119999604,281.83894119999604,281.83894119999604,281.83894119999604,281.83894119999604,281.83894119999604,281.83894119999604,23,0,,,281.83894119999604,282.03916330001084,0.0,282.03916330001084,0,0.0,0,1,1000,num_1,0.7555092999828048,,22,4,2026-03-04_10h41.06.631,2026A_exp2,2022.2.4,59.945030393317886,
1,0,6.1,0.0,0,0,87,87,82,,,,,282.82327140000416,283.46370239998214,283.46370239998214,283.9630741000292,45,45,283.9630741000292,283.9630741000292,283.9630741000292,283.9630741000292,283.9630741000292,283.9630741000292,283.9630741000292,283.9630741000292,283.9630741000292,284.3247229999979,284.3247229999979,284.3247229999979,284.3247229999979,284.3247229999979,284.3247229999979,284.3247229999979,284.3247229999979,284.3247229999979,23,0,,,284.3247229999979,284.5249141000095,6.1,284.5249141000095,1,6.1,1,1,1000,num_4,0.5739053999423049,,22,4,2026-03-04_10h41.06.631,2026A_exp2,2022.2.4,59.945030393317886,
1,0,0.0,0.0,1,0,88,88,39,,,,,285.1254779000301,285.7596926999977,285.7596926999977,286.260553399974,315,315,286.260553399974,286.260553399974,286.260553399974,286.260553399974,286.260553399974,286.260553399974,286.260553399974,286.260553399974,286.260553399974,286.6271008999902,286.6271008999902,286.6271008999902,286.6271008999902,286.6271008999902,286.6271008999902,286.6271008999902,286.6271008999902,286.6271008999902,23,0,,,286.6271008999902,286.82734150002943,0.0,286.82734150002943,1,0.0,0,0,1000,num_4,1.2553758000140078,,22,4,2026-03-04_10h41.06.631,2026A_exp2,2022.2.4,59.945030393317886,
1000,1,0.0,6.1,1,0,89,89,43,,,,,288.11199290002696,288.762663099973,288.762663099973,289.24689260002924,45,315,289.24689260002924,289.24689260002924,289.24689260002924,289.24689260002924,289.24689260002924,289.24689260002924,289.24689260002924,289.24689260002924,289.24689260002924,289.61344899999676,289.61344899999676,289.61344899999676,289.61344899999676,289.61344899999676,289.61344899999676,289.61344899999676,289.61344899999676,289.61344899999676,23,0,,,289.61344899999676,289.8153664999991,1000,289.8153664999991,1000,1000,1000,1000,1,num_2,0.5478496999712661,,22,4,2026-03-04_10h41.06.631,2026A_exp2,2022.2.4,59.945030393317886,
,,,,,,,,,,,,,,,,,,,,,,,,,,,,,,,,,,,,,,,,,,,,,,,,,,,,290.3892469999846,,,,,,,
