validity,detectorcomp,contrastCW,contrastCCW,precueCWorCCW,block_80trials.thisRepN,block_80trials.thisTrialN,block_80trials.thisN,block_80trials.thisIndex,etRecord.started,etRecord.stopped,text.started,text.stopped,text_4.started,text_4.stopped,text_6.started,text_6.stopped,oriCW,oriCCW,roi_2.started,grating_UR.started,grating_UL.started,grating_LR.started,grating_LL.started,noise_UR.started,noise_UL.started,noise_LR.started,noise_LL.started,roi_2.stopped,grating_UR.stopped,grating_UL.stopped,grating_LR.stopped,grating_LL.stopped,noise_UR.stopped,noise_UL.stopped,noise_LR.stopped,noise_LL.stopped,outframe,roi_2.numLooks,roi_2.timesOn,roi_2.timesOff,text_2.started,text_2.stopped,probedcontrast,key_resp.started,respdetect,relevantContrast,correctDetect,TorFdetect,respCWorCCW,key_resp.keys,key_resp.rt,feedback_display_.started,participantNo,blockNo,date,expName,psychopyVersion,frameRate,
1,0,0.0,3.7,1,0,0,0,57,3.570003900676966e-05,3.570003900676966e-05,55.3974634000333,57.40097220003372,57.40097220003372,58.0500206000288,58.0500206000288,58.552173600008246,315,315,58.552173600008246,58.552173600008246,58.552173600008246,58.552173600008246,58.552173600008246,58.552173600008246,58.552173600008246,58.552173600008246,58.552173600008246,58.90099649998592,58.90099649998592,58.90099649998592,58.90099649998592,58.90099649998592,58.90099649998592,58.90099649998592,58.90099649998592,58.90099649998592,0,1,[0.0009053999674506485],[0.3672837999765761],58.90099649998592,59.10115830000723,3.7,59.10115830000723,1,3.7,1,1,1000,num_4,0.799024100007955,,22,3,2026-03-04_10h33.45.049,2026A_exp2,2022.2.4,59.94362900772439,
1000,1,0.0,0.0,1,0,1,1,14,,,,,59.91850850003539,60.552322300034575,60.552322300034575,61.05368479999015,45,315,61.05368479999015,61.05368479999015,61.05368479999015,61.05368479999015,61.05368479999015,61.05368479999015,61.05368479999015,61.05368479999015,61.05368479999015,61.420259800041094,61.420259800041094,61.420259800041094,61.420259800041094,61.420259800041094,61.420259800041094,61.420259800041094,61.420259800041094,61.420259800041094,23,0,,,61.420259800041094,61.625694299989846,1000,61.625694299989846,1000,1000,1000,1000,1,num_2,0.8259414999629371,,22,3,2026-03-04_10h33.45.049,2026A_exp2,2022.2.4,59.94362900772439,
1000,1,6.1,3.7,1,0,2,2,24,,,,,62.47128260001773,63.1219385000295,63.1219385000295,63.62304780003615,315,315,63.62304780003615,63.62304780003615,63.62304780003615,63.62304780003615,63.62304780003615,63.62304780003615,63.62304780003615,63.62304780003615,63.62304780003615,63.97277089999989,63.97277089999989,63.97277089999989,63.97277089999989,63.97277089999989,63.97277089999989,63.97277089999989,63.97277089999989,63.97277089999989,22,0,,,63.97277089999989,64.1748399999924,1000,64.1748399999924,1000,1000,1000,1000,1,num_2,0.5818104000063613,,22,3,2026-03-04_10h33.45.049,2026A_exp2,2022.2.4,59.94362900772439,
1,0,4.9,0.0,1,0,3,3,4,,,,,64.77368000004208,65.42417340003885,65.42417340003885,65.92530639999313,315,315,65.92530639999313,65.92530639999313,65.92530639999313,65.92530639999313,65.92530639999313,65.92530639999313,65.92530639999313,65.92530639999313,65.92530639999313,66.29190310003469,66.29190310003469,66.29190310003469,66.29190310003469,66.29190310003469,66.29190310003469,66.29190310003469,66.29190310003469,66.29190310003469,23,0,,,66.29190310003469,66.4920257999911,0.0,66.4920257999911,0,0.0,0,1,1000,num_1,0.9118989999988116,,22,3,2026-03-04_10h33.45.049,2026A_exp2,2022.2.4,59.94362900772439,
1000,1,4.9,4.9,0,0,4,4,42,,,,,67.42628080002032,68.07681470003445,68.07681470003445,68.5611210000352,45,315,68.5611210000352,68.5611210000352,68.5611210000352,68.5611210000352,68.5611210000352,68.5611210000352,68.5611210000352,68.5611210000352,68.5611210000352,68.92773260001559,68.92773260001559,68.92773260001559,68.92773260001559,68.92773260001559,68.92773260001559,68.92773260001559,68.92773260001559,68.92773260001559,23,0,,,68.92773260001559,69.12961080000969,1000,69.12961080000969,1000,1000,1000,1000,0,num_3,0.6989022999769077,,22,3,2026-03-04_10h33.45.049,2026A_exp2,2022.2.4,59.94362900772439,
1000,1,0.0,0.0,0,0,5,5,20,,,,,69.84543899999699,70.495815900038,70.495815900038,70.99719240004197,45,45,70.99719240004197,70.99719240004197,70.99719240004197,70.99719240004197,70.99719240004197,70.99719240004197,70.99719240004197,70.99719240004197,70.99719240004197,71.36345970002003,71.36345970002003,71.36345970002003,71.36345970002003,71.36345970002003,71.36345970002003,71.36345970002003,71.36345970002003,71.36345970002003,23,0,,,71.36345970002003,71.56540379999205,1000,71.56540379999205,1000,1000,1000,1000,0,num_3,0.5264621000387706,,22,3,2026-03-04_10h33.45.049,2026A_exp2,2022.2.4,59.94362900772439,
1000,1,0.0,3.7,0,0,6,6,52,,,,,72.11414920003153,72.76492300000973,72.76492300000973,73.26600890001282,315,315,73.26600890001282,73.26600890001282,73.26600890001282,73.26600890001282,73.26600890001282,73.26600890001282,73.26600890001282,73.26600890001282,73.26600890001282,73.63250920001883,73.63250920001883,73.63250920001883,73.63250920001883,73.63250920001883,73.63250920001883,73.63250920001883,73.63250920001883,73.63250920001883,23,0,,,73.63250920001883,73.83459069998935,1000,73.83459069998935,1000,1000,1000,1000,1,num_2,2.7134955000365153,,22,3,2026-03-04_10h33.45.049,2026A_exp2,2022.2.4,59.94362900772439,
1000,1,6.1,3.7,0,0,7,7,87,,,,,76.56876970001031,77.21931030001724,77.21931030001724,77.72048960003303,315,45,77.72048960003303,77.72048960003303,77.72048960003303,77.72048960003303,77.72048960003303,77.72048960003303,77.72048960003303,77.72048960003303,77.72048960003303,78.07019240001682,78.07019240001682,78.07019240001682,78.07019240001682,78.07019240001682,78.07019240001682,78.07019240001682,78.07019240001682,78.07019240001682,22,0,,,78.07019240001682,78.27210080000805,1000,78.27210080000805,1000,1000,1000,1000,0,num_3,0.6755563999759033,,22,3,2026-03-04_10h33.45.049,2026A_exp2,2022.2.4,59.94362900772439,
1,0,0.0,0.0,1,0,8,8,41,,,,,78.97103020001668,79.62179110001307,79.62179110001307,80.12270780000836,315,45,80.12270780000836,80.12270780000836,80.12270780000836,80.12270780000836,80.12270780000836,80.12270780000836,80.12270780000836,80.12270780000836,80.12270780000836,80.48916290001944,80.48916290001944,80.48916290001944,80.48916290001944,80.48916290001944,80.48916290001944,80.48916290001944,80.48916290001944,80.48916290001944,23,0,,,80.48916290001944,80.68965370004298,0.0,80.68965370004298,1,0.0,0,0,1000,num_4,0.8018715999787673,,22,3,2026-03-04_10h33.45.049,2026A_exp2,2022.2.4,59.94362900772439,
1,0,0.0,3.7,0,0,9,9,12,,,,,81.52371710003354,82.17427750001661,82.17427750001661,82.65869170002406,45,315,82.65869170002406,82.65869170002406,82.65869170002406,82.65869170002406,82.65869170002406,82.65869170002406,82.65869170002406,82.65869170002406,82.65869170002406,83.02500349999173,83.02500349999173,83.02500349999173,83.02500349999173,83.02500349999173,83.02500349999173,83.02500349999173,83.02500349999173,83.02500349999173,23,0,,,83.02500349999173,83.22538640000857,0.0,83.22538640000857,0,0.0,0,1,1000,num_1,0.490370899962727,,22,3,2026-03-04_10h33.45.049,2026A_exp2,2022.2.4,59.94362900772439,
1,0,0.0,0.0,1,0,10,10,43,,,,,83.74248110002372,84.39309070003219,84.39309070003219,84.87770340003772,45,45,84.87770340003772,84.87770340003772,84.87770340003772,84.87770340003772,84.87770340003772,84.87770340003772,84.87770340003772,84.87770340003772,84.87770340003772,85.24399069999345,85.24399069999345,85.24399069999345,85.24399069999345,85.24399069999345,85.24399069999345,85.24399069999345,85.24399069999345,85.24399069999345,0,1,[0.0008554999949410558],[0.3674439999740571],85.24399069999345,85.44429760001367,0.0,85.44429760001367,1,0.0,0,0,1000,num_4,1.0082253000000492,,22,3,2026-03-04_10h33.45.049,2026A_exp2,2022.2.4,59.94362900772439,
1000,1,6.1,0.0,0,0,11,11,19,,,,,86.47849220002536,87.12922280002385,87.12922280002385,87.61371780000627,45,315,87.61371780000627,87.61371780000627,87.61371780000627,87.61371780000627,87.61371780000627,87.61371780000627,87.61371780000627,87.61371780000627,87.61371780000627,87.98009600001387,87.98009600001387,87.98009600001387,87.98009600001387,87.98009600001387,87.98009600001387,87.98009600001387,87.98009600001387,87.98009600001387,23,0,,,87.98009600001387,88.1819867999875,1000,88.1819867999875,1000,1000,1000,1000,0,num_3,0.5263233000296168,,22,3,2026-03-04_10h33.45.049,2026A_exp2,2022.2.4,59.94362900772439,
1000,1,0.0,6.1,0,0,12,12,34,,,,,88.73084510001354,89.38147640001262,89.38147640001262,89.86597760004224,315,45,89.86597760004224,89.86597760004224,89.86597760004224,89.86597760004224,89.86597760004224,89.86597760004224,89.86597760004224,89.86597760004224,89.86597760004224,90.23237020004308,90.23237020004308,90.23237020004308,90.23237020004308,90.23237020004308,90.23237020004308,90.23237020004308,90.23237020004308,90.23237020004308,23,0,,,90.23237020004308,90.43431580002652,1000,90.43431580002652,1000,1000,1000,1000,1,num_2,1.0427033999585547,,22,3,2026-03-04_10h33.45.049,2026A_exp2,2022.2.4,59.94362900772439,
1,0,6.1,3.7,0,0,13,13,26,,,,,91.50026639999123,92.15096540004015,92.15096540004015,92.65211610001279,45,45,92.65211610001279,92.65211610001279,92.65211610001279,92.65211610001279,92.65211610001279,92.65211610001279,92.65211610001279,92.65211610001279,92.65211610001279,93.00178719998803,93.00178719998803,93.00178719998803,93.00178719998803,93.00178719998803,93.00178719998803,93.00178719998803,93.00178719998803,93.00178719998803,22,0,,,93.00178719998803,93.2019949000096,6.1,93.2019949000096,1,6.1,1,1,1000,num_4,0.858813899976667,,22,3,2026-03-04_10h33.45.049,2026A_exp2,2022.2.4,59.94362900772439,
1000,1,3.7,6.1,0,0,14,14,28,,,,,94.08615889999783,94.73686100001214,94.73686100001214,95.22134059999371,45,45,95.22134059999371,95.22134059999371,95.22134059999371,95.22134059999371,95.22134059999371,95.22134059999371,95.22134059999371,95.22134059999371,95.22134059999371,95.58753860002616,95.58753860002616,95.58753860002616,95.58753860002616,95.58753860002616,95.58753860002616,95.58753860002616,95.58753860002616,95.58753860002616,23,0,,,95.58753860002616,95.78765190002741,1000,95.78765190002741,1000,1000,1000,1000,0,num_3,0.6806479999795556,,22,3,2026-03-04_10h33.45.049,2026A_exp2,2022.2.4,59.94362900772439,
1000,1,4.9,0.0,0,0,15,15,36,,,,,96.48846279998543,97.13934470003005,97.13934470003005,97.6404337999993,315,315,97.6404337999993,97.6404337999993,97.6404337999993,97.6404337999993,97.6404337999993,97.6404337999993,97.6404337999993,97.6404337999993,97.6404337999993,97.99015130003681,97.99015130003681,97.99015130003681,97.99015130003681,97.99015130003681,97.99015130003681,97.99015130003681,97.99015130003681,97.99015130003681,22,0,,,97.99015130003681,98.1926453000051,1000,98.1926453000051,1000,1000,1000,1000,1,num_2,1.1710450999671593,,22,3,2026-03-04_10h33.45.049,2026A_exp2,2022.2.4,59.94362900772439,
1000,1,0.0,0.0,0,0,16,16,75,,,,,99.3915171000408,100.04206870001508,100.04206870001508,100.52656900003785,45,315,100.52656900003785,100.52656900003785,100.52656900003785,100.52656900003785,100.52656900003785,100.52656900003785,100.52656900003785,100.52656900003785,100.52656900003785,100.89289750001626,100.89289750001626,100.89289750001626,100.89289750001626,100.89289750001626,100.89289750001626,100.89289750001626,100.89289750001626,100.89289750001626,23,0,,,100.89289750001626,101.0948848000262,1000,101.0948848000262,1000,1000,1000,1000,0,num_3,0.8449412999907508,,22,3,2026-03-04_10h33.45.049,2026A_exp2,2022.2.4,59.94362900772439,
1000,1,0.0,4.9,0,0,17,17,77,,,,,101.96065940003609,102.61135349998949,102.61135349998949,103.1125985000399,315,315,103.1125985000399,103.1125985000399,103.1125985000399,103.1125985000399,103.1125985000399,103.1125985000399,103.1125985000399,103.1125985000399,103.1125985000399,103.47862910002004,103.47862910002004,103.47862910002004,103.47862910002004,103.47862910002004,103.47862910002004,103.47862910002004,103.47862910002004,103.47862910002004,23,0,,,103.47862910002004,103.68107699998654,1000,103.68107699998654,1000,1000,1000,1000,1,num_2,0.41903490002732724,,22,3,2026-03-04_10h33.45.049,2026A_exp2,2022.2.4,59.94362900772439,
1,0,0.0,0.0,1,0,18,18,66,,,,,104.12948150001466,104.78027909999946,104.78027909999946,105.28123349999078,315,315,105.28123349999078,105.28123349999078,105.28123349999078,105.28123349999078,105.28123349999078,105.28123349999078,105.28123349999078,105.28123349999078,105.28123349999078,105.64776339998934,105.64776339998934,105.64776339998934,105.64776339998934,105.64776339998934,105.64776339998934,105.64776339998934,105.64776339998934,105.64776339998934,23,0,,,105.64776339998934,105.84774480003398,0.0,105.84774480003398,1,0.0,0,0,1000,num_4,0.771942500025034,,22,3,2026-03-04_10h33.45.049,2026A_exp2,2022.2.4,59.94362900772439,
0,0,4.9,0.0,0,0,19,19,30,,,,,106.64850469998783,107.29921070003184,107.29921070003184,107.784134800022,45,45,107.784134800022,107.784134800022,107.784134800022,107.784134800022,107.784134800022,107.784134800022,107.784134800022,107.784134800022,107.784134800022,108.15040270000463,108.15040270000463,108.15040270000463,108.15040270000463,108.15040270000463,108.15040270000463,108.15040270000463,108.15040270000463,108.15040270000463,23,0,,,108.15040270000463,108.3504685999942,0.0,108.3504685999942,1,0.0,0,0,1000,num_4,2.669189499982167,,22,3,2026-03-04_10h33.45.049,2026A_exp2,2022.2.4,59.94362900772439,
1,0,0.0,0.0,1,0,20,20,18,,,,,111.03638890001457,111.68700530001661,111.68700530001661,112.17152229999192,315,45,112.17152229999192,112.17152229999192,112.17152229999192,112.17152229999192,112.17152229999192,112.17152229999192,112.17152229999192,112.17152229999192,112.17152229999192,112.53783740004292,112.53783740004292,112.53783740004292,112.53783740004292,112.53783740004292,112.53783740004292,112.53783740004292,112.53783740004292,112.53783740004292,23,0,,,112.53783740004292,112.73832669999683,0.0,112.73832669999683,0,0.0,0,1,1000,num_1,1.690571999992244,,22,3,2026-03-04_10h33.45.049,2026A_exp2,2022.2.4,59.94362900772439,
1,0,6.1,4.9,1,0,21,21,35,,,,,114.45647330000065,115.10724109999137,115.10724109999137,115.59172399999807,45,315,115.59172399999807,115.59172399999807,115.59172399999807,115.59172399999807,115.59172399999807,115.59172399999807,115.59172399999807,115.59172399999807,115.59172399999807,115.95802200003527,115.95802200003527,115.95802200003527,115.95802200003527,115.95802200003527,115.95802200003527,115.95802200003527,115.95802200003527,115.95802200003527,23,0,,,115.95802200003527,116.15822340000886,4.9,116.15822340000886,1,4.9,1,1,1000,num_4,0.814067300001625,,22,3,2026-03-04_10h33.45.049,2026A_exp2,2022.2.4,59.94362900772439,
1,0,4.9,6.1,1,0,22,22,46,,,,,116.99237570003606,117.64303540001856,117.64303540001856,118.12744320003549,315,45,118.12744320003549,118.12744320003549,118.12744320003549,118.12744320003549,118.12744320003549,118.12744320003549,118.12744320003549,118.12744320003549,118.12744320003549,118.49390900001163,118.49390900001163,118.49390900001163,118.49390900001163,118.49390900001163,118.49390900001163,118.49390900001163,118.49390900001163,118.49390900001163,23,0,,,118.49390900001163,118.6941868000431,6.1,118.6941868000431,1,6.1,1,1,1000,num_4,1.2776736000087112,,22,3,2026-03-04_10h33.45.049,2026A_exp2,2022.2.4,59.94362900772439,
0,0,3.7,0.0,1,0,23,23,83,,,,,119.99539280001773,120.64598199998727,120.64598199998727,121.14721530000679,315,315,121.14721530000679,121.14721530000679,121.14721530000679,121.14721530000679,121.14721530000679,121.14721530000679,121.14721530000679,121.14721530000679,121.14721530000679,121.49690389999887,121.49690389999887,121.49690389999887,121.49690389999887,121.49690389999887,121.49690389999887,121.49690389999887,121.49690389999887,121.49690389999887,0,1,[0.0011696000001393259],[0.35065590002341196],121.49690389999887,121.69710500002839,3.7,121.71377550001489,0,3.7,1,0,1000,num_1,0.8025666999747045,,22,3,2026-03-04_10h33.45.049,2026A_exp2,2022.2.4,59.94362900772439,
1000,1,4.9,0.0,0,0,24,24,22,,,,,122.54783610004233,123.19858580001164,123.19858580001164,123.68311760004144,315,45,123.68311760004144,123.68311760004144,123.68311760004144,123.68311760004144,123.68311760004144,123.68311760004144,123.68311760004144,123.68311760004144,123.68311760004144,124.04955550003797,124.04955550003797,124.04955550003797,124.04955550003797,124.04955550003797,124.04955550003797,124.04955550003797,124.04955550003797,124.04955550003797,23,0,,,124.04955550003797,124.24981569999363,1000,124.24981569999363,1000,1000,1000,1000,0,num_3,0.6589679999742657,,22,3,2026-03-04_10h33.45.049,2026A_exp2,2022.2.4,59.94362900772439,
1,0,6.1,0.0,1,0,25,25,13,,,,,124.93372400000226,125.58441690000473,125.58441690000473,126.0854506000178,315,45,126.0854506000178,126.0854506000178,126.0854506000178,126.0854506000178,126.0854506000178,126.0854506000178,126.0854506000178,126.0854506000178,126.0854506000178,126.4518342000083,126.4518342000083,126.4518342000083,126.4518342000083,126.4518342000083,126.4518342000083,126.4518342000083,126.4518342000083,126.4518342000083,19,1,[0.0007277000113390386],[0.06748879997758195],126.4518342000083,126.65564860001905,0.0,126.65564860001905,0,0.0,0,1,1000,num_1,1.1813497000257485,,22,3,2026-03-04_10h33.45.049,2026A_exp2,2022.2.4,59.94362900772439,
0,0,0.0,4.9,1,0,26,26,56,,,,,127.85327620001044,128.5040267999866,128.5040267999866,129.00511900003767,45,45,129.00511900003767,129.00511900003767,129.00511900003767,129.00511900003767,129.00511900003767,129.00511900003767,129.00511900003767,129.00511900003767,129.00511900003767,129.37132750003366,129.37132750003366,129.37132750003366,129.37132750003366,129.37132750003366,129.37132750003366,129.37132750003366,129.37132750003366,129.37132750003366,0,1,[0.0012520000454969704],[0.3667634000303224],129.37132750003366,129.57175140001345,0.0,129.57175140001345,1,0.0,0,0,1000,num_4,1.0329290999798104,,22,3,2026-03-04_10h33.45.049,2026A_exp2,2022.2.4,59.94362900772439,
1000,1,0.0,4.9,1,0,27,27,51,,,,,130.6226306000026,131.27335580001818,131.27335580001818,131.75790750002488,315,315,131.75790750002488,131.75790750002488,131.75790750002488,131.75790750002488,131.75790750002488,131.75790750002488,131.75790750002488,131.75790750002488,131.75790750002488,132.12418620003155,132.12418620003155,132.12418620003155,132.12418620003155,132.12418620003155,132.12418620003155,132.12418620003155,132.12418620003155,132.12418620003155,6,2,"[0.08364730002358556, 0.3672738000168465]","[0.3505326000158675, 0.3672783999936655]",132.12418620003155,132.32452470000135,1000,132.32452470000135,1000,1000,1000,1000,1,num_2,0.6160325999953784,,22,3,2026-03-04_10h33.45.049,2026A_exp2,2022.2.4,59.94362900772439,
1,0,0.0,0.0,1,0,28,28,70,,,,,132.95832350000273,133.6088761999854,133.6088761999854,134.11014639999485,315,45,134.11014639999485,134.11014639999485,134.11014639999485,134.11014639999485,134.11014639999485,134.11014639999485,134.11014639999485,134.11014639999485,134.11014639999485,134.47670280002058,134.47670280002058,134.47670280002058,134.47670280002058,134.47670280002058,134.47670280002058,134.47670280002058,134.47670280002058,134.47670280002058,17,1,[0.0012755999923683703],[0.10036489996127784],134.47670280002058,134.6767189000384,0.0,134.6767189000384,1,0.0,0,0,1000,num_4,0.9518326999968849,,22,3,2026-03-04_10h33.45.049,2026A_exp2,2022.2.4,59.94362900772439,
1000,1,3.7,0.0,1,0,29,29,79,,,,,135.64438780001365,136.29496259998996,136.29496259998996,136.77954379998846,315,45,136.77954379998846,136.77954379998846,136.77954379998846,136.77954379998846,136.77954379998846,136.77954379998846,136.77954379998846,136.77954379998846,136.77954379998846,137.145909200015,137.145909200015,137.145909200015,137.145909200015,137.145909200015,137.145909200015,137.145909200015,137.145909200015,137.145909200015,23,0,,,137.145909200015,137.3480067999917,1000,137.3480067999917,1000,1000,1000,1000,1,num_2,1.0000604999950156,,22,3,2026-03-04_10h33.45.049,2026A_exp2,2022.2.4,59.94362900772439,
1000,1,0.0,4.9,0,0,30,30,11,,,,,138.3637694999925,139.01449189998675,139.01449189998675,139.51553880004212,45,315,139.51553880004212,139.51553880004212,139.51553880004212,139.51553880004212,139.51553880004212,139.51553880004212,139.51553880004212,139.51553880004212,139.51553880004212,139.88164080004208,139.88164080004208,139.88164080004208,139.88164080004208,139.88164080004208,139.88164080004208,139.88164080004208,139.88164080004208,139.88164080004208,23,0,,,139.88164080004208,140.08225370000582,1000,140.08225370000582,1000,1000,1000,1000,0,num_3,1.1459871000261046,,22,3,2026-03-04_10h33.45.049,2026A_exp2,2022.2.4,59.94362900772439,
1,0,0.0,6.1,0,0,31,31,68,,,,,141.2499322000076,141.9007430000347,141.9007430000347,142.38517810002668,315,45,142.38517810002668,142.38517810002668,142.38517810002668,142.38517810002668,142.38517810002668,142.38517810002668,142.38517810002668,142.38517810002668,142.38517810002668,142.7682316999999,142.7682316999999,142.7682316999999,142.7682316999999,142.7682316999999,142.7682316999999,142.7682316999999,142.7682316999999,142.7682316999999,24,0,,,142.7682316999999,142.9683640000294,0.0,142.9683640000294,0,0.0,0,1,1000,num_1,0.9957084999768995,,22,3,2026-03-04_10h33.45.049,2026A_exp2,2022.2.4,59.94362900772439,
1,0,3.7,0.0,1,0,32,32,74,,,,,143.98599200003082,144.6367992000305,144.6367992000305,145.12125269998796,45,315,145.12125269998796,145.12125269998796,145.12125269998796,145.12125269998796,145.12125269998796,145.12125269998796,145.12125269998796,145.12125269998796,145.12125269998796,145.4876293000416,145.4876293000416,145.4876293000416,145.4876293000416,145.4876293000416,145.4876293000416,145.4876293000416,145.4876293000416,145.4876293000416,23,0,,,145.4876293000416,145.68782310001552,0.0,145.68782310001552,1,0.0,0,0,1000,num_4,1.4449634000193328,,22,3,2026-03-04_10h33.45.049,2026A_exp2,2022.2.4,59.94362900772439,
1,0,0.0,4.9,0,0,33,33,17,,,,,147.1559053999954,147.7899119000067,147.7899119000067,148.29095699999016,315,45,148.29095699999016,148.29095699999016,148.29095699999016,148.29095699999016,148.29095699999016,148.29095699999016,148.29095699999016,148.29095699999016,148.29095699999016,148.6574898000108,148.6574898000108,148.6574898000108,148.6574898000108,148.6574898000108,148.6574898000108,148.6574898000108,148.6574898000108,148.6574898000108,23,0,,,148.6574898000108,148.85753750003641,0.0,148.85753750003641,1,0.0,0,0,1000,num_4,2.986601000011433,,22,3,2026-03-04_10h33.45.049,2026A_exp2,2022.2.4,59.94362900772439,
1000,1,0.0,0.0,1,0,34,34,7,,,,,151.86069230001885,152.51124160003383,152.51124160003383,152.99574139999459,315,45,152.99574139999459,152.99574139999459,152.99574139999459,152.99574139999459,152.99574139999459,152.99574139999459,152.99574139999459,152.99574139999459,152.99574139999459,153.3620484000421,153.3620484000421,153.3620484000421,153.3620484000421,153.3620484000421,153.3620484000421,153.3620484000421,153.3620484000421,153.3620484000421,23,0,,,153.3620484000421,153.56397070002276,1000,153.56397070002276,1000,1000,1000,1000,0,num_3,0.936328699986916,,22,3,2026-03-04_10h33.45.049,2026A_exp2,2022.2.4,59.94362900772439,
1,0,4.9,0.0,1,0,35,35,82,,,,,154.52989230002277,155.18052150000585,155.18052150000585,155.6814272000338,315,315,155.6814272000338,155.6814272000338,155.6814272000338,155.6814272000338,155.6814272000338,155.6814272000338,155.6814272000338,155.6814272000338,155.6814272000338,156.048024800024,156.048024800024,156.048024800024,156.048024800024,156.048024800024,156.048024800024,156.048024800024,156.048024800024,156.048024800024,23,0,,,156.048024800024,156.24820070003625,0.0,156.24820070003625,1,0.0,0,0,1000,num_4,1.1474588999990374,,22,3,2026-03-04_10h33.45.049,2026A_exp2,2022.2.4,59.94362900772439,
1000,1,4.9,3.7,1,0,36,36,32,,,,,157.41633070004173,158.0669431000133,158.0669431000133,158.5512549999985,315,45,158.5512549999985,158.5512549999985,158.5512549999985,158.5512549999985,158.5512549999985,158.5512549999985,158.5512549999985,158.5512549999985,158.5512549999985,158.91769150004257,158.91769150004257,158.91769150004257,158.91769150004257,158.91769150004257,158.91769150004257,158.91769150004257,158.91769150004257,158.91769150004257,23,0,,,158.91769150004257,159.11950710002566,1000,159.11950710002566,1000,1000,1000,1000,1,num_2,0.6046110999886878,,22,3,2026-03-04_10h33.45.049,2026A_exp2,2022.2.4,59.94362900772439,
1000,1,0.0,0.0,0,0,37,37,65,,,,,159.75179770000977,160.40243439999176,160.40243439999176,160.903584100015,45,315,160.903584100015,160.903584100015,160.903584100015,160.903584100015,160.903584100015,160.903584100015,160.903584100015,160.903584100015,160.903584100015,161.27010630001314,161.27010630001314,161.27010630001314,161.27010630001314,161.27010630001314,161.27010630001314,161.27010630001314,161.27010630001314,161.27010630001314,23,0,,,161.27010630001314,161.47186200000579,1000,161.47186200000579,1000,1000,1000,1000,1,num_2,1.3807783999945968,,22,3,2026-03-04_10h33.45.049,2026A_exp2,2022.2.4,59.94362900772439,
0,0,0.0,4.9,0,0,38,38,54,,,,,162.87167120003141,163.52233170002,163.52233170002,164.02334120002342,45,315,164.02334120002342,164.02334120002342,164.02334120002342,164.02334120002342,164.02334120002342,164.02334120002342,164.02334120002342,164.02334120002342,164.02334120002342,164.37315020000096,164.37315020000096,164.37315020000096,164.37315020000096,164.37315020000096,164.37315020000096,164.37315020000096,164.37315020000096,164.37315020000096,22,0,,,164.37315020000096,164.57320280000567,4.9,164.57320280000567,1,4.9,1,1,1000,num_4,0.6868357000057586,,22,3,2026-03-04_10h33.45.049,2026A_exp2,2022.2.4,59.94362900772439,
1000,1,4.9,3.7,1,0,39,39,67,,,,,165.29075190000003,165.9246369000175,165.9246369000175,166.42577050003456,315,45,166.42577050003456,166.42577050003456,166.42577050003456,166.42577050003456,166.42577050003456,166.42577050003456,166.42577050003456,166.42577050003456,166.42577050003456,166.79218769998988,166.79218769998988,166.79218769998988,166.79218769998988,166.79218769998988,166.79218769998988,166.79218769998988,166.79218769998988,166.79218769998988,23,0,,,166.79218769998988,166.9944875999936,1000,166.9944875999936,1000,1000,1000,1000,1,num_2,0.9780900000478141,,22,3,2026-03-04_10h33.45.049,2026A_exp2,2022.2.4,59.94362900772439,
1,0,4.9,6.1,1,0,40,40,86,,,,,167.9934232000378,168.64411310001742,168.64411310001742,169.14527360000648,315,45,169.14527360000648,169.14527360000648,169.14527360000648,169.14527360000648,169.14527360000648,169.14527360000648,169.14527360000648,169.14527360000648,169.14527360000648,169.5115382000222,169.5115382000222,169.5115382000222,169.5115382000222,169.5115382000222,169.5115382000222,169.5115382000222,169.5115382000222,169.5115382000222,23,0,,,169.5115382000222,169.71166680002352,6.1,169.71166680002352,1,6.1,1,1,1000,num_4,0.8130583000020124,,22,3,2026-03-04_10h33.45.049,2026A_exp2,2022.2.4,59.94362900772439,
1,0,4.9,0.0,0,0,41,41,48,,,,,170.5459334999905,171.19664670003112,171.19664670003112,171.68108680000296,315,45,171.68108680000296,171.68108680000296,171.68108680000296,171.68108680000296,171.68108680000296,171.68108680000296,171.68108680000296,171.68108680000296,171.68108680000296,172.04745489999186,172.04745489999186,172.04745489999186,172.04745489999186,172.04745489999186,172.04745489999186,172.04745489999186,172.04745489999186,172.04745489999186,23,0,,,172.04745489999186,172.24985349999042,4.9,172.24985349999042,1,4.9,1,1,1000,num_4,2.490053399989847,,22,3,2026-03-04_10h33.45.049,2026A_exp2,2022.2.4,59.94362900772439,
1,0,0.0,4.9,0,0,42,42,71,,,,,174.76714650000213,175.41760049998993,175.41760049998993,175.90181150002172,315,315,175.90181150002172,175.90181150002172,175.90181150002172,175.90181150002172,175.90181150002172,175.90181150002172,175.90181150002172,175.90181150002172,175.90181150002172,176.2683181000175,176.2683181000175,176.2683181000175,176.2683181000175,176.2683181000175,176.2683181000175,176.2683181000175,176.2683181000175,176.2683181000175,23,0,,,176.2683181000175,176.46861999999965,0.0,176.46861999999965,0,0.0,0,1,1000,num_1,0.9912265000166371,,22,3,2026-03-04_10h33.45.049,2026A_exp2,2022.2.4,59.94362900772439,
1,0,0.0,4.9,1,0,43,43,45,,,,,177.4861838000361,178.13666580000427,178.13666580000427,178.62123700004304,45,315,178.62123700004304,178.62123700004304,178.62123700004304,178.62123700004304,178.62123700004304,178.62123700004304,178.62123700004304,178.62123700004304,178.62123700004304,178.98773520003306,178.98773520003306,178.98773520003306,178.98773520003306,178.98773520003306,178.98773520003306,178.98773520003306,178.98773520003306,178.98773520003306,23,0,,,178.98773520003306,179.18793350004125,4.9,179.18793350004125,1,4.9,1,1,1000,num_4,0.5204225000343286,,22,3,2026-03-04_10h33.45.049,2026A_exp2,2022.2.4,59.94362900772439,
1,0,4.9,4.9,1,0,44,44,89,,,,,179.73840920004295,180.38901119999355,180.38901119999355,180.8736937000067,315,45,180.8736937000067,180.8736937000067,180.8736937000067,180.8736937000067,180.8736937000067,180.8736937000067,180.8736937000067,180.8736937000067,180.8736937000067,181.2398925999878,181.2398925999878,181.2398925999878,181.2398925999878,181.2398925999878,181.2398925999878,181.2398925999878,181.2398925999878,181.2398925999878,23,0,,,181.2398925999878,181.44018010003492,4.9,181.44018010003492,1,4.9,1,1,1000,num_4,0.4923512000241317,,22,3,2026-03-04_10h33.45.049,2026A_exp2,2022.2.4,59.94362900772439,
1000,1,6.1,3.7,1,0,45,45,0,,,,,181.9573526000022,182.60787270002766,182.60787270002766,183.09258610004326,45,45,183.09258610004326,183.09258610004326,183.09258610004326,183.09258610004326,183.09258610004326,183.09258610004326,183.09258610004326,183.09258610004326,183.09258610004326,183.45880090002902,183.45880090002902,183.45880090002902,183.45880090002902,183.45880090002902,183.45880090002902,183.45880090002902,183.45880090002902,183.45880090002902,23,0,,,183.45880090002902,183.66132970002946,1000,183.66132970002946,1000,1000,1000,1000,0,num_3,0.7756948999594897,,22,3,2026-03-04_10h33.45.049,2026A_exp2,2022.2.4,59.94362900772439,
1,0,0.0,0.0,0,0,46,46,2,,,,,184.4598435999942,185.11059649998788,185.11059649998788,185.61169749998953,45,315,185.61169749998953,185.61169749998953,185.61169749998953,185.61169749998953,185.61169749998953,185.61169749998953,185.61169749998953,185.61169749998953,185.61169749998953,185.97812350001186,185.97812350001186,185.97812350001186,185.97812350001186,185.97812350001186,185.97812350001186,185.97812350001186,185.97812350001186,185.97812350001186,23,0,,,185.97812350001186,186.17834919999586,0.0,186.17834919999586,1,0.0,0,0,1000,num_4,0.8337922000209801,,22,3,2026-03-04_10h33.45.049,2026A_exp2,2022.2.4,59.94362900772439,
1,0,0.0,6.1,0,0,47,47,5,,,,,187.02902020001784,187.67969210003503,187.67969210003503,188.18126039998606,315,315,188.18126039998606,188.18126039998606,188.18126039998606,188.18126039998606,188.18126039998606,188.18126039998606,188.18126039998606,188.18126039998606,188.18126039998606,188.5471821000101,188.5471821000101,188.5471821000101,188.5471821000101,188.5471821000101,188.5471821000101,188.5471821000101,188.5471821000101,188.5471821000101,23,0,,,188.5471821000101,188.74733969999943,0.0,188.74733969999943,0,0.0,0,1,1000,num_1,0.873458500020206,,22,3,2026-03-04_10h33.45.049,2026A_exp2,2022.2.4,59.94362900772439,
1000,1,0.0,3.7,0,0,48,48,44,,,,,189.648339700012,190.2989913999918,190.2989913999918,190.7834396000253,45,45,190.7834396000253,190.7834396000253,190.7834396000253,190.7834396000253,190.7834396000253,190.7834396000253,190.7834396000253,190.7834396000253,190.7834396000253,191.14992380002514,191.14992380002514,191.14992380002514,191.14992380002514,191.14992380002514,191.14992380002514,191.14992380002514,191.14992380002514,191.14992380002514,23,0,,,191.14992380002514,191.35211770003662,1000,191.35211770003662,1000,1000,1000,1000,1,num_2,1.6195346000022255,,22,3,2026-03-04_10h33.45.049,2026A_exp2,2022.2.4,59.94362900772439,
1000,1,6.1,4.9,1,0,49,49,53,,,,,193.00164360000053,193.6524775000289,193.6524775000289,194.1368855999899,315,315,194.1368855999899,194.1368855999899,194.1368855999899,194.1368855999899,194.1368855999899,194.1368855999899,194.1368855999899,194.1368855999899,194.1368855999899,194.5033347000135,194.5033347000135,194.5033347000135,194.5033347000135,194.5033347000135,194.5033347000135,194.5033347000135,194.5033347000135,194.5033347000135,23,0,,,194.5033347000135,194.7052502000006,1000,194.7052502000006,1000,1000,1000,1000,1,num_2,0.43431610002880916,,22,3,2026-03-04_10h33.45.049,2026A_exp2,2022.2.4,59.94362900772439,
0,0,3.7,4.9,1,0,50,50,3,,,,,195.17058350000298,195.82128500001272,195.82128500001272,196.32231960003264,315,45,196.32231960003264,196.32231960003264,196.32231960003264,196.32231960003264,196.32231960003264,196.32231960003264,196.32231960003264,196.32231960003264,196.32231960003264,196.68886990001192,196.68886990001192,196.68886990001192,196.68886990001192,196.68886990001192,196.68886990001192,196.68886990001192,196.68886990001192,196.68886990001192,23,0,,,196.68886990001192,196.88892300002044,3.7,196.88892300002044,0,3.7,1,0,1000,num_1,0.7400386999943294,,22,3,2026-03-04_10h33.45.049,2026A_exp2,2022.2.4,59.94362900772439,
1,0,4.9,6.1,0,0,51,51,15,,,,,197.65632330003427,198.30709330004174,198.30709330004174,198.791563900013,45,45,198.791563900013,198.791563900013,198.791563900013,198.791563900013,198.791563900013,198.791563900013,198.791563900013,198.791563900013,198.791563900013,199.15796390001196,199.15796390001196,199.15796390001196,199.15796390001196,199.15796390001196,199.15796390001196,199.15796390001196,199.15796390001196,199.15796390001196,23,0,,,199.15796390001196,199.35812680004165,4.9,199.35812680004165,0,4.9,1,0,1000,num_1,0.7660986999981105,,22,3,2026-03-04_10h33.45.049,2026A_exp2,2022.2.4,59.94362900772439,
1000,1,4.9,0.0,1,0,52,52,72,,,,,200.14226960000815,200.77627580001717,200.77627580001717,201.27724660001695,45,45,201.27724660001695,201.27724660001695,201.27724660001695,201.27724660001695,201.27724660001695,201.27724660001695,201.27724660001695,201.27724660001695,201.27724660001695,201.64364419999765,201.64364419999765,201.64364419999765,201.64364419999765,201.64364419999765,201.64364419999765,201.64364419999765,201.64364419999765,201.64364419999765,23,0,,,201.64364419999765,201.8439311000402,1000,201.8439311000402,1000,1000,1000,1000,1,num_2,0.6319801000063308,,22,3,2026-03-04_10h33.45.049,2026A_exp2,2022.2.4,59.94362900772439,
0,0,0.0,3.7,1,0,53,53,21,,,,,202.4945155000314,203.14522659999784,203.14522659999784,203.64619679999305,315,315,203.64619679999305,203.64619679999305,203.64619679999305,203.64619679999305,203.64619679999305,203.64619679999305,203.64619679999305,203.64619679999305,203.64619679999305,204.012669800024,204.012669800024,204.012669800024,204.012669800024,204.012669800024,204.012669800024,204.012669800024,204.012669800024,204.012669800024,23,0,,,204.012669800024,204.21299910004018,0.0,204.21299910004018,0,0.0,0,1,1000,num_1,1.5829864999977872,,22,3,2026-03-04_10h33.45.049,2026A_exp2,2022.2.4,59.94362900772439,
1000,1,0.0,3.7,1,0,54,54,80,,,,,205.81525590003002,206.47363329998916,206.47363329998916,206.9663630000432,45,315,206.9663630000432,206.9663630000432,206.9663630000432,206.9663630000432,206.9663630000432,206.9663630000432,206.9663630000432,206.9663630000432,206.9663630000432,207.33280289999675,207.33280289999675,207.33280289999675,207.33280289999675,207.33280289999675,207.33280289999675,207.33280289999675,207.33280289999675,207.33280289999675,23,0,,,207.33280289999675,207.53496940003242,1000,207.53496940003242,1000,1000,1000,1000,1,num_2,0.5967247000080533,,22,3,2026-03-04_10h33.45.049,2026A_exp2,2022.2.4,59.94362900772439,
1000,1,6.1,4.9,1,0,55,55,16,,,,,208.15030830004252,208.80081690003863,208.80081690003863,209.30205310002202,315,315,209.30205310002202,209.30205310002202,209.30205310002202,209.30205310002202,209.30205310002202,209.30205310002202,209.30205310002202,209.30205310002202,209.30205310002202,209.6684794999892,209.6684794999892,209.6684794999892,209.6684794999892,209.6684794999892,209.6684794999892,209.6684794999892,209.6684794999892,209.6684794999892,23,0,,,209.6684794999892,209.87081789999502,1000,209.87081789999502,1000,1000,1000,1000,1,num_2,0.5174641000339761,,22,3,2026-03-04_10h33.45.049,2026A_exp2,2022.2.4,59.94362900772439,
1000,1,6.1,0.0,0,0,56,56,33,,,,,210.4189731000224,211.06969139998546,211.06969139998546,211.57091579999542,45,315,211.57091579999542,211.57091579999542,211.57091579999542,211.57091579999542,211.57091579999542,211.57091579999542,211.57091579999542,211.57091579999542,211.57091579999542,211.93751349998638,211.93751349998638,211.93751349998638,211.93751349998638,211.93751349998638,211.93751349998638,211.93751349998638,211.93751349998638,211.93751349998638,22,1,[0.08378569997148588],[0.10045869997702539],211.93751349998638,212.13743160001468,1000,212.13743160001468,1000,1000,1000,1000,0,num_3,1.3235497000277974,,22,3,2026-03-04_10h33.45.049,2026A_exp2,2022.2.4,59.94362900772439,
1000,1,4.9,4.9,0,0,57,57,31,,,,,213.4888797000167,214.13955690001603,214.13955690001603,214.64061160001438,315,45,214.64061160001438,214.64061160001438,214.64061160001438,214.64061160001438,214.64061160001438,214.64061160001438,214.64061160001438,214.64061160001438,214.64061160001438,215.00710550002987,215.00710550002987,215.00710550002987,215.00710550002987,215.00710550002987,215.00710550002987,215.00710550002987,215.00710550002987,215.00710550002987,23,0,,,215.00710550002987,215.2091642000014,1000,215.2091642000014,1000,1000,1000,1000,0,num_3,1.019328200025484,,22,3,2026-03-04_10h33.45.049,2026A_exp2,2022.2.4,59.94362900772439,
1000,1,0.0,0.0,0,0,58,58,61,,,,,216.25832230004016,216.90892870002426,216.90892870002426,217.4101969000185,45,315,217.4101969000185,217.4101969000185,217.4101969000185,217.4101969000185,217.4101969000185,217.4101969000185,217.4101969000185,217.4101969000185,217.4101969000185,217.77645569999004,217.77645569999004,217.77645569999004,217.77645569999004,217.77645569999004,217.77645569999004,217.77645569999004,217.77645569999004,217.77645569999004,23,0,,,217.77645569999004,217.9783759000129,1000,217.9783759000129,1000,1000,1000,1000,0,num_3,0.5142950000008568,,22,3,2026-03-04_10h33.45.049,2026A_exp2,2022.2.4,59.94362900772439,
1000,1,0.0,0.0,0,0,59,59,69,,,,,218.51053180004237,219.16129740001634,219.16129740001634,219.66232689999742,315,315,219.66232689999742,219.66232689999742,219.66232689999742,219.66232689999742,219.66232689999742,219.66232689999742,219.66232689999742,219.66232689999742,219.66232689999742,220.02882120001595,220.02882120001595,220.02882120001595,220.02882120001595,220.02882120001595,220.02882120001595,220.02882120001595,220.02882120001595,220.02882120001595,23,0,,,220.02882120001595,220.2310553000425,1000,220.2310553000425,1000,1000,1000,1000,0,num_3,0.4846079000271857,,22,3,2026-03-04_10h33.45.049,2026A_exp2,2022.2.4,59.94362900772439,
1000,1,0.0,4.9,1,0,60,60,27,,,,,220.74612880003406,221.3966135000228,221.3966135000228,221.90927800000645,45,45,221.90927800000645,221.90927800000645,221.90927800000645,221.90927800000645,221.90927800000645,221.90927800000645,221.90927800000645,221.90927800000645,221.90927800000645,222.26445310004056,222.26445310004056,222.26445310004056,222.26445310004056,222.26445310004056,222.26445310004056,222.26445310004056,222.26445310004056,222.26445310004056,23,0,,,222.26445310004056,222.46491829998558,1000,222.46491829998558,1000,1000,1000,1000,1,num_2,1.3869752999744378,,22,3,2026-03-04_10h33.45.049,2026A_exp2,2022.2.4,59.94362900772439,
0,0,0.0,0.0,1,0,61,61,8,,,,,223.8828161000274,224.53332769998815,224.53332769998815,225.03432040003827,45,45,225.03432040003827,225.03432040003827,225.03432040003827,225.03432040003827,225.03432040003827,225.03432040003827,225.03432040003827,225.03432040003827,225.03432040003827,225.40087310003582,225.40087310003582,225.40087310003582,225.40087310003582,225.40087310003582,225.40087310003582,225.40087310003582,225.40087310003582,225.40087310003582,23,0,,,225.40087310003582,225.60105940001085,0.0,225.60105940001085,0,0.0,0,1,1000,num_1,1.2907490999787115,,22,3,2026-03-04_10h33.45.049,2026A_exp2,2022.2.4,59.94362900772439,
1,0,6.1,0.0,0,0,62,62,50,,,,,226.9189255000092,227.56967280001845,227.56967280001845,228.0540500000352,315,45,228.0540500000352,228.0540500000352,228.0540500000352,228.0540500000352,228.0540500000352,228.0540500000352,228.0540500000352,228.0540500000352,228.0540500000352,228.4206822999986,228.4206822999986,228.4206822999986,228.4206822999986,228.4206822999986,228.4206822999986,228.4206822999986,228.4206822999986,228.4206822999986,23,0,,,228.4206822999986,228.6207613000297,6.1,228.6207613000297,1,6.1,1,1,1000,num_4,0.8314935000380501,,22,3,2026-03-04_10h33.45.049,2026A_exp2,2022.2.4,59.94362900772439,
1000,1,0.0,0.0,1,0,63,63,47,,,,,229.47153999999864,230.1062188000069,230.1062188000069,230.61068039998645,45,45,230.61068039998645,230.61068039998645,230.61068039998645,230.61068039998645,230.61068039998645,230.61068039998645,230.61068039998645,230.61068039998645,230.61068039998645,230.9731266000308,230.9731266000308,230.9731266000308,230.9731266000308,230.9731266000308,230.9731266000308,230.9731266000308,230.9731266000308,230.9731266000308,14,1,[0.0023859000066295266],[0.15031319996342063],230.9731266000308,231.17627029999858,1000,231.17627029999858,1000,1000,1000,1000,1,num_2,1.2999289999715984,,22,3,2026-03-04_10h33.45.049,2026A_exp2,2022.2.4,59.94362900772439,
1,0,4.9,4.9,0,0,64,64,63,,,,,232.4911420000135,233.1419727000175,233.1419727000175,233.6429763000342,45,315,233.6429763000342,233.6429763000342,233.6429763000342,233.6429763000342,233.6429763000342,233.6429763000342,233.6429763000342,233.6429763000342,233.6429763000342,234.00935230002506,234.00935230002506,234.00935230002506,234.00935230002506,234.00935230002506,234.00935230002506,234.00935230002506,234.00935230002506,234.00935230002506,23,0,,,234.00935230002506,234.20975710003404,4.9,234.20975710003404,0,4.9,1,0,1000,num_1,0.7225458000320941,,22,3,2026-03-04_10h33.45.049,2026A_exp2,2022.2.4,59.94362900772439,
1000,1,4.9,0.0,0,0,65,65,58,,,,,234.960337800032,235.61095950001618,235.61095950001618,236.09553480002796,45,45,236.09553480002796,236.09553480002796,236.09553480002796,236.09553480002796,236.09553480002796,236.09553480002796,236.09553480002796,236.09553480002796,236.09553480002796,236.46186250000028,236.46186250000028,236.46186250000028,236.46186250000028,236.46186250000028,236.46186250000028,236.46186250000028,236.46186250000028,236.46186250000028,23,0,,,236.46186250000028,236.6639029000071,1000,236.6639029000071,1000,1000,1000,1000,0,num_3,0.5564318000106141,,22,3,2026-03-04_10h33.45.049,2026A_exp2,2022.2.4,59.94362900772439,
1000,1,3.7,0.0,1,0,66,66,55,,,,,237.24597210000502,237.8966044000117,237.8966044000117,238.39763150003273,45,315,238.39763150003273,238.39763150003273,238.39763150003273,238.39763150003273,238.39763150003273,238.39763150003273,238.39763150003273,238.39763150003273,238.39763150003273,238.76426160003757,238.76426160003757,238.76426160003757,238.76426160003757,238.76426160003757,238.76426160003757,238.76426160003757,238.76426160003757,238.76426160003757,23,0,,,238.76426160003757,238.96622420003405,1000,238.96622420003405,1000,1000,1000,1000,1,num_2,0.5899073999607936,,22,3,2026-03-04_10h33.45.049,2026A_exp2,2022.2.4,59.94362900772439,
1000,1,4.9,0.0,1,0,67,67,25,,,,,239.5816892000148,240.23287250002613,240.23287250002613,240.71758530003717,315,315,240.71758530003717,240.71758530003717,240.71758530003717,240.71758530003717,240.71758530003717,240.71758530003717,240.71758530003717,240.71758530003717,240.71758530003717,241.08307669998612,241.08307669998612,241.08307669998612,241.08307669998612,241.08307669998612,241.08307669998612,241.08307669998612,241.08307669998612,241.08307669998612,23,0,,,241.08307669998612,241.2833237000159,1000,241.29994390002685,1000,1000,1000,1000,1,num_2,1.367722099996172,,22,3,2026-03-04_10h33.45.049,2026A_exp2,2022.2.4,59.94362900772439,
0,0,0.0,6.1,1,0,68,68,76,,,,,242.68457670003409,243.3362030000426,243.3362030000426,243.8199070999981,315,45,243.8199070999981,243.8199070999981,243.8199070999981,243.8199070999981,243.8199070999981,243.8199070999981,243.8199070999981,243.8199070999981,243.8199070999981,244.18616869999096,244.18616869999096,244.18616869999096,244.18616869999096,244.18616869999096,244.18616869999096,244.18616869999096,244.18616869999096,244.18616869999096,23,0,,,244.18616869999096,244.38655350002227,0.0,244.38655350002227,0,0.0,0,1,1000,num_1,0.6337349000386894,,22,3,2026-03-04_10h33.45.049,2026A_exp2,2022.2.4,59.94362900772439,
1,0,0.0,0.0,1,0,69,69,37,,,,,245.03706110001076,245.68791780003812,245.68791780003812,246.18884740001522,315,315,246.18884740001522,246.18884740001522,246.18884740001522,246.18884740001522,246.18884740001522,246.18884740001522,246.18884740001522,246.18884740001522,246.18884740001522,246.5551087000058,246.5551087000058,246.5551087000058,246.5551087000058,246.5551087000058,246.5551087000058,246.5551087000058,246.5551087000058,246.5551087000058,0,1,[0.001234100025612861],[0.36718280002241954],246.5551087000058,246.75554859999102,0.0,246.75554859999102,0,0.0,0,1,1000,num_1,1.6735260999994352,,22,3,2026-03-04_10h33.45.049,2026A_exp2,2022.2.4,59.94362900772439,
1,0,4.9,0.0,1,0,70,70,6,,,,,248.4571544000064,249.1078516000416,249.1078516000416,249.59235540003283,315,315,249.59235540003283,249.59235540003283,249.59235540003283,249.59235540003283,249.59235540003283,249.59235540003283,249.59235540003283,249.59235540003283,249.59235540003283,249.9588623000309,249.9588623000309,249.9588623000309,249.9588623000309,249.9588623000309,249.9588623000309,249.9588623000309,249.9588623000309,249.9588623000309,5,1,[0.017361000005621463],[0.31709019996924326],249.9588623000309,250.1589886000147,0.0,250.1589886000147,1,0.0,0,0,1000,num_4,0.8132773999823257,,22,3,2026-03-04_10h33.45.049,2026A_exp2,2022.2.4,59.94362900772439,
1000,1,0.0,6.1,1,0,71,71,88,,,,,250.9929482000298,251.64378730003955,251.64378730003955,252.12821560003795,45,45,252.12821560003795,252.12821560003795,252.12821560003795,252.12821560003795,252.12821560003795,252.12821560003795,252.12821560003795,252.12821560003795,252.12821560003795,252.49464789999183,252.49464789999183,252.49464789999183,252.49464789999183,252.49464789999183,252.49464789999183,252.49464789999183,252.49464789999183,252.49464789999183,23,0,,,252.49464789999183,252.69478950003395,1000,252.69478950003395,1000,1000,1000,1000,1,num_2,0.5890078999800608,,22,3,2026-03-04_10h33.45.049,2026A_exp2,2022.2.4,59.94362900772439,
1000,1,6.1,0.0,1,0,72,72,60,,,,,253.31205440004123,253.96280570002273,253.96280570002273,254.463897300011,315,45,254.463897300011,254.463897300011,254.463897300011,254.463897300011,254.463897300011,254.463897300011,254.463897300011,254.463897300011,254.463897300011,254.83033100003377,254.83033100003377,254.83033100003377,254.83033100003377,254.83033100003377,254.83033100003377,254.83033100003377,254.83033100003377,254.83033100003377,23,0,,,254.83033100003377,255.03225520002889,1000,255.03225520002889,1000,1000,1000,1000,1,num_2,0.5562145999865606,,22,3,2026-03-04_10h33.45.049,2026A_exp2,2022.2.4,59.94362900772439,
1,0,4.9,0.0,1,0,73,73,84,,,,,255.6141837000032,256.26513120002346,256.26513120002346,256.76623180002207,315,45,256.76623180002207,256.76623180002207,256.76623180002207,256.76623180002207,256.76623180002207,256.76623180002207,256.76623180002207,256.76623180002207,256.76623180002207,257.11595200002193,257.11595200002193,257.11595200002193,257.11595200002193,257.11595200002193,257.11595200002193,257.11595200002193,257.11595200002193,257.11595200002193,22,0,,,257.11595200002193,257.3159731000196,0.0,257.3159731000196,1,0.0,0,0,1000,num_4,0.8802343999850564,,22,3,2026-03-04_10h33.45.049,2026A_exp2,2022.2.4,59.94362900772439,
1000,1,4.9,6.1,1,0,74,74,1,,,,,258.21691240003565,258.86761790001765,258.86761790001765,259.3519617000129,315,315,259.3519617000129,259.3519617000129,259.3519617000129,259.3519617000129,259.3519617000129,259.3519617000129,259.3519617000129,259.3519617000129,259.3519617000129,259.7351544999983,259.7351544999983,259.7351544999983,259.7351544999983,259.7351544999983,259.7351544999983,259.7351544999983,259.7351544999983,259.7351544999983,24,0,,,259.7351544999983,259.93505910004023,1000,259.93505910004023,1000,1000,1000,1000,1,num_2,0.4608499999740161,,22,3,2026-03-04_10h33.45.049,2026A_exp2,2022.2.4,59.94362900772439,
1,0,0.0,0.0,0,0,75,75,9,,,,,260.4189711000072,261.06960940000135,261.06960940000135,261.57098349998705,45,315,261.57098349998705,261.57098349998705,261.57098349998705,261.57098349998705,261.57098349998705,261.57098349998705,261.57098349998705,261.57098349998705,261.57098349998705,261.920500600012,261.920500600012,261.920500600012,261.920500600012,261.920500600012,261.920500600012,261.920500600012,261.920500600012,261.920500600012,22,0,,,261.920500600012,262.1329856000375,0.0,262.1329856000375,1,0.0,0,0,1000,num_4,1.5029757999582216,,22,3,2026-03-04_10h33.45.049,2026A_exp2,2022.2.4,59.94362900772439,
1000,1,0.0,0.0,1,0,76,76,23,,,,,263.6558730000397,264.3063230999978,264.3063230999978,264.79078209999716,45,315,264.79078209999716,264.79078209999716,264.79078209999716,264.79078209999716,264.79078209999716,264.79078209999716,264.79078209999716,264.79078209999716,264.79078209999716,265.15728430001764,265.15728430001764,265.15728430001764,265.15728430001764,265.15728430001764,265.15728430001764,265.15728430001764,265.15728430001764,265.15728430001764,23,0,,,265.15728430001764,265.35749810002744,1000,265.35749810002744,1000,1000,1000,1000,1,num_2,1.0547904999693856,,22,3,2026-03-04_10h33.45.049,2026A_exp2,2022.2.4,59.94362900772439,
1000,1,3.7,3.7,1,0,77,77,40,,,,,266.44183349999366,267.0925886000041,267.0925886000041,267.593683700019,315,315,267.593683700019,267.593683700019,267.593683700019,267.593683700019,267.593683700019,267.593683700019,267.593683700019,267.593683700019,267.593683700019,267.9433575000148,267.9433575000148,267.9433575000148,267.9433575000148,267.9433575000148,267.9433575000148,267.9433575000148,267.9433575000148,267.9433575000148,22,0,,,267.9433575000148,268.15925090003293,1000,268.15925090003293,1000,1000,1000,1000,1,num_2,1.2604687999701127,,22,3,2026-03-04_10h33.45.049,2026A_exp2,2022.2.4,59.94362900772439,
1,0,3.7,4.9,1,0,78,78,39,,,,,269.44481930002803,270.0952629999956,270.0952629999956,270.59668870002497,315,315,270.59668870002497,270.59668870002497,270.59668870002497,270.59668870002497,270.59668870002497,270.59668870002497,270.59668870002497,270.59668870002497,270.59668870002497,270.9630508000264,270.9630508000264,270.9630508000264,270.9630508000264,270.9630508000264,270.9630508000264,270.9630508000264,270.9630508000264,270.9630508000264,23,0,,,270.9630508000264,271.16329210001277,4.9,271.16329210001277,1,4.9,1,1,1000,num_4,0.7612598999985494,,22,3,2026-03-04_10h33.45.049,2026A_exp2,2022.2.4,59.94362900772439,
1,0,0.0,0.0,1,0,79,79,73,,,,,271.94704090000596,272.5980081000016,272.5980081000016,273.0823951000348,45,315,273.0823951000348,273.0823951000348,273.0823951000348,273.0823951000348,273.0823951000348,273.0823951000348,273.0823951000348,273.0823951000348,273.0823951000348,273.44898240000475,273.44898240000475,273.44898240000475,273.44898240000475,273.44898240000475,273.44898240000475,273.44898240000475,273.44898240000475,273.44898240000475,23,0,,,273.44898240000475,273.64913520001573,0.0,273.64913520001573,0,0.0,0,1,1000,num_1,1.186815699969884,,22,3,2026-03-04_10h33.45.049,2026A_exp2,2022.2.4,59.94362900772439,
1,0,0.0,3.7,0,0,80,80,78,,,,,274.86690100003034,275.51754570001503,275.51754570001503,276.0020017999923,315,315,276.0020017999923,276.0020017999923,276.0020017999923,276.0020017999923,276.0020017999923,276.0020017999923,276.0020017999923,276.0020017999923,276.0020017999923,276.3684159000404,276.3684159000404,276.3684159000404,276.3684159000404,276.3684159000404,276.3684159000404,276.3684159000404,276.3684159000404,276.3684159000404,23,0,,,276.3684159000404,276.568604900036,0.0,276.568604900036,1,0.0,0,0,1000,num_4,0.7231514999875799,,22,3,2026-03-04_10h33.45.049,2026A_exp2,2022.2.4,59.94362900772439,
1,0,0.0,4.9,0,0,81,81,85,,,,,277.3193060000194,277.96995140000945,277.96995140000945,278.45445730001666,315,315,278.45445730001666,278.45445730001666,278.45445730001666,278.45445730001666,278.45445730001666,278.45445730001666,278.45445730001666,278.45445730001666,278.45445730001666,278.8209591000341,278.8209591000341,278.8209591000341,278.8209591000341,278.8209591000341,278.8209591000341,278.8209591000341,278.8209591000341,278.8209591000341,23,0,,,278.8209591000341,279.0211221000063,0.0,279.0211221000063,1,0.0,0,0,1000,num_4,0.7995314999716356,,22,3,2026-03-04_10h33.45.049,2026A_exp2,2022.2.4,59.94362900772439,
1,0,0.0,0.0,0,0,82,82,49,,,,,279.83850600000005,280.48928030004026,280.48928030004026,280.97366260003764,315,315,280.97366260003764,280.97366260003764,280.97366260003764,280.97366260003764,280.97366260003764,280.97366260003764,280.97366260003764,280.97366260003764,280.97366260003764,281.3400551000377,281.3400551000377,281.3400551000377,281.3400551000377,281.3400551000377,281.3400551000377,281.3400551000377,281.3400551000377,281.3400551000377,23,0,,,281.3400551000377,281.54032470000675,0.0,281.54032470000675,1,0.0,0,0,1000,num_4,0.6878673000028357,,22,3,2026-03-04_10h33.45.049,2026A_exp2,2022.2.4,59.94362900772439,
1,0,0.0,0.0,0,0,83,83,59,,,,,282.2576554000261,282.90827180002816,282.90827180002816,283.39283470000373,315,315,283.39283470000373,283.39283470000373,283.39283470000373,283.39283470000373,283.39283470000373,283.39283470000373,283.39283470000373,283.39283470000373,283.39283470000373,283.7592011000379,283.7592011000379,283.7592011000379,283.7592011000379,283.7592011000379,283.7592011000379,283.7592011000379,283.7592011000379,283.7592011000379,23,0,,,283.7592011000379,283.9594499000232,0.0,283.9594499000232,1,0.0,0,0,1000,num_4,0.8368160999962129,,22,3,2026-03-04_10h33.45.049,2026A_exp2,2022.2.4,59.94362900772439,
1,0,0.0,0.0,0,0,84,84,81,,,,,284.82681390002836,285.47745649999706,285.47745649999706,285.9618563000113,45,45,285.9618563000113,285.9618563000113,285.9618563000113,285.9618563000113,285.9618563000113,285.9618563000113,285.9618563000113,285.9618563000113,285.9618563000113,286.32844910002314,286.32844910002314,286.32844910002314,286.32844910002314,286.32844910002314,286.32844910002314,286.32844910002314,286.32844910002314,286.32844910002314,23,0,,,286.32844910002314,286.52849520003656,0.0,286.52849520003656,1,0.0,0,0,1000,num_4,0.6199018000042997,,22,3,2026-03-04_10h33.45.049,2026A_exp2,2022.2.4,59.94362900772439,
1,0,0.0,0.0,0,0,85,85,38,,,,,287.1792161000194,287.82998590002535,287.82998590002535,288.3144374000258,45,45,288.3144374000258,288.3144374000258,288.3144374000258,288.3144374000258,288.3144374000258,288.3144374000258,288.3144374000258,288.3144374000258,288.3144374000258,288.6808223000262,288.6808223000262,288.6808223000262,288.6808223000262,288.6808223000262,288.6808223000262,288.6808223000262,288.6808223000262,288.6808223000262,23,0,,,288.6808223000262,288.88103799999226,0.0,288.88103799999226,1,0.0,0,0,1000,num_4,0.5309885999886319,,22,3,2026-03-04_10h33.45.049,2026A_exp2,2022.2.4,59.94362900772439,
1000,1,0.0,0.0,1,0,86,86,29,,,,,289.43149250000715,290.0823251000256,290.0823251000256,290.5664709000266,45,45,290.5664709000266,290.5664709000266,290.5664709000266,290.5664709000266,290.5664709000266,290.5664709000266,290.5664709000266,290.5664709000266,290.5664709000266,290.93301360000623,290.93301360000623,290.93301360000623,290.93301360000623,290.93301360000623,290.93301360000623,290.93301360000623,290.93301360000623,290.93301360000623,1,2,"[0.001229399989824742, 0.3337154000182636]","[0.31707469996763393, 0.3671382999746129]",290.93301360000623,291.1349861000199,1000,291.1349861000199,1000,1000,1000,1000,1,num_2,0.709819299983792,,22,3,2026-03-04_10h33.45.049,2026A_exp2,2022.2.4,59.94362900772439,
1,0,0.0,0.0,0,0,87,87,64,,,,,291.8671520000207,292.51784059999045,292.51784059999045,293.01893860002747,315,315,293.01893860002747,293.01893860002747,293.01893860002747,293.01893860002747,293.01893860002747,293.01893860002747,293.01893860002747,293.01893860002747,293.01893860002747,293.3687615999952,293.3687615999952,293.3687615999952,293.3687615999952,293.3687615999952,293.3687615999952,293.3687615999952,293.3687615999952,293.3687615999952,0,1,[0.0012315000058151782],[0.35074840002926067],293.3687615999952,293.5691269999952,0.0,293.5856003999943,1,0.0,0,0,1000,num_4,0.8826784000266343,,22,3,2026-03-04_10h33.45.049,2026A_exp2,2022.2.4,59.94362900772439,
1000,1,6.1,3.7,1,0,88,88,10,,,,,294.4864787000115,295.13728710002033,295.13728710002033,295.6217064000084,315,45,295.6217064000084,295.6217064000084,295.6217064000084,295.6217064000084,295.6217064000084,295.6217064000084,295.6217064000084,295.6217064000084,295.6217064000084,295.98809490003623,295.98809490003623,295.98809490003623,295.98809490003623,295.98809490003623,295.98809490003623,295.98809490003623,295.98809490003623,295.98809490003623,23,0,,,295.98809490003623,296.1902469000197,1000,296.1902469000197,1000,1000,1000,1000,0,num_3,0.6304357000044547,,22,3,2026-03-04_10h33.45.049,2026A_exp2,2022.2.4,59.94362900772439,
0,0,0.0,0.0,1,0,89,89,62,,,,,296.83892950002337,297.48962060001213,297.48962060001213,297.990615000017,315,45,297.990615000017,297.990615000017,297.990615000017,297.990615000017,297.990615000017,297.990615000017,297.990615000017,297.990615000017,297.990615000017,298.3569629000267,298.3569629000267,298.3569629000267,298.3569629000267,298.3569629000267,298.3569629000267,298.3569629000267,298.3569629000267,298.3569629000267,0,1,[0.001265500031877309],[0.36754669999936596],298.3569629000267,298.5572274000151,0.0,298.5572274000151,1,0.0,0,0,1000,num_4,0.6625666999607347,,22,3,2026-03-04_10h33.45.049,2026A_exp2,2022.2.4,59.94362900772439,
,,,,,,,,,,,,,,,,,,,,,,,,,,,,,,,,,,,,,,,,,,,,,,,,,,,,299.2509311999893,,,,,,,
