validity,detectorcomp,contrastCW,contrastCCW,precueCWorCCW,block_80trials.thisRepN,block_80trials.thisTrialN,block_80trials.thisN,block_80trials.thisIndex,etRecord.started,etRecord.stopped,text.started,text.stopped,text_4.started,text_4.stopped,text_6.started,text_6.stopped,oriCW,oriCCW,roi_2.started,grating_UR.started,grating_UL.started,grating_LR.started,grating_LL.started,noise_UR.started,noise_UL.started,noise_LR.started,noise_LL.started,roi_2.stopped,grating_UR.stopped,grating_UL.stopped,grating_LR.stopped,grating_LL.stopped,noise_UR.stopped,noise_UL.stopped,noise_LR.stopped,noise_LL.stopped,outframe,roi_2.numLooks,roi_2.timesOn,roi_2.timesOff,text_2.started,text_2.stopped,probedcontrast,key_resp.started,respdetect,relevantContrast,correctDetect,TorFdetect,respCWorCCW,key_resp.keys,key_resp.rt,feedback_display_.started,participantNo,blockNo,date,expName,psychopyVersion,frameRate,
1000,1,0.0,6.1,1,0,0,0,3,7.919996278360486e-05,7.919996278360486e-05,50.43085379997501,52.437284699990414,52.437284699990414,53.0682995999814,53.0682995999814,53.59703120001359,45,315,53.59703120001359,53.59703120001359,53.59703120001359,53.59703120001359,53.59703120001359,53.59703120001359,53.59703120001359,53.59703120001359,53.59703120001359,53.93523499998264,53.93523499998264,53.93523499998264,53.93523499998264,53.93523499998264,53.93523499998264,53.93523499998264,53.93523499998264,53.93523499998264,0,1,[0.0011243000044487417],[0.3643171999719925],53.93523499998264,54.137542099982966,1000,54.137542099982966,1000,1000,1000,1000,1,num_2,0.4948166000540368,,27,9,2026-03-05_13h50.33.203,2026A_exp2,2022.2.4,59.98512368778086,
1000,1,6.1,4.9,0,0,1,1,49,,,,,54.653150199970696,55.30325539998012,55.30325539998012,55.787520200014114,315,45,55.787520200014114,55.787520200014114,55.787520200014114,55.787520200014114,55.787520200014114,55.787520200014114,55.787520200014114,55.787520200014114,55.787520200014114,56.15387899999041,56.15387899999041,56.15387899999041,56.15387899999041,56.15387899999041,56.15387899999041,56.15387899999041,56.15387899999041,56.15387899999041,23,0,,,56.15387899999041,56.354267599992454,1000,56.354267599992454,1000,1000,1000,1000,0,num_3,0.46178729995153844,,27,9,2026-03-05_13h50.33.203,2026A_exp2,2022.2.4,59.98512368778086,
1000,1,3.7,4.9,0,0,2,2,64,,,,,56.838075699983165,57.48882440000307,57.48882440000307,57.97316779999528,45,315,57.97316779999528,57.97316779999528,57.97316779999528,57.97316779999528,57.97316779999528,57.97316779999528,57.97316779999528,57.97316779999528,57.97316779999528,58.33962089999113,58.33962089999113,58.33962089999113,58.33962089999113,58.33962089999113,58.33962089999113,58.33962089999113,58.33962089999113,58.33962089999113,0,1,[0.0007259999983943999],[0.3676998000009917],58.33962089999113,58.53986040002201,1000,58.53986040002201,1000,1000,1000,1000,1,num_2,0.3641871999716386,,27,9,2026-03-05_13h50.33.203,2026A_exp2,2022.2.4,59.98512368778086,
1000,1,0.0,4.9,0,0,3,3,74,,,,,58.923630099976435,59.57433620002121,59.57433620002121,60.05860940000275,315,45,60.05860940000275,60.05860940000275,60.05860940000275,60.05860940000275,60.05860940000275,60.05860940000275,60.05860940000275,60.05860940000275,60.05860940000275,60.425445800006855,60.425445800006855,60.425445800006855,60.425445800006855,60.425445800006855,60.425445800006855,60.425445800006855,60.425445800006855,60.425445800006855,12,2,"[0.11678439995739609, 0.21682079997844994]","[0.13354559999424964, 0.3676407999591902]",60.425445800006855,60.62557019997621,1000,60.62557019997621,1000,1000,1000,1000,1,num_2,0.3901637999806553,,27,9,2026-03-05_13h50.33.203,2026A_exp2,2022.2.4,59.98512368778086,
1,0,0.0,0.0,1,0,4,4,24,,,,,61.04227999999421,61.69344679999631,61.69344679999631,62.17773719999241,315,315,62.17773719999241,62.17773719999241,62.17773719999241,62.17773719999241,62.17773719999241,62.17773719999241,62.17773719999241,62.17773719999241,62.17773719999241,62.54376630001934,62.54376630001934,62.54376630001934,62.54376630001934,62.54376630001934,62.54376630001934,62.54376630001934,62.54376630001934,62.54376630001934,23,0,,,62.54376630001934,62.74422619998222,0.0,62.74422619998222,0,0.0,0,1,1000,num_1,0.6554838999873027,,27,9,2026-03-05_13h50.33.203,2026A_exp2,2022.2.4,59.98512368778086,
1,0,0.0,6.1,0,0,5,5,43,,,,,63.42801989999134,64.06196790002286,64.06196790002286,64.5632308999775,315,315,64.5632308999775,64.5632308999775,64.5632308999775,64.5632308999775,64.5632308999775,64.5632308999775,64.5632308999775,64.5632308999775,64.5632308999775,64.92942010000115,64.92942010000115,64.92942010000115,64.92942010000115,64.92942010000115,64.92942010000115,64.92942010000115,64.92942010000115,64.92942010000115,20,2,"[0.05019769998034462, 0.3507910000043921]","[0.06728939997265115, 0.36759359994903207]",64.92942010000115,65.1300180000253,0.0,65.1300180000253,0,0.0,0,1,1000,num_1,0.8781575000029989,,27,9,2026-03-05_13h50.33.203,2026A_exp2,2022.2.4,59.98512368778086,
1000,1,0.0,6.1,0,0,6,6,58,,,,,66.03059759997996,66.66455530002713,66.66455530002713,67.16584219998913,45,315,67.16584219998913,67.16584219998913,67.16584219998913,67.16584219998913,67.16584219998913,67.16584219998913,67.16584219998913,67.16584219998913,67.16584219998913,67.53218069998547,67.53218069998547,67.53218069998547,67.53218069998547,67.53218069998547,67.53218069998547,67.53218069998547,67.53218069998547,67.53218069998547,23,0,,,67.53218069998547,67.73258630000055,1000,67.73258630000055,1000,1000,1000,1000,1,num_2,0.40363000001525506,,27,9,2026-03-05_13h50.33.203,2026A_exp2,2022.2.4,59.98512368778086,
1000,1,0.0,6.1,1,0,7,7,52,,,,,68.16628090001177,68.80018119997112,68.80018119997112,69.3016630000202,315,315,69.3016630000202,69.3016630000202,69.3016630000202,69.3016630000202,69.3016630000202,69.3016630000202,69.3016630000202,69.3016630000202,69.3016630000202,69.66774220002117,69.66774220002117,69.66774220002117,69.66774220002117,69.66774220002117,69.66774220002117,69.66774220002117,69.66774220002117,69.66774220002117,23,0,,,69.66774220002117,69.86808899999596,1000,69.86808899999596,1000,1000,1000,1000,1,num_2,0.3319797000149265,,27,9,2026-03-05_13h50.33.203,2026A_exp2,2022.2.4,59.98512368778086,
1,0,0.0,3.7,0,0,8,8,61,,,,,70.21821379999164,70.85229110001819,70.85229110001819,71.3533164000255,45,315,71.3533164000255,71.3533164000255,71.3533164000255,71.3533164000255,71.3533164000255,71.3533164000255,71.3533164000255,71.3533164000255,71.3533164000255,71.7200964000076,71.7200964000076,71.7200964000076,71.7200964000076,71.7200964000076,71.7200964000076,71.7200964000076,71.7200964000076,71.7200964000076,23,0,,,71.7200964000076,71.9198237999808,0.0,71.9198237999808,0,0.0,0,1,1000,num_1,0.6879940999788232,,27,9,2026-03-05_13h50.33.203,2026A_exp2,2022.2.4,59.98512368778086,
1000,1,0.0,0.0,0,0,9,9,72,,,,,72.63757010002155,73.2877755999798,73.2877755999798,73.77284119999968,45,45,73.77284119999968,73.77284119999968,73.77284119999968,73.77284119999968,73.77284119999968,73.77284119999968,73.77284119999968,73.77284119999968,73.77284119999968,74.13935389998369,74.13935389998369,74.13935389998369,74.13935389998369,74.13935389998369,74.13935389998369,74.13935389998369,74.13935389998369,74.13935389998369,23,0,,,74.13935389998369,74.3388398999814,1000,74.3388398999814,1000,1000,1000,1000,0,num_3,0.50888679997297,,27,9,2026-03-05_13h50.33.203,2026A_exp2,2022.2.4,59.98512368778086,
1,0,0.0,3.7,1,0,10,10,0,,,,,74.87424109998392,75.52352049999172,75.52352049999172,76.02446320001036,315,45,76.02446320001036,76.02446320001036,76.02446320001036,76.02446320001036,76.02446320001036,76.02446320001036,76.02446320001036,76.02446320001036,76.02446320001036,76.37415980000515,76.37415980000515,76.37415980000515,76.37415980000515,76.37415980000515,76.37415980000515,76.37415980000515,76.37415980000515,76.37415980000515,22,0,,,76.37415980000515,76.57439219998196,3.7,76.59098540002014,1,3.7,1,1,1000,num_4,0.5925723999971524,,27,9,2026-03-05_13h50.33.203,2026A_exp2,2022.2.4,59.98512368778086,
1000,1,0.0,3.7,1,0,11,11,65,,,,,77.2088862999808,77.84315490000881,77.84315490000881,78.34359230002156,315,45,78.34359230002156,78.34359230002156,78.34359230002156,78.34359230002156,78.34359230002156,78.34359230002156,78.34359230002156,78.34359230002156,78.34359230002156,78.70992970000952,78.70992970000952,78.70992970000952,78.70992970000952,78.70992970000952,78.70992970000952,78.70992970000952,78.70992970000952,78.70992970000952,23,0,,,78.70992970000952,78.91098929999862,1000,78.91098929999862,1000,1000,1000,1000,1,num_2,1.041073200001847,,27,9,2026-03-05_13h50.33.203,2026A_exp2,2022.2.4,59.98512368778086,
1000,1,0.0,6.1,0,0,12,12,85,,,,,79.97811219998403,80.62895819998812,80.62895819998812,81.1304586000042,45,315,81.1304586000042,81.1304586000042,81.1304586000042,81.1304586000042,81.1304586000042,81.1304586000042,81.1304586000042,81.1304586000042,81.1304586000042,81.49643350002589,81.49643350002589,81.49643350002589,81.49643350002589,81.49643350002589,81.49643350002589,81.49643350002589,81.49643350002589,81.49643350002589,23,0,,,81.49643350002589,81.69910720002372,1000,81.69910720002372,1000,1000,1000,1000,1,num_2,0.38960039999801666,,27,9,2026-03-05_13h50.33.203,2026A_exp2,2022.2.4,59.98512368778086,
1,0,3.7,0.0,1,0,13,13,12,,,,,82.11361439997563,82.7643518000259,82.7643518000259,83.26543309999397,315,315,83.26543309999397,83.26543309999397,83.26543309999397,83.26543309999397,83.26543309999397,83.26543309999397,83.26543309999397,83.26543309999397,83.26543309999397,83.63182000000961,83.63182000000961,83.63182000000961,83.63182000000961,83.63182000000961,83.63182000000961,83.63182000000961,83.63182000000961,83.63182000000961,23,0,,,83.63182000000961,83.83204750000732,0.0,83.83204750000732,0,0.0,0,1,1000,num_1,0.5281888000317849,,27,9,2026-03-05_13h50.33.203,2026A_exp2,2022.2.4,59.98512368778086,
1,0,4.9,3.7,1,0,14,14,10,,,,,84.38284099998418,85.01659820001805,85.01659820001805,85.51760409999406,315,45,85.51760409999406,85.51760409999406,85.51760409999406,85.51760409999406,85.51760409999406,85.51760409999406,85.51760409999406,85.51760409999406,85.51760409999406,85.88412770000286,85.88412770000286,85.88412770000286,85.88412770000286,85.88412770000286,85.88412770000286,85.88412770000286,85.88412770000286,85.88412770000286,0,1,[0.0012165000080130994],[0.3672297999728471],85.88412770000286,86.08413279999513,3.7,86.08413279999513,0,3.7,1,0,1000,num_1,0.47620749997440726,,27,9,2026-03-05_13h50.33.203,2026A_exp2,2022.2.4,59.98512368778086,
1000,1,0.0,6.1,1,0,15,15,62,,,,,86.58500720001757,87.24524999997811,87.24524999997811,87.71979200001806,45,315,87.71979200001806,87.71979200001806,87.71979200001806,87.71979200001806,87.71979200001806,87.71979200001806,87.71979200001806,87.71979200001806,87.71979200001806,88.08625579997897,88.08625579997897,88.08625579997897,88.08625579997897,88.08625579997897,88.08625579997897,88.08625579997897,88.08625579997897,88.08625579997897,23,0,,,88.08625579997897,88.28786789998412,1000,88.28786789998412,1000,1000,1000,1000,1,num_2,0.39997470000525936,,27,9,2026-03-05_13h50.33.203,2026A_exp2,2022.2.4,59.98512368778086,
0,0,0.0,3.7,0,0,16,16,47,,,,,88.70354680001037,89.3541622000048,89.3541622000048,89.85529470001347,45,45,89.85529470001347,89.85529470001347,89.85529470001347,89.85529470001347,89.85529470001347,89.85529470001347,89.85529470001347,89.85529470001347,89.85529470001347,90.2218132999842,90.2218132999842,90.2218132999842,90.2218132999842,90.2218132999842,90.2218132999842,90.2218132999842,90.2218132999842,90.2218132999842,1,2,"[0.001215800002682954, 0.35062140005175024]","[0.33407920005265623, 0.36726810003165156]",90.2218132999842,90.42193529999349,3.7,90.42193529999349,1,3.7,1,1,1000,num_4,0.6266321999719366,,27,9,2026-03-05_13h50.33.203,2026A_exp2,2022.2.4,59.98512368778086,
0,0,6.1,0.0,1,0,17,17,30,,,,,91.07255809998605,91.7231498999754,91.7231498999754,92.22836629999802,315,45,92.22836629999802,92.22836629999802,92.22836629999802,92.22836629999802,92.22836629999802,92.22836629999802,92.22836629999802,92.22836629999802,92.22836629999802,92.59080170001835,92.59080170001835,92.59080170001835,92.59080170001835,92.59080170001835,92.59080170001835,92.59080170001835,92.59080170001835,92.59080170001835,5,1,[0.08366810000734404],[0.3670290000154637],92.59080170001835,92.79110959998798,6.1,92.79110959998798,0,6.1,1,0,1000,num_1,0.46536460000788793,,27,9,2026-03-05_13h50.33.203,2026A_exp2,2022.2.4,59.98512368778086,
1000,1,3.7,0.0,1,0,18,18,88,,,,,93.27466549997916,93.9253567000269,93.9253567000269,94.41009949997533,315,315,94.41009949997533,94.41009949997533,94.41009949997533,94.41009949997533,94.41009949997533,94.41009949997533,94.41009949997533,94.41009949997533,94.41009949997533,94.77616030001082,94.77616030001082,94.77616030001082,94.77616030001082,94.77616030001082,94.77616030001082,94.77616030001082,94.77616030001082,94.77616030001082,23,0,,,94.77616030001082,94.97847670002375,1000,94.97847670002375,1000,1000,1000,1000,0,num_3,0.5977170999976806,,27,9,2026-03-05_13h50.33.203,2026A_exp2,2022.2.4,59.98512368778086,
1,0,3.7,0.0,1,0,19,19,13,,,,,95.5936394999735,96.24454949999927,96.24454949999927,96.74555539997527,315,45,96.74555539997527,96.74555539997527,96.74555539997527,96.74555539997527,96.74555539997527,96.74555539997527,96.74555539997527,96.74555539997527,96.74555539997527,97.09537090000231,97.09537090000231,97.09537090000231,97.09537090000231,97.09537090000231,97.09537090000231,97.09537090000231,97.09537090000231,97.09537090000231,22,0,,,97.09537090000231,97.29551010002615,0.0,97.29551010002615,0,0.0,0,1,1000,num_1,0.7121477000182495,,27,9,2026-03-05_13h50.33.203,2026A_exp2,2022.2.4,59.98512368778086,
1,0,4.9,4.9,0,0,20,20,39,,,,,98.02950389997568,98.68023960001301,98.68023960001301,99.16470470000058,315,45,99.16470470000058,99.16470470000058,99.16470470000058,99.16470470000058,99.16470470000058,99.16470470000058,99.16470470000058,99.16470470000058,99.16470470000058,99.53111480001826,99.53111480001826,99.53111480001826,99.53111480001826,99.53111480001826,99.53111480001826,99.53111480001826,99.53111480001826,99.53111480001826,23,0,,,99.53111480001826,99.73118790000444,4.9,99.73118790000444,1,4.9,1,1,1000,num_4,0.7733541000052355,,27,9,2026-03-05_13h50.33.203,2026A_exp2,2022.2.4,59.98512368778086,
1000,1,0.0,0.0,0,0,21,21,45,,,,,100.53189669997664,101.18275739997625,101.18275739997625,101.6670697000227,45,315,101.6670697000227,101.6670697000227,101.6670697000227,101.6670697000227,101.6670697000227,101.6670697000227,101.6670697000227,101.6670697000227,101.6670697000227,102.03362240002025,102.03362240002025,102.03362240002025,102.03362240002025,102.03362240002025,102.03362240002025,102.03362240002025,102.03362240002025,102.03362240002025,23,0,,,102.03362240002025,102.23581909999484,1000,102.23581909999484,1000,1000,1000,1000,0,num_3,0.5250908999587409,,27,9,2026-03-05_13h50.33.203,2026A_exp2,2022.2.4,59.98512368778086,
1,0,4.9,3.7,0,0,22,22,63,,,,,102.78430639998987,103.43491329997778,103.43491329997778,103.93596009997418,45,45,103.93596009997418,103.93596009997418,103.93596009997418,103.93596009997418,103.93596009997418,103.93596009997418,103.93596009997418,103.93596009997418,103.93596009997418,104.28581400000257,104.28581400000257,104.28581400000257,104.28581400000257,104.28581400000257,104.28581400000257,104.28581400000257,104.28581400000257,104.28581400000257,22,0,,,104.28581400000257,104.48587500001304,4.9,104.50250339997001,1,4.9,1,1,1000,num_4,0.753779000020586,,27,9,2026-03-05_13h50.33.203,2026A_exp2,2022.2.4,59.98512368778086,
1,0,0.0,0.0,1,0,23,23,41,,,,,105.28681899997173,105.93743869999889,105.93743869999889,106.42188259999966,45,45,106.42188259999966,106.42188259999966,106.42188259999966,106.42188259999966,106.42188259999966,106.42188259999966,106.42188259999966,106.42188259999966,106.42188259999966,106.78824670001632,106.78824670001632,106.78824670001632,106.78824670001632,106.78824670001632,106.78824670001632,106.78824670001632,106.78824670001632,106.78824670001632,23,0,,,106.78824670001632,106.98855090001598,0.0,106.98855090001598,0,0.0,0,1,1000,num_1,0.48407519998727366,,27,9,2026-03-05_13h50.33.203,2026A_exp2,2022.2.4,59.98512368778086,
1000,1,0.0,0.0,1,0,24,24,16,,,,,107.48887599998852,108.13978199998382,108.13978199998382,108.62401059997501,315,315,108.62401059997501,108.62401059997501,108.62401059997501,108.62401059997501,108.62401059997501,108.62401059997501,108.62401059997501,108.62401059997501,108.62401059997501,108.99051989999134,108.99051989999134,108.99051989999134,108.99051989999134,108.99051989999134,108.99051989999134,108.99051989999134,108.99051989999134,108.99051989999134,12,3,"[0.15020899998489767, 0.20033399999374524, 0.28376140003092587]","[0.1837031000177376, 0.2668870000052266, 0.367182900023181]",108.99051989999134,109.19292140001198,1000,109.19292140001198,1000,1000,1000,1000,0,num_3,0.5508549999794923,,27,9,2026-03-05_13h50.33.203,2026A_exp2,2022.2.4,59.98512368778086,
1000,1,0.0,4.9,0,0,25,25,53,,,,,109.77456900000107,110.42530290002469,110.42530290002469,110.92657860001782,315,315,110.92657860001782,110.92657860001782,110.92657860001782,110.92657860001782,110.92657860001782,110.92657860001782,110.92657860001782,110.92657860001782,110.92657860001782,111.29265710001346,111.29265710001346,111.29265710001346,111.29265710001346,111.29265710001346,111.29265710001346,111.29265710001346,111.29265710001346,111.29265710001346,22,1,[0.2506643999950029],[0.26736160001019016],111.29265710001346,111.4948515999713,1000,111.4948515999713,1000,1000,1000,1000,1,num_2,0.4012176000396721,,27,9,2026-03-05_13h50.33.203,2026A_exp2,2022.2.4,59.98512368778086,
1000,1,0.0,0.0,0,0,26,26,6,,,,,111.92690530000255,112.57728730002418,112.57728730002418,113.07862360001309,315,315,113.07862360001309,113.07862360001309,113.07862360001309,113.07862360001309,113.07862360001309,113.07862360001309,113.07862360001309,113.07862360001309,113.07862360001309,113.44492769998033,113.44492769998033,113.44492769998033,113.44492769998033,113.44492769998033,113.44492769998033,113.44492769998033,113.44492769998033,113.44492769998033,23,0,,,113.44492769998033,113.64727820002008,1000,113.64727820002008,1000,1000,1000,1000,0,num_3,0.41630520002217963,,27,9,2026-03-05_13h50.33.203,2026A_exp2,2022.2.4,59.98512368778086,
0,0,4.9,4.9,1,0,27,27,48,,,,,114.07879499997944,114.72959629999241,114.72959629999241,115.23061989998678,315,315,115.23061989998678,115.23061989998678,115.23061989998678,115.23061989998678,115.23061989998678,115.23061989998678,115.23061989998678,115.23061989998678,115.23061989998678,115.5975212000194,115.5975212000194,115.5975212000194,115.5975212000194,115.5975212000194,115.5975212000194,115.5975212000194,115.5975212000194,115.5975212000194,23,0,,,115.5975212000194,115.79751020000549,4.9,115.79751020000549,0,4.9,1,0,1000,num_1,0.6914471000200137,,27,9,2026-03-05_13h50.33.203,2026A_exp2,2022.2.4,59.98512368778086,
1000,1,0.0,0.0,1,0,28,28,23,,,,,116.51487409998663,117.16543250001268,117.16543250001268,117.64984369999729,315,315,117.64984369999729,117.64984369999729,117.64984369999729,117.64984369999729,117.64984369999729,117.64984369999729,117.64984369999729,117.64984369999729,117.64984369999729,118.016295599984,118.016295599984,118.016295599984,118.016295599984,118.016295599984,118.016295599984,118.016295599984,118.016295599984,118.016295599984,23,0,,,118.016295599984,118.21802109997952,1000,118.21802109997952,1000,1000,1000,1000,0,num_3,0.5022782000014558,,27,9,2026-03-05_13h50.33.203,2026A_exp2,2022.2.4,59.98512368778086,
1000,1,0.0,6.1,1,0,29,29,19,,,,,118.75029940000968,119.40082899999106,119.40082899999106,119.90210529998876,45,45,119.90210529998876,119.90210529998876,119.90210529998876,119.90210529998876,119.90210529998876,119.90210529998876,119.90210529998876,119.90210529998876,119.90210529998876,120.26848740002606,120.26848740002606,120.26848740002606,120.26848740002606,120.26848740002606,120.26848740002606,120.26848740002606,120.26848740002606,120.26848740002606,23,0,,,120.26848740002606,120.47080489998916,1000,120.47080489998916,1000,1000,1000,1000,1,num_2,0.8335590999922715,,27,9,2026-03-05_13h50.33.203,2026A_exp2,2022.2.4,59.98512368778086,
1,0,3.7,0.0,1,0,30,30,11,,,,,121.31954380002571,121.97010129998671,121.97010129998671,122.47135750000598,45,315,122.47135750000598,122.47135750000598,122.47135750000598,122.47135750000598,122.47135750000598,122.47135750000598,122.47135750000598,122.47135750000598,122.47135750000598,122.83772229996976,122.83772229996976,122.83772229996976,122.83772229996976,122.83772229996976,122.83772229996976,122.83772229996976,122.83772229996976,122.83772229996976,23,0,,,122.83772229996976,123.03782329999376,0.0,123.03782329999376,0,0.0,0,1,1000,num_1,0.523211799969431,,27,9,2026-03-05_13h50.33.203,2026A_exp2,2022.2.4,59.98512368778086,
1,0,4.9,3.7,0,0,31,31,9,,,,,123.58855729998322,124.23016560001997,124.23016560001997,124.72343620000174,315,45,124.72343620000174,124.72343620000174,124.72343620000174,124.72343620000174,124.72343620000174,124.72343620000174,124.72343620000174,124.72343620000174,124.72343620000174,125.08990389999235,125.08990389999235,125.08990389999235,125.08990389999235,125.08990389999235,125.08990389999235,125.08990389999235,125.08990389999235,125.08990389999235,23,0,,,125.08990389999235,125.2901004999876,4.9,125.2901004999876,1,4.9,1,1,1000,num_4,0.4946360999601893,,27,9,2026-03-05_13h50.33.203,2026A_exp2,2022.2.4,59.98512368778086,
1,0,0.0,0.0,0,0,32,32,44,,,,,125.80716670001857,126.45805850002216,126.45805850002216,126.94243390002521,315,315,126.94243390002521,126.94243390002521,126.94243390002521,126.94243390002521,126.94243390002521,126.94243390002521,126.94243390002521,126.94243390002521,126.94243390002521,127.30888949998189,127.30888949998189,127.30888949998189,127.30888949998189,127.30888949998189,127.30888949998189,127.30888949998189,127.30888949998189,127.30888949998189,18,3,"[0.1669036999810487, 0.21702149999327958, 0.3333278999780305]","[0.20021709997672588, 0.23371669999323785, 0.3667319000232965]",127.30888949998189,127.50911460001953,0.0,127.50911460001953,1,0.0,0,0,1000,num_4,0.5070942000020295,,27,9,2026-03-05_13h50.33.203,2026A_exp2,2022.2.4,59.98512368778086,
1,0,0.0,0.0,0,0,33,33,34,,,,,128.0429668999859,128.6768213000032,128.6768213000032,129.17787479999242,45,315,129.17787479999242,129.17787479999242,129.17787479999242,129.17787479999242,129.17787479999242,129.17787479999242,129.17787479999242,129.17787479999242,129.17787479999242,129.54443150002044,129.54443150002044,129.54443150002044,129.54443150002044,129.54443150002044,129.54443150002044,129.54443150002044,129.54443150002044,129.54443150002044,10,9,"[0.001220200036186725, 0.033683500019833446, 0.06698260002303869, 0.10034160001669079, 0.13370820001000538, 0.2003530000220053, 0.2671087000053376, 0.30054950003977865, 0.3675986000453122]","[0.017274600046221167, 0.05021630000555888, 0.08369630004744977, 0.1170581000042148, 0.16716240003006533, 0.25043410004582256, 0.28393590002087876, 0.33375280001200736, 0.3676034000236541]",129.54443150002044,129.74463370000012,0.0,129.74463370000012,1,0.0,0,0,1000,num_4,0.4631625999463722,,27,9,2026-03-05_13h50.33.203,2026A_exp2,2022.2.4,59.98512368778086,
1000,1,0.0,0.0,1,0,34,34,60,,,,,130.22824879997643,130.87921530002495,130.87921530002495,131.3634132000152,315,45,131.3634132000152,131.3634132000152,131.3634132000152,131.3634132000152,131.3634132000152,131.3634132000152,131.3634132000152,131.3634132000152,131.3634132000152,131.72990689997096,131.72990689997096,131.72990689997096,131.72990689997096,131.72990689997096,131.72990689997096,131.72990689997096,131.72990689997096,131.72990689997096,23,0,,,131.72990689997096,131.93233049998526,1000,131.93233049998526,1000,1000,1000,1000,0,num_3,0.5718974000192247,,27,9,2026-03-05_13h50.33.203,2026A_exp2,2022.2.4,59.98512368778086,
1,0,6.1,3.7,0,0,35,35,31,,,,,132.53074750001542,133.1814219999942,133.1814219999942,133.66582769999513,45,45,133.66582769999513,133.66582769999513,133.66582769999513,133.66582769999513,133.66582769999513,133.66582769999513,133.66582769999513,133.66582769999513,133.66582769999513,134.03213960002176,134.03213960002176,134.03213960002176,134.03213960002176,134.03213960002176,134.03213960002176,134.03213960002176,134.03213960002176,134.03213960002176,3,2,"[0.033575400011613965, 0.1502852999838069]","[0.11705900001106784, 0.36716229998273775]",134.03213960002176,134.23225459997775,6.1,134.23225459997775,1,6.1,1,1,1000,num_4,0.6400880999863148,,27,9,2026-03-05_13h50.33.203,2026A_exp2,2022.2.4,59.98512368778086,
1,0,0.0,0.0,1,0,36,36,21,,,,,134.89974259998417,135.55044469999848,135.55044469999848,136.0348946999875,45,45,136.0348946999875,136.0348946999875,136.0348946999875,136.0348946999875,136.0348946999875,136.0348946999875,136.0348946999875,136.0348946999875,136.0348946999875,136.40132040000753,136.40132040000753,136.40132040000753,136.40132040000753,136.40132040000753,136.40132040000753,136.40132040000753,136.40132040000753,136.40132040000753,23,0,,,136.40132040000753,136.60142030002316,0.0,136.60142030002316,0,0.0,0,1,1000,num_1,0.5351121000130661,,27,9,2026-03-05_13h50.33.203,2026A_exp2,2022.2.4,59.98512368778086,
1000,1,0.0,0.0,0,0,37,37,7,,,,,137.1686936999904,137.81938619998982,137.81938619998982,138.30371810001088,315,315,138.30371810001088,138.30371810001088,138.30371810001088,138.30371810001088,138.30371810001088,138.30371810001088,138.30371810001088,138.30371810001088,138.30371810001088,138.6702506999718,138.6702506999718,138.6702506999718,138.6702506999718,138.6702506999718,138.6702506999718,138.6702506999718,138.6702506999718,138.6702506999718,23,0,,,138.6702506999718,138.87262949999422,1000,138.87262949999422,1000,1000,1000,1000,0,num_3,0.5189848000300117,,27,9,2026-03-05_13h50.33.203,2026A_exp2,2022.2.4,59.98512368778086,
1000,1,0.0,0.0,0,0,38,38,36,,,,,139.42090650001774,140.07166489999508,140.07166489999508,140.57279840001138,45,315,140.57279840001138,140.57279840001138,140.57279840001138,140.57279840001138,140.57279840001138,140.57279840001138,140.57279840001138,140.57279840001138,140.57279840001138,140.92250779998722,140.92250779998722,140.92250779998722,140.92250779998722,140.92250779998722,140.92250779998722,140.92250779998722,140.92250779998722,140.92250779998722,22,0,,,140.92250779998722,141.12262679997366,1000,141.13915280002402,1000,1000,1000,1000,0,num_3,0.42034219997003675,,27,9,2026-03-05_13h50.33.203,2026A_exp2,2022.2.4,59.98512368778086,
1,0,4.9,0.0,0,0,39,39,4,,,,,141.589521899994,142.24040120001882,142.24040120001882,142.74160880001727,315,315,142.74160880001727,142.74160880001727,142.74160880001727,142.74160880001727,142.74160880001727,142.74160880001727,142.74160880001727,142.74160880001727,142.74160880001727,143.0913329999894,143.0913329999894,143.0913329999894,143.0913329999894,143.0913329999894,143.0913329999894,143.0913329999894,143.0913329999894,143.0913329999894,0,1,[0.0012457999982871115],[0.35051000001840293],143.0913329999894,143.29146460001357,4.9,143.29146460001357,1,4.9,1,1,1000,num_4,0.7328726000268944,,27,9,2026-03-05_13h50.33.203,2026A_exp2,2022.2.4,59.98512368778086,
1,0,4.9,6.1,0,0,40,40,33,,,,,144.04210479999892,144.6929189999937,144.6929189999937,145.17735130002256,45,315,145.17735130002256,145.17735130002256,145.17735130002256,145.17735130002256,145.17735130002256,145.17735130002256,145.17735130002256,145.17735130002256,145.17735130002256,145.54376440000487,145.54376440000487,145.54376440000487,145.54376440000487,145.54376440000487,145.54376440000487,145.54376440000487,145.54376440000487,145.54376440000487,23,0,,,145.54376440000487,145.7440069000004,4.9,145.7440069000004,0,4.9,1,0,1000,num_1,0.607679599954281,,27,9,2026-03-05_13h50.33.203,2026A_exp2,2022.2.4,59.98512368778086,
1000,1,0.0,0.0,1,0,41,41,40,,,,,146.37783010001294,147.02849270001752,147.02849270001752,147.5128550999798,315,45,147.5128550999798,147.5128550999798,147.5128550999798,147.5128550999798,147.5128550999798,147.5128550999798,147.5128550999798,147.5128550999798,147.5128550999798,147.87951950001298,147.87951950001298,147.87951950001298,147.87951950001298,147.87951950001298,147.87951950001298,147.87951950001298,147.87951950001298,147.87951950001298,23,0,,,147.87951950001298,148.0817800000077,1000,148.0817800000077,1000,1000,1000,1000,1,num_2,0.47796559997368604,,27,9,2026-03-05_13h50.33.203,2026A_exp2,2022.2.4,59.98512368778086,
0,0,0.0,0.0,0,0,42,42,70,,,,,148.58001099998364,149.23645710002165,149.23645710002165,149.73193359997822,45,45,149.73193359997822,149.73193359997822,149.73193359997822,149.73193359997822,149.73193359997822,149.73193359997822,149.73193359997822,149.73193359997822,149.73193359997822,150.09830339998007,150.09830339998007,150.09830339998007,150.09830339998007,150.09830339998007,150.09830339998007,150.09830339998007,150.09830339998007,150.09830339998007,23,0,,,150.09830339998007,150.2985375999706,0.0,150.2985375999706,0,0.0,0,1,1000,num_1,0.5012268000282347,,27,9,2026-03-05_13h50.33.203,2026A_exp2,2022.2.4,59.98512368778086,
1,0,3.7,4.9,1,0,43,43,71,,,,,150.81557999999495,151.46649660001276,151.46649660001276,151.95079219999025,45,45,151.95079219999025,151.95079219999025,151.95079219999025,151.95079219999025,151.95079219999025,151.95079219999025,151.95079219999025,151.95079219999025,151.95079219999025,152.31718000001274,152.31718000001274,152.31718000001274,152.31718000001274,152.31718000001274,152.31718000001274,152.31718000001274,152.31718000001274,152.31718000001274,23,0,,,152.31718000001274,152.51726410002448,4.9,152.51726410002448,1,4.9,1,1,1000,num_4,0.4989571000332944,,27,9,2026-03-05_13h50.33.203,2026A_exp2,2022.2.4,59.98512368778086,
1000,1,3.7,0.0,0,0,44,44,66,,,,,153.03434299997753,153.6852117999806,153.6852117999806,154.16952330002096,315,315,154.16952330002096,154.16952330002096,154.16952330002096,154.16952330002096,154.16952330002096,154.16952330002096,154.16952330002096,154.16952330002096,154.16952330002096,154.5358570999815,154.5358570999815,154.5358570999815,154.5358570999815,154.5358570999815,154.5358570999815,154.5358570999815,154.5358570999815,154.5358570999815,23,0,,,154.5358570999815,154.73827729996992,1000,154.73827729996992,1000,1000,1000,1000,0,num_3,0.6544097999576479,,27,9,2026-03-05_13h50.33.203,2026A_exp2,2022.2.4,59.98512368778086,
0,0,0.0,4.9,0,0,45,45,14,,,,,155.4201836999855,156.07100130000617,156.07100130000617,156.5718667000183,315,45,156.5718667000183,156.5718667000183,156.5718667000183,156.5718667000183,156.5718667000183,156.5718667000183,156.5718667000183,156.5718667000183,156.5718667000183,156.93809190002503,156.93809190002503,156.93809190002503,156.93809190002503,156.93809190002503,156.93809190002503,156.93809190002503,156.93809190002503,156.93809190002503,23,0,,,156.93809190002503,157.13863729999866,4.9,157.13863729999866,1,4.9,1,1,1000,num_4,0.5179864999954589,,27,9,2026-03-05_13h50.33.203,2026A_exp2,2022.2.4,59.98512368778086,
1000,1,3.7,4.9,0,0,46,46,80,,,,,157.67251000000397,158.32318700000178,158.32318700000178,158.80753879999975,45,45,158.80753879999975,158.80753879999975,158.80753879999975,158.80753879999975,158.80753879999975,158.80753879999975,158.80753879999975,158.80753879999975,158.80753879999975,159.17398119997233,159.17398119997233,159.17398119997233,159.17398119997233,159.17398119997233,159.17398119997233,159.17398119997233,159.17398119997233,159.17398119997233,23,0,,,159.17398119997233,159.37794660002692,1000,159.37794660002692,1000,1000,1000,1000,1,num_2,0.44621740002185106,,27,9,2026-03-05_13h50.33.203,2026A_exp2,2022.2.4,59.98512368778086,
1,0,4.9,3.7,1,0,47,47,26,,,,,159.8412137000123,160.49206750001758,160.49206750001758,160.99324600002728,315,315,160.99324600002728,160.99324600002728,160.99324600002728,160.99324600002728,160.99324600002728,160.99324600002728,160.99324600002728,160.99324600002728,160.99324600002728,161.359360500006,161.359360500006,161.359360500006,161.359360500006,161.359360500006,161.359360500006,161.359360500006,161.359360500006,161.359360500006,23,0,,,161.359360500006,161.55976929998724,3.7,161.55976929998724,1,3.7,1,1,1000,num_4,0.5930892999749631,,27,9,2026-03-05_13h50.33.203,2026A_exp2,2022.2.4,59.98512368778086,
1000,1,0.0,3.7,0,0,48,48,57,,,,,162.17690339998808,162.8277302000206,162.8277302000206,163.312091699976,315,45,163.312091699976,163.312091699976,163.312091699976,163.312091699976,163.312091699976,163.312091699976,163.312091699976,163.312091699976,163.312091699976,163.6785571000073,163.6785571000073,163.6785571000073,163.6785571000073,163.6785571000073,163.6785571000073,163.6785571000073,163.6785571000073,163.6785571000073,23,0,,,163.6785571000073,163.8812260000268,1000,163.8812260000268,1000,1000,1000,1000,1,num_2,0.40774330002022907,,27,9,2026-03-05_13h50.33.203,2026A_exp2,2022.2.4,59.98512368778086,
1,0,0.0,6.1,0,0,49,49,82,,,,,164.31242149998434,164.9628037000075,164.9628037000075,165.46431289997417,315,45,165.46431289997417,165.46431289997417,165.46431289997417,165.46431289997417,165.46431289997417,165.46431289997417,165.46431289997417,165.46431289997417,165.46431289997417,165.81410870002583,165.81410870002583,165.81410870002583,165.81410870002583,165.81410870002583,165.81410870002583,165.81410870002583,165.81410870002583,165.81410870002583,22,0,,,165.81410870002583,166.01412900001742,0.0,166.03094949998194,0,0.0,0,1,1000,num_1,0.9127485000062734,,27,9,2026-03-05_13h50.33.203,2026A_exp2,2022.2.4,59.98512368778086,
1000,1,6.1,3.7,0,0,50,50,18,,,,,166.96534649998648,167.59916500002146,167.59916500002146,168.10031319997506,45,45,168.10031319997506,168.10031319997506,168.10031319997506,168.10031319997506,168.10031319997506,168.10031319997506,168.10031319997506,168.10031319997506,168.10031319997506,168.46653129998595,168.46653129998595,168.46653129998595,168.46653129998595,168.46653129998595,168.46653129998595,168.46653129998595,168.46653129998595,168.46653129998595,23,0,,,168.46653129998595,168.66841320000822,1000,168.66841320000822,1000,1000,1000,1000,0,num_3,0.4676369999651797,,27,9,2026-03-05_13h50.33.203,2026A_exp2,2022.2.4,59.98512368778086,
1000,1,0.0,0.0,0,0,51,51,67,,,,,169.16747260000557,169.81792820000555,169.81792820000555,170.31905260001076,45,45,170.31905260001076,170.31905260001076,170.31905260001076,170.31905260001076,170.31905260001076,170.31905260001076,170.31905260001076,170.31905260001076,170.31905260001076,170.6856112999958,170.6856112999958,170.6856112999958,170.6856112999958,170.6856112999958,170.6856112999958,170.6856112999958,170.6856112999958,170.6856112999958,23,0,,,170.6856112999958,170.88758570002392,1000,170.88758570002392,1000,1000,1000,1000,0,num_3,0.4725082000368275,,27,9,2026-03-05_13h50.33.203,2026A_exp2,2022.2.4,59.98512368778086,
1,0,0.0,0.0,0,0,52,52,17,,,,,171.3867423000047,172.03694899997208,172.03694899997208,172.5379321000073,315,315,172.5379321000073,172.5379321000073,172.5379321000073,172.5379321000073,172.5379321000073,172.5379321000073,172.5379321000073,172.5379321000073,172.5379321000073,172.88776249997318,172.88776249997318,172.88776249997318,172.88776249997318,172.88776249997318,172.88776249997318,172.88776249997318,172.88776249997318,172.88776249997318,22,0,,,172.88776249997318,173.0879681999795,0.0,173.10457730002236,1,0.0,0,0,1000,num_4,0.6072774999774992,,27,9,2026-03-05_13h50.33.203,2026A_exp2,2022.2.4,59.98512368778086,
1000,1,3.7,4.9,1,0,53,53,20,,,,,173.73844769998686,174.37263250001706,174.37263250001706,174.87380840000696,315,45,174.87380840000696,174.87380840000696,174.87380840000696,174.87380840000696,174.87380840000696,174.87380840000696,174.87380840000696,174.87380840000696,174.87380840000696,175.24002450000262,175.24002450000262,175.24002450000262,175.24002450000262,175.24002450000262,175.24002450000262,175.24002450000262,175.24002450000262,175.24002450000262,23,0,,,175.24002450000262,175.44210210000165,1000,175.44210210000165,1000,1000,1000,1000,0,num_3,0.5416669999831356,,27,9,2026-03-05_13h50.33.203,2026A_exp2,2022.2.4,59.98512368778086,
1000,1,0.0,6.1,0,0,54,54,2,,,,,176.00718000001507,176.64148559997557,176.64148559997557,177.14252649998525,315,315,177.14252649998525,177.14252649998525,177.14252649998525,177.14252649998525,177.14252649998525,177.14252649998525,177.14252649998525,177.14252649998525,177.14252649998525,177.50906539999414,177.50906539999414,177.50906539999414,177.50906539999414,177.50906539999414,177.50906539999414,177.50906539999414,177.50906539999414,177.50906539999414,23,0,,,177.50906539999414,177.71156039997004,1000,177.71156039997004,1000,1000,1000,1000,1,num_2,0.4094066000543535,,27,9,2026-03-05_13h50.33.203,2026A_exp2,2022.2.4,59.98512368778086,
1000,1,0.0,0.0,0,0,55,55,15,,,,,178.14293580001686,178.79362870001933,178.79362870001933,179.29482609999832,315,315,179.29482609999832,179.29482609999832,179.29482609999832,179.29482609999832,179.29482609999832,179.29482609999832,179.29482609999832,179.29482609999832,179.29482609999832,179.64463980001165,179.64463980001165,179.64463980001165,179.64463980001165,179.64463980001165,179.64463980001165,179.64463980001165,179.64463980001165,179.64463980001165,22,0,,,179.64463980001165,179.8465390999918,1000,179.86123659997247,1000,1000,1000,1000,0,num_3,0.4268235999625176,,27,9,2026-03-05_13h50.33.203,2026A_exp2,2022.2.4,59.98512368778086,
0,0,3.7,6.1,0,0,56,56,73,,,,,180.31180149997817,180.96321199997328,180.96321199997328,181.46453110000584,315,315,181.46453110000584,181.46453110000584,181.46453110000584,181.46453110000584,181.46453110000584,181.46453110000584,181.46453110000584,181.46453110000584,181.46453110000584,181.8296193999704,181.8296193999704,181.8296193999704,181.8296193999704,181.8296193999704,181.8296193999704,181.8296193999704,181.8296193999704,181.8296193999704,23,0,,,181.8296193999704,182.02981440001167,6.1,182.02981440001167,1,6.1,1,1,1000,num_4,0.5066375000169501,,27,9,2026-03-05_13h50.33.203,2026A_exp2,2022.2.4,59.98512368778086,
1,0,0.0,4.9,1,0,57,57,1,,,,,182.56376220000675,183.19793710001977,183.19793710001977,183.69968129997142,315,45,183.69968129997142,183.69968129997142,183.69968129997142,183.69968129997142,183.69968129997142,183.69968129997142,183.69968129997142,183.69968129997142,183.69968129997142,184.06567979999818,184.06567979999818,184.06567979999818,184.06567979999818,184.06567979999818,184.06567979999818,184.06567979999818,184.06567979999818,184.06567979999818,23,0,,,184.06567979999818,184.26573689997895,4.9,184.26573689997895,1,4.9,1,1,1000,num_4,0.4303345999796875,,27,9,2026-03-05_13h50.33.203,2026A_exp2,2022.2.4,59.98512368778086,
1000,1,0.0,0.0,0,0,58,58,87,,,,,184.71621949999826,185.36692369997036,185.36692369997036,185.85132070002146,315,315,185.85132070002146,185.85132070002146,185.85132070002146,185.85132070002146,185.85132070002146,185.85132070002146,185.85132070002146,185.85132070002146,185.85132070002146,186.2176983000245,186.2176983000245,186.2176983000245,186.2176983000245,186.2176983000245,186.2176983000245,186.2176983000245,186.2176983000245,186.2176983000245,23,0,,,186.2176983000245,186.41984460002277,1000,186.41984460002277,1000,1000,1000,1000,0,num_3,0.42775449994951487,,27,9,2026-03-05_13h50.33.203,2026A_exp2,2022.2.4,59.98512368778086,
1000,1,3.7,6.1,1,0,59,59,29,,,,,186.86868880002294,187.5190125000081,187.5190125000081,188.02006040001288,45,45,188.02006040001288,188.02006040001288,188.02006040001288,188.02006040001288,188.02006040001288,188.02006040001288,188.02006040001288,188.02006040001288,188.02006040001288,188.3866150000249,188.3866150000249,188.3866150000249,188.3866150000249,188.3866150000249,188.3866150000249,188.3866150000249,188.3866150000249,188.3866150000249,3,3,"[0.001245100051164627, 0.06675460003316402, 0.11675880005350336]","[0.033470200025476515, 0.09994870005175471, 0.36711280001327395]",188.3866150000249,188.5888848999748,1000,188.5888848999748,1000,1000,1000,1000,1,num_2,0.562733999977354,,27,9,2026-03-05_13h50.33.203,2026A_exp2,2022.2.4,59.98512368778086,
0,0,6.1,6.1,0,0,60,60,42,,,,,189.1706426999881,189.82127379998565,189.82127379998565,190.32250740000745,315,315,190.32250740000745,190.32250740000745,190.32250740000745,190.32250740000745,190.32250740000745,190.32250740000745,190.32250740000745,190.32250740000745,190.32250740000745,190.6887639000197,190.6887639000197,190.6887639000197,190.6887639000197,190.6887639000197,190.6887639000197,190.6887639000197,190.6887639000197,190.6887639000197,23,0,,,190.6887639000197,190.889175600023,6.1,190.889175600023,1,6.1,1,1,1000,num_4,0.6315026000374928,,27,9,2026-03-05_13h50.33.203,2026A_exp2,2022.2.4,59.98512368778086,
1000,1,4.9,0.0,0,0,61,61,50,,,,,191.53962300001876,192.19883309997385,192.19883309997385,192.6747028999962,315,315,192.6747028999962,192.6747028999962,192.6747028999962,192.6747028999962,192.6747028999962,192.6747028999962,192.6747028999962,192.6747028999962,192.6747028999962,193.04117899999255,193.04117899999255,193.04117899999255,193.04117899999255,193.04117899999255,193.04117899999255,193.04117899999255,193.04117899999255,193.04117899999255,23,0,,,193.04117899999255,193.24343520001275,1000,193.24343520001275,1000,1000,1000,1000,0,num_3,0.40507669997168705,,27,9,2026-03-05_13h50.33.203,2026A_exp2,2022.2.4,59.98512368778086,
1000,1,0.0,0.0,1,0,62,62,46,,,,,193.67532300000312,194.32588850002503,194.32588850002503,194.8240805999958,315,45,194.8240805999958,194.8240805999958,194.8240805999958,194.8240805999958,194.8240805999958,194.8240805999958,194.8240805999958,194.8240805999958,194.8240805999958,195.1762431000243,195.1762431000243,195.1762431000243,195.1762431000243,195.1762431000243,195.1762431000243,195.1762431000243,195.1762431000243,195.1762431000243,15,2,"[0.0037579999770969152, 0.1479094999958761]","[0.030539700004737824, 0.24815250001847744]",195.1762431000243,195.37930720002623,1000,195.37930720002623,1000,1000,1000,1000,0,num_3,0.40447420004056767,,27,9,2026-03-05_13h50.33.203,2026A_exp2,2022.2.4,59.98512368778086,
1000,1,0.0,4.9,0,0,63,63,5,,,,,195.81057889998192,196.46143159997882,196.46143159997882,196.96255799999926,315,315,196.96255799999926,196.96255799999926,196.96255799999926,196.96255799999926,196.96255799999926,196.96255799999926,196.96255799999926,196.96255799999926,196.96255799999926,197.32883620000212,197.32883620000212,197.32883620000212,197.32883620000212,197.32883620000212,197.32883620000212,197.32883620000212,197.32883620000212,197.32883620000212,0,1,[0.00120900000911206],[0.3673446000320837],197.32883620000212,197.53057719999924,1000,197.53057719999924,1000,1000,1000,1000,1,num_2,0.4063490999978967,,27,9,2026-03-05_13h50.33.203,2026A_exp2,2022.2.4,59.98512368778086,
1,0,4.9,0.0,1,0,64,64,25,,,,,197.96273610001663,198.61342439998407,198.61342439998407,199.11464260000503,45,315,199.11464260000503,199.11464260000503,199.11464260000503,199.11464260000503,199.11464260000503,199.11464260000503,199.11464260000503,199.11464260000503,199.11464260000503,199.4808232000214,199.4808232000214,199.4808232000214,199.4808232000214,199.4808232000214,199.4808232000214,199.4808232000214,199.4808232000214,199.4808232000214,0,1,[0.0012046000338159502],[0.3670636000460945],199.4808232000214,199.68129430001136,0.0,199.68129430001136,0,0.0,0,1,1000,num_1,0.7022707999567501,,27,9,2026-03-05_13h50.33.203,2026A_exp2,2022.2.4,59.98512368778086,
1,0,0.0,0.0,0,0,65,65,51,,,,,200.41518090001773,201.06594170001335,201.06594170001335,201.55030790000455,45,315,201.55030790000455,201.55030790000455,201.55030790000455,201.55030790000455,201.55030790000455,201.55030790000455,201.55030790000455,201.55030790000455,201.55030790000455,201.9168046999839,201.9168046999839,201.9168046999839,201.9168046999839,201.9168046999839,201.9168046999839,201.9168046999839,201.9168046999839,201.9168046999839,23,0,,,201.9168046999839,202.11697269999422,0.0,202.11697269999422,1,0.0,0,0,1000,num_4,0.7947195000015199,,27,9,2026-03-05_13h50.33.203,2026A_exp2,2022.2.4,59.98512368778086,
1,0,3.7,3.7,1,0,66,66,86,,,,,202.93431899999268,203.5851392999757,203.5851392999757,204.0694832999725,45,315,204.0694832999725,204.0694832999725,204.0694832999725,204.0694832999725,204.0694832999725,204.0694832999725,204.0694832999725,204.0694832999725,204.0694832999725,204.43600929999957,204.43600929999957,204.43600929999957,204.43600929999957,204.43600929999957,204.43600929999957,204.43600929999957,204.43600929999957,204.43600929999957,23,0,,,204.43600929999957,204.6361430999823,3.7,204.6361430999823,0,3.7,1,0,1000,num_1,0.5726596000022255,,27,9,2026-03-05_13h50.33.203,2026A_exp2,2022.2.4,59.98512368778086,
0,0,0.0,0.0,0,0,67,67,22,,,,,205.23667239997303,205.88728780002566,205.88728780002566,206.37192589999177,45,315,206.37192589999177,206.37192589999177,206.37192589999177,206.37192589999177,206.37192589999177,206.37192589999177,206.37192589999177,206.37192589999177,206.37192589999177,206.73805340001127,206.73805340001127,206.73805340001127,206.73805340001127,206.73805340001127,206.73805340001127,206.73805340001127,206.73805340001127,206.73805340001127,23,0,,,206.73805340001127,206.93855520000216,0.0,206.93855520000216,0,0.0,0,1,1000,num_1,0.5169679999817163,,27,9,2026-03-05_13h50.33.203,2026A_exp2,2022.2.4,59.98512368778086,
1,0,3.7,0.0,1,0,68,68,28,,,,,207.47227520000888,208.12299319996964,208.12299319996964,208.62405440001749,315,45,208.62405440001749,208.62405440001749,208.62405440001749,208.62405440001749,208.62405440001749,208.62405440001749,208.62405440001749,208.62405440001749,208.62405440001749,208.97389309998835,208.97389309998835,208.97389309998835,208.97389309998835,208.97389309998835,208.97389309998835,208.97389309998835,208.97389309998835,208.97389309998835,22,0,,,208.97389309998835,209.1741029000259,0.0,209.1741029000259,0,0.0,0,1,1000,num_1,0.41804349998710677,,27,9,2026-03-05_13h50.33.203,2026A_exp2,2022.2.4,59.98512368778086,
1000,1,0.0,0.0,1,0,69,69,56,,,,,209.60757689998718,210.26045649999287,210.26045649999287,210.74277720000828,45,45,210.74277720000828,210.74277720000828,210.74277720000828,210.74277720000828,210.74277720000828,210.74277720000828,210.74277720000828,210.74277720000828,210.74277720000828,211.10937409999315,211.10937409999315,211.10937409999315,211.10937409999315,211.10937409999315,211.10937409999315,211.10937409999315,211.10937409999315,211.10937409999315,23,0,,,211.10937409999315,211.31141690001823,1000,211.31141690001823,1000,1000,1000,1000,0,num_3,0.5049645999679342,,27,9,2026-03-05_13h50.33.203,2026A_exp2,2022.2.4,59.98512368778086,
1,0,3.7,0.0,0,0,70,70,8,,,,,211.8431046999758,212.49408660002518,212.49408660002518,212.99502269999357,45,315,212.99502269999357,212.99502269999357,212.99502269999357,212.99502269999357,212.99502269999357,212.99502269999357,212.99502269999357,212.99502269999357,212.99502269999357,213.3449108999921,213.3449108999921,213.3449108999921,213.3449108999921,213.3449108999921,213.3449108999921,213.3449108999921,213.3449108999921,213.3449108999921,22,0,,,213.3449108999921,213.54502770002,3.7,213.54502770002,1,3.7,1,1,1000,num_4,0.5919379999977536,,27,9,2026-03-05_13h50.33.203,2026A_exp2,2022.2.4,59.98512368778086,
1000,1,6.1,0.0,0,0,71,71,59,,,,,214.162367300014,214.812922800018,214.812922800018,215.2975067999796,315,315,215.2975067999796,215.2975067999796,215.2975067999796,215.2975067999796,215.2975067999796,215.2975067999796,215.2975067999796,215.2975067999796,215.2975067999796,215.6637832999695,215.6637832999695,215.6637832999695,215.6637832999695,215.6637832999695,215.6637832999695,215.6637832999695,215.6637832999695,215.6637832999695,23,0,,,215.6637832999695,215.86397920001764,1000,215.86397920001764,1000,1000,1000,1000,0,num_3,0.4408442999701947,,27,9,2026-03-05_13h50.33.203,2026A_exp2,2022.2.4,59.98512368778086,
1000,1,0.0,4.9,1,0,72,72,79,,,,,216.33150879997993,216.9818748999969,216.9818748999969,217.48275530000683,45,45,217.48275530000683,217.48275530000683,217.48275530000683,217.48275530000683,217.48275530000683,217.48275530000683,217.48275530000683,217.48275530000683,217.48275530000683,217.83271629997762,217.83271629997762,217.83271629997762,217.83271629997762,217.83271629997762,217.83271629997762,217.83271629997762,217.83271629997762,217.83271629997762,20,1,[0.3004454000038095],[0.33372850000159815],217.83271629997762,218.03514659998473,1000,218.0495804999955,1000,1000,1000,1000,1,num_2,0.3979687999817543,,27,9,2026-03-05_13h50.33.203,2026A_exp2,2022.2.4,59.98512368778086,
1000,1,3.7,0.0,1,0,73,73,54,,,,,218.46659179998096,219.11696359998314,219.11696359998314,219.618301599985,315,315,219.618301599985,219.618301599985,219.618301599985,219.618301599985,219.618301599985,219.618301599985,219.618301599985,219.618301599985,219.618301599985,219.9846658000024,219.9846658000024,219.9846658000024,219.9846658000024,219.9846658000024,219.9846658000024,219.9846658000024,219.9846658000024,219.9846658000024,0,1,[0.0012425999739207327],[0.36710520001361147],219.9846658000024,220.18670919997385,1000,220.18670919997385,1000,1000,1000,1000,0,num_3,0.4851658000261523,,27,9,2026-03-05_13h50.33.203,2026A_exp2,2022.2.4,59.98512368778086,
1000,1,0.0,6.1,0,0,74,74,35,,,,,220.70225119998213,221.35289949999424,221.35289949999424,221.85413200000767,45,315,221.85413200000767,221.85413200000767,221.85413200000767,221.85413200000767,221.85413200000767,221.85413200000767,221.85413200000767,221.85413200000767,221.85413200000767,222.22043699998176,222.22043699998176,222.22043699998176,222.22043699998176,222.22043699998176,222.22043699998176,222.22043699998176,222.22043699998176,222.22043699998176,23,0,,,222.22043699998176,222.42269470001338,1000,222.42269470001338,1000,1000,1000,1000,1,num_2,0.3936378000071272,,27,9,2026-03-05_13h50.33.203,2026A_exp2,2022.2.4,59.98512368778086,
1,0,4.9,4.9,0,0,75,75,84,,,,,222.83759680000367,223.48828859999776,223.48828859999776,223.98936339997454,45,45,223.98936339997454,223.98936339997454,223.98936339997454,223.98936339997454,223.98936339997454,223.98936339997454,223.98936339997454,223.98936339997454,223.98936339997454,224.35593249998055,224.35593249998055,224.35593249998055,224.35593249998055,224.35593249998055,224.35593249998055,224.35593249998055,224.35593249998055,224.35593249998055,1,1,[0.017164900025818497],[0.3672235000412911],224.35593249998055,224.55601389997173,4.9,224.55601389997173,1,4.9,1,1,1000,num_4,0.6356169999926351,,27,9,2026-03-05_13h50.33.203,2026A_exp2,2022.2.4,59.98512368778086,
1000,1,0.0,4.9,1,0,76,76,55,,,,,225.22329649998574,225.8741037999862,225.8741037999862,226.3585534999729,315,45,226.3585534999729,226.3585534999729,226.3585534999729,226.3585534999729,226.3585534999729,226.3585534999729,226.3585534999729,226.3585534999729,226.3585534999729,226.72488420002628,226.72488420002628,226.72488420002628,226.72488420002628,226.72488420002628,226.72488420002628,226.72488420002628,226.72488420002628,226.72488420002628,14,4,"[0.08371500001521781, 0.11722200002986938, 0.25077610003063455, 0.28408489999128506]","[0.1006434999871999, 0.1337758000008762, 0.2673964999848977, 0.3676186000229791]",226.72488420002628,226.92713780002668,1000,226.92713780002668,1000,1000,1000,1000,1,num_2,0.40076410002075136,,27,9,2026-03-05_13h50.33.203,2026A_exp2,2022.2.4,59.98512368778086,
1000,1,0.0,0.0,0,0,77,77,37,,,,,227.35879289999139,228.00961619999725,228.00961619999725,228.51070819998858,45,45,228.51070819998858,228.51070819998858,228.51070819998858,228.51070819998858,228.51070819998858,228.51070819998858,228.51070819998858,228.51070819998858,228.51070819998858,228.86044489999767,228.86044489999767,228.86044489999767,228.86044489999767,228.86044489999767,228.86044489999767,228.86044489999767,228.86044489999767,228.86044489999767,22,0,,,228.86044489999767,229.06268229999114,1000,229.06268229999114,1000,1000,1000,1000,0,num_3,0.44895890000043437,,27,9,2026-03-05_13h50.33.203,2026A_exp2,2022.2.4,59.98512368778086,
1000,1,0.0,4.9,1,0,78,78,78,,,,,229.52752190001775,230.1784058000194,230.1784058000194,230.67950530000962,45,315,230.67950530000962,230.67950530000962,230.67950530000962,230.67950530000962,230.67950530000962,230.67950530000962,230.67950530000962,230.67950530000962,230.67950530000962,231.0457864999771,231.0457864999771,231.0457864999771,231.0457864999771,231.0457864999771,231.0457864999771,231.0457864999771,231.0457864999771,231.0457864999771,23,0,,,231.0457864999771,231.24775949999457,1000,231.24775949999457,1000,1000,1000,1000,1,num_2,0.37725760001922026,,27,9,2026-03-05_13h50.33.203,2026A_exp2,2022.2.4,59.98512368778086,
1,0,3.7,6.1,1,0,79,79,77,,,,,231.64644199999748,232.29713650001213,232.29713650001213,232.7814305999782,315,315,232.7814305999782,232.7814305999782,232.7814305999782,232.7814305999782,232.7814305999782,232.7814305999782,232.7814305999782,232.7814305999782,232.7814305999782,233.14793580002151,233.14793580002151,233.14793580002151,233.14793580002151,233.14793580002151,233.14793580002151,233.14793580002151,233.14793580002151,233.14793580002151,0,1,[0.0012171000125817955],[0.36721150000812486],233.14793580002151,233.3481401000172,6.1,233.3481401000172,1,6.1,1,1,1000,num_4,0.572136800037697,,27,9,2026-03-05_13h50.33.203,2026A_exp2,2022.2.4,59.98512368778086,
0,0,0.0,0.0,1,0,80,80,38,,,,,233.94870269997045,234.59945270000026,234.59945270000026,235.08375970000634,315,45,235.08375970000634,235.08375970000634,235.08375970000634,235.08375970000634,235.08375970000634,235.08375970000634,235.08375970000634,235.08375970000634,235.08375970000634,235.45018709998112,235.45018709998112,235.45018709998112,235.45018709998112,235.45018709998112,235.45018709998112,235.45018709998112,235.45018709998112,235.45018709998112,0,1,[0.0012463000020943582],[0.3670595000148751],235.45018709998112,235.65050400001928,0.0,235.65050400001928,0,0.0,0,1,1000,num_1,0.7264692999888211,,27,9,2026-03-05_13h50.33.203,2026A_exp2,2022.2.4,59.98512368778086,
1000,1,6.1,4.9,0,0,81,81,68,,,,,236.4012364000082,237.05184480000753,237.05184480000753,237.5534645000007,315,315,237.5534645000007,237.5534645000007,237.5534645000007,237.5534645000007,237.5534645000007,237.5534645000007,237.5534645000007,237.5534645000007,237.5534645000007,237.91950720001478,237.91950720001478,237.91950720001478,237.91950720001478,237.91950720001478,237.91950720001478,237.91950720001478,237.91950720001478,237.91950720001478,23,0,,,237.91950720001478,238.1216261999798,1000,238.1216261999798,1000,1000,1000,1000,1,num_2,0.4791584000340663,,27,9,2026-03-05_13h50.33.203,2026A_exp2,2022.2.4,59.98512368778086,
1000,1,3.7,0.0,0,0,82,82,32,,,,,238.6200873000198,239.27082759997575,239.27082759997575,239.75517989997752,45,315,239.75517989997752,239.75517989997752,239.75517989997752,239.75517989997752,239.75517989997752,239.75517989997752,239.75517989997752,239.75517989997752,239.75517989997752,240.13838560000295,240.13838560000295,240.13838560000295,240.13838560000295,240.13838560000295,240.13838560000295,240.13838560000295,240.13838560000295,240.13838560000295,24,0,,,240.13838560000295,240.33862120000413,1000,240.33862120000413,1000,1000,1000,1000,0,num_3,0.46226410003146157,,27,9,2026-03-05_13h50.33.203,2026A_exp2,2022.2.4,59.98512368778086,
1000,1,0.0,6.1,1,0,83,83,69,,,,,240.82223270001123,241.47305480000796,241.47305480000796,241.97441229998367,315,315,241.97441229998367,241.97441229998367,241.97441229998367,241.97441229998367,241.97441229998367,241.97441229998367,241.97441229998367,241.97441229998367,241.97441229998367,242.34011869999813,242.34011869999813,242.34011869999813,242.34011869999813,242.34011869999813,242.34011869999813,242.34011869999813,242.34011869999813,242.34011869999813,23,0,,,242.34011869999813,242.54250260000117,1000,242.54250260000117,1000,1000,1000,1000,1,num_2,0.36216869996860623,,27,9,2026-03-05_13h50.33.203,2026A_exp2,2022.2.4,59.98512368778086,
1000,1,6.1,0.0,0,0,84,84,89,,,,,242.92441530001815,243.57511309999973,243.57511309999973,244.07599240000127,45,45,244.07599240000127,244.07599240000127,244.07599240000127,244.07599240000127,244.07599240000127,244.07599240000127,244.07599240000127,244.07599240000127,244.07599240000127,244.44263840001076,244.44263840001076,244.44263840001076,244.44263840001076,244.44263840001076,244.44263840001076,244.44263840001076,244.44263840001076,244.44263840001076,23,0,,,244.44263840001076,244.64465789997485,1000,244.64465789997485,1000,1000,1000,1000,0,num_3,0.5399586000130512,,27,9,2026-03-05_13h50.33.203,2026A_exp2,2022.2.4,59.98512368778086,
0,0,0.0,3.7,0,0,85,85,83,,,,,245.20999260002282,245.8607230000198,245.8607230000198,246.36177810002118,315,45,246.36177810002118,246.36177810002118,246.36177810002118,246.36177810002118,246.36177810002118,246.36177810002118,246.36177810002118,246.36177810002118,246.36177810002118,246.7282675000024,246.7282675000024,246.7282675000024,246.7282675000024,246.7282675000024,246.7282675000024,246.7282675000024,246.7282675000024,246.7282675000024,23,0,,,246.7282675000024,246.92843229998834,3.7,246.92843229998834,1,3.7,1,1,1000,num_4,0.5751979000051506,,27,9,2026-03-05_13h50.33.203,2026A_exp2,2022.2.4,59.98512368778086,
1,0,6.1,6.1,0,0,86,86,27,,,,,247.5289459999767,248.17935829999624,248.17935829999624,248.66409670002759,45,45,248.66409670002759,248.66409670002759,248.66409670002759,248.66409670002759,248.66409670002759,248.66409670002759,248.66409670002759,248.66409670002759,248.66409670002759,249.03063489997294,249.03063489997294,249.03063489997294,249.03063489997294,249.03063489997294,249.03063489997294,249.03063489997294,249.03063489997294,249.03063489997294,23,0,,,249.03063489997294,249.2307483999757,6.1,249.2307483999757,0,6.1,1,0,1000,num_1,0.9136184999952093,,27,9,2026-03-05_13h50.33.203,2026A_exp2,2022.2.4,59.98512368778086,
1,0,3.7,4.9,0,0,87,87,76,,,,,250.16477259999374,250.81564280000748,250.81564280000748,251.3001540999976,315,45,251.3001540999976,251.3001540999976,251.3001540999976,251.3001540999976,251.3001540999976,251.3001540999976,251.3001540999976,251.3001540999976,251.3001540999976,251.66657880001003,251.66657880001003,251.66657880001003,251.66657880001003,251.66657880001003,251.66657880001003,251.66657880001003,251.66657880001003,251.66657880001003,23,0,,,251.66657880001003,251.8667036999832,3.7,251.8667036999832,1,3.7,1,1,1000,num_4,0.6455982999759726,,27,9,2026-03-05_13h50.33.203,2026A_exp2,2022.2.4,59.98512368778086,
1,0,6.1,4.9,0,0,88,88,81,,,,,252.53400029998738,253.1698077999754,253.1698077999754,253.67423319997033,315,315,253.67423319997033,253.67423319997033,253.67423319997033,253.67423319997033,253.67423319997033,253.67423319997033,253.67423319997033,253.67423319997033,253.67423319997033,254.03547160001472,254.03547160001472,254.03547160001472,254.03547160001472,254.03547160001472,254.03547160001472,254.03547160001472,254.03547160001472,254.03547160001472,23,0,,,254.03547160001472,254.23583269998198,6.1,254.23583269998198,1,6.1,1,1,1000,num_4,0.6996739999740385,,27,9,2026-03-05_13h50.33.203,2026A_exp2,2022.2.4,59.98512368778086,
1000,1,0.0,6.1,0,0,89,89,75,,,,,254.95309750002343,255.5870847000042,255.5870847000042,256.088330700004,315,45,256.088330700004,256.088330700004,256.088330700004,256.088330700004,256.088330700004,256.088330700004,256.088330700004,256.088330700004,256.088330700004,256.45462239999324,256.45462239999324,256.45462239999324,256.45462239999324,256.45462239999324,256.45462239999324,256.45462239999324,256.45462239999324,256.45462239999324,23,0,,,256.45462239999324,256.6567494000192,1000,256.6567494000192,1000,1000,1000,1000,1,num_2,0.4151092999964021,,27,9,2026-03-05_13h50.33.203,2026A_exp2,2022.2.4,59.98512368778086,
,,,,,,,,,,,,,,,,,,,,,,,,,,,,,,,,,,,,,,,,,,,,,,,,,,,,257.09697519999463,,,,,,,
