validity,detectorcomp,contrastCW,contrastCCW,precueCWorCCW,block_80trials.thisRepN,block_80trials.thisTrialN,block_80trials.thisN,block_80trials.thisIndex,etRecord.started,etRecord.stopped,text.started,text.stopped,text_4.started,text_4.stopped,text_6.started,text_6.stopped,oriCW,oriCCW,roi_2.started,grating_UR.started,grating_UL.started,grating_LR.started,grating_LL.started,noise_UR.started,noise_UL.started,noise_LR.started,noise_LL.started,roi_2.stopped,grating_UR.stopped,grating_UL.stopped,grating_LR.stopped,grating_LL.stopped,noise_UR.stopped,noise_UL.stopped,noise_LR.stopped,noise_LL.stopped,outframe,roi_2.numLooks,roi_2.timesOn,roi_2.timesOff,text_2.started,text_2.stopped,probedcontrast,key_resp.started,respdetect,relevantContrast,correctDetect,TorFdetect,respCWorCCW,key_resp.keys,key_resp.rt,feedback_display_.started,participantNo,blockNo,date,expName,psychopyVersion,frameRate,
1000,1,4.9,6.1,0,0,0,0,49,7.240002742037177e-05,7.240002742037177e-05,52.914615600020625,54.92101620003814,54.92101620003814,55.55309620004846,55.55309620004846,56.07071990001714,45,315,56.07071990001714,56.07071990001714,56.07071990001714,56.07071990001714,56.07071990001714,56.07071990001714,56.07071990001714,56.07071990001714,56.07071990001714,56.41810480004642,56.41810480004642,56.41810480004642,56.41810480004642,56.41810480004642,56.41810480004642,56.41810480004642,56.41810480004642,56.41810480004642,23,0,,,56.41810480004642,56.61924430000363,1000,56.61924430000363,1000,1000,1000,1000,0,num_3,0.08310320001328364,,25,14,2026-03-04_18h28.58.980,2026A_exp2,2022.2.4,59.99876402303458,
1,0,4.9,0.0,0,0,1,1,19,,,,,56.71964270004537,57.369054800015874,57.369054800015874,57.870152200048324,45,45,57.870152200048324,57.870152200048324,57.870152200048324,57.870152200048324,57.870152200048324,57.870152200048324,57.870152200048324,57.870152200048324,57.870152200048324,58.23661700001685,58.23661700001685,58.23661700001685,58.23661700001685,58.23661700001685,58.23661700001685,58.23661700001685,58.23661700001685,58.23661700001685,23,0,,,58.23661700001685,58.43690540001262,4.9,58.43690540001262,1,4.9,1,1,1000,num_4,0.9138688000384718,,25,14,2026-03-04_18h28.58.980,2026A_exp2,2022.2.4,59.99876402303458,
1000,1,4.9,0.0,0,0,2,2,82,,,,,59.37202990002697,60.00642740004696,60.00642740004696,60.50848479999695,45,315,60.50848479999695,60.50848479999695,60.50848479999695,60.50848479999695,60.50848479999695,60.50848479999695,60.50848479999695,60.50848479999695,60.50848479999695,60.875079500023276,60.875079500023276,60.875079500023276,60.875079500023276,60.875079500023276,60.875079500023276,60.875079500023276,60.875079500023276,60.875079500023276,23,0,,,60.875079500023276,61.07656499999575,1000,61.07656499999575,1000,1000,1000,1000,0,num_3,0.05056529998546466,,25,14,2026-03-04_18h28.58.980,2026A_exp2,2022.2.4,59.99876402303458,
1,0,3.7,3.7,1,0,3,3,11,,,,,61.15709240001161,61.80795410001883,61.80795410001883,62.30793280003127,315,315,62.30793280003127,62.30793280003127,62.30793280003127,62.30793280003127,62.30793280003127,62.30793280003127,62.30793280003127,62.30793280003127,62.30793280003127,,,,,,,,,,20,1,[0.28400910005439073],[0.3007388000260107],62.67512140003964,62.87476340000285,3.7,62.87476340000285,0,3.7,1,0,1000,num_1,1.4833347999956459,,25,14,2026-03-04_18h28.58.980,2026A_exp2,2022.2.4,59.99876402303458,
1000,1,0.0,0.0,0,0,4,4,33,,,,,64.3759974000277,65.01012530003209,65.01012530003209,65.51101390004624,45,45,65.51101390004624,65.51101390004624,65.51101390004624,65.51101390004624,65.51101390004624,65.51101390004624,65.51101390004624,65.51101390004624,65.51101390004624,65.87737010000274,65.87737010000274,65.87737010000274,65.87737010000274,65.87737010000274,65.87737010000274,65.87737010000274,65.87737010000274,65.87737010000274,23,0,,,65.87737010000274,66.07787400000961,1000,66.07787400000961,1000,1000,1000,1000,0,num_3,0.03248609998263419,,25,14,2026-03-04_18h28.58.980,2026A_exp2,2022.2.4,59.99876402303458,
1,0,6.1,3.7,0,0,5,5,79,,,,,66.12809680000646,66.76185920002172,66.76185920002172,67.26311580004403,315,45,67.26311580004403,67.26311580004403,67.26311580004403,67.26311580004403,67.26311580004403,67.26311580004403,67.26311580004403,67.26311580004403,67.26311580004403,67.62942830001703,67.62942830001703,67.62942830001703,67.62942830001703,67.62942830001703,67.62942830001703,67.62942830001703,67.62942830001703,67.62942830001703,23,0,,,67.62942830001703,67.82946280000033,6.1,67.82946280000033,0,6.1,1,0,1000,num_1,1.000721899967175,,25,14,2026-03-04_18h28.58.980,2026A_exp2,2022.2.4,59.99876402303458,
1,0,4.9,0.0,1,0,6,6,52,,,,,68.84721390000777,69.48174250003649,69.48174250003649,69.9825308000436,315,45,69.9825308000436,69.9825308000436,69.9825308000436,69.9825308000436,69.9825308000436,69.9825308000436,69.9825308000436,69.9825308000436,69.9825308000436,70.34851350000827,70.34851350000827,70.34851350000827,70.34851350000827,70.34851350000827,70.34851350000827,70.34851350000827,70.34851350000827,70.34851350000827,23,0,,,70.34851350000827,70.54891010001302,0.0,70.54891010001302,0,0.0,0,1,1000,num_1,1.041816300014034,,25,14,2026-03-04_18h28.58.980,2026A_exp2,2022.2.4,59.99876402303458,
0,0,0.0,0.0,0,0,7,7,10,,,,,71.61663600004977,72.25041030003922,72.25041030003922,72.75186390004819,315,45,72.75186390004819,72.75186390004819,72.75186390004819,72.75186390004819,72.75186390004819,72.75186390004819,72.75186390004819,72.75186390004819,72.75186390004819,73.11796080000931,73.11796080000931,73.11796080000931,73.11796080000931,73.11796080000931,73.11796080000931,73.11796080000931,73.11796080000931,73.11796080000931,23,0,,,73.11796080000931,73.31832090002717,0.0,73.31832090002717,1,0.0,0,0,1000,num_4,2.599778999981936,,25,14,2026-03-04_18h28.58.980,2026A_exp2,2022.2.4,59.99876402303458,
0,0,0.0,0.0,0,0,8,8,20,,,,,75.93758600001456,76.57162200001767,76.57162200001767,77.07302170002367,45,45,77.07302170002367,77.07302170002367,77.07302170002367,77.07302170002367,77.07302170002367,77.07302170002367,77.07302170002367,77.07302170002367,77.07302170002367,77.43945580004947,77.43945580004947,77.43945580004947,77.43945580004947,77.43945580004947,77.43945580004947,77.43945580004947,77.43945580004947,77.43945580004947,23,0,,,77.43945580004947,77.63945120002609,0.0,77.63945120002609,1,0.0,0,0,1000,num_4,1.607269800035283,,25,14,2026-03-04_18h28.58.980,2026A_exp2,2022.2.4,59.99876402303458,
1,0,6.1,0.0,1,0,9,9,29,,,,,79.27440390002448,79.92476449999958,79.92476449999958,80.4095842000097,45,45,80.4095842000097,80.4095842000097,80.4095842000097,80.4095842000097,80.4095842000097,80.4095842000097,80.4095842000097,80.4095842000097,80.4095842000097,80.77603690000251,80.77603690000251,80.77603690000251,80.77603690000251,80.77603690000251,80.77603690000251,80.77603690000251,80.77603690000251,80.77603690000251,23,0,,,80.77603690000251,80.97594950004714,0.0,80.97594950004714,0,0.0,0,1,1000,num_1,0.8943918999866582,,25,14,2026-03-04_18h28.58.980,2026A_exp2,2022.2.4,59.99876402303458,
1,0,4.9,0.0,0,0,10,10,57,,,,,81.89382670004852,82.52749920001952,82.52749920001952,83.02863270003581,45,45,83.02863270003581,83.02863270003581,83.02863270003581,83.02863270003581,83.02863270003581,83.02863270003581,83.02863270003581,83.02863270003581,83.02863270003581,83.39517890004208,83.39517890004208,83.39517890004208,83.39517890004208,83.39517890004208,83.39517890004208,83.39517890004208,83.39517890004208,83.39517890004208,23,0,,,83.39517890004208,83.59523570002057,4.9,83.59523570002057,0,4.9,1,0,1000,num_1,1.2268613000051118,,25,14,2026-03-04_18h28.58.980,2026A_exp2,2022.2.4,59.99876402303458,
1000,1,0.0,3.7,1,0,11,11,86,,,,,84.84658910002327,85.497292700049,85.497292700049,85.98174070002278,315,315,85.98174070002278,85.98174070002278,85.98174070002278,85.98174070002278,85.98174070002278,85.98174070002278,85.98174070002278,85.98174070002278,85.98174070002278,86.34860399999889,86.34860399999889,86.34860399999889,86.34860399999889,86.34860399999889,86.34860399999889,86.34860399999889,86.34860399999889,86.34860399999889,23,0,,,86.34860399999889,86.54831980000017,1000,86.54831980000017,1000,1000,1000,1000,1,num_2,0.25818809994962066,,25,14,2026-03-04_18h28.58.980,2026A_exp2,2022.2.4,59.99876402303458,
1000,1,4.9,6.1,0,0,12,12,35,,,,,86.83194550004555,87.48263109999243,87.48263109999243,87.96707370004151,315,45,87.96707370004151,87.96707370004151,87.96707370004151,87.96707370004151,87.96707370004151,87.96707370004151,87.96707370004151,87.96707370004151,87.96707370004151,88.33366970001953,88.33366970001953,88.33366970001953,88.33366970001953,88.33366970001953,88.33366970001953,88.33366970001953,88.33366970001953,88.33366970001953,23,0,,,88.33366970001953,88.53375780000351,1000,88.53375780000351,1000,1000,1000,1000,0,num_3,0.07305600005201995,,25,14,2026-03-04_18h28.58.980,2026A_exp2,2022.2.4,59.99876402303458,
1000,1,4.9,4.9,0,0,13,13,6,,,,,88.633766700048,89.28442520002136,89.28442520002136,89.76875940000173,45,315,89.76875940000173,89.76875940000173,89.76875940000173,89.76875940000173,89.76875940000173,89.76875940000173,89.76875940000173,89.76875940000173,89.76875940000173,90.13514140003826,90.13514140003826,90.13514140003826,90.13514140003826,90.13514140003826,90.13514140003826,90.13514140003826,90.13514140003826,90.13514140003826,23,0,,,90.13514140003826,90.3355075000436,1000,90.3355075000436,1000,1000,1000,1000,0,num_3,0.031678899948019534,,25,14,2026-03-04_18h28.58.980,2026A_exp2,2022.2.4,59.99876402303458,
1000,1,4.9,6.1,1,0,14,14,4,,,,,90.38572330004536,91.036065399996,91.036065399996,91.53717790002702,45,45,91.53717790002702,91.53717790002702,91.53717790002702,91.53717790002702,91.53717790002702,91.53717790002702,91.53717790002702,91.53717790002702,91.53717790002702,91.88693179999245,91.88693179999245,91.88693179999245,91.88693179999245,91.88693179999245,91.88693179999245,91.88693179999245,91.88693179999245,91.88693179999245,22,0,,,91.88693179999245,92.08710060000885,1000,92.08710060000885,1000,1000,1000,1000,1,num_2,0.07994110003346577,,25,14,2026-03-04_18h28.58.980,2026A_exp2,2022.2.4,59.99876402303458,
1000,1,0.0,0.0,1,0,15,15,27,,,,,92.18727710004896,92.83794090000447,92.83794090000447,93.33904590003658,45,45,93.33904590003658,93.33904590003658,93.33904590003658,93.33904590003658,93.33904590003658,93.33904590003658,93.33904590003658,93.33904590003658,93.33904590003658,93.68873340002028,93.68873340002028,93.68873340002028,93.68873340002028,93.68873340002028,93.68873340002028,93.68873340002028,93.68873340002028,93.68873340002028,22,0,,,93.68873340002028,93.88909010001225,1000,93.88909010001225,1000,1000,1000,1000,1,num_2,0.12572870001895353,,25,14,2026-03-04_18h28.58.980,2026A_exp2,2022.2.4,59.99876402303458,
1,0,0.0,0.0,1,0,16,16,42,,,,,94.03924640000332,94.6907227000338,94.6907227000338,95.19084210001165,45,45,95.19084210001165,95.19084210001165,95.19084210001165,95.19084210001165,95.19084210001165,95.19084210001165,95.19084210001165,95.19084210001165,95.19084210001165,95.55727200000547,95.55727200000547,95.55727200000547,95.55727200000547,95.55727200000547,95.55727200000547,95.55727200000547,95.55727200000547,95.55727200000547,23,0,,,95.55727200000547,95.75749630003702,0.0,95.75749630003702,0,0.0,0,1,1000,num_1,1.1044569999794476,,25,14,2026-03-04_18h28.58.980,2026A_exp2,2022.2.4,59.99876402303458,
1000,1,4.9,3.7,1,0,17,17,46,,,,,96.89181580004515,97.52603180002188,97.52603180002188,98.02704950002953,315,45,98.02704950002953,98.02704950002953,98.02704950002953,98.02704950002953,98.02704950002953,98.02704950002953,98.02704950002953,98.02704950002953,98.02704950002953,98.39334850001615,98.39334850001615,98.39334850001615,98.39334850001615,98.39334850001615,98.39334850001615,98.39334850001615,98.39334850001615,98.39334850001615,23,0,,,98.39334850001615,98.59366549999686,1000,98.59366549999686,1000,1000,1000,1000,1,num_2,0.3968999999924563,,25,14,2026-03-04_18h28.58.980,2026A_exp2,2022.2.4,59.99876402303458,
1000,1,0.0,0.0,1,0,18,18,80,,,,,99.01152870000806,99.66135760000907,99.66135760000907,100.16267930000322,315,315,100.16267930000322,100.16267930000322,100.16267930000322,100.16267930000322,100.16267930000322,100.16267930000322,100.16267930000322,100.16267930000322,100.16267930000322,100.51249839999946,100.51249839999946,100.51249839999946,100.51249839999946,100.51249839999946,100.51249839999946,100.51249839999946,100.51249839999946,100.51249839999946,22,0,,,100.51249839999946,100.7144166000071,1000,100.7144166000071,1000,1000,1000,1000,1,num_2,0.1322167000034824,,25,14,2026-03-04_18h28.58.980,2026A_exp2,2022.2.4,59.99876402303458,
1000,1,0.0,3.7,1,0,19,19,7,,,,,100.86297690001084,101.51343960000668,101.51343960000668,101.9978003000142,315,315,101.9978003000142,101.9978003000142,101.9978003000142,101.9978003000142,101.9978003000142,101.9978003000142,101.9978003000142,101.9978003000142,101.9978003000142,102.36436830001185,102.36436830001185,102.36436830001185,102.36436830001185,102.36436830001185,102.36436830001185,102.36436830001185,102.36436830001185,102.36436830001185,23,0,,,102.36436830001185,102.56643720000284,1000,102.56643720000284,1000,1000,1000,1000,1,num_2,0.06355149997398257,,25,14,2026-03-04_18h28.58.980,2026A_exp2,2022.2.4,59.99876402303458,
1000,1,0.0,0.0,1,0,20,20,72,,,,,102.64778950001346,103.29851090000011,103.29851090000011,103.79992670001229,315,315,103.79992670001229,103.79992670001229,103.79992670001229,103.79992670001229,103.79992670001229,103.79992670001229,103.79992670001229,103.79992670001229,103.79992670001229,104.16626640001778,104.16626640001778,104.16626640001778,104.16626640001778,104.16626640001778,104.16626640001778,104.16626640001778,104.16626640001778,104.16626640001778,23,0,,,104.16626640001778,104.36835890001385,1000,104.36835890001385,1000,1000,1000,1000,1,num_2,0.12603139999555424,,25,14,2026-03-04_18h28.58.980,2026A_exp2,2022.2.4,59.99876402303458,
1,0,6.1,0.0,0,0,21,21,58,,,,,104.51699000003282,105.16719020000892,105.16719020000892,105.66825099999551,315,315,105.66825099999551,105.66825099999551,105.66825099999551,105.66825099999551,105.66825099999551,105.66825099999551,105.66825099999551,105.66825099999551,105.66825099999551,106.0346295000054,106.0346295000054,106.0346295000054,106.0346295000054,106.0346295000054,106.0346295000054,106.0346295000054,106.0346295000054,106.0346295000054,23,0,,,106.0346295000054,106.2349322999944,6.1,106.2349322999944,0,6.1,1,0,1000,num_1,0.9081688999431208,,25,14,2026-03-04_18h28.58.980,2026A_exp2,2022.2.4,59.99876402303458,
1,0,0.0,0.0,0,0,22,22,75,,,,,107.16910009999992,107.80355860001873,107.80355860001873,108.30440510000335,315,315,108.30440510000335,108.30440510000335,108.30440510000335,108.30440510000335,108.30440510000335,108.30440510000335,108.30440510000335,108.30440510000335,108.30440510000335,108.6705418000347,108.6705418000347,108.6705418000347,108.6705418000347,108.6705418000347,108.6705418000347,108.6705418000347,108.6705418000347,108.6705418000347,23,0,,,108.6705418000347,108.87074179999763,0.0,108.87074179999763,0,0.0,0,1,1000,num_1,1.024214299977757,,25,14,2026-03-04_18h28.58.980,2026A_exp2,2022.2.4,59.99876402303458,
1,0,6.1,0.0,1,0,23,23,23,,,,,109.92168750002747,110.57250250002835,110.57250250002835,111.05701920000138,45,45,111.05701920000138,111.05701920000138,111.05701920000138,111.05701920000138,111.05701920000138,111.05701920000138,111.05701920000138,111.05701920000138,111.05701920000138,111.42336930002784,111.42336930002784,111.42336930002784,111.42336930002784,111.42336930002784,111.42336930002784,111.42336930002784,111.42336930002784,111.42336930002784,23,0,,,111.42336930002784,111.62376940000104,0.0,111.62376940000104,0,0.0,0,1,1000,num_1,0.6463456000201404,,25,14,2026-03-04_18h28.58.980,2026A_exp2,2022.2.4,59.99876402303458,
1000,1,0.0,3.7,0,0,24,24,18,,,,,112.2907313000178,112.94157480000285,112.94157480000285,113.42579170002136,315,315,113.42579170002136,113.42579170002136,113.42579170002136,113.42579170002136,113.42579170002136,113.42579170002136,113.42579170002136,113.42579170002136,113.42579170002136,113.79236220003804,113.79236220003804,113.79236220003804,113.79236220003804,113.79236220003804,113.79236220003804,113.79236220003804,113.79236220003804,113.79236220003804,23,0,,,113.79236220003804,113.99382780003361,1000,113.99382780003361,1000,1000,1000,1000,0,num_3,0.1487170000327751,,25,14,2026-03-04_18h28.58.980,2026A_exp2,2022.2.4,59.99876402303458,
1000,1,0.0,3.7,1,0,25,25,81,,,,,114.15951620001579,114.81004609999945,114.81004609999945,115.31113430002006,45,45,115.31113430002006,115.31113430002006,115.31113430002006,115.31113430002006,115.31113430002006,115.31113430002006,115.31113430002006,115.31113430002006,115.31113430002006,115.66098840004997,115.66098840004997,115.66098840004997,115.66098840004997,115.66098840004997,115.66098840004997,115.66098840004997,115.66098840004997,115.66098840004997,22,0,,,115.66098840004997,115.86313670000527,1000,115.86313670000527,1000,1000,1000,1000,1,num_2,0.06351060001179576,,25,14,2026-03-04_18h28.58.980,2026A_exp2,2022.2.4,59.99876402303458,
1000,1,0.0,0.0,1,0,26,26,78,,,,,115.94441590004135,116.59541680000257,116.59541680000257,117.09641350002494,315,45,117.09641350002494,117.09641350002494,117.09641350002494,117.09641350002494,117.09641350002494,117.09641350002494,117.09641350002494,117.09641350002494,117.09641350002494,117.46263550000731,117.46263550000731,117.46263550000731,117.46263550000731,117.46263550000731,117.46263550000731,117.46263550000731,117.46263550000731,117.46263550000731,23,0,,,117.46263550000731,117.66466850001598,1000,117.66466850001598,1000,1000,1000,1000,1,num_2,0.05485830001998693,,25,14,2026-03-04_18h28.58.980,2026A_exp2,2022.2.4,59.99876402303458,
1,0,0.0,0.0,1,0,27,27,60,,,,,117.7465085000149,118.39702820003731,118.39702820003731,118.88152260001516,45,315,118.88152260001516,118.88152260001516,118.88152260001516,118.88152260001516,118.88152260001516,118.88152260001516,118.88152260001516,118.88152260001516,118.88152260001516,119.24789540003985,119.24789540003985,119.24789540003985,119.24789540003985,119.24789540003985,119.24789540003985,119.24789540003985,119.24789540003985,119.24789540003985,23,0,,,119.24789540003985,119.44801009999355,0.0,119.44801009999355,0,0.0,0,1,1000,num_1,0.8466254000086337,,25,14,2026-03-04_18h28.58.980,2026A_exp2,2022.2.4,59.99876402303458,
1,0,0.0,3.7,0,0,28,28,34,,,,,120.3156914000283,120.9663436000119,120.9663436000119,121.46750030003022,45,45,121.46750030003022,121.46750030003022,121.46750030003022,121.46750030003022,121.46750030003022,121.46750030003022,121.46750030003022,121.46750030003022,121.46750030003022,121.83385880000424,121.83385880000424,121.83385880000424,121.83385880000424,121.83385880000424,121.83385880000424,121.83385880000424,121.83385880000424,121.83385880000424,23,0,,,121.83385880000424,122.03402140003163,0.0,122.03402140003163,0,0.0,0,1,1000,num_1,1.0439602000406012,,25,14,2026-03-04_18h28.58.980,2026A_exp2,2022.2.4,59.99876402303458,
1,0,4.9,4.9,1,0,29,29,32,,,,,123.10138480004389,123.75241260003531,123.75241260003531,124.23697890003677,45,45,124.23697890003677,124.23697890003677,124.23697890003677,124.23697890003677,124.23697890003677,124.23697890003677,124.23697890003677,124.23697890003677,124.23697890003677,124.60310300003039,124.60310300003039,124.60310300003039,124.60310300003039,124.60310300003039,124.60310300003039,124.60310300003039,124.60310300003039,124.60310300003039,23,0,,,124.60310300003039,124.80317560001276,4.9,124.80317560001276,0,4.9,1,0,1000,num_1,0.5708878000150435,,25,14,2026-03-04_18h28.58.980,2026A_exp2,2022.2.4,59.99876402303458,
1000,1,0.0,3.7,0,0,30,30,21,,,,,125.40380950004328,126.05463800003054,126.05463800003054,126.55569020000985,45,45,126.55569020000985,126.55569020000985,126.55569020000985,126.55569020000985,126.55569020000985,126.55569020000985,126.55569020000985,126.55569020000985,126.55569020000985,126.92193360003876,126.92193360003876,126.92193360003876,126.92193360003876,126.92193360003876,126.92193360003876,126.92193360003876,126.92193360003876,126.92193360003876,23,0,,,126.92193360003876,127.1225395000074,1000,127.1225395000074,1000,1000,1000,1000,0,num_3,0.060804500011727214,,25,14,2026-03-04_18h28.58.980,2026A_exp2,2022.2.4,59.99876402303458,
1,0,3.7,6.1,0,0,31,31,74,,,,,127.20578410004964,127.8564563000109,127.8564563000109,128.35759760002838,45,45,128.35759760002838,128.35759760002838,128.35759760002838,128.35759760002838,128.35759760002838,128.35759760002838,128.35759760002838,128.35759760002838,128.35759760002838,128.70746110001346,128.70746110001346,128.70746110001346,128.70746110001346,128.70746110001346,128.70746110001346,128.70746110001346,128.70746110001346,128.70746110001346,22,0,,,128.70746110001346,128.9074068000191,3.7,128.9074068000191,0,3.7,1,0,1000,num_1,0.7066483999951743,,25,14,2026-03-04_18h28.58.980,2026A_exp2,2022.2.4,59.99876402303458,
1000,1,4.9,3.7,0,0,32,32,26,,,,,129.64150670001982,130.29205790004926,130.29205790004926,130.77654150000308,315,45,130.77654150000308,130.77654150000308,130.77654150000308,130.77654150000308,130.77654150000308,130.77654150000308,130.77654150000308,130.77654150000308,130.77654150000308,131.14311380003346,131.14311380003346,131.14311380003346,131.14311380003346,131.14311380003346,131.14311380003346,131.14311380003346,131.14311380003346,131.14311380003346,23,0,,,131.14311380003346,131.3449616000289,1000,131.3449616000289,1000,1000,1000,1000,0,num_3,0.07022809999762103,,25,14,2026-03-04_18h28.58.980,2026A_exp2,2022.2.4,59.99876402303458,
1000,1,4.9,6.1,0,0,33,33,59,,,,,131.44347930001095,132.09467740001855,132.09467740001855,132.59512170002563,45,45,132.59512170002563,132.59512170002563,132.59512170002563,132.59512170002563,132.59512170002563,132.59512170002563,132.59512170002563,132.59512170002563,132.59512170002563,132.94493910000892,132.94493910000892,132.94493910000892,132.94493910000892,132.94493910000892,132.94493910000892,132.94493910000892,132.94493910000892,132.94493910000892,22,0,,,132.94493910000892,133.14525890001096,1000,133.14525890001096,1000,1000,1000,1000,0,num_3,0.013292599993292242,,25,14,2026-03-04_18h28.58.980,2026A_exp2,2022.2.4,59.99876402303458,
1,0,4.9,0.0,0,0,34,34,47,,,,,133.17861679999623,133.82919800002128,133.82919800002128,134.31349990004674,315,315,134.31349990004674,134.31349990004674,134.31349990004674,134.31349990004674,134.31349990004674,134.31349990004674,134.31349990004674,134.31349990004674,134.31349990004674,134.68000190000748,134.68000190000748,134.68000190000748,134.68000190000748,134.68000190000748,134.68000190000748,134.68000190000748,134.68000190000748,134.68000190000748,23,0,,,134.68000190000748,134.88009109999985,4.9,134.88009109999985,0,4.9,1,0,1000,num_1,0.5273121999925934,,25,14,2026-03-04_18h28.58.980,2026A_exp2,2022.2.4,59.99876402303458,
1,0,3.7,0.0,1,0,35,35,73,,,,,135.430597700004,136.08140960003948,136.08140960003948,136.56587970000692,45,315,136.56587970000692,136.56587970000692,136.56587970000692,136.56587970000692,136.56587970000692,136.56587970000692,136.56587970000692,136.56587970000692,136.56587970000692,136.93239670002367,136.93239670002367,136.93239670002367,136.93239670002367,136.93239670002367,136.93239670002367,136.93239670002367,136.93239670002367,136.93239670002367,23,0,,,136.93239670002367,137.13233860000037,0.0,137.13233860000037,0,0.0,0,1,1000,num_1,1.4431648000027053,,25,14,2026-03-04_18h28.58.980,2026A_exp2,2022.2.4,59.99876402303458,
1,0,0.0,4.9,0,0,36,36,48,,,,,138.600652299996,139.2512235000031,139.2512235000031,139.73569910001243,315,315,139.73569910001243,139.73569910001243,139.73569910001243,139.73569910001243,139.73569910001243,139.73569910001243,139.73569910001243,139.73569910001243,139.73569910001243,140.10211760003585,140.10211760003585,140.10211760003585,140.10211760003585,140.10211760003585,140.10211760003585,140.10211760003585,140.10211760003585,140.10211760003585,23,0,,,140.10211760003585,140.30232090002391,0.0,140.30232090002391,1,0.0,0,0,1000,num_4,1.5200897000031546,,25,14,2026-03-04_18h28.58.980,2026A_exp2,2022.2.4,59.99876402303458,
1000,1,0.0,4.9,1,0,37,37,51,,,,,141.85394440003438,142.5044576000073,142.5044576000073,142.98881870001787,45,45,142.98881870001787,142.98881870001787,142.98881870001787,142.98881870001787,142.98881870001787,142.98881870001787,142.98881870001787,142.98881870001787,142.98881870001787,143.35534589999588,143.35534589999588,143.35534589999588,143.35534589999588,143.35534589999588,143.35534589999588,143.35534589999588,143.35534589999588,143.35534589999588,23,0,,,143.35534589999588,143.5723213000456,1000,143.5723213000456,1000,1000,1000,1000,1,num_2,0.06642679998185486,,25,14,2026-03-04_18h28.58.980,2026A_exp2,2022.2.4,59.99876402303458,
0,0,0.0,6.1,0,0,38,38,12,,,,,143.65570430003572,144.30650649999734,144.30650649999734,144.80729930003872,45,315,144.80729930003872,144.80729930003872,144.80729930003872,144.80729930003872,144.80729930003872,144.80729930003872,144.80729930003872,144.80729930003872,144.80729930003872,145.17377440002747,145.17377440002747,145.17377440002747,145.17377440002747,145.17377440002747,145.17377440002747,145.17377440002747,145.17377440002747,145.17377440002747,23,0,,,145.17377440002747,145.37404100003187,6.1,145.37404100003187,0,6.1,1,0,1000,num_1,1.0490586000378244,,25,14,2026-03-04_18h28.58.980,2026A_exp2,2022.2.4,59.99876402303458,
1000,1,6.1,0.0,1,0,39,39,61,,,,,146.4416919000214,147.0923340000445,147.0923340000445,147.57667229999788,45,45,147.57667229999788,147.57667229999788,147.57667229999788,147.57667229999788,147.57667229999788,147.57667229999788,147.57667229999788,147.57667229999788,147.57667229999788,147.94312490004813,147.94312490004813,147.94312490004813,147.94312490004813,147.94312490004813,147.94312490004813,147.94312490004813,147.94312490004813,147.94312490004813,23,0,,,147.94312490004813,148.14485380001133,1000,148.14485380001133,1000,1000,1000,1000,1,num_2,0.0783796000177972,,25,14,2026-03-04_18h28.58.980,2026A_exp2,2022.2.4,59.99876402303458,
1000,1,4.9,4.9,1,0,40,40,67,,,,,148.24363129999256,148.894153500034,148.894153500034,149.39547010004753,45,315,149.39547010004753,149.39547010004753,149.39547010004753,149.39547010004753,149.39547010004753,149.39547010004753,149.39547010004753,149.39547010004753,149.39547010004753,149.76175200002035,149.76175200002035,149.76175200002035,149.76175200002035,149.76175200002035,149.76175200002035,149.76175200002035,149.76175200002035,149.76175200002035,23,0,,,149.76175200002035,149.96251570002642,1000,149.96251570002642,1000,1000,1000,1000,1,num_2,0.08370939997257665,,25,14,2026-03-04_18h28.58.980,2026A_exp2,2022.2.4,59.99876402303458,
1,0,4.9,0.0,0,0,41,41,14,,,,,150.06218550004996,150.71263770002406,150.71263770002406,151.21366800001124,315,45,151.21366800001124,151.21366800001124,151.21366800001124,151.21366800001124,151.21366800001124,151.21366800001124,151.21366800001124,151.21366800001124,151.21366800001124,151.5635220000404,151.5635220000404,151.5635220000404,151.5635220000404,151.5635220000404,151.5635220000404,151.5635220000404,151.5635220000404,151.5635220000404,22,0,,,151.5635220000404,151.76349110004958,4.9,151.78038310003467,1,4.9,1,1,1000,num_4,0.7388499999651685,,25,14,2026-03-04_18h28.58.980,2026A_exp2,2022.2.4,59.99876402303458,
1000,1,4.9,4.9,0,0,42,42,36,,,,,152.5478613000014,153.19854120002128,153.19854120002128,153.68290990003152,45,45,153.68290990003152,153.68290990003152,153.68290990003152,153.68290990003152,153.68290990003152,153.68290990003152,153.68290990003152,153.68290990003152,153.68290990003152,154.049312200048,154.049312200048,154.049312200048,154.049312200048,154.049312200048,154.049312200048,154.049312200048,154.049312200048,154.049312200048,23,0,,,154.049312200048,154.25139340001624,1000,154.25139340001624,1000,1000,1000,1000,0,num_3,0.01964930002577603,,25,14,2026-03-04_18h28.58.980,2026A_exp2,2022.2.4,59.99876402303458,
1,0,6.1,0.0,1,0,43,43,41,,,,,154.29965920001268,154.9499056999921,154.9499056999921,155.45120670000324,315,45,155.45120670000324,155.45120670000324,155.45120670000324,155.45120670000324,155.45120670000324,155.45120670000324,155.45120670000324,155.45120670000324,155.45120670000324,155.8009070000262,155.8009070000262,155.8009070000262,155.8009070000262,155.8009070000262,155.8009070000262,155.8009070000262,155.8009070000262,155.8009070000262,22,0,,,155.8009070000262,156.01355530001456,0.0,156.01355530001456,0,0.0,0,1,1000,num_1,0.6415065000182949,,25,14,2026-03-04_18h28.58.980,2026A_exp2,2022.2.4,59.99876402303458,
1,0,4.9,6.1,1,0,44,44,62,,,,,156.68553580000298,157.3377649000031,157.3377649000031,157.83710220002104,315,315,157.83710220002104,157.83710220002104,157.83710220002104,157.83710220002104,157.83710220002104,157.83710220002104,157.83710220002104,157.83710220002104,157.83710220002104,158.2035729000345,158.2035729000345,158.2035729000345,158.2035729000345,158.2035729000345,158.2035729000345,158.2035729000345,158.2035729000345,158.2035729000345,23,0,,,158.2035729000345,158.4038291000179,6.1,158.4038291000179,0,6.1,1,0,1000,num_1,0.1394323999993503,,25,14,2026-03-04_18h28.58.980,2026A_exp2,2022.2.4,59.99876402303458,
1,0,3.7,4.9,0,0,45,45,70,,,,,158.570585700043,159.22126350004692,159.22126350004692,159.7056908000377,45,45,159.7056908000377,159.7056908000377,159.7056908000377,159.7056908000377,159.7056908000377,159.7056908000377,159.7056908000377,159.7056908000377,159.7056908000377,160.07211990002543,160.07211990002543,160.07211990002543,160.07211990002543,160.07211990002543,160.07211990002543,160.07211990002543,160.07211990002543,160.07211990002543,23,0,,,160.07211990002543,160.27217010001186,3.7,160.27217010001186,0,3.7,1,0,1000,num_1,0.7579840999678709,,25,14,2026-03-04_18h28.58.980,2026A_exp2,2022.2.4,59.99876402303458,
1,0,6.1,0.0,1,0,46,46,53,,,,,161.0562660000287,161.70710180001333,161.70710180001333,162.19133810000494,45,45,162.19133810000494,162.19133810000494,162.19133810000494,162.19133810000494,162.19133810000494,162.19133810000494,162.19133810000494,162.19133810000494,162.19133810000494,162.55812920001335,162.55812920001335,162.55812920001335,162.55812920001335,162.55812920001335,162.55812920001335,162.55812920001335,162.55812920001335,162.55812920001335,23,0,,,162.55812920001335,162.7581600000267,0.0,162.7581600000267,0,0.0,0,1,1000,num_1,0.585739400004968,,25,14,2026-03-04_18h28.58.980,2026A_exp2,2022.2.4,59.99876402303458,
1,0,0.0,0.0,1,0,47,47,66,,,,,163.37530670000706,164.02586680004606,164.02586680004606,164.51049310003873,45,45,164.51049310003873,164.51049310003873,164.51049310003873,164.51049310003873,164.51049310003873,164.51049310003873,164.51049310003873,164.51049310003873,164.51049310003873,164.87686509999912,164.87686509999912,164.87686509999912,164.87686509999912,164.87686509999912,164.87686509999912,164.87686509999912,164.87686509999912,164.87686509999912,23,0,,,164.87686509999912,165.0771786000114,0.0,165.0771786000114,0,0.0,0,1,1000,num_1,0.6492598000331782,,25,14,2026-03-04_18h28.58.980,2026A_exp2,2022.2.4,59.99876402303458,
1,0,3.7,0.0,0,0,48,48,15,,,,,165.74425750004593,166.39498899999307,166.39498899999307,166.87948639999377,45,45,166.87948639999377,166.87948639999377,166.87948639999377,166.87948639999377,166.87948639999377,166.87948639999377,166.87948639999377,166.87948639999377,166.87948639999377,167.2458244000445,167.2458244000445,167.2458244000445,167.2458244000445,167.2458244000445,167.2458244000445,167.2458244000445,167.2458244000445,167.2458244000445,23,0,,,167.2458244000445,167.45191280002473,3.7,167.45191280002473,0,3.7,1,0,1000,num_1,0.6196007000398822,,25,14,2026-03-04_18h28.58.980,2026A_exp2,2022.2.4,59.99876402303458,
1,0,0.0,4.9,0,0,49,49,9,,,,,168.09689050004818,168.7474058000371,168.7474058000371,169.24838200001977,315,315,169.24838200001977,169.24838200001977,169.24838200001977,169.24838200001977,169.24838200001977,169.24838200001977,169.24838200001977,169.24838200001977,169.24838200001977,169.61493909999263,169.61493909999263,169.61493909999263,169.61493909999263,169.61493909999263,169.61493909999263,169.61493909999263,169.61493909999263,169.61493909999263,23,0,,,169.61493909999263,169.81505289999768,0.0,169.81505289999768,0,0.0,0,1,1000,num_1,0.1675622999900952,,25,14,2026-03-04_18h28.58.980,2026A_exp2,2022.2.4,59.99876402303458,
1000,1,0.0,0.0,1,0,50,50,63,,,,,169.99867679999443,170.64916810003342,170.64916810003342,171.13374479999766,45,45,171.13374479999766,171.13374479999766,171.13374479999766,171.13374479999766,171.13374479999766,171.13374479999766,171.13374479999766,171.13374479999766,171.13374479999766,171.50006270001177,171.50006270001177,171.50006270001177,171.50006270001177,171.50006270001177,171.50006270001177,171.50006270001177,171.50006270001177,171.50006270001177,23,0,,,171.50006270001177,171.7023840000038,1000,171.7023840000038,1000,1000,1000,1000,0,num_3,0.48905129998456687,,25,14,2026-03-04_18h28.58.980,2026A_exp2,2022.2.4,59.99876402303458,
0,0,4.9,3.7,1,0,51,51,13,,,,,172.21757920004893,172.86825780000072,172.86825780000072,173.36934000003384,315,315,173.36934000003384,173.36934000003384,173.36934000003384,173.36934000003384,173.36934000003384,173.36934000003384,173.36934000003384,173.36934000003384,173.36934000003384,173.719101900002,173.719101900002,173.719101900002,173.719101900002,173.719101900002,173.719101900002,173.719101900002,173.719101900002,173.719101900002,22,0,,,173.719101900002,173.91927810001653,4.9,173.9358814000152,1,4.9,1,1,1000,num_4,1.374805599974934,,25,14,2026-03-04_18h28.58.980,2026A_exp2,2022.2.4,59.99876402303458,
1000,1,3.7,3.7,1,0,52,52,25,,,,,175.3372750999988,175.98795070004417,175.98795070004417,176.47234080004273,315,315,176.47234080004273,176.47234080004273,176.47234080004273,176.47234080004273,176.47234080004273,176.47234080004273,176.47234080004273,176.47234080004273,176.47234080004273,176.83874120004475,176.83874120004475,176.83874120004475,176.83874120004475,176.83874120004475,176.83874120004475,176.83874120004475,176.83874120004475,176.83874120004475,23,0,,,176.83874120004475,177.0407385000144,1000,177.0407385000144,1000,1000,1000,1000,1,num_2,0.07772339996881783,,25,14,2026-03-04_18h28.58.980,2026A_exp2,2022.2.4,59.99876402303458,
1000,1,6.1,3.7,0,0,53,53,43,,,,,177.13903090002714,177.7897282000049,177.7897282000049,178.27407330001006,315,315,178.27407330001006,178.27407330001006,178.27407330001006,178.27407330001006,178.27407330001006,178.27407330001006,178.27407330001006,178.27407330001006,178.27407330001006,178.6406729000155,178.6406729000155,178.6406729000155,178.6406729000155,178.6406729000155,178.6406729000155,178.6406729000155,178.6406729000155,178.6406729000155,23,0,,,178.6406729000155,178.84259780001594,1000,178.84259780001594,1000,1000,1000,1000,0,num_3,0.2917402000166476,,25,14,2026-03-04_18h28.58.980,2026A_exp2,2022.2.4,59.99876402303458,
0,0,4.9,6.1,0,0,54,54,1,,,,,179.15771270002006,179.80835560004925,179.80835560004925,180.30928490002407,315,315,180.30928490002407,180.30928490002407,180.30928490002407,180.30928490002407,180.30928490002407,180.30928490002407,180.30928490002407,180.30928490002407,180.30928490002407,180.6755924000172,180.6755924000172,180.6755924000172,180.6755924000172,180.6755924000172,180.6755924000172,180.6755924000172,180.6755924000172,180.6755924000172,23,0,,,180.6755924000172,180.87603040004615,6.1,180.87603040004615,0,6.1,1,0,1000,num_1,0.7381247000303119,,25,14,2026-03-04_18h28.58.980,2026A_exp2,2022.2.4,59.99876402303458,
1,0,6.1,0.0,0,0,55,55,22,,,,,181.6436961000436,182.29431690002093,182.29431690002093,182.77976150001632,315,315,182.77976150001632,182.77976150001632,182.77976150001632,182.77976150001632,182.77976150001632,182.77976150001632,182.77976150001632,182.77976150001632,182.77976150001632,183.14507140003843,183.14507140003843,183.14507140003843,183.14507140003843,183.14507140003843,183.14507140003843,183.14507140003843,183.14507140003843,183.14507140003843,23,0,,,183.14507140003843,183.34549000003608,6.1,183.34549000003608,0,6.1,1,0,1000,num_1,0.8539386999909766,,25,14,2026-03-04_18h28.58.980,2026A_exp2,2022.2.4,59.99876402303458,
1,0,0.0,6.1,1,0,56,56,17,,,,,184.22957870003302,184.88021660002414,184.88021660002414,185.3646631000447,45,315,185.3646631000447,185.3646631000447,185.3646631000447,185.3646631000447,185.3646631000447,185.3646631000447,185.3646631000447,185.3646631000447,185.3646631000447,185.73110150004504,185.73110150004504,185.73110150004504,185.73110150004504,185.73110150004504,185.73110150004504,185.73110150004504,185.73110150004504,185.73110150004504,23,0,,,185.73110150004504,185.93130029999884,6.1,185.93130029999884,0,6.1,1,0,1000,num_1,0.8434428999898955,,25,14,2026-03-04_18h28.58.980,2026A_exp2,2022.2.4,59.99876402303458,
1,0,0.0,3.7,1,0,57,57,83,,,,,186.7988072000444,187.432763800025,187.432763800025,187.9337146000471,315,45,187.9337146000471,187.9337146000471,187.9337146000471,187.9337146000471,187.9337146000471,187.9337146000471,187.9337146000471,187.9337146000471,187.9337146000471,188.3002832000493,188.3002832000493,188.3002832000493,188.3002832000493,188.3002832000493,188.3002832000493,188.3002832000493,188.3002832000493,188.3002832000493,23,0,,,188.3002832000493,188.500506100012,3.7,188.500506100012,0,3.7,1,0,1000,num_1,0.6183888999512419,,25,14,2026-03-04_18h28.58.980,2026A_exp2,2022.2.4,59.99876402303458,
1,0,6.1,4.9,1,0,58,58,38,,,,,189.15090390003752,189.8016379000037,189.8016379000037,190.28623600001447,315,315,190.28623600001447,190.28623600001447,190.28623600001447,190.28623600001447,190.28623600001447,190.28623600001447,190.28623600001447,190.28623600001447,190.28623600001447,190.6525859000394,190.6525859000394,190.6525859000394,190.6525859000394,190.6525859000394,190.6525859000394,190.6525859000394,190.6525859000394,190.6525859000394,23,0,,,190.6525859000394,190.85268599999836,4.9,190.85268599999836,0,4.9,1,0,1000,num_1,0.2898822000133805,,25,14,2026-03-04_18h28.58.980,2026A_exp2,2022.2.4,59.99876402303458,
1000,1,3.7,3.7,0,0,59,59,76,,,,,191.16983690002235,191.8204913000227,191.8204913000227,192.3048205000232,45,45,192.3048205000232,192.3048205000232,192.3048205000232,192.3048205000232,192.3048205000232,192.3048205000232,192.3048205000232,192.3048205000232,192.3048205000232,192.67137500003446,192.67137500003446,192.67137500003446,192.67137500003446,192.67137500003446,192.67137500003446,192.67137500003446,192.67137500003446,192.67137500003446,23,0,,,192.67137500003446,192.87390669999877,1000,192.87390669999877,1000,1000,1000,1000,0,num_3,0.07623389997752383,,25,14,2026-03-04_18h28.58.980,2026A_exp2,2022.2.4,59.99876402303458,
0,0,0.0,6.1,1,0,60,60,84,,,,,192.97160310001345,193.6225020000129,193.6225020000129,194.12354870000854,315,45,194.12354870000854,194.12354870000854,194.12354870000854,194.12354870000854,194.12354870000854,194.12354870000854,194.12354870000854,194.12354870000854,194.12354870000854,194.48974340001587,194.48974340001587,194.48974340001587,194.48974340001587,194.48974340001587,194.48974340001587,194.48974340001587,194.48974340001587,194.48974340001587,23,0,,,194.48974340001587,194.68999500002246,0.0,194.68999500002246,1,0.0,0,0,1000,num_4,0.8999628000310622,,25,14,2026-03-04_18h28.58.980,2026A_exp2,2022.2.4,59.99876402303458,
1000,1,3.7,0.0,0,0,61,61,28,,,,,195.60758780001197,196.25830710004084,196.25830710004084,196.74250270001357,45,315,196.74250270001357,196.74250270001357,196.74250270001357,196.74250270001357,196.74250270001357,196.74250270001357,196.74250270001357,196.74250270001357,196.74250270001357,197.1090330000152,197.1090330000152,197.1090330000152,197.1090330000152,197.1090330000152,197.1090330000152,197.1090330000152,197.1090330000152,197.1090330000152,23,0,,,197.1090330000152,197.3108871000004,1000,197.3108871000004,1000,1000,1000,1000,0,num_3,0.1992974000168033,,25,14,2026-03-04_18h28.58.980,2026A_exp2,2022.2.4,59.99876402303458,
1,0,3.7,3.7,0,0,62,62,69,,,,,197.52622470003553,198.17684270004975,198.17684270004975,198.67786049999995,45,315,198.67786049999995,198.67786049999995,198.67786049999995,198.67786049999995,198.67786049999995,198.67786049999995,198.67786049999995,198.67786049999995,198.67786049999995,199.044396900048,199.044396900048,199.044396900048,199.044396900048,199.044396900048,199.044396900048,199.044396900048,199.044396900048,199.044396900048,23,0,,,199.044396900048,199.24457860004622,3.7,199.24457860004622,0,3.7,1,0,1000,num_1,0.5377296000369824,,25,14,2026-03-04_18h28.58.980,2026A_exp2,2022.2.4,59.99876402303458,
0,0,3.7,0.0,0,0,63,63,16,,,,,199.81181510002352,200.46228890004568,200.46228890004568,200.94689389999257,45,315,200.94689389999257,200.94689389999257,200.94689389999257,200.94689389999257,200.94689389999257,200.94689389999257,200.94689389999257,200.94689389999257,200.94689389999257,201.31316479999805,201.31316479999805,201.31316479999805,201.31316479999805,201.31316479999805,201.31316479999805,201.31316479999805,201.31316479999805,201.31316479999805,23,0,,,201.31316479999805,201.51334480004152,0.0,201.51334480004152,0,0.0,0,1,1000,num_1,0.40492509998148307,,25,14,2026-03-04_18h28.58.980,2026A_exp2,2022.2.4,59.99876402303458,
1,0,0.0,4.9,1,0,64,64,2,,,,,201.947285000002,202.59793450002326,202.59793450002326,203.0822261000285,315,315,203.0822261000285,203.0822261000285,203.0822261000285,203.0822261000285,203.0822261000285,203.0822261000285,203.0822261000285,203.0822261000285,203.0822261000285,203.44875350000802,203.44875350000802,203.44875350000802,203.44875350000802,203.44875350000802,203.44875350000802,203.44875350000802,203.44875350000802,203.44875350000802,23,0,,,203.44875350000802,203.64898820000235,4.9,203.64898820000235,0,4.9,1,0,1000,num_1,0.8941961000091396,,25,14,2026-03-04_18h28.58.980,2026A_exp2,2022.2.4,59.99876402303458,
1,0,0.0,0.0,0,0,65,65,31,,,,,204.56643230002373,205.21717090002494,205.21717090002494,205.71808090002742,45,45,205.71808090002742,205.71808090002742,205.71808090002742,205.71808090002742,205.71808090002742,205.71808090002742,205.71808090002742,205.71808090002742,205.71808090002742,206.06806360004703,206.06806360004703,206.06806360004703,206.06806360004703,206.06806360004703,206.06806360004703,206.06806360004703,206.06806360004703,206.06806360004703,22,0,,,206.06806360004703,206.26825399999507,0.0,206.26825399999507,0,0.0,0,1,1000,num_1,0.5702320999698713,,25,14,2026-03-04_18h28.58.980,2026A_exp2,2022.2.4,59.99876402303458,
1000,1,6.1,0.0,1,0,66,66,71,,,,,206.86880719999317,207.51947050000308,207.51947050000308,208.0038801000337,315,45,208.0038801000337,208.0038801000337,208.0038801000337,208.0038801000337,208.0038801000337,208.0038801000337,208.0038801000337,208.0038801000337,208.0038801000337,208.37042190000648,208.37042190000648,208.37042190000648,208.37042190000648,208.37042190000648,208.37042190000648,208.37042190000648,208.37042190000648,208.37042190000648,23,0,,,208.37042190000648,208.57255470001837,1000,208.57255470001837,1000,1000,1000,1000,1,num_2,0.16956629999913275,,25,14,2026-03-04_18h28.58.980,2026A_exp2,2022.2.4,59.99876402303458,
1,0,0.0,0.0,0,0,67,67,64,,,,,208.77077930001542,209.42141740000807,209.42141740000807,209.92239680001512,315,45,209.92239680001512,209.92239680001512,209.92239680001512,209.92239680001512,209.92239680001512,209.92239680001512,209.92239680001512,209.92239680001512,209.92239680001512,210.27222179999808,210.27222179999808,210.27222179999808,210.27222179999808,210.27222179999808,210.27222179999808,210.27222179999808,210.27222179999808,210.27222179999808,22,0,,,210.27222179999808,210.4723651999957,0.0,210.4723651999957,1,0.0,0,0,1000,num_4,0.6788270000251941,,25,14,2026-03-04_18h28.58.980,2026A_exp2,2022.2.4,59.99876402303458,
0,0,3.7,0.0,1,0,68,68,0,,,,,211.17316040000878,211.82381990004797,211.82381990004797,212.30805370002054,315,315,212.30805370002054,212.30805370002054,212.30805370002054,212.30805370002054,212.30805370002054,212.30805370002054,212.30805370002054,212.30805370002054,212.30805370002054,212.67458680004347,212.67458680004347,212.67458680004347,212.67458680004347,212.67458680004347,212.67458680004347,212.67458680004347,212.67458680004347,212.67458680004347,23,0,,,212.67458680004347,212.87480839999625,3.7,212.87480839999625,1,3.7,1,1,1000,num_4,1.172180199995637,,25,14,2026-03-04_18h28.58.980,2026A_exp2,2022.2.4,59.99876402303458,
1,0,0.0,0.0,0,0,69,69,87,,,,,214.0759566000197,214.72669690003386,214.72669690003386,215.2110670999973,315,315,215.2110670999973,215.2110670999973,215.2110670999973,215.2110670999973,215.2110670999973,215.2110670999973,215.2110670999973,215.2110670999973,215.2110670999973,215.5776809999952,215.5776809999952,215.5776809999952,215.5776809999952,215.5776809999952,215.5776809999952,215.5776809999952,215.5776809999952,215.5776809999952,23,0,,,215.5776809999952,215.7775668000104,0.0,215.7775668000104,0,0.0,0,1,1000,num_1,0.7565402999753132,,25,14,2026-03-04_18h28.58.980,2026A_exp2,2022.2.4,59.99876402303458,
0,0,0.0,6.1,0,0,70,70,30,,,,,216.56192520004697,217.21250690001762,217.21250690001762,217.71366230002604,315,315,217.71366230002604,217.71366230002604,217.71366230002604,217.71366230002604,217.71366230002604,217.71366230002604,217.71366230002604,217.71366230002604,217.71366230002604,218.0633705999935,218.0633705999935,218.0633705999935,218.0633705999935,218.0633705999935,218.0633705999935,218.0633705999935,218.0633705999935,218.0633705999935,22,0,,,218.0633705999935,218.26344750000862,6.1,218.26344750000862,0,6.1,1,0,1000,num_1,0.23105960001703352,,25,14,2026-03-04_18h28.58.980,2026A_exp2,2022.2.4,59.99876402303458,
1000,1,0.0,0.0,1,0,71,71,8,,,,,218.5138666999992,219.16449719999218,219.16449719999218,219.64884900004836,45,315,219.64884900004836,219.64884900004836,219.64884900004836,219.64884900004836,219.64884900004836,219.64884900004836,219.64884900004836,219.64884900004836,219.64884900004836,220.0153430000064,220.0153430000064,220.0153430000064,220.0153430000064,220.0153430000064,220.0153430000064,220.0153430000064,220.0153430000064,220.0153430000064,23,0,,,220.0153430000064,220.21571240003686,1000,220.21571240003686,1000,1000,1000,1000,1,num_2,0.1113240999984555,,25,14,2026-03-04_18h28.58.980,2026A_exp2,2022.2.4,59.99876402303458,
1000,1,3.7,0.0,1,0,72,72,54,,,,,220.34905140002957,220.99966400000267,220.99966400000267,221.50070780003443,45,45,221.50070780003443,221.50070780003443,221.50070780003443,221.50070780003443,221.50070780003443,221.50070780003443,221.50070780003443,221.50070780003443,221.50070780003443,221.86702669999795,221.86702669999795,221.86702669999795,221.86702669999795,221.86702669999795,221.86702669999795,221.86702669999795,221.86702669999795,221.86702669999795,23,0,,,221.86702669999795,222.07323310000356,1000,222.07323310000356,1000,1000,1000,1000,1,num_2,0.1092631999636069,,25,14,2026-03-04_18h28.58.980,2026A_exp2,2022.2.4,59.99876402303458,
1,0,4.9,3.7,0,0,73,73,89,,,,,222.20090009999694,222.85135340003762,222.85135340003762,223.35262270004023,315,315,223.35262270004023,223.35262270004023,223.35262270004023,223.35262270004023,223.35262270004023,223.35262270004023,223.35262270004023,223.35262270004023,223.35262270004023,223.71897480002372,223.71897480002372,223.71897480002372,223.71897480002372,223.71897480002372,223.71897480002372,223.71897480002372,223.71897480002372,223.71897480002372,23,0,,,223.71897480002372,223.9191183000221,4.9,223.9191183000221,0,4.9,1,0,1000,num_1,0.7996940999873914,,25,14,2026-03-04_18h28.58.980,2026A_exp2,2022.2.4,59.99876402303458,
1000,1,0.0,6.1,0,0,74,74,5,,,,,224.73659520002548,225.38731270004064,225.38731270004064,225.87182320002466,315,315,225.87182320002466,225.87182320002466,225.87182320002466,225.87182320002466,225.87182320002466,225.87182320002466,225.87182320002466,225.87182320002466,225.87182320002466,226.23806120001245,226.23806120001245,226.23806120001245,226.23806120001245,226.23806120001245,226.23806120001245,226.23806120001245,226.23806120001245,226.23806120001245,23,0,,,226.23806120001245,226.43868540000403,1000,226.43868540000403,1000,1000,1000,1000,0,num_3,0.24023809999926016,,25,14,2026-03-04_18h28.58.980,2026A_exp2,2022.2.4,59.99876402303458,
1,0,0.0,0.0,1,0,75,75,24,,,,,226.7053710000473,227.35602980002295,227.35602980002295,227.8404269000166,315,315,227.8404269000166,227.8404269000166,227.8404269000166,227.8404269000166,227.8404269000166,227.8404269000166,227.8404269000166,227.8404269000166,227.8404269000166,228.20676800003275,228.20676800003275,228.20676800003275,228.20676800003275,228.20676800003275,228.20676800003275,228.20676800003275,228.20676800003275,228.20676800003275,23,0,,,228.20676800003275,228.40689280000515,0.0,228.40689280000515,0,0.0,0,1,1000,num_1,0.791306099970825,,25,14,2026-03-04_18h28.58.980,2026A_exp2,2022.2.4,59.99876402303458,
1,0,0.0,0.0,1,0,76,76,56,,,,,229.22448050003732,229.8748652000213,229.8748652000213,230.3596392000327,315,315,230.3596392000327,230.3596392000327,230.3596392000327,230.3596392000327,230.3596392000327,230.3596392000327,230.3596392000327,230.3596392000327,230.3596392000327,230.72586950002005,230.72586950002005,230.72586950002005,230.72586950002005,230.72586950002005,230.72586950002005,230.72586950002005,230.72586950002005,230.72586950002005,23,0,,,230.72586950002005,230.92629630002193,0.0,230.92629630002193,0,0.0,0,1,1000,num_1,0.6731262999819592,,25,14,2026-03-04_18h28.58.980,2026A_exp2,2022.2.4,59.99876402303458,
1,0,3.7,0.0,1,0,77,77,55,,,,,231.62695540004643,232.27749160001986,232.27749160001986,232.76188370003365,315,315,232.76188370003365,232.76188370003365,232.76188370003365,232.76188370003365,232.76188370003365,232.76188370003365,232.76188370003365,232.76188370003365,232.76188370003365,233.12835740001174,233.12835740001174,233.12835740001174,233.12835740001174,233.12835740001174,233.12835740001174,233.12835740001174,233.12835740001174,233.12835740001174,23,0,,,233.12835740001174,233.3286383000086,0.0,233.3286383000086,0,0.0,0,1,1000,num_1,0.49477659998228773,,25,14,2026-03-04_18h28.58.980,2026A_exp2,2022.2.4,59.99876402303458,
0,0,4.9,4.9,0,0,78,78,88,,,,,233.84565910004312,234.49634539999533,234.49634539999533,234.98093439999502,315,45,234.98093439999502,234.98093439999502,234.98093439999502,234.98093439999502,234.98093439999502,234.98093439999502,234.98093439999502,234.98093439999502,234.98093439999502,235.34735930000897,235.34735930000897,235.34735930000897,235.34735930000897,235.34735930000897,235.34735930000897,235.34735930000897,235.34735930000897,235.34735930000897,23,0,,,235.34735930000897,235.54740989999846,4.9,235.54740989999846,1,4.9,1,1,1000,num_4,0.8748076999909244,,25,14,2026-03-04_18h28.58.980,2026A_exp2,2022.2.4,59.99876402303458,
1,0,0.0,4.9,1,0,79,79,44,,,,,236.44837600004394,237.0990234000492,237.0990234000492,237.5835209999932,45,45,237.5835209999932,237.5835209999932,237.5835209999932,237.5835209999932,237.5835209999932,237.5835209999932,237.5835209999932,237.5835209999932,237.5835209999932,237.94990710000275,237.94990710000275,237.94990710000275,237.94990710000275,237.94990710000275,237.94990710000275,237.94990710000275,237.94990710000275,237.94990710000275,23,0,,,237.94990710000275,238.15009680000367,4.9,238.15009680000367,0,4.9,1,0,1000,num_1,0.8721042000106536,,25,14,2026-03-04_18h28.58.980,2026A_exp2,2022.2.4,59.99876402303458,
1,0,0.0,0.0,1,0,80,80,77,,,,,239.05337150004925,239.7125527000171,239.7125527000171,240.2076188000501,45,315,240.2076188000501,240.2076188000501,240.2076188000501,240.2076188000501,240.2076188000501,240.2076188000501,240.2076188000501,240.2076188000501,240.2076188000501,240.5690367000061,240.5690367000061,240.5690367000061,240.5690367000061,240.5690367000061,240.5690367000061,240.5690367000061,240.5690367000061,240.5690367000061,23,0,,,240.5690367000061,240.76931810000679,0.0,240.76931810000679,0,0.0,0,1,1000,num_1,0.8448930999729782,,25,14,2026-03-04_18h28.58.980,2026A_exp2,2022.2.4,59.99876402303458,
1,0,6.1,3.7,1,0,81,81,45,,,,,241.63694290001877,242.28741620003711,242.28741620003711,242.78873020003084,315,315,242.78873020003084,242.78873020003084,242.78873020003084,242.78873020003084,242.78873020003084,242.78873020003084,242.78873020003084,242.78873020003084,242.78873020003084,243.13830520003103,243.13830520003103,243.13830520003103,243.13830520003103,243.13830520003103,243.13830520003103,243.13830520003103,243.13830520003103,243.13830520003103,22,0,,,243.13830520003103,243.33851640002104,3.7,243.33851640002104,0,3.7,1,0,1000,num_1,0.4436433999799192,,25,14,2026-03-04_18h28.58.980,2026A_exp2,2022.2.4,59.99876402303458,
1000,1,0.0,6.1,0,0,82,82,85,,,,,243.80584810004802,244.45639930001926,244.45639930001926,244.9408104000031,315,45,244.9408104000031,244.9408104000031,244.9408104000031,244.9408104000031,244.9408104000031,244.9408104000031,244.9408104000031,244.9408104000031,244.9408104000031,245.3072510000202,245.3072510000202,245.3072510000202,245.3072510000202,245.3072510000202,245.3072510000202,245.3072510000202,245.3072510000202,245.3072510000202,23,0,,,245.3072510000202,245.50931670004502,1000,245.50931670004502,1000,1000,1000,1000,0,num_3,0.6414260000456125,,25,14,2026-03-04_18h28.58.980,2026A_exp2,2022.2.4,59.99876402303458,
1,0,0.0,6.1,1,0,83,83,39,,,,,246.17531800002325,246.82537480001338,246.82537480001338,247.30979460000526,45,315,247.30979460000526,247.30979460000526,247.30979460000526,247.30979460000526,247.30979460000526,247.30979460000526,247.30979460000526,247.30979460000526,247.30979460000526,247.67635240004165,247.67635240004165,247.67635240004165,247.67635240004165,247.67635240004165,247.67635240004165,247.67635240004165,247.67635240004165,247.67635240004165,23,0,,,247.67635240004165,247.87658320000628,6.1,247.87658320000628,0,6.1,1,0,1000,num_1,0.4502879999927245,,25,14,2026-03-04_18h28.58.980,2026A_exp2,2022.2.4,59.99876402303458,
1000,1,0.0,0.0,1,0,84,84,37,,,,,248.34365059999982,248.9951398000121,248.9951398000121,249.47864099999424,45,45,249.47864099999424,249.47864099999424,249.47864099999424,249.47864099999424,249.47864099999424,249.47864099999424,249.47864099999424,249.47864099999424,249.47864099999424,249.84511200000998,249.84511200000998,249.84511200000998,249.84511200000998,249.84511200000998,249.84511200000998,249.84511200000998,249.84511200000998,249.84511200000998,23,0,,,249.84511200000998,250.04531220003264,1000,250.04531220003264,1000,1000,1000,1000,0,num_3,0.7616347000002861,,25,14,2026-03-04_18h28.58.980,2026A_exp2,2022.2.4,59.99876402303458,
1,0,0.0,0.0,1,0,85,85,68,,,,,250.82958620000863,251.4802287000348,251.4802287000348,251.96457400004147,45,45,251.96457400004147,251.96457400004147,251.96457400004147,251.96457400004147,251.96457400004147,251.96457400004147,251.96457400004147,251.96457400004147,251.96457400004147,252.3309925000067,252.3309925000067,252.3309925000067,252.3309925000067,252.3309925000067,252.3309925000067,252.3309925000067,252.3309925000067,252.3309925000067,23,0,,,252.3309925000067,252.53118260001065,0.0,252.53118260001065,0,0.0,0,1,1000,num_1,0.5801133000059053,,25,14,2026-03-04_18h28.58.980,2026A_exp2,2022.2.4,59.99876402303458,
1,0,0.0,6.1,0,0,86,86,3,,,,,253.13179529999616,253.78233240003465,253.78233240003465,254.26689470000565,45,315,254.26689470000565,254.26689470000565,254.26689470000565,254.26689470000565,254.26689470000565,254.26689470000565,254.26689470000565,254.26689470000565,254.26689470000565,254.63325710000936,254.63325710000936,254.63325710000936,254.63325710000936,254.63325710000936,254.63325710000936,254.63325710000936,254.63325710000936,254.63325710000936,23,0,,,254.63325710000936,254.83348050003406,0.0,254.83348050003406,0,0.0,0,1,1000,num_1,0.5004904000088573,,25,14,2026-03-04_18h28.58.980,2026A_exp2,2022.2.4,59.99876402303458,
1000,1,0.0,4.9,0,0,87,87,50,,,,,255.3506500000367,256.0011563000153,256.0011563000153,256.4859274000046,315,315,256.4859274000046,256.4859274000046,256.4859274000046,256.4859274000046,256.4859274000046,256.4859274000046,256.4859274000046,256.4859274000046,256.4859274000046,256.85204900003737,256.85204900003737,256.85204900003737,256.85204900003737,256.85204900003737,256.85204900003737,256.85204900003737,256.85204900003737,256.85204900003737,23,0,,,256.85204900003737,257.05355519999284,1000,257.05355519999284,1000,1000,1000,1000,1,num_2,0.43303760001435876,,25,14,2026-03-04_18h28.58.980,2026A_exp2,2022.2.4,59.99876402303458,
1000,1,0.0,6.1,1,0,88,88,40,,,,,257.5028726000455,258.1534855000209,258.1534855000209,258.6545869000256,45,45,258.6545869000256,258.6545869000256,258.6545869000256,258.6545869000256,258.6545869000256,258.6545869000256,258.6545869000256,258.6545869000256,258.6545869000256,259.0041591000045,259.0041591000045,259.0041591000045,259.0041591000045,259.0041591000045,259.0041591000045,259.0041591000045,259.0041591000045,259.0041591000045,22,0,,,259.0041591000045,259.2064316000324,1000,259.2064316000324,1000,1000,1000,1000,1,num_2,0.4483460999908857,,25,14,2026-03-04_18h28.58.980,2026A_exp2,2022.2.4,59.99876402303458,
0,0,6.1,0.0,0,0,89,89,65,,,,,259.6716463000048,260.3222196000279,260.3222196000279,260.8233248000033,45,45,260.8233248000033,260.8233248000033,260.8233248000033,260.8233248000033,260.8233248000033,260.8233248000033,260.8233248000033,260.8233248000033,260.8233248000033,261.1729691000073,261.1729691000073,261.1729691000073,261.1729691000073,261.1729691000073,261.1729691000073,261.1729691000073,261.1729691000073,261.1729691000073,22,0,,,261.1729691000073,261.3733356000157,0.0,261.3733356000157,1,0.0,0,0,1000,num_4,1.5690140000078827,,25,14,2026-03-04_18h28.58.980,2026A_exp2,2022.2.4,59.99876402303458,
,,,,,,,,,,,,,,,,,,,,,,,,,,,,,,,,,,,,,,,,,,,,,,,,,,,,262.9700017000432,,,,,,,
