validity,detectorcomp,contrastCW,contrastCCW,precueCWorCCW,block_80trials.thisRepN,block_80trials.thisTrialN,block_80trials.thisN,block_80trials.thisIndex,etRecord.started,etRecord.stopped,text.started,text.stopped,text_4.started,text_4.stopped,text_6.started,text_6.stopped,oriCW,oriCCW,roi_2.started,grating_UR.started,grating_UL.started,grating_LR.started,grating_LL.started,noise_UR.started,noise_UL.started,noise_LR.started,noise_LL.started,roi_2.stopped,grating_UR.stopped,grating_UL.stopped,grating_LR.stopped,grating_LL.stopped,noise_UR.stopped,noise_UL.stopped,noise_LR.stopped,noise_LL.stopped,outframe,roi_2.numLooks,roi_2.timesOn,roi_2.timesOff,text_2.started,text_2.stopped,probedcontrast,key_resp.started,respdetect,relevantContrast,correctDetect,TorFdetect,respCWorCCW,key_resp.keys,key_resp.rt,feedback_display_.started,participantNo,blockNo,date,expName,psychopyVersion,frameRate,
1,0,3.7,0.0,0,0,0,0,3,5.819997750222683e-05,5.819997750222683e-05,192.4953638999723,194.50086989998817,194.50086989998817,195.13204799988307,195.13204799988307,195.6571875999216,45,45,195.6571875999216,195.6571875999216,195.6571875999216,195.6571875999216,195.6571875999216,195.6571875999216,195.6571875999216,195.6571875999216,195.6571875999216,195.9999000998214,195.9999000998214,195.9999000998214,195.9999000998214,195.9999000998214,195.9999000998214,195.9999000998214,195.9999000998214,195.9999000998214,0,1,[0.0016906000673770905],[0.36829910008236766],195.9999000998214,196.2076648999937,3.7,196.2076648999937,0,3.7,1,0,1000,num_1,0.5722178001888096,,33,7,2026-03-12_17h47.43.438,2026A_exp2,2022.2.4,59.98120181803946,
1,0,0.0,3.7,0,0,1,1,76,,,,,196.80049939989112,197.45112539990805,197.45112539990805,197.93548949994147,315,315,197.93548949994147,197.93548949994147,197.93548949994147,197.93548949994147,197.93548949994147,197.93548949994147,197.93548949994147,197.93548949994147,197.93548949994147,198.30197369982488,198.30197369982488,198.30197369982488,198.30197369982488,198.30197369982488,198.30197369982488,198.30197369982488,198.30197369982488,198.30197369982488,0,1,[0.0012342000845819712],[0.3670134001877159],198.30197369982488,198.5021649999544,0.0,198.5021649999544,0,0.0,0,1,1000,num_1,0.9732395000755787,,33,7,2026-03-12_17h47.43.438,2026A_exp2,2022.2.4,59.98120181803946,
0,0,0.0,4.9,1,0,2,2,0,,,,,199.50308639998548,200.13722359994426,200.13722359994426,200.6383266998455,45,45,200.6383266998455,200.6383266998455,200.6383266998455,200.6383266998455,200.6383266998455,200.6383266998455,200.6383266998455,200.6383266998455,200.6383266998455,201.00479289982468,201.00479289982468,201.00479289982468,201.00479289982468,201.00479289982468,201.00479289982468,201.00479289982468,201.00479289982468,201.00479289982468,0,1,[0.001209600130096078],[0.3672289999667555],201.00479289982468,201.20486319996417,0.0,201.20486319996417,0,0.0,0,1,1000,num_1,0.7986662001349032,,33,7,2026-03-12_17h47.43.438,2026A_exp2,2022.2.4,59.98120181803946,
1,0,3.7,0.0,0,0,3,3,9,,,,,202.02244560001418,202.6729351999238,202.6729351999238,203.1574945000466,315,315,203.1574945000466,203.1574945000466,203.1574945000466,203.1574945000466,203.1574945000466,203.1574945000466,203.1574945000466,203.1574945000466,203.1574945000466,203.52369299996644,203.52369299996644,203.52369299996644,203.52369299996644,203.52369299996644,203.52369299996644,203.52369299996644,203.52369299996644,203.52369299996644,0,1,[0.0012198998592793941],[0.36713839997537434],203.52369299996644,203.724017099943,3.7,203.724017099943,1,3.7,1,1,1000,num_4,0.670547700021416,,33,7,2026-03-12_17h47.43.438,2026A_exp2,2022.2.4,59.98120181803946,
1,0,0.0,4.9,1,0,4,4,41,,,,,204.42480329982936,205.0754313999787,205.0754313999787,205.55988369998522,45,45,205.55988369998522,205.55988369998522,205.55988369998522,205.55988369998522,205.55988369998522,205.55988369998522,205.55988369998522,205.55988369998522,205.55988369998522,205.92617519991472,205.92617519991472,205.92617519991472,205.92617519991472,205.92617519991472,205.92617519991472,205.92617519991472,205.92617519991472,205.92617519991472,0,1,[0.0012287998106330633],[0.3673610999248922],205.92617519991472,206.12658769986592,4.9,206.12658769986592,1,4.9,1,1,1000,num_4,0.573181000072509,,33,7,2026-03-12_17h47.43.438,2026A_exp2,2022.2.4,59.98120181803946,
0,0,4.9,0.0,1,0,5,5,26,,,,,206.72706449986435,207.3777765999548,207.3777765999548,207.8621187999379,45,45,207.8621187999379,207.8621187999379,207.8621187999379,207.8621187999379,207.8621187999379,207.8621187999379,207.8621187999379,207.8621187999379,207.8621187999379,208.22858490003273,208.22858490003273,208.22858490003273,208.22858490003273,208.22858490003273,208.22858490003273,208.22858490003273,208.22858490003273,208.22858490003273,0,1,[0.0012089000083506107],[0.36727420007809997],208.22858490003273,208.42876949999481,4.9,208.42876949999481,1,4.9,1,1,1000,num_4,0.6071663999464363,,33,7,2026-03-12_17h47.43.438,2026A_exp2,2022.2.4,59.98120181803946,
0,0,3.7,3.7,1,0,6,6,62,,,,,209.06266199983656,209.71345789986663,209.71345789986663,210.19792329985648,315,45,210.19792329985648,210.19792329985648,210.19792329985648,210.19792329985648,210.19792329985648,210.19792329985648,210.19792329985648,210.19792329985648,210.19792329985648,210.5643316998612,210.5643316998612,210.5643316998612,210.5643316998612,210.5643316998612,210.5643316998612,210.5643316998612,210.5643316998612,210.5643316998612,0,1,[0.0011923001147806644],[0.36717840004712343],210.5643316998612,210.76461769989692,3.7,210.76461769989692,1,3.7,1,1,1000,num_4,0.7346176002174616,,33,7,2026-03-12_17h47.43.438,2026A_exp2,2022.2.4,59.98120181803946,
1000,1,0.0,3.7,1,0,7,7,67,,,,,211.5151452999562,212.16573939984664,212.16573939984664,212.6503359999042,45,315,212.6503359999042,212.6503359999042,212.6503359999042,212.6503359999042,212.6503359999042,212.6503359999042,212.6503359999042,212.6503359999042,212.6503359999042,213.01678299997002,213.01678299997002,213.01678299997002,213.01678299997002,213.01678299997002,213.01678299997002,213.01678299997002,213.01678299997002,213.01678299997002,0,1,[0.0012839001137763262],[0.3671842000912875],213.01678299997002,213.2171455998905,1000,213.2171455998905,1000,1000,1000,1000,1,num_2,0.5615628999657929,,33,7,2026-03-12_17h47.43.438,2026A_exp2,2022.2.4,59.98120181803946,
1000,1,6.1,0.0,0,0,8,8,69,,,,,213.80066849989817,214.45731329987757,214.45731329987757,214.94737359997816,45,315,214.94737359997816,214.94737359997816,214.94737359997816,214.94737359997816,214.94737359997816,214.94737359997816,214.94737359997816,214.94737359997816,214.94737359997816,215.30250609992072,215.30250609992072,215.30250609992072,215.30250609992072,215.30250609992072,215.30250609992072,215.30250609992072,215.30250609992072,215.30250609992072,0,1,[0.003585000056773424],[0.36453580018132925],215.30250609992072,215.5025219998788,1000,215.51939369994216,1000,1000,1000,1000,0,num_3,0.5004157000221312,,33,7,2026-03-12_17h47.43.438,2026A_exp2,2022.2.4,59.98120181803946,
1,0,0.0,0.0,1,0,9,9,58,,,,,216.03774799988605,216.68707039998844,216.68707039998844,217.18808189989068,45,315,217.18808189989068,217.18808189989068,217.18808189989068,217.18808189989068,217.18808189989068,217.18808189989068,217.18808189989068,217.18808189989068,217.18808189989068,217.5545929998625,217.5545929998625,217.5545929998625,217.5545929998625,217.5545929998625,217.5545929998625,217.5545929998625,217.5545929998625,217.5545929998625,0,1,[0.0012133000418543816],[0.3670415000524372],217.5545929998625,217.7549409000203,0.0,217.7549409000203,1,0.0,0,0,1000,num_4,1.615827000234276,,33,7,2026-03-12_17h47.43.438,2026A_exp2,2022.2.4,59.98120181803946,
1,0,0.0,0.0,0,0,10,10,6,,,,,219.38944890000857,220.040499499999,220.040499499999,220.52495240001008,45,315,220.52495240001008,220.52495240001008,220.52495240001008,220.52495240001008,220.52495240001008,220.52495240001008,220.52495240001008,220.52495240001008,220.52495240001008,220.89134399988689,220.89134399988689,220.89134399988689,220.89134399988689,220.89134399988689,220.89134399988689,220.89134399988689,220.89134399988689,220.89134399988689,0,1,[0.0007555000483989716],[0.3676956999115646],220.89134399988689,221.09148860001005,0.0,221.09148860001005,0,0.0,0,1,1000,num_1,1.127840100089088,,33,7,2026-03-12_17h47.43.438,2026A_exp2,2022.2.4,59.98120181803946,
1000,1,3.7,3.7,1,0,11,11,54,,,,,222.24256070004776,222.89318139990792,222.89318139990792,223.37772879982367,45,45,223.37772879982367,223.37772879982367,223.37772879982367,223.37772879982367,223.37772879982367,223.37772879982367,223.37772879982367,223.37772879982367,223.37772879982367,223.74398459983058,223.74398459983058,223.74398459983058,223.74398459983058,223.74398459983058,223.74398459983058,223.74398459983058,223.74398459983058,223.74398459983058,0,1,[0.0012008999474346638],[0.3671994998585433],223.74398459983058,223.9459575000219,1000,223.9459575000219,1000,1000,1000,1000,0,num_3,0.617288599954918,,33,7,2026-03-12_17h47.43.438,2026A_exp2,2022.2.4,59.98120181803946,
1000,1,6.1,6.1,0,0,12,12,87,,,,,224.57812219997868,225.2289966000244,225.2289966000244,225.730126200011,315,315,225.730126200011,225.730126200011,225.730126200011,225.730126200011,225.730126200011,225.730126200011,225.730126200011,225.730126200011,225.730126200011,226.09653280000202,226.09653280000202,226.09653280000202,226.09653280000202,226.09653280000202,226.09653280000202,226.09653280000202,226.09653280000202,226.09653280000202,0,1,[0.0012370999902486801],[0.3671220999676734],226.09653280000202,226.29854699992575,1000,226.29854699992575,1000,1000,1000,1000,1,num_2,0.5360467000864446,,33,7,2026-03-12_17h47.43.438,2026A_exp2,2022.2.4,59.98120181803946,
0,0,0.0,6.1,1,0,13,13,46,,,,,226.8637991999276,227.51453589997254,227.51453589997254,228.01564590004273,315,45,228.01564590004273,228.01564590004273,228.01564590004273,228.01564590004273,228.01564590004273,228.01564590004273,228.01564590004273,228.01564590004273,228.01564590004273,228.38209860003553,228.38209860003553,228.38209860003553,228.38209860003553,228.38209860003553,228.38209860003553,228.38209860003553,228.38209860003553,228.38209860003553,0,1,[0.0012396001257002354],[0.3672655001282692],228.38209860003553,228.58238009992056,0.0,228.58238009992056,0,0.0,0,1,1000,num_1,0.5723519001621753,,33,7,2026-03-12_17h47.43.438,2026A_exp2,2022.2.4,59.98120181803946,
0,0,0.0,4.9,0,0,14,14,65,,,,,229.18274779990315,229.83350760000758,229.83350760000758,230.31803840002976,45,315,230.31803840002976,230.31803840002976,230.31803840002976,230.31803840002976,230.31803840002976,230.31803840002976,230.31803840002976,230.31803840002976,230.31803840002976,230.6844011999201,230.6844011999201,230.6844011999201,230.6844011999201,230.6844011999201,230.6844011999201,230.6844011999201,230.6844011999201,230.6844011999201,0,1,[0.0012151000555604696],[0.3671836999710649],230.6844011999201,230.8846026000101,4.9,230.8846026000101,1,4.9,1,1,1000,num_4,0.5592230001930147,,33,7,2026-03-12_17h47.43.438,2026A_exp2,2022.2.4,59.98120181803946,
1000,1,3.7,0.0,1,0,15,15,38,,,,,231.46828519995324,232.11917810002342,232.11917810002342,232.60362569987774,315,315,232.60362569987774,232.60362569987774,232.60362569987774,232.60362569987774,232.60362569987774,232.60362569987774,232.60362569987774,232.60362569987774,232.60362569987774,232.96993999998085,232.96993999998085,232.96993999998085,232.96993999998085,232.96993999998085,232.96993999998085,232.96993999998085,232.96993999998085,232.96993999998085,0,1,[0.001295400084927678],[0.36702909995801747],232.96993999998085,233.19771309988573,1000,233.19771309988573,1000,1000,1000,1000,0,num_3,0.5169856001157314,,33,7,2026-03-12_17h47.43.438,2026A_exp2,2022.2.4,59.98120181803946,
1000,1,3.7,0.0,0,0,16,16,55,,,,,233.73728529992513,234.3715774999,234.3715774999,234.87269170000218,315,315,234.87269170000218,234.87269170000218,234.87269170000218,234.87269170000218,234.87269170000218,234.87269170000218,234.87269170000218,234.87269170000218,234.87269170000218,235.23888079985045,235.23888079985045,235.23888079985045,235.23888079985045,235.23888079985045,235.23888079985045,235.23888079985045,235.23888079985045,235.23888079985045,0,1,[0.0012091000098735094],[0.3673574000131339],235.23888079985045,235.47351899999194,1000,235.47351899999194,1000,1000,1000,1000,0,num_3,0.42622500006109476,,33,7,2026-03-12_17h47.43.438,2026A_exp2,2022.2.4,59.98120181803946,
1000,1,0.0,4.9,1,0,17,17,72,,,,,235.92311019985937,236.57358699990436,236.57358699990436,237.07476420002058,45,45,237.07476420002058,237.07476420002058,237.07476420002058,237.07476420002058,237.07476420002058,237.07476420002058,237.07476420002058,237.07476420002058,237.07476420002058,237.42425709986128,237.42425709986128,237.42425709986128,237.42425709986128,237.42425709986128,237.42425709986128,237.42425709986128,237.42425709986128,237.42425709986128,1,1,[0.0010731001384556293],[0.35060150013305247],237.42425709986128,237.62682949984446,1000,237.62682949984446,1000,1000,1000,1000,1,num_2,0.4569624001160264,,33,7,2026-03-12_17h47.43.438,2026A_exp2,2022.2.4,59.98120181803946,
1000,1,0.0,0.0,0,0,18,18,79,,,,,238.11205179989338,238.75899869995192,238.75899869995192,239.26010999991558,45,315,239.26010999991558,239.26010999991558,239.26010999991558,239.26010999991558,239.26010999991558,239.26010999991558,239.26010999991558,239.26010999991558,239.26010999991558,239.62661399994977,239.62661399994977,239.62661399994977,239.62661399994977,239.62661399994977,239.62661399994977,239.62661399994977,239.62661399994977,239.62661399994977,23,0,,,239.62661399994977,239.82676759990864,1000,239.82676759990864,1000,1000,1000,1000,0,num_3,0.6484765000641346,,33,7,2026-03-12_17h47.43.438,2026A_exp2,2022.2.4,59.98120181803946,
1,0,4.9,4.9,1,0,19,19,18,,,,,240.49416249990463,241.14487669989467,241.14487669989467,241.6460253999103,45,315,241.6460253999103,241.6460253999103,241.6460253999103,241.6460253999103,241.6460253999103,241.6460253999103,241.6460253999103,241.6460253999103,241.6460253999103,242.0123378999997,242.0123378999997,242.0123378999997,242.0123378999997,242.0123378999997,242.0123378999997,242.0123378999997,242.0123378999997,242.0123378999997,6,2,"[0.050121899927034974, 0.11663000006228685]","[0.0666805999353528, 0.3670628999825567]",242.0123378999997,242.2127276000101,4.9,242.2127276000101,1,4.9,1,1,1000,num_4,0.6073751000221819,,33,7,2026-03-12_17h47.43.438,2026A_exp2,2022.2.4,59.98120181803946,
1000,1,4.9,0.0,1,0,20,20,74,,,,,242.84636970004067,243.49724619998597,243.49724619998597,243.9815242998302,315,45,243.9815242998302,243.9815242998302,243.9815242998302,243.9815242998302,243.9815242998302,243.9815242998302,243.9815242998302,243.9815242998302,243.9815242998302,244.3480982000474,244.3480982000474,244.3480982000474,244.3480982000474,244.3480982000474,244.3480982000474,244.3480982000474,244.3480982000474,244.3480982000474,2,3,"[0.001299499999731779, 0.23373960005119443, 0.35047629987820983]","[0.216978499898687, 0.3338518999516964, 0.36705340002663434]",244.3480982000474,244.5483690998517,1000,244.5483690998517,1000,1000,1000,1000,0,num_3,0.6943671000190079,,33,7,2026-03-12_17h47.43.438,2026A_exp2,2022.2.4,59.98120181803946,
1,0,4.9,6.1,1,0,21,21,36,,,,,245.26549259992316,245.91631859983318,245.91631859983318,246.41722920001484,315,45,246.41722920001484,246.41722920001484,246.41722920001484,246.41722920001484,246.41722920001484,246.41722920001484,246.41722920001484,246.41722920001484,246.41722920001484,246.7838824999053,246.7838824999053,246.7838824999053,246.7838824999053,246.7838824999053,246.7838824999053,246.7838824999053,246.7838824999053,246.7838824999053,0,1,[0.0012094001285731792],[0.36697679990902543],246.7838824999053,246.98413009988144,6.1,246.98413009988144,1,6.1,1,1,1000,num_4,0.7385933001060039,,33,7,2026-03-12_17h47.43.438,2026A_exp2,2022.2.4,59.98120181803946,
1000,1,0.0,6.1,0,0,22,22,27,,,,,247.75127999996766,248.40200249990448,248.40200249990448,248.88662899984047,315,315,248.88662899984047,248.88662899984047,248.88662899984047,248.88662899984047,248.88662899984047,248.88662899984047,248.88662899984047,248.88662899984047,248.88662899984047,249.25298039987683,249.25298039987683,249.25298039987683,249.25298039987683,249.25298039987683,249.25298039987683,249.25298039987683,249.25298039987683,249.25298039987683,0,1,[0.0012941998429596424],[0.36733439983800054],249.25298039987683,249.45530739985406,1000,249.45530739985406,1000,1000,1000,1000,1,num_2,0.5957805002108216,,33,7,2026-03-12_17h47.43.438,2026A_exp2,2022.2.4,59.98120181803946,
1,0,0.0,0.0,0,0,23,23,11,,,,,250.07043209997937,250.72087059984915,250.72087059984915,251.22213230002671,45,45,251.22213230002671,251.22213230002671,251.22213230002671,251.22213230002671,251.22213230002671,251.22213230002671,251.22213230002671,251.22213230002671,251.22213230002671,251.58872250001878,251.58872250001878,251.58872250001878,251.58872250001878,251.58872250001878,251.58872250001878,251.58872250001878,251.58872250001878,251.58872250001878,0,1,[0.0012100001331418753],[0.36688799993135035],251.58872250001878,251.78877919982187,0.0,251.78877919982187,0,0.0,0,1,1000,num_1,0.7739091999828815,,33,7,2026-03-12_17h47.43.438,2026A_exp2,2022.2.4,59.98120181803946,
1,0,4.9,6.1,0,0,24,24,29,,,,,252.58949189982377,253.2403243998997,253.2403243998997,253.7247415999882,45,315,253.7247415999882,253.7247415999882,253.7247415999882,253.7247415999882,253.7247415999882,253.7247415999882,253.7247415999882,253.7247415999882,253.7247415999882,254.0909962998703,254.0909962998703,254.0909962998703,254.0909962998703,254.0909962998703,254.0909962998703,254.0909962998703,254.0909962998703,254.0909962998703,0,1,[0.0011871999595314264],[0.3673439999110997],254.0909962998703,254.2913905000314,4.9,254.2913905000314,0,4.9,1,0,1000,num_1,1.199877800187096,,33,7,2026-03-12_17h47.43.438,2026A_exp2,2022.2.4,59.98120181803946,
1,0,0.0,3.7,1,0,25,25,30,,,,,255.50909309997223,256.15988239995204,256.15988239995204,256.64431739994325,315,45,256.64431739994325,256.64431739994325,256.64431739994325,256.64431739994325,256.64431739994325,256.64431739994325,256.64431739994325,256.64431739994325,256.64431739994325,257.0107321999967,257.0107321999967,257.0107321999967,257.0107321999967,257.0107321999967,257.0107321999967,257.0107321999967,257.0107321999967,257.0107321999967,0,1,[0.0012213001027703285],[0.36727560008876026],257.0107321999967,257.210850100033,3.7,257.210850100033,1,3.7,1,1,1000,num_4,0.6157883000560105,,33,7,2026-03-12_17h47.43.438,2026A_exp2,2022.2.4,59.98120181803946,
1000,1,4.9,0.0,0,0,26,26,45,,,,,257.84478449984454,258.47890260000713,258.47890260000713,258.9800026998855,315,315,258.9800026998855,258.9800026998855,258.9800026998855,258.9800026998855,258.9800026998855,258.9800026998855,258.9800026998855,258.9800026998855,258.9800026998855,259.3462557999883,259.3462557999883,259.3462557999883,259.3462557999883,259.3462557999883,259.3462557999883,259.3462557999883,259.3462557999883,259.3462557999883,0,1,[0.0012077998835593462],[0.3670659998897463],259.3462557999883,259.54834289988503,1000,259.54834289988503,1000,1000,1000,1000,0,num_3,0.4714131001383066,,33,7,2026-03-12_17h47.43.438,2026A_exp2,2022.2.4,59.98120181803946,
1,0,0.0,0.0,0,0,27,27,39,,,,,260.04697629995644,260.6977005000226,260.6977005000226,261.198794499971,315,315,261.198794499971,261.198794499971,261.198794499971,261.198794499971,261.198794499971,261.198794499971,261.198794499971,261.198794499971,261.198794499971,261.5483390998561,261.5483390998561,261.5483390998561,261.5483390998561,261.5483390998561,261.5483390998561,261.5483390998561,261.5483390998561,261.5483390998561,0,1,[0.0012799000833183527],[0.3504951000213623],261.5483390998561,261.7487864999566,0.0,261.7487864999566,0,0.0,0,1,1000,num_1,0.6705024000257254,,33,7,2026-03-12_17h47.43.438,2026A_exp2,2022.2.4,59.98120181803946,
1,0,0.0,0.0,1,0,28,28,4,,,,,262.44934689998627,263.1001869998872,263.1001869998872,263.5844024999533,315,45,263.5844024999533,263.5844024999533,263.5844024999533,263.5844024999533,263.5844024999533,263.5844024999533,263.5844024999533,263.5844024999533,263.5844024999533,263.9509147000499,263.9509147000499,263.9509147000499,263.9509147000499,263.9509147000499,263.9509147000499,263.9509147000499,263.9509147000499,263.9509147000499,0,1,[0.0007195000071078539],[0.367205600021407],263.9509147000499,264.1513155999128,0.0,264.1513155999128,1,0.0,0,0,1000,num_4,0.6691060001030564,,33,7,2026-03-12_17h47.43.438,2026A_exp2,2022.2.4,59.98120181803946,
1000,1,4.9,0.0,1,0,29,29,84,,,,,264.8516457998194,265.5026278998703,265.5026278998703,265.98707439983264,45,45,265.98707439983264,265.98707439983264,265.98707439983264,265.98707439983264,265.98707439983264,265.98707439983264,265.98707439983264,265.98707439983264,265.98707439983264,266.3533305998426,266.3533305998426,266.3533305998426,266.3533305998426,266.3533305998426,266.3533305998426,266.3533305998426,266.3533305998426,266.3533305998426,13,3,"[0.037887899903580546, 0.2505258999299258, 0.3006398999132216]","[0.1501094000414014, 0.2672684998251498, 0.33394659985788167]",266.3533305998426,266.5552672999911,1000,266.5552672999911,1000,1000,1000,1000,0,num_3,0.45536130014806986,,33,7,2026-03-12_17h47.43.438,2026A_exp2,2022.2.4,59.98120181803946,
1000,1,0.0,3.7,0,0,30,30,50,,,,,267.0373317999765,267.6882737998385,267.6882737998385,268.1726446999237,315,315,268.1726446999237,268.1726446999237,268.1726446999237,268.1726446999237,268.1726446999237,268.1726446999237,268.1726446999237,268.1726446999237,268.1726446999237,268.5388962000143,268.5388962000143,268.5388962000143,268.5388962000143,268.5388962000143,268.5388962000143,268.5388962000143,268.5388962000143,268.5388962000143,0,1,[0.0008203000761568546],[0.3671793001703918],268.5388962000143,268.74100499995984,1000,268.75578240002505,1000,1000,1000,1000,1,num_2,0.5917754999827594,,33,7,2026-03-12_17h47.43.438,2026A_exp2,2022.2.4,59.98120181803946,
1000,1,0.0,3.7,1,0,31,31,1,,,,,269.3730211998336,270.02357860002667,270.02357860002667,270.53843309986405,315,315,270.53843309986405,270.53843309986405,270.53843309986405,270.53843309986405,270.53843309986405,270.53843309986405,270.53843309986405,270.53843309986405,270.53843309986405,270.8911659999285,270.8911659999285,270.8911659999285,270.8911659999285,270.8911659999285,270.8911659999285,270.8911659999285,270.8911659999285,270.8911659999285,0,1,[0.0037910998798906803],[0.3643443000037223],270.8911659999285,271.0935647999868,1000,271.0935647999868,1000,1000,1000,1000,1,num_2,0.4062918000854552,,33,7,2026-03-12_17h47.43.438,2026A_exp2,2022.2.4,59.98120181803946,
1000,1,0.0,0.0,0,0,32,32,13,,,,,271.525142399827,272.17587629985064,272.17587629985064,272.6769208998885,45,45,272.6769208998885,272.6769208998885,272.6769208998885,272.6769208998885,272.6769208998885,272.6769208998885,272.6769208998885,272.6769208998885,272.6769208998885,273.04345969995484,273.04345969995484,273.04345969995484,273.04345969995484,273.04345969995484,273.04345969995484,273.04345969995484,273.04345969995484,273.04345969995484,10,2,"[0.11698399996384978, 0.3505597999319434]","[0.3005272999871522, 0.3673761999234557]",273.04345969995484,273.2455040998757,1000,273.2455040998757,1000,1000,1000,1000,0,num_3,0.5736078002955765,,33,7,2026-03-12_17h47.43.438,2026A_exp2,2022.2.4,59.98120181803946,
0,0,0.0,0.0,1,0,33,33,14,,,,,273.84428179985844,274.50076620001346,274.50076620001346,274.9969097999856,45,315,274.9969097999856,274.9969097999856,274.9969097999856,274.9969097999856,274.9969097999856,274.9969097999856,274.9969097999856,274.9969097999856,274.9969097999856,275.3457984998822,275.3457984998822,275.3457984998822,275.3457984998822,275.3457984998822,275.3457984998822,275.3457984998822,275.3457984998822,275.3457984998822,22,0,,,275.3457984998822,275.54599149990827,0.0,275.5625417998526,0,0.0,0,1,1000,num_1,0.4721331000328064,,33,7,2026-03-12_17h47.43.438,2026A_exp2,2022.2.4,59.98120181803946,
1000,1,3.7,4.9,0,0,34,34,25,,,,,276.06306309998035,276.7071976000443,276.7071976000443,277.201366599882,45,45,277.201366599882,277.201366599882,277.201366599882,277.201366599882,277.201366599882,277.201366599882,277.201366599882,277.201366599882,277.201366599882,277.5646382998675,277.5646382998675,277.5646382998675,277.5646382998675,277.5646382998675,277.5646382998675,277.5646382998675,277.5646382998675,277.5646382998675,8,1,[0.13268620008602738],[0.3660265998914838],277.5646382998675,277.7667029998265,1000,277.7667029998265,1000,1000,1000,1000,1,num_2,0.46803470025770366,,33,7,2026-03-12_17h47.43.438,2026A_exp2,2022.2.4,59.98120181803946,
1,0,0.0,0.0,0,0,35,35,32,,,,,278.2651547999121,278.9159540999681,278.9159540999681,279.4170426998753,315,315,279.4170426998753,279.4170426998753,279.4170426998753,279.4170426998753,279.4170426998753,279.4170426998753,279.4170426998753,279.4170426998753,279.4170426998753,279.78330729994923,279.78330729994923,279.78330729994923,279.78330729994923,279.78330729994923,279.78330729994923,279.78330729994923,279.78330729994923,279.78330729994923,3,1,[0.05015080003067851],[0.36744370008818805],279.78330729994923,279.9834378999658,0.0,279.9834378999658,0,0.0,0,1,1000,num_1,0.9717578000854701,,33,7,2026-03-12_17h47.43.438,2026A_exp2,2022.2.4,59.98120181803946,
0,0,0.0,0.0,1,0,36,36,80,,,,,280.9845527999569,281.6353855000343,281.6353855000343,282.13650709996,45,315,282.13650709996,282.13650709996,282.13650709996,282.13650709996,282.13650709996,282.13650709996,282.13650709996,282.13650709996,282.13650709996,282.5029622998554,282.5029622998554,282.5029622998554,282.5029622998554,282.5029622998554,282.5029622998554,282.5029622998554,282.5029622998554,282.5029622998554,23,0,,,282.5029622998554,282.7031230998691,0.0,282.7031230998691,1,0.0,0,0,1000,num_4,0.7966218001674861,,33,7,2026-03-12_17h47.43.438,2026A_exp2,2022.2.4,59.98120181803946,
1,0,3.7,6.1,1,0,37,37,75,,,,,283.5204229999799,284.1714522000402,284.1714522000402,284.6723072999157,315,315,284.6723072999157,284.6723072999157,284.6723072999157,284.6723072999157,284.6723072999157,284.6723072999157,284.6723072999157,284.6723072999157,284.6723072999157,285.0220504999161,285.0220504999161,285.0220504999161,285.0220504999161,285.0220504999161,285.0220504999161,285.0220504999161,285.0220504999161,285.0220504999161,22,0,,,285.0220504999161,285.222218999872,6.1,285.222218999872,1,6.1,1,1,1000,num_4,0.8443442001007497,,33,7,2026-03-12_17h47.43.438,2026A_exp2,2022.2.4,59.98120181803946,
1000,1,4.9,3.7,0,0,38,38,40,,,,,286.09031519992277,286.740508900024,286.740508900024,287.2248903999571,315,315,287.2248903999571,287.2248903999571,287.2248903999571,287.2248903999571,287.2248903999571,287.2248903999571,287.2248903999571,287.2248903999571,287.2248903999571,287.59113029995933,287.59113029995933,287.59113029995933,287.59113029995933,287.59113029995933,287.59113029995933,287.59113029995933,287.59113029995933,287.59113029995933,23,0,,,287.59113029995933,287.79334610002115,1000,287.79334610002115,1000,1000,1000,1000,0,num_3,0.6101587002631277,,33,7,2026-03-12_17h47.43.438,2026A_exp2,2022.2.4,59.98120181803946,
1000,1,6.1,6.1,1,0,39,39,53,,,,,288.42534979991615,289.0760874999687,289.0760874999687,289.5771830000449,45,315,289.5771830000449,289.5771830000449,289.5771830000449,289.5771830000449,289.5771830000449,289.5771830000449,289.5771830000449,289.5771830000449,289.5771830000449,289.94362879986875,289.94362879986875,289.94362879986875,289.94362879986875,289.94362879986875,289.94362879986875,289.94362879986875,289.94362879986875,289.94362879986875,0,1,[0.0012125999201089144],[0.36725690006278455],289.94362879986875,290.1439183000475,1000,290.1439183000475,1000,1000,1000,1000,1,num_2,0.4760642999317497,,33,7,2026-03-12_17h47.43.438,2026A_exp2,2022.2.4,59.98120181803946,
1000,1,6.1,4.9,1,0,40,40,86,,,,,290.644391000038,291.2948687998578,291.2948687998578,291.77948280004784,45,45,291.77948280004784,291.77948280004784,291.77948280004784,291.77948280004784,291.77948280004784,291.77948280004784,291.77948280004784,291.77948280004784,291.77948280004784,292.1457960999105,292.1457960999105,292.1457960999105,292.1457960999105,292.1457960999105,292.1457960999105,292.1457960999105,292.1457960999105,292.1457960999105,1,2,"[0.0012448001652956009, 0.166999600129202]","[0.15015690005384386, 0.3672255000565201]",292.1457960999105,292.34785009990446,1000,292.34785009990446,1000,1000,1000,1000,0,num_3,0.6709761002566665,,33,7,2026-03-12_17h47.43.438,2026A_exp2,2022.2.4,59.98120181803946,
1000,1,0.0,0.0,0,0,41,41,24,,,,,293.0467634999659,293.6974706999026,293.6974706999026,294.19814829993993,315,45,294.19814829993993,294.19814829993993,294.19814829993993,294.19814829993993,294.19814829993993,294.19814829993993,294.19814829993993,294.19814829993993,294.19814829993993,294.56477319984697,294.56477319984697,294.56477319984697,294.56477319984697,294.56477319984697,294.56477319984697,294.56477319984697,294.56477319984697,294.56477319984697,0,1,[0.0010840999893844128],[0.36774119990877807],294.56477319984697,294.76702379994094,1000,294.76702379994094,1000,1000,1000,1000,1,num_2,0.6676473000552505,,33,7,2026-03-12_17h47.43.438,2026A_exp2,2022.2.4,59.98120181803946,
1000,1,4.9,0.0,1,0,42,42,56,,,,,295.4659084000159,296.11648389999755,296.11648389999755,296.6176143998746,315,45,296.6176143998746,296.6176143998746,296.6176143998746,296.6176143998746,296.6176143998746,296.6176143998746,296.6176143998746,296.6176143998746,296.6176143998746,296.9673825998325,296.9673825998325,296.9673825998325,296.9673825998325,296.9673825998325,296.9673825998325,296.9673825998325,296.9673825998325,296.9673825998325,0,1,[0.0012027001939713955],[0.35048400005325675],296.9673825998325,297.16930929990485,1000,297.16930929990485,1000,1000,1000,1000,0,num_3,0.530273700132966,,33,7,2026-03-12_17h47.43.438,2026A_exp2,2022.2.4,59.98120181803946,
1,0,6.1,0.0,1,0,43,43,17,,,,,297.71801089984365,298.36875579995103,298.36875579995103,298.86981009994633,45,45,298.86981009994633,298.86981009994633,298.86981009994633,298.86981009994633,298.86981009994633,298.86981009994633,298.86981009994633,298.86981009994633,298.86981009994633,299.2364662999753,299.2364662999753,299.2364662999753,299.2364662999753,299.2364662999753,299.2364662999753,299.2364662999753,299.2364662999753,299.2364662999753,2,2,"[0.0008604999165982008, 0.23391209985129535]","[0.20062589994631708, 0.3672931999899447]",299.2364662999753,299.43638599989936,0.0,299.43638599989936,0,0.0,0,1,1000,num_1,0.6384465999435633,,33,7,2026-03-12_17h47.43.438,2026A_exp2,2022.2.4,59.98120181803946,
1000,1,3.7,0.0,1,0,44,44,78,,,,,300.1037484998815,300.7379117999226,300.7379117999226,301.2389062999282,315,45,301.2389062999282,301.2389062999282,301.2389062999282,301.2389062999282,301.2389062999282,301.2389062999282,301.2389062999282,301.2389062999282,301.2389062999282,301.60525979986414,301.60525979986414,301.60525979986414,301.60525979986414,301.60525979986414,301.60525979986414,301.60525979986414,301.60525979986414,301.60525979986414,6,2,"[0.0170263999607414, 0.1836769999936223]","[0.10033029993064702, 0.3672074999194592]",301.60525979986414,301.8070944000501,1000,301.8070944000501,1000,1000,1000,1000,0,num_3,0.6208255002275109,,33,7,2026-03-12_17h47.43.438,2026A_exp2,2022.2.4,59.98120181803946,
1000,1,3.7,6.1,1,0,45,45,43,,,,,302.4560990999453,303.10683519998565,303.10683519998565,303.60798630001955,315,45,303.60798630001955,303.60798630001955,303.60798630001955,303.60798630001955,303.60798630001955,303.60798630001955,303.60798630001955,303.60798630001955,303.60798630001955,303.9742618999444,303.9742618999444,303.9742618999444,303.9742618999444,303.9742618999444,303.9742618999444,303.9742618999444,303.9742618999444,303.9742618999444,0,1,[0.0012022999580949545],[0.36736110015772283],303.9742618999444,304.176605500048,1000,304.176605500048,1000,1000,1000,1000,1,num_2,0.4260742000769824,,33,7,2026-03-12_17h47.43.438,2026A_exp2,2022.2.4,59.98120181803946,
0,0,0.0,4.9,1,0,46,46,33,,,,,304.62480739993043,305.2757019000128,305.2757019000128,305.776736299973,45,315,305.776736299973,305.776736299973,305.776736299973,305.776736299973,305.776736299973,305.776736299973,305.776736299973,305.776736299973,305.776736299973,306.14322900003754,306.14322900003754,306.14322900003754,306.14322900003754,306.14322900003754,306.14322900003754,306.14322900003754,306.14322900003754,306.14322900003754,21,1,[0.05027759983204305],[0.08393159997649491],306.14322900003754,306.34337090002373,0.0,306.34337090002373,0,0.0,0,1,1000,num_1,0.7242348999716341,,33,7,2026-03-12_17h47.43.438,2026A_exp2,2022.2.4,59.98120181803946,
1,0,0.0,3.7,0,0,47,47,64,,,,,307.0938358998392,307.7446564999409,307.7446564999409,308.2296632998623,45,45,308.2296632998623,308.2296632998623,308.2296632998623,308.2296632998623,308.2296632998623,308.2296632998623,308.2296632998623,308.2296632998623,308.2296632998623,308.59568749996834,308.59568749996834,308.59568749996834,308.59568749996834,308.59568749996834,308.59568749996834,308.59568749996834,308.59568749996834,308.59568749996834,19,4,"[0.0012036999687552452, 0.049722799798473716, 0.11652109981514513, 0.166573999915272]","[0.01708699995651841, 0.06630549998953938, 0.13330009998753667, 0.18355289986357093]",308.59568749996834,308.7958922998514,0.0,308.7958922998514,0,0.0,0,1,1000,num_1,0.5666137000080198,,33,7,2026-03-12_17h47.43.438,2026A_exp2,2022.2.4,59.98120181803946,
1,0,6.1,6.1,1,0,48,48,49,,,,,309.37965429993346,310.03039729990996,310.03039729990996,310.51450349995866,315,45,310.51450349995866,310.51450349995866,310.51450349995866,310.51450349995866,310.51450349995866,310.51450349995866,310.51450349995866,310.51450349995866,310.51450349995866,310.8813400999643,310.8813400999643,310.8813400999643,310.8813400999643,310.8813400999643,310.8813400999643,310.8813400999643,310.8813400999643,310.8813400999643,0,1,[0.0007266001775860786],[0.36738539999350905],310.8813400999643,311.08147069998085,6.1,311.08147069998085,1,6.1,1,1,1000,num_4,0.8813838001806289,,33,7,2026-03-12_17h47.43.438,2026A_exp2,2022.2.4,59.98120181803946,
1,0,0.0,0.0,1,0,49,49,59,,,,,311.9823500998318,312.63308159983717,312.63308159983717,313.11740190000273,45,315,313.11740190000273,313.11740190000273,313.11740190000273,313.11740190000273,313.11740190000273,313.11740190000273,313.11740190000273,313.11740190000273,313.11740190000273,313.48388099996373,313.48388099996373,313.48388099996373,313.48388099996373,313.48388099996373,313.48388099996373,313.48388099996373,313.48388099996373,313.48388099996373,0,1,[0.001195400021970272],[0.3671250999905169],313.48388099996373,313.68437729985453,0.0,313.68437729985453,0,0.0,0,1,1000,num_1,1.1039481000043452,,33,7,2026-03-12_17h47.43.438,2026A_exp2,2022.2.4,59.98120181803946,
1000,1,3.7,0.0,1,0,50,50,19,,,,,314.81833359994926,315.4539548999164,315.4539548999164,315.9536447999999,315,315,315.9536447999999,315.9536447999999,315.9536447999999,315.9536447999999,315.9536447999999,315.9536447999999,315.9536447999999,315.9536447999999,315.9536447999999,316.3200001998339,316.3200001998339,316.3200001998339,316.3200001998339,316.3200001998339,316.3200001998339,316.3200001998339,316.3200001998339,316.3200001998339,0,1,[0.0015803000424057245],[0.3664077001158148],316.3200001998339,316.52196049992926,1000,316.52196049992926,1000,1000,1000,1000,0,num_3,0.568618600256741,,33,7,2026-03-12_17h47.43.438,2026A_exp2,2022.2.4,59.98120181803946,
1000,1,0.0,0.0,1,0,51,51,88,,,,,317.1207399999257,317.7714396000374,317.7714396000374,318.272632899927,315,45,318.272632899927,318.272632899927,318.272632899927,318.272632899927,318.272632899927,318.272632899927,318.272632899927,318.272632899927,318.272632899927,318.6222673000302,318.6222673000302,318.6222673000302,318.6222673000302,318.6222673000302,318.6222673000302,318.6222673000302,318.6222673000302,318.6222673000302,0,2,"[0.0011947001330554485, 0.10023380001075566]","[0.08361010020598769, 0.3504527001641691]",318.6222673000302,318.8243525000289,1000,318.8243525000289,1000,1000,1000,1000,1,num_2,0.5952796000055969,,33,7,2026-03-12_17h47.43.438,2026A_exp2,2022.2.4,59.98120181803946,
1000,1,0.0,0.0,1,0,52,52,34,,,,,319.4396770999301,320.0905037999619,320.0905037999619,320.5914860998746,45,315,320.5914860998746,320.5914860998746,320.5914860998746,320.5914860998746,320.5914860998746,320.5914860998746,320.5914860998746,320.5914860998746,320.5914860998746,320.9580601998605,320.9580601998605,320.9580601998605,320.9580601998605,320.9580601998605,320.9580601998605,320.9580601998605,320.9580601998605,320.9580601998605,0,1,[0.0015885001048445702],[0.3668446000665426],320.9580601998605,321.15811029984616,1000,321.15811029984616,1000,1000,1000,1000,1,num_2,0.5805722002405673,,33,7,2026-03-12_17h47.43.438,2026A_exp2,2022.2.4,59.98120181803946,
1000,1,6.1,4.9,1,0,53,53,15,,,,,321.7586636999622,322.4094131998718,322.4094131998718,322.9105000998825,45,45,322.9105000998825,322.9105000998825,322.9105000998825,322.9105000998825,322.9105000998825,322.9105000998825,322.9105000998825,322.9105000998825,322.9105000998825,323.2770310000051,323.2770310000051,323.2770310000051,323.2770310000051,323.2770310000051,323.2770310000051,323.2770310000051,323.2770310000051,323.2770310000051,5,5,"[0.0012031998485326767, 0.2338485000655055, 0.26722320006228983, 0.3170521999709308, 0.36718719988130033]","[0.21715350006707013, 0.2504435000009835, 0.3001745999790728, 0.3337081999052316, 0.3671933999285102]",323.2770310000051,323.479206699878,1000,323.479206699878,1000,1000,1000,1000,0,num_3,0.5322020000312477,,33,7,2026-03-12_17h47.43.438,2026A_exp2,2022.2.4,59.98120181803946,
1,0,6.1,3.7,1,0,54,54,16,,,,,324.02765839989297,324.6783753999043,324.6783753999043,325.1627144999802,45,45,325.1627144999802,325.1627144999802,325.1627144999802,325.1627144999802,325.1627144999802,325.1627144999802,325.1627144999802,325.1627144999802,325.1627144999802,325.52906879992224,325.52906879992224,325.52906879992224,325.52906879992224,325.52906879992224,325.52906879992224,325.52906879992224,325.52906879992224,325.52906879992224,0,1,[0.0012082001194357872],[0.36721260007470846],325.52906879992224,325.7293585999869,3.7,325.7293585999869,0,3.7,1,0,1000,num_1,0.6893993001431227,,33,7,2026-03-12_17h47.43.438,2026A_exp2,2022.2.4,59.98120181803946,
1000,1,3.7,0.0,1,0,55,55,52,,,,,326.44665739987977,327.097448799992,327.097448799992,327.5986128000077,45,315,327.5986128000077,327.5986128000077,327.5986128000077,327.5986128000077,327.5986128000077,327.5986128000077,327.5986128000077,327.5986128000077,327.5986128000077,327.9483348999638,327.9483348999638,327.9483348999638,327.9483348999638,327.9483348999638,327.9483348999638,327.9483348999638,327.9483348999638,327.9483348999638,0,1,[0.001240900019183755],[0.35052730003371835],327.9483348999638,328.1501432999503,1000,328.1501432999503,1000,1000,1000,1000,1,num_2,0.43648060015402734,,33,7,2026-03-12_17h47.43.438,2026A_exp2,2022.2.4,59.98120181803946,
1,0,0.0,0.0,1,0,56,56,20,,,,,328.6155121999327,329.2663475999143,329.2663475999143,329.767322300002,315,45,329.767322300002,329.767322300002,329.767322300002,329.767322300002,329.767322300002,329.767322300002,329.767322300002,329.767322300002,329.767322300002,330.13390160002746,330.13390160002746,330.13390160002746,330.13390160002746,330.13390160002746,330.13390160002746,330.13390160002746,330.13390160002746,330.13390160002746,0,1,[0.0011986999306827784],[0.36700870003551245],330.13390160002746,330.3338864999823,0.0,330.3338864999823,1,0.0,0,0,1000,num_4,0.940906000090763,,33,7,2026-03-12_17h47.43.438,2026A_exp2,2022.2.4,59.98120181803946,
1,0,3.7,3.7,0,0,57,57,8,,,,,331.3015157999471,331.93552009994164,331.93552009994164,332.4366349000484,45,315,332.4366349000484,332.4366349000484,332.4366349000484,332.4366349000484,332.4366349000484,332.4366349000484,332.4366349000484,332.4366349000484,332.4366349000484,332.80339779984206,332.80339779984206,332.80339779984206,332.80339779984206,332.80339779984206,332.80339779984206,332.80339779984206,332.80339779984206,332.80339779984206,0,1,[0.0008712999988347292],[0.3667448000051081],332.80339779984206,333.00332839996554,3.7,333.00332839996554,0,3.7,1,0,1000,num_1,0.8955833001527935,,33,7,2026-03-12_17h47.43.438,2026A_exp2,2022.2.4,59.98120181803946,
1,0,4.9,0.0,0,0,58,58,47,,,,,333.9206907998305,334.57128999987617,334.57128999987617,335.05560059985146,315,45,335.05560059985146,335.05560059985146,335.05560059985146,335.05560059985146,335.05560059985146,335.05560059985146,335.05560059985146,335.05560059985146,335.05560059985146,335.4220834998414,335.4220834998414,335.4220834998414,335.4220834998414,335.4220834998414,335.4220834998414,335.4220834998414,335.4220834998414,335.4220834998414,0,1,[0.0007547000423073769],[0.3678270000964403],335.4220834998414,335.62241639988497,4.9,335.62241639988497,1,4.9,1,1,1000,num_4,0.7483038001228124,,33,7,2026-03-12_17h47.43.438,2026A_exp2,2022.2.4,59.98120181803946,
1,0,6.1,3.7,1,0,59,59,83,,,,,336.3904734000098,337.0240609999746,337.0240609999746,337.5251068000216,315,45,337.5251068000216,337.5251068000216,337.5251068000216,337.5251068000216,337.5251068000216,337.5251068000216,337.5251068000216,337.5251068000216,337.5251068000216,337.89156250003725,337.89156250003725,337.89156250003725,337.89156250003725,337.89156250003725,337.89156250003725,337.89156250003725,337.89156250003725,337.89156250003725,0,1,[0.001243900042027235],[0.36706870002672076],337.89156250003725,338.09190819994546,3.7,338.09190819994546,0,3.7,1,0,1000,num_1,0.6154587999917567,,33,7,2026-03-12_17h47.43.438,2026A_exp2,2022.2.4,59.98120181803946,
1000,1,6.1,0.0,0,0,60,60,21,,,,,338.72570019983687,339.3765209999401,339.3765209999401,339.86082959990017,315,45,339.86082959990017,339.86082959990017,339.86082959990017,339.86082959990017,339.86082959990017,339.86082959990017,339.86082959990017,339.86082959990017,339.86082959990017,340.2273096998688,340.2273096998688,340.2273096998688,340.2273096998688,340.2273096998688,340.2273096998688,340.2273096998688,340.2273096998688,340.2273096998688,0,1,[0.0012447999324649572],[0.367042199941352],340.2273096998688,340.42759269988164,1000,340.42759269988164,1000,1000,1000,1000,0,num_3,0.4474611000623554,,33,7,2026-03-12_17h47.43.438,2026A_exp2,2022.2.4,59.98120181803946,
1000,1,0.0,4.9,0,0,61,61,23,,,,,340.8948230999522,341.54521199990995,341.54521199990995,342.046394799836,315,315,342.046394799836,342.046394799836,342.046394799836,342.046394799836,342.046394799836,342.046394799836,342.046394799836,342.046394799836,342.046394799836,342.41275159991346,342.41275159991346,342.41275159991346,342.41275159991346,342.41275159991346,342.41275159991346,342.41275159991346,342.41275159991346,342.41275159991346,0,1,[0.0012123999185860157],[0.36722339992411435],342.41275159991346,342.613165399991,1000,342.613165399991,1000,1000,1000,1000,1,num_2,0.5183053000364453,,33,7,2026-03-12_17h47.43.438,2026A_exp2,2022.2.4,59.98120181803946,
1,0,0.0,3.7,0,0,62,62,31,,,,,343.14673939999193,343.79752759984694,343.79752759984694,344.29862719983794,315,45,344.29862719983794,344.29862719983794,344.29862719983794,344.29862719983794,344.29862719983794,344.29862719983794,344.29862719983794,344.29862719983794,344.29862719983794,344.6647268999368,344.6647268999368,344.6647268999368,344.6647268999368,344.6647268999368,344.6647268999368,344.6647268999368,344.6647268999368,344.6647268999368,1,2,"[0.0012546998914331198, 0.333945200080052]","[0.317190800094977, 0.36709939991123974]",344.6647268999368,344.8651223999914,0.0,344.8651223999914,0,0.0,0,1,1000,num_1,0.625629500253126,,33,7,2026-03-12_17h47.43.438,2026A_exp2,2022.2.4,59.98120181803946,
1,0,4.9,4.9,0,0,63,63,28,,,,,345.51567499991506,346.16655649989843,346.16655649989843,346.6510135999415,315,45,346.6510135999415,346.6510135999415,346.6510135999415,346.6510135999415,346.6510135999415,346.6510135999415,346.6510135999415,346.6510135999415,346.6510135999415,347.0174314000178,347.0174314000178,347.0174314000178,347.0174314000178,347.0174314000178,347.0174314000178,347.0174314000178,347.0174314000178,347.0174314000178,2,2,"[0.0012421999126672745, 0.3339173998683691]","[0.30052100005559623, 0.3671096998732537]",347.0174314000178,347.21757450001314,4.9,347.21757450001314,1,4.9,1,1,1000,num_4,0.7621697001159191,,33,7,2026-03-12_17h47.43.438,2026A_exp2,2022.2.4,59.98120181803946,
1,0,6.1,0.0,0,0,64,64,77,,,,,348.0017537998501,348.65237649995834,348.65237649995834,349.1366852999199,315,45,349.1366852999199,349.1366852999199,349.1366852999199,349.1366852999199,349.1366852999199,349.1366852999199,349.1366852999199,349.1366852999199,349.1366852999199,349.5032242999878,349.5032242999878,349.5032242999878,349.5032242999878,349.5032242999878,349.5032242999878,349.5032242999878,349.5032242999878,349.5032242999878,0,1,[0.0012302999384701252],[0.3672295999713242],349.5032242999878,349.7033463998232,6.1,349.7033463998232,1,6.1,1,1,1000,num_4,0.5479521001689136,,33,7,2026-03-12_17h47.43.438,2026A_exp2,2022.2.4,59.98120181803946,
1,0,3.7,0.0,0,0,65,65,7,,,,,350.27044370002113,350.92138169985265,350.92138169985265,351.4056220999919,45,315,351.4056220999919,351.4056220999919,351.4056220999919,351.4056220999919,351.4056220999919,351.4056220999919,351.4056220999919,351.4056220999919,351.4056220999919,351.77210539998487,351.77210539998487,351.77210539998487,351.77210539998487,351.77210539998487,351.77210539998487,351.77210539998487,351.77210539998487,351.77210539998487,0,1,[0.0012443999294191599],[0.3670979000162333],351.77210539998487,351.97237329999916,3.7,351.97237329999916,0,3.7,1,0,1000,num_1,0.7662120000459254,,33,7,2026-03-12_17h47.43.438,2026A_exp2,2022.2.4,59.98120181803946,
1000,1,4.9,0.0,0,0,66,66,37,,,,,352.7563199000433,353.4071001999546,353.4071001999546,353.8913495000452,45,315,353.8913495000452,353.8913495000452,353.8913495000452,353.8913495000452,353.8913495000452,353.8913495000452,353.8913495000452,353.8913495000452,353.8913495000452,354.257956400048,354.257956400048,354.257956400048,354.257956400048,354.257956400048,354.257956400048,354.257956400048,354.257956400048,354.257956400048,0,1,[0.0007344000041484833],[0.36729740002192557],354.257956400048,354.4599403999746,1000,354.4599403999746,1000,1000,1000,1000,0,num_3,0.6159726001787931,,33,7,2026-03-12_17h47.43.438,2026A_exp2,2022.2.4,59.98120181803946,
1,0,0.0,0.0,0,0,67,67,61,,,,,355.0922878999263,355.7425595000386,355.7425595000386,356.22724409983493,315,315,356.22724409983493,356.22724409983493,356.22724409983493,356.22724409983493,356.22724409983493,356.22724409983493,356.22724409983493,356.22724409983493,356.22724409983493,356.5936089998577,356.5936089998577,356.5936089998577,356.5936089998577,356.5936089998577,356.5936089998577,356.5936089998577,356.5936089998577,356.5936089998577,0,1,[0.00120419985614717],[0.3673002999275923],356.5936089998577,356.7937637998257,0.0,356.7937637998257,0,0.0,0,1,1000,num_1,0.49766240012831986,,33,7,2026-03-12_17h47.43.438,2026A_exp2,2022.2.4,59.98120181803946,
1000,1,0.0,0.0,0,0,68,68,2,,,,,357.3108544999268,357.96167579991743,357.96167579991743,358.4459623999428,315,45,358.4459623999428,358.4459623999428,358.4459623999428,358.4459623999428,358.4459623999428,358.4459623999428,358.4459623999428,358.4459623999428,358.4459623999428,358.81244619982317,358.81244619982317,358.81244619982317,358.81244619982317,358.81244619982317,358.81244619982317,358.81244619982317,358.81244619982317,358.81244619982317,1,2,"[0.001198899932205677, 0.3338943999260664]","[0.31719029997475445, 0.3670612999703735]",358.81244619982317,359.0131263998337,1000,359.0131263998337,1000,1000,1000,1000,1,num_2,0.42169260000810027,,33,7,2026-03-12_17h47.43.438,2026A_exp2,2022.2.4,59.98120181803946,
1000,1,0.0,0.0,1,0,69,69,68,,,,,359.4633571000304,360.11372739984654,360.11372739984654,360.61481099994853,315,45,360.61481099994853,360.61481099994853,360.61481099994853,360.61481099994853,360.61481099994853,360.61481099994853,360.61481099994853,360.61481099994853,360.61481099994853,360.96467279992066,360.96467279992066,360.96467279992066,360.96467279992066,360.96467279992066,360.96467279992066,360.96467279992066,360.96467279992066,360.96467279992066,6,5,"[0.01803679997101426, 0.05098149995319545, 0.1009823998901993, 0.1343324000481516, 0.21792359999381006]","[0.03439070004969835, 0.0677290998864919, 0.11782129993662238, 0.20115129998885095, 0.3514021998271346]",360.96467279992066,361.1667732000351,1000,361.1667732000351,1000,1000,1000,1000,0,num_3,0.42096110014244914,,33,7,2026-03-12_17h47.43.438,2026A_exp2,2022.2.4,59.98120181803946,
0,0,4.9,6.1,1,0,70,70,70,,,,,361.6151770998258,362.26588559988886,362.26588559988886,362.7669690998737,315,315,362.7669690998737,362.7669690998737,362.7669690998737,362.7669690998737,362.7669690998737,362.7669690998737,362.7669690998737,362.7669690998737,362.7669690998737,363.133439199999,363.133439199999,363.133439199999,363.133439199999,363.133439199999,363.133439199999,363.133439199999,363.133439199999,363.133439199999,11,3,"[0.0011996000539511442, 0.18349460000172257, 0.2503705001436174]","[0.03337140008807182, 0.21691900002770126, 0.3670856000389904]",363.133439199999,363.3335980998818,4.9,363.3335980998818,0,4.9,1,0,1000,num_1,0.6854091002605855,,33,7,2026-03-12_17h47.43.438,2026A_exp2,2022.2.4,59.98120181803946,
1,0,6.1,0.0,0,0,71,71,51,,,,,364.0509599999059,364.70169539982453,364.70169539982453,365.1861735000275,45,315,365.1861735000275,365.1861735000275,365.1861735000275,365.1861735000275,365.1861735000275,365.1861735000275,365.1861735000275,365.1861735000275,365.1861735000275,365.5525563999545,365.5525563999545,365.5525563999545,365.5525563999545,365.5525563999545,365.5525563999545,365.5525563999545,365.5525563999545,365.5525563999545,0,1,[0.0012443000450730324],[0.3671486999373883],365.5525563999545,365.7528088998515,6.1,365.7528088998515,1,6.1,1,1,1000,num_4,0.4988025000784546,,33,7,2026-03-12_17h47.43.438,2026A_exp2,2022.2.4,59.98120181803946,
1,0,0.0,0.0,1,0,72,72,66,,,,,366.2698742998764,366.9205861999653,366.9205861999653,367.4049127998296,315,45,367.4049127998296,367.4049127998296,367.4049127998296,367.4049127998296,367.4049127998296,367.4049127998296,367.4049127998296,367.4049127998296,367.4049127998296,367.77138950000517,367.77138950000517,367.77138950000517,367.77138950000517,367.77138950000517,367.77138950000517,367.77138950000517,367.77138950000517,367.77138950000517,0,1,[0.0012032999657094479],[0.36718940013088286],367.77138950000517,367.9715416999534,0.0,367.9715416999534,0,0.0,0,1,1000,num_1,0.37585340021178126,,33,7,2026-03-12_17h47.43.438,2026A_exp2,2022.2.4,59.98120181803946,
1,0,0.0,0.0,0,0,73,73,85,,,,,368.37197720003314,369.0226819999516,369.0226819999516,369.50695279985666,45,315,369.50695279985666,369.50695279985666,369.50695279985666,369.50695279985666,369.50695279985666,369.50695279985666,369.50695279985666,369.50695279985666,369.50695279985666,369.87356420001015,369.87356420001015,369.87356420001015,369.87356420001015,369.87356420001015,369.87356420001015,369.87356420001015,369.87356420001015,369.87356420001015,23,0,,,369.87356420001015,370.0737530000042,0.0,370.0737530000042,0,0.0,0,1,1000,num_1,0.4969164002686739,,33,7,2026-03-12_17h47.43.438,2026A_exp2,2022.2.4,59.98120181803946,
1000,1,0.0,3.7,1,0,74,74,82,,,,,370.5908741999883,371.2416479999665,371.2416479999665,371.72614629985765,315,315,371.72614629985765,371.72614629985765,371.72614629985765,371.72614629985765,371.72614629985765,371.72614629985765,371.72614629985765,371.72614629985765,371.72614629985765,372.09250379982404,372.09250379982404,372.09250379982404,372.09250379982404,372.09250379982404,372.09250379982404,372.09250379982404,372.09250379982404,372.09250379982404,2,3,"[0.0012279001530259848, 0.1835233001038432, 0.21695900009945035]","[0.16683569992892444, 0.20034820004366338, 0.36650769994594157]",372.09250379982404,372.2944099998567,1000,372.2944099998567,1000,1000,1000,1000,1,num_2,0.8288187002763152,,33,7,2026-03-12_17h47.43.438,2026A_exp2,2022.2.4,59.98120181803946,
1,0,0.0,0.0,0,0,75,75,22,,,,,373.1436051998753,373.7941014999524,373.7941014999524,374.2952852000017,45,45,374.2952852000017,374.2952852000017,374.2952852000017,374.2952852000017,374.2952852000017,374.2952852000017,374.2952852000017,374.2952852000017,374.2952852000017,374.6615418000147,374.6615418000147,374.6615418000147,374.6615418000147,374.6615418000147,374.6615418000147,374.6615418000147,374.6615418000147,374.6615418000147,0,1,[0.001241500023752451],[0.3669843999668956],374.6615418000147,374.8619513998274,0.0,374.8619513998274,0,0.0,0,1,1000,num_1,0.332999300211668,,33,7,2026-03-12_17h47.43.438,2026A_exp2,2022.2.4,59.98120181803946,
1,0,0.0,4.9,1,0,76,76,73,,,,,375.21212179982103,375.8629852000158,375.8629852000158,376.36405209987424,315,45,376.36405209987424,376.36405209987424,376.36405209987424,376.36405209987424,376.36405209987424,376.36405209987424,376.36405209987424,376.36405209987424,376.36405209987424,376.7137762999628,376.7137762999628,376.7137762999628,376.7137762999628,376.7137762999628,376.7137762999628,376.7137762999628,376.7137762999628,376.7137762999628,1,2,"[0.0011730999685823917, 0.10016370005905628]","[0.08353199996054173, 0.35055309999734163]",376.7137762999628,376.9138754999731,4.9,376.9138754999731,1,4.9,1,1,1000,num_4,0.6333551001735032,,33,7,2026-03-12_17h47.43.438,2026A_exp2,2022.2.4,59.98120181803946,
1,0,3.7,3.7,0,0,77,77,60,,,,,377.56439649988897,378.21528079989366,378.21528079989366,378.69957900000736,45,315,378.69957900000736,378.69957900000736,378.69957900000736,378.69957900000736,378.69957900000736,378.69957900000736,378.69957900000736,378.69957900000736,378.69957900000736,379.0660476000048,379.0660476000048,379.0660476000048,379.0660476000048,379.0660476000048,379.0660476000048,379.0660476000048,379.0660476000048,379.0660476000048,0,1,[0.0012079000007361174],[0.36720119998790324],379.0660476000048,379.2662205998786,3.7,379.2662205998786,0,3.7,1,0,1000,num_1,0.6173980999737978,,33,7,2026-03-12_17h47.43.438,2026A_exp2,2022.2.4,59.98120181803946,
1000,1,4.9,0.0,0,0,78,78,12,,,,,379.9001396999229,380.5509939000476,380.5509939000476,381.03548159985803,45,315,381.03548159985803,381.03548159985803,381.03548159985803,381.03548159985803,381.03548159985803,381.03548159985803,381.03548159985803,381.03548159985803,381.03548159985803,381.4017427000217,381.4017427000217,381.4017427000217,381.4017427000217,381.4017427000217,381.4017427000217,381.4017427000217,381.4017427000217,381.4017427000217,0,1,[0.0015835999511182308],[0.36688530002720654],381.4017427000217,381.60385309997946,1000,381.60385309997946,1000,1000,1000,1000,0,num_3,0.5116919002030045,,33,7,2026-03-12_17h47.43.438,2026A_exp2,2022.2.4,59.98120181803946,
1000,1,0.0,0.0,1,0,79,79,63,,,,,382.1359502999112,382.78655679989606,382.78655679989606,383.27099210000597,315,315,383.27099210000597,383.27099210000597,383.27099210000597,383.27099210000597,383.27099210000597,383.27099210000597,383.27099210000597,383.27099210000597,383.27099210000597,383.6371593000367,383.6371593000367,383.6371593000367,383.6371593000367,383.6371593000367,383.6371593000367,383.6371593000367,383.6371593000367,383.6371593000367,0,1,[0.001227600034326315],[0.3669130001217127],383.6371593000367,383.8372947999742,1000,383.8372947999742,1000,1000,1000,1000,1,num_2,0.43020060006529093,,33,7,2026-03-12_17h47.43.438,2026A_exp2,2022.2.4,59.98120181803946,
1000,1,0.0,0.0,1,0,80,80,44,,,,,384.28802310000174,384.93860899982974,384.93860899982974,385.4229587998707,45,315,385.4229587998707,385.4229587998707,385.4229587998707,385.4229587998707,385.4229587998707,385.4229587998707,385.4229587998707,385.4229587998707,385.4229587998707,385.789510600036,385.789510600036,385.789510600036,385.789510600036,385.789510600036,385.789510600036,385.789510600036,385.789510600036,385.789510600036,0,1,[0.0013036001473665237],[0.36702660005539656],385.789510600036,385.9917156000156,1000,385.9917156000156,1000,1000,1000,1000,0,num_3,0.363275800133124,,33,7,2026-03-12_17h47.43.438,2026A_exp2,2022.2.4,59.98120181803946,
0,0,6.1,4.9,1,0,81,81,42,,,,,386.3732874998823,387.0239889000077,387.0239889000077,387.525236699963,45,315,387.525236699963,387.525236699963,387.525236699963,387.525236699963,387.525236699963,387.525236699963,387.525236699963,387.525236699963,387.525236699963,387.8914081999101,387.8914081999101,387.8914081999101,387.8914081999101,387.8914081999101,387.8914081999101,387.8914081999101,387.8914081999101,387.8914081999101,0,1,[0.0013093000743538141],[0.36687980010174215],387.8914081999101,388.0918500998523,6.1,388.0918500998523,0,6.1,1,0,1000,num_1,0.6628045001998544,,33,7,2026-03-12_17h47.43.438,2026A_exp2,2022.2.4,59.98120181803946,
1,0,6.1,6.1,0,0,82,82,89,,,,,388.7755628998857,389.42640569992363,389.42640569992363,389.9275735998526,315,315,389.9275735998526,389.9275735998526,389.9275735998526,389.9275735998526,389.9275735998526,389.9275735998526,389.9275735998526,389.9275735998526,389.9275735998526,390.2936644000001,390.2936644000001,390.2936644000001,390.2936644000001,390.2936644000001,390.2936644000001,390.2936644000001,390.2936644000001,390.2936644000001,0,1,[0.0010671000927686691],[0.366850099992007],390.2936644000001,390.4941757998895,6.1,390.4941757998895,0,6.1,1,0,1000,num_1,0.709183800034225,,33,7,2026-03-12_17h47.43.438,2026A_exp2,2022.2.4,59.98120181803946,
1,0,4.9,3.7,1,0,83,83,71,,,,,391.2282008000184,391.8789325999096,391.8789325999096,392.36306070000865,45,45,392.36306070000865,392.36306070000865,392.36306070000865,392.36306070000865,392.36306070000865,392.36306070000865,392.36306070000865,392.36306070000865,392.36306070000865,392.7297812998295,392.7297812998295,392.7297812998295,392.7297812998295,392.7297812998295,392.7297812998295,392.7297812998295,392.7297812998295,392.7297812998295,0,1,[0.001228200038895011],[0.36740240012295544],392.7297812998295,392.92991789989173,3.7,392.92991789989173,0,3.7,1,0,1000,num_1,0.5771959000267088,,33,7,2026-03-12_17h47.43.438,2026A_exp2,2022.2.4,59.98120181803946,
1000,1,0.0,4.9,1,0,84,84,57,,,,,393.5304133000318,394.18111580004916,394.18111580004916,394.6656620998401,45,45,394.6656620998401,394.6656620998401,394.6656620998401,394.6656620998401,394.6656620998401,394.6656620998401,394.6656620998401,394.6656620998401,394.6656620998401,395.03189099999145,395.03189099999145,395.03189099999145,395.03189099999145,395.03189099999145,395.03189099999145,395.03189099999145,395.03189099999145,395.03189099999145,0,1,[0.0012503000907599926],[0.36711059999652207],395.03189099999145,395.23417479987256,1000,395.23417479987256,1000,1000,1000,1000,1,num_2,0.6253507002256811,,33,7,2026-03-12_17h47.43.438,2026A_exp2,2022.2.4,59.98120181803946,
1,0,0.0,6.1,1,0,85,85,5,,,,,395.8830321000423,396.5332988000009,396.5332988000009,397.0345284999348,315,315,397.0345284999348,397.0345284999348,397.0345284999348,397.0345284999348,397.0345284999348,397.0345284999348,397.0345284999348,397.0345284999348,397.0345284999348,397.4011351999361,397.4011351999361,397.4011351999361,397.4011351999361,397.4011351999361,397.4011351999361,397.4011351999361,397.4011351999361,397.4011351999361,0,1,[0.0012916999403387308],[0.3670600999612361],397.4011351999361,397.6011838999111,6.1,397.6011838999111,1,6.1,1,1,1000,num_4,0.6588049998972565,,33,7,2026-03-12_17h47.43.438,2026A_exp2,2022.2.4,59.98120181803946,
1000,1,3.7,0.0,0,0,86,86,81,,,,,398.28525960003026,398.936357999919,398.936357999919,399.42033259989694,45,45,399.42033259989694,399.42033259989694,399.42033259989694,399.42033259989694,399.42033259989694,399.42033259989694,399.42033259989694,399.42033259989694,399.42033259989694,399.78687099996023,399.78687099996023,399.78687099996023,399.78687099996023,399.78687099996023,399.78687099996023,399.78687099996023,399.78687099996023,399.78687099996023,0,1,[0.0010283999145030975],[0.3672781998757273],399.78687099996023,400.00782109983265,1000,400.00782109983265,1000,1000,1000,1000,0,num_3,0.43481529993005097,,33,7,2026-03-12_17h47.43.438,2026A_exp2,2022.2.4,59.98120181803946,
0,0,6.1,6.1,1,0,87,87,48,,,,,400.4706820999272,401.1213285999838,401.1213285999838,401.6225349998567,315,45,401.6225349998567,401.6225349998567,401.6225349998567,401.6225349998567,401.6225349998567,401.6225349998567,401.6225349998567,401.6225349998567,401.6225349998567,401.9890669998713,401.9890669998713,401.9890669998713,401.9890669998713,401.9890669998713,401.9890669998713,401.9890669998713,401.9890669998713,401.9890669998713,0,1,[0.0012105000205338001],[0.36721540009602904],401.9890669998713,402.18907089997083,6.1,402.18907089997083,0,6.1,1,0,1000,num_1,0.8067616999614984,,33,7,2026-03-12_17h47.43.438,2026A_exp2,2022.2.4,59.98120181803946,
1,0,3.7,0.0,0,0,88,88,10,,,,,403.02342240000144,403.67387999990024,403.67387999990024,404.15843950002454,315,45,404.15843950002454,404.15843950002454,404.15843950002454,404.15843950002454,404.15843950002454,404.15843950002454,404.15843950002454,404.15843950002454,404.15843950002454,404.52491030003875,404.52491030003875,404.52491030003875,404.52491030003875,404.52491030003875,404.52491030003875,404.52491030003875,404.52491030003875,404.52491030003875,5,4,"[0.0012982001062482595, 0.1837564001325518, 0.3173389001749456, 0.3505739001557231]","[0.1337087000720203, 0.30061600008048117, 0.3340287001337856, 0.36742170015349984]",404.52491030003875,404.72504519997165,3.7,404.72504519997165,1,3.7,1,1,1000,num_4,0.3494606001768261,,33,7,2026-03-12_17h47.43.438,2026A_exp2,2022.2.4,59.98120181803946,
1000,1,0.0,0.0,1,0,89,89,35,,,,,405.09221529983915,405.74265459994785,405.74265459994785,406.2270796999801,315,315,406.2270796999801,406.2270796999801,406.2270796999801,406.2270796999801,406.2270796999801,406.2270796999801,406.2270796999801,406.2270796999801,406.2270796999801,406.59346729982644,406.59346729982644,406.59346729982644,406.59346729982644,406.59346729982644,406.59346729982644,406.59346729982644,406.59346729982644,406.59346729982644,12,1,[0.20042399992235005],[0.36709529999643564],406.59346729982644,406.7955986999441,1000,406.7955986999441,1000,1000,1000,1000,0,num_3,0.3833612003363669,,33,7,2026-03-12_17h47.43.438,2026A_exp2,2022.2.4,59.98120181803946,
,,,,,,,,,,,,,,,,,,,,,,,,,,,,,,,,,,,,,,,,,,,,,,,,,,,,407.2041732999496,,,,,,,
