validity,detectorcomp,contrastCW,contrastCCW,precueCWorCCW,block_80trials.thisRepN,block_80trials.thisTrialN,block_80trials.thisN,block_80trials.thisIndex,etRecord.started,etRecord.stopped,text.started,text.stopped,text_4.started,text_4.stopped,text_6.started,text_6.stopped,oriCW,oriCCW,roi_2.started,grating_UR.started,grating_UL.started,grating_LR.started,grating_LL.started,noise_UR.started,noise_UL.started,noise_LR.started,noise_LL.started,roi_2.stopped,grating_UR.stopped,grating_UL.stopped,grating_LR.stopped,grating_LL.stopped,noise_UR.stopped,noise_UL.stopped,noise_LR.stopped,noise_LL.stopped,outframe,roi_2.numLooks,roi_2.timesOn,roi_2.timesOff,text_2.started,text_2.stopped,probedcontrast,key_resp.started,respdetect,relevantContrast,correctDetect,TorFdetect,respCWorCCW,key_resp.keys,key_resp.rt,feedback_display_.started,participantNo,blockNo,date,expName,psychopyVersion,frameRate,
1000,1,6.1,3.7,0,0,0,0,75,4.20999713242054e-05,4.20999713242054e-05,58.61826710001333,60.62120880000293,60.62120880000293,61.25541330000851,61.25541330000851,61.77677480003331,45,315,61.77677480003331,61.77677480003331,61.77677480003331,61.77677480003331,61.77677480003331,61.77677480003331,61.77677480003331,61.77677480003331,61.77677480003331,62.12308710004436,62.12308710004436,62.12308710004436,62.12308710004436,62.12308710004436,62.12308710004436,62.12308710004436,62.12308710004436,62.12308710004436,0,1,[0.0009392999927513301],[0.3675733000272885],62.12308710004436,62.33119330002228,1000,62.33119330002228,1000,1000,1000,1000,0,num_3,0.5302229999797419,,24,12,2026-03-04_16h14.10.532,2026A_exp2,2022.2.4,59.843222708735034,
1000,1,0.0,0.0,0,0,1,1,7,,,,,62.89059920003638,63.54121550003765,63.54121550003765,64.025349500007,315,315,64.025349500007,64.025349500007,64.025349500007,64.025349500007,64.025349500007,64.025349500007,64.025349500007,64.025349500007,64.025349500007,64.392026800022,64.392026800022,64.392026800022,64.392026800022,64.392026800022,64.392026800022,64.392026800022,64.392026800022,64.392026800022,0,1,[0.0007145999697968364],[0.3676275999750942],64.392026800022,64.5942804000224,1000,64.5942804000224,1000,1000,1000,1000,0,num_3,0.8755018999800086,,24,12,2026-03-04_16h14.10.532,2026A_exp2,2022.2.4,59.843222708735034,
1,0,3.7,4.9,1,0,2,2,20,,,,,65.49318779999157,66.14365350001026,66.14365350001026,66.64485159999458,315,315,66.64485159999458,66.64485159999458,66.64485159999458,66.64485159999458,66.64485159999458,66.64485159999458,66.64485159999458,66.64485159999458,66.64485159999458,67.01124860002892,67.01124860002892,67.01124860002892,67.01124860002892,67.01124860002892,67.01124860002892,67.01124860002892,67.01124860002892,67.01124860002892,0,1,[0.0012706000125035644],[0.3668349999934435],67.01124860002892,67.21154079999542,4.9,67.21154079999542,1,4.9,1,1,1000,num_4,0.8014616000000387,,24,12,2026-03-04_16h14.10.532,2026A_exp2,2022.2.4,59.843222708735034,
0,0,3.7,0.0,0,0,3,3,62,,,,,68.02903989999322,68.6795936000417,68.6795936000417,69.16412410000339,45,45,69.16412410000339,69.16412410000339,69.16412410000339,69.16412410000339,69.16412410000339,69.16412410000339,69.16412410000339,69.16412410000339,69.16412410000339,69.53066039999248,69.53066039999248,69.53066039999248,69.53066039999248,69.53066039999248,69.53066039999248,69.53066039999248,69.53066039999248,69.53066039999248,0,1,[0.0012329999590292573],[0.367207299976144],69.53066039999248,69.73085059999721,0.0,69.73085059999721,0,0.0,0,1,1000,num_1,0.9949441999779083,,24,12,2026-03-04_16h14.10.532,2026A_exp2,2022.2.4,59.843222708735034,
1,0,6.1,0.0,0,0,4,4,82,,,,,70.74839950003661,71.39909600000829,71.39909600000829,71.88350320002064,315,45,71.88350320002064,71.88350320002064,71.88350320002064,71.88350320002064,71.88350320002064,71.88350320002064,71.88350320002064,71.88350320002064,71.88350320002064,72.2498779000016,72.2498779000016,72.2498779000016,72.2498779000016,72.2498779000016,72.2498779000016,72.2498779000016,72.2498779000016,72.2498779000016,0,1,[0.0013006000081077218],[0.3671538000344299],72.2498779000016,72.4500665999949,6.1,72.4500665999949,1,6.1,1,1,1000,num_4,0.7391169000184163,,24,12,2026-03-04_16h14.10.532,2026A_exp2,2022.2.4,59.843222708735034,
1,0,6.1,4.9,1,0,5,5,11,,,,,73.21749539999291,73.86819950002246,73.86819950002246,74.3524991000304,45,315,74.3524991000304,74.3524991000304,74.3524991000304,74.3524991000304,74.3524991000304,74.3524991000304,74.3524991000304,74.3524991000304,74.3524991000304,74.71913199999835,74.71913199999835,74.71913199999835,74.71913199999835,74.71913199999835,74.71913199999835,74.71913199999835,74.71913199999835,74.71913199999835,0,1,[0.001248600019607693],[0.36714650003705174],74.71913199999835,74.91919079999207,4.9,74.91919079999207,1,4.9,1,1,1000,num_4,0.5748641000245698,,24,12,2026-03-04_16h14.10.532,2026A_exp2,2022.2.4,59.843222708735034,
1,0,3.7,0.0,1,0,6,6,12,,,,,75.51966570003424,76.17039199999999,76.17039199999999,76.65493200003402,315,315,76.65493200003402,76.65493200003402,76.65493200003402,76.65493200003402,76.65493200003402,76.65493200003402,76.65493200003402,76.65493200003402,76.65493200003402,77.02132639999036,77.02132639999036,77.02132639999036,77.02132639999036,77.02132639999036,77.02132639999036,77.02132639999036,77.02132639999036,77.02132639999036,0,1,[0.0012289999867789447],[0.3669425999978557],77.02132639999036,77.22143010003492,0.0,77.22143010003492,0,0.0,0,1,1000,num_1,0.9676548999850638,,24,12,2026-03-04_16h14.10.532,2026A_exp2,2022.2.4,59.843222708735034,
1,0,0.0,3.7,1,0,7,7,14,,,,,78.20566590002272,78.85653620003723,78.85653620003723,79.35764470003778,315,45,79.35764470003778,79.35764470003778,79.35764470003778,79.35764470003778,79.35764470003778,79.35764470003778,79.35764470003778,79.35764470003778,79.35764470003778,79.7072909999988,79.7072909999988,79.7072909999988,79.7072909999988,79.7072909999988,79.7072909999988,79.7072909999988,79.7072909999988,79.7072909999988,0,1,[0.0012371999910101295],[0.3504221999901347],79.7072909999988,79.90754370001378,3.7,79.90754370001378,1,3.7,1,1,1000,num_4,0.641182099992875,,24,12,2026-03-04_16h14.10.532,2026A_exp2,2022.2.4,59.843222708735034,
1,0,6.1,0.0,0,0,8,8,21,,,,,80.57471070002066,81.22536560002482,81.22536560002482,81.7095885000308,45,45,81.7095885000308,81.7095885000308,81.7095885000308,81.7095885000308,81.7095885000308,81.7095885000308,81.7095885000308,81.7095885000308,81.7095885000308,82.07638969999971,82.07638969999971,82.07638969999971,82.07638969999971,82.07638969999971,82.07638969999971,82.07638969999971,82.07638969999971,82.07638969999971,0,1,[0.001255400013178587],[0.36744679999537766],82.07638969999971,82.2766183000058,6.1,82.2766183000058,1,6.1,1,1,1000,num_4,0.5528353999834508,,24,12,2026-03-04_16h14.10.532,2026A_exp2,2022.2.4,59.843222708735034,
1,0,0.0,0.0,0,0,9,9,88,,,,,82.86031760001788,83.51115360000404,83.51115360000404,83.99546639999608,315,45,83.99546639999608,83.99546639999608,83.99546639999608,83.99546639999608,83.99546639999608,83.99546639999608,83.99546639999608,83.99546639999608,83.99546639999608,84.362028500007,84.362028500007,84.362028500007,84.362028500007,84.362028500007,84.362028500007,84.362028500007,84.362028500007,84.362028500007,20,2,"[0.06695900001795962, 0.28332180000143126]","[0.10018579999450594, 0.2998653000104241]",84.362028500007,84.56223330000648,0.0,84.56223330000648,0,0.0,0,1,1000,num_1,0.762717799982056,,24,12,2026-03-04_16h14.10.532,2026A_exp2,2022.2.4,59.843222708735034,
1000,1,3.7,3.7,0,0,10,10,63,,,,,85.3460511000012,85.99693660001503,85.99693660001503,86.48140779999085,45,45,86.48140779999085,86.48140779999085,86.48140779999085,86.48140779999085,86.48140779999085,86.48140779999085,86.48140779999085,86.48140779999085,86.48140779999085,86.84775970003102,86.84775970003102,86.84775970003102,86.84775970003102,86.84775970003102,86.84775970003102,86.84775970003102,86.84775970003102,86.84775970003102,0,1,[0.001243600039742887],[0.36721450003096834],86.84775970003102,87.04811930004507,1000,87.04811930004507,1000,1000,1000,1000,0,num_3,0.7491836999543011,,24,12,2026-03-04_16h14.10.532,2026A_exp2,2022.2.4,59.843222708735034,
1000,1,4.9,0.0,1,0,11,11,10,,,,,87.81526570004644,88.46596709999721,88.46596709999721,88.96727540000575,315,45,88.96727540000575,88.96727540000575,88.96727540000575,88.96727540000575,88.96727540000575,88.96727540000575,88.96727540000575,88.96727540000575,88.96727540000575,89.33361359999981,89.33361359999981,89.33361359999981,89.33361359999981,89.33361359999981,89.33361359999981,89.33361359999981,89.33361359999981,89.33361359999981,2,2,"[0.0011983999866060913, 0.3338893000036478]","[0.3005064000026323, 0.36723540001548827]",89.33361359999981,89.53590580000309,1000,89.53590580000309,1000,1000,1000,1000,0,num_3,0.45296899997629225,,24,12,2026-03-04_16h14.10.532,2026A_exp2,2022.2.4,59.843222708735034,
1,0,0.0,6.1,1,0,12,12,50,,,,,90.00327720004134,90.65155920002144,90.65155920002144,91.15292040002532,315,315,91.15292040002532,91.15292040002532,91.15292040002532,91.15292040002532,91.15292040002532,91.15292040002532,91.15292040002532,91.15292040002532,91.15292040002532,91.51915070001269,91.51915070001269,91.51915070001269,91.51915070001269,91.51915070001269,91.51915070001269,91.51915070001269,91.51915070001269,91.51915070001269,0,1,[0.0013143999967724085],[0.36709449999034405],91.51915070001269,91.71949480002513,6.1,91.71949480002513,1,6.1,1,1,1000,num_4,0.7819944000220858,,24,12,2026-03-04_16h14.10.532,2026A_exp2,2022.2.4,59.843222708735034,
1000,1,3.7,3.7,0,0,13,13,72,,,,,92.51990290003596,93.1705687000067,93.1705687000067,93.6552653000108,45,45,93.6552653000108,93.6552653000108,93.6552653000108,93.6552653000108,93.6552653000108,93.6552653000108,93.6552653000108,93.6552653000108,93.6552653000108,94.02167720004218,94.02167720004218,94.02167720004218,94.02167720004218,94.02167720004218,94.02167720004218,94.02167720004218,94.02167720004218,94.02167720004218,0,1,[0.0012398000108078122],[0.3672462999820709],94.02167720004218,94.22200990002602,1000,94.22200990002602,1000,1000,1000,1000,0,num_3,0.6388593000010587,,24,12,2026-03-04_16h14.10.532,2026A_exp2,2022.2.4,59.843222708735034,
1000,1,6.1,6.1,0,0,14,14,16,,,,,94.88905500003602,95.53979120001895,95.53979120001895,96.04075790004572,45,45,96.04075790004572,96.04075790004572,96.04075790004572,96.04075790004572,96.04075790004572,96.04075790004572,96.04075790004572,96.04075790004572,96.04075790004572,96.40739820001181,96.40739820001181,96.40739820001181,96.40739820001181,96.40739820001181,96.40739820001181,96.40739820001181,96.40739820001181,96.40739820001181,0,1,[0.0008155000396072865],[0.3675440000370145],96.40739820001181,96.60944010003004,1000,96.60944010003004,1000,1000,1000,1000,0,num_3,0.4363167999545112,,24,12,2026-03-04_16h14.10.532,2026A_exp2,2022.2.4,59.843222708735034,
1000,1,3.7,0.0,0,0,15,15,76,,,,,97.0746075999923,97.72519730002386,97.72519730002386,98.22648620000109,45,45,98.22648620000109,98.22648620000109,98.22648620000109,98.22648620000109,98.22648620000109,98.22648620000109,98.22648620000109,98.22648620000109,98.22648620000109,98.59278250002535,98.59278250002535,98.59278250002535,98.59278250002535,98.59278250002535,98.59278250002535,98.59278250002535,98.59278250002535,98.59278250002535,8,5,"[0.017573999997694045, 0.16716720000840724, 0.2007103000069037, 0.2507206999580376, 0.35073010000633076]","[0.15043599996715784, 0.18388269998831674, 0.21736339997733012, 0.30058689997531474, 0.3674239999963902]",98.59278250002535,98.79468089999864,1000,98.79468089999864,1000,1000,1000,1000,0,num_3,0.2424345000181347,,24,12,2026-03-04_16h14.10.532,2026A_exp2,2022.2.4,59.843222708735034,
1000,1,0.0,0.0,1,0,16,16,85,,,,,99.05991090001771,99.71070970001165,99.71070970001165,100.21181490004528,315,315,100.21181490004528,100.21181490004528,100.21181490004528,100.21181490004528,100.21181490004528,100.21181490004528,100.21181490004528,100.21181490004528,100.21181490004528,100.57832720002625,100.57832720002625,100.57832720002625,100.57832720002625,100.57832720002625,100.57832720002625,100.57832720002625,100.57832720002625,100.57832720002625,11,4,"[0.001251300040166825, 0.1671174000366591, 0.233784900046885, 0.3171542000491172]","[0.11699210002552718, 0.20035630004713312, 0.2671540000010282, 0.3336865000310354]",100.57832720002625,100.78062979999231,1000,100.78062979999231,1000,1000,1000,1000,1,num_2,1.5769443000317551,,24,12,2026-03-04_16h14.10.532,2026A_exp2,2022.2.4,59.843222708735034,
1000,1,6.1,0.0,1,0,17,17,57,,,,,102.37990920001175,103.03071190003539,103.03071190003539,103.53162170003634,45,45,103.53162170003634,103.53162170003634,103.53162170003634,103.53162170003634,103.53162170003634,103.53162170003634,103.53162170003634,103.53162170003634,103.53162170003634,103.89814639999531,103.89814639999531,103.89814639999531,103.89814639999531,103.89814639999531,103.89814639999531,103.89814639999531,103.89814639999531,103.89814639999531,1,2,"[0.0012184000224806368, 0.20016820001183078]","[0.18363879999378696, 0.36702540004625916]",103.89814639999531,104.10027530003572,1000,104.10027530003572,1000,1000,1000,1000,0,num_3,0.4088898000190966,,24,12,2026-03-04_16h14.10.532,2026A_exp2,2022.2.4,59.843222708735034,
1,0,0.0,0.0,0,0,18,18,24,,,,,104.53207110002404,105.18282980000367,105.18282980000367,105.68399510002928,45,45,105.68399510002928,105.68399510002928,105.68399510002928,105.68399510002928,105.68399510002928,105.68399510002928,105.68399510002928,105.68399510002928,105.68399510002928,106.0503691000049,106.0503691000049,106.0503691000049,106.0503691000049,106.0503691000049,106.0503691000049,106.0503691000049,106.0503691000049,106.0503691000049,15,2,"[0.06693980004638433, 0.3671913000289351]","[0.18375840003136545, 0.3671965000103228]",106.0503691000049,106.25058120000176,0.0,106.25058120000176,1,0.0,0,0,1000,num_4,1.4828356999787502,,24,12,2026-03-04_16h14.10.532,2026A_exp2,2022.2.4,59.843222708735034,
1,0,0.0,0.0,1,0,19,19,69,,,,,107.75187470001401,108.40260070003569,108.40260070003569,108.88713119999738,45,315,108.88713119999738,108.88713119999738,108.88713119999738,108.88713119999738,108.88713119999738,108.88713119999738,108.88713119999738,108.88713119999738,108.88713119999738,109.25346680002986,109.25346680002986,109.25346680002986,109.25346680002986,109.25346680002986,109.25346680002986,109.25346680002986,109.25346680002986,109.25346680002986,18,3,"[0.016960899985861033, 0.06639450002694502, 0.2000024999724701]","[0.049816699989605695, 0.09979299997212365, 0.21663009998155758]",109.25346680002986,109.45376260002377,0.0,109.45376260002377,0,0.0,0,1,1000,num_1,0.7594072999781929,,24,12,2026-03-04_16h14.10.532,2026A_exp2,2022.2.4,59.843222708735034,
0,0,4.9,3.7,0,0,20,20,28,,,,,110.23793880001176,110.87173990003066,110.87173990003066,111.37274970003637,315,45,111.37274970003637,111.37274970003637,111.37274970003637,111.37274970003637,111.37274970003637,111.37274970003637,111.37274970003637,111.37274970003637,111.37274970003637,111.73938300000736,111.73938300000736,111.73938300000736,111.73938300000736,111.73938300000736,111.73938300000736,111.73938300000736,111.73938300000736,111.73938300000736,23,0,,,111.73938300000736,111.93950239999685,3.7,111.93950239999685,0,3.7,1,0,1000,num_1,1.209954000019934,,24,12,2026-03-04_16h14.10.532,2026A_exp2,2022.2.4,59.843222708735034,
1,0,0.0,0.0,0,0,21,21,79,,,,,113.17403829999967,113.80811520002317,113.80811520002317,114.30911180004478,45,315,114.30911180004478,114.30911180004478,114.30911180004478,114.30911180004478,114.30911180004478,114.30911180004478,114.30911180004478,114.30911180004478,114.30911180004478,114.67559719999554,114.67559719999554,114.67559719999554,114.67559719999554,114.67559719999554,114.67559719999554,114.67559719999554,114.67559719999554,114.67559719999554,23,0,,,114.67559719999554,114.87581910000881,0.0,114.87581910000881,0,0.0,0,1,1000,num_1,1.1458835999947041,,24,12,2026-03-04_16h14.10.532,2026A_exp2,2022.2.4,59.843222708735034,
1000,1,6.1,0.0,1,0,22,22,83,,,,,116.04388040001504,116.69407530000899,116.69407530000899,117.17876650003018,315,315,117.17876650003018,117.17876650003018,117.17876650003018,117.17876650003018,117.17876650003018,117.17876650003018,117.17876650003018,117.17876650003018,117.17876650003018,117.5452237999998,117.5452237999998,117.5452237999998,117.5452237999998,117.5452237999998,117.5452237999998,117.5452237999998,117.5452237999998,117.5452237999998,20,3,"[0.10041299997828901, 0.1664468999952078, 0.3671523999655619]","[0.11672180000459775, 0.18350519996602088, 0.36715750000439584]",117.5452237999998,117.74726329999976,1000,117.74726329999976,1000,1000,1000,1000,0,num_3,0.5295289999921806,,24,12,2026-03-04_16h14.10.532,2026A_exp2,2022.2.4,59.843222708735034,
0,0,4.9,0.0,1,0,23,23,67,,,,,118.29576470004395,118.94664370000828,118.94664370000828,119.44762290001381,315,45,119.44762290001381,119.44762290001381,119.44762290001381,119.44762290001381,119.44762290001381,119.44762290001381,119.44762290001381,119.44762290001381,119.44762290001381,119.81407790002413,119.81407790002413,119.81407790002413,119.81407790002413,119.81407790002413,119.81407790002413,119.81407790002413,119.81407790002413,119.81407790002413,8,3,"[0.00120749999769032, 0.10015519999433309, 0.300305999990087]","[0.08343870000680909, 0.21671910001896322, 0.33356940001249313]",119.81407790002413,120.01430840004468,4.9,120.01430840004468,1,4.9,1,1,1000,num_4,0.7115554999909364,,24,12,2026-03-04_16h14.10.532,2026A_exp2,2022.2.4,59.843222708735034,
0,0,0.0,0.0,1,0,24,24,2,,,,,120.74817760003498,121.39890010003,121.39890010003,121.88353200000711,315,45,121.88353200000711,121.88353200000711,121.88353200000711,121.88353200000711,121.88353200000711,121.88353200000711,121.88353200000711,121.88353200000711,121.88353200000711,122.2498528000433,122.2498528000433,122.2498528000433,122.2498528000433,122.2498528000433,122.2498528000433,122.2498528000433,122.2498528000433,122.2498528000433,22,1,[0.1837338999612257],[0.200275499955751],122.2498528000433,122.45009140000911,0.0,122.45009140000911,1,0.0,0,0,1000,num_4,1.307938399957493,,24,12,2026-03-04_16h14.10.532,2026A_exp2,2022.2.4,59.843222708735034,
1000,1,0.0,6.1,1,0,25,25,71,,,,,123.78450300003169,124.43504599999869,124.43504599999869,124.91974209999898,45,45,124.91974209999898,124.91974209999898,124.91974209999898,124.91974209999898,124.91974209999898,124.91974209999898,124.91974209999898,124.91974209999898,124.91974209999898,125.286207200028,125.286207200028,125.286207200028,125.286207200028,125.286207200028,125.286207200028,125.286207200028,125.286207200028,125.286207200028,15,2,"[0.04978350002784282, 0.23337279999395832]","[0.11659480002708733, 0.2834553000284359]",125.286207200028,125.48822540004039,1000,125.48822540004039,1000,1000,1000,1000,1,num_2,0.8608735000016168,,24,12,2026-03-04_16h14.10.532,2026A_exp2,2022.2.4,59.843222708735034,
1000,1,0.0,4.9,0,0,26,26,6,,,,,126.3704291000031,127.02122520003468,127.02122520003468,127.5224854000262,45,315,127.5224854000262,127.5224854000262,127.5224854000262,127.5224854000262,127.5224854000262,127.5224854000262,127.5224854000262,127.5224854000262,127.5224854000262,127.87211420002859,127.87211420002859,127.87211420002859,127.87211420002859,127.87211420002859,127.87211420002859,127.87211420002859,127.87211420002859,127.87211420002859,22,0,,,127.87211420002859,128.07409000000916,1000,128.07409000000916,1000,1000,1000,1000,1,num_2,0.5305931000038981,,24,12,2026-03-04_16h14.10.532,2026A_exp2,2022.2.4,59.843222708735034,
1,0,0.0,4.9,0,0,27,27,3,,,,,128.62279029999627,129.2734719000291,129.2734719000291,129.77463560004253,315,45,129.77463560004253,129.77463560004253,129.77463560004253,129.77463560004253,129.77463560004253,129.77463560004253,129.77463560004253,129.77463560004253,129.77463560004253,130.12430130003486,130.12430130003486,130.12430130003486,130.12430130003486,130.12430130003486,130.12430130003486,130.12430130003486,130.12430130003486,130.12430130003486,22,0,,,130.12430130003486,130.32456899998942,0.0,130.32456899998942,0,0.0,0,1,1000,num_1,0.8407083000056446,,24,12,2026-03-04_16h14.10.532,2026A_exp2,2022.2.4,59.843222708735034,
1000,1,6.1,6.1,1,0,28,28,8,,,,,131.19195820001187,131.825971400016,131.825971400016,132.32713130000047,45,45,132.32713130000047,132.32713130000047,132.32713130000047,132.32713130000047,132.32713130000047,132.32713130000047,132.32713130000047,132.32713130000047,132.32713130000047,132.69361519999802,132.69361519999802,132.69361519999802,132.69361519999802,132.69361519999802,132.69361519999802,132.69361519999802,132.69361519999802,132.69361519999802,23,0,,,132.69361519999802,132.8955294000334,1000,132.8955294000334,1000,1000,1000,1000,0,num_3,1.6291064999531955,,24,12,2026-03-04_16h14.10.532,2026A_exp2,2022.2.4,59.843222708735034,
1000,1,0.0,0.0,0,0,29,29,5,,,,,134.54582810000284,135.19596640003147,135.19596640003147,135.68055540003115,315,315,135.68055540003115,135.68055540003115,135.68055540003115,135.68055540003115,135.68055540003115,135.68055540003115,135.68055540003115,135.68055540003115,135.68055540003115,136.04687310004374,136.04687310004374,136.04687310004374,136.04687310004374,136.04687310004374,136.04687310004374,136.04687310004374,136.04687310004374,136.04687310004374,15,2,"[0.03355250001186505, 0.15031350002391264]","[0.13353420002385974, 0.18361070001265034]",136.04687310004374,136.248802600021,1000,136.248802600021,1000,1000,1000,1000,1,num_2,0.8038446000427939,,24,12,2026-03-04_16h14.10.532,2026A_exp2,2022.2.4,59.843222708735034,
0,0,6.1,4.9,0,0,30,30,22,,,,,137.08121610002127,137.73193360003643,137.73193360003643,138.23318159999326,315,315,138.23318159999326,138.23318159999326,138.23318159999326,138.23318159999326,138.23318159999326,138.23318159999326,138.23318159999326,138.23318159999326,138.23318159999326,138.5996196999913,138.5996196999913,138.5996196999913,138.5996196999913,138.5996196999913,138.5996196999913,138.5996196999913,138.5996196999913,138.5996196999913,23,0,,,138.5996196999913,138.79976050002733,4.9,138.79976050002733,1,4.9,1,1,1000,num_4,0.8848873000242747,,24,12,2026-03-04_16h14.10.532,2026A_exp2,2022.2.4,59.843222708735034,
1000,1,3.7,4.9,0,0,31,31,45,,,,,139.7005688000354,140.35134739999194,140.35134739999194,140.835764700023,315,45,140.835764700023,140.835764700023,140.835764700023,140.835764700023,140.835764700023,140.835764700023,140.835764700023,140.835764700023,140.835764700023,141.2020883000223,141.2020883000223,141.2020883000223,141.2020883000223,141.2020883000223,141.2020883000223,141.2020883000223,141.2020883000223,141.2020883000223,23,0,,,141.2020883000223,141.40412310004467,1000,141.40412310004467,1000,1000,1000,1000,1,num_2,0.7606840000371449,,24,12,2026-03-04_16h14.10.532,2026A_exp2,2022.2.4,59.843222708735034,
1000,1,0.0,6.1,1,0,32,32,43,,,,,142.18648050003685,142.8371626000153,142.8371626000153,143.33813390001887,315,45,143.33813390001887,143.33813390001887,143.33813390001887,143.33813390001887,143.33813390001887,143.33813390001887,143.33813390001887,143.33813390001887,143.33813390001887,143.70469750004122,143.70469750004122,143.70469750004122,143.70469750004122,143.70469750004122,143.70469750004122,143.70469750004122,143.70469750004122,143.70469750004122,22,1,[0.15078640001593158],[0.16702009999426082],143.70469750004122,143.90694040001836,1000,143.90694040001836,1000,1000,1000,1000,1,num_2,0.5943947999621741,,24,12,2026-03-04_16h14.10.532,2026A_exp2,2022.2.4,59.843222708735034,
1000,1,0.0,4.9,0,0,33,33,26,,,,,144.5223127999925,145.17277440003818,145.17277440003818,145.67394030001014,45,45,145.67394030001014,145.67394030001014,145.67394030001014,145.67394030001014,145.67394030001014,145.67394030001014,145.67394030001014,145.67394030001014,145.67394030001014,146.04035930003738,146.04035930003738,146.04035930003738,146.04035930003738,146.04035930003738,146.04035930003738,146.04035930003738,146.04035930003738,146.04035930003738,18,6,"[0.03356279997387901, 0.08327839995035902, 0.18369729997357354, 0.26701789995422587, 0.3173743999795988, 0.3671479999902658]","[0.05005479999817908, 0.09986939997179434, 0.20043480000458658, 0.2839442999684252, 0.3505390999489464, 0.3671526999678463]",146.04035930003738,146.24245130002964,1000,146.24245130002964,1000,1000,1000,1000,1,num_2,0.6588231999776326,,24,12,2026-03-04_16h14.10.532,2026A_exp2,2022.2.4,59.843222708735034,
1,0,0.0,6.1,1,0,34,34,31,,,,,146.92444500001147,147.57496590004303,147.57496590004303,148.07632809999632,315,315,148.07632809999632,148.07632809999632,148.07632809999632,148.07632809999632,148.07632809999632,148.07632809999632,148.07632809999632,148.07632809999632,148.07632809999632,148.42596950003644,148.42596950003644,148.42596950003644,148.42596950003644,148.42596950003644,148.42596950003644,148.42596950003644,148.42596950003644,148.42596950003644,13,4,"[0.0012455999967642128, 0.10021770000457764, 0.18379689997527748, 0.2670554999494925]","[0.08359999995445833, 0.1170191999990493, 0.21706059999996796, 0.28378289996180683]",148.42596950003644,148.6262934000115,6.1,148.6262934000115,1,6.1,1,1,1000,num_4,0.6823388999910094,,24,12,2026-03-04_16h14.10.532,2026A_exp2,2022.2.4,59.843222708735034,
0,0,6.1,0.0,0,0,35,35,74,,,,,149.3269439000287,149.97755539999343,149.97755539999343,150.46195910003735,45,45,150.46195910003735,150.46195910003735,150.46195910003735,150.46195910003735,150.46195910003735,150.46195910003735,150.46195910003735,150.46195910003735,150.46195910003735,150.82838389999233,150.82838389999233,150.82838389999233,150.82838389999233,150.82838389999233,150.82838389999233,150.82838389999233,150.82838389999233,150.82838389999233,9,5,"[0.0012295999913476408, 0.03342019999399781, 0.15034799999557436, 0.21701540000503883, 0.30039960000431165]","[0.017354899959173054, 0.0501821999787353, 0.20039299997733906, 0.28358739998657256, 0.36729889997513965]",150.82838389999233,151.0284392000176,0.0,151.0284392000176,0,0.0,0,1,1000,num_1,1.3363515999517404,,24,12,2026-03-04_16h14.10.532,2026A_exp2,2022.2.4,59.843222708735034,
1,0,4.9,3.7,1,0,36,36,27,,,,,152.39633290003985,153.04733390000183,153.04733390000183,153.53166020003846,315,315,153.53166020003846,153.53166020003846,153.53166020003846,153.53166020003846,153.53166020003846,153.53166020003846,153.53166020003846,153.53166020003846,153.53166020003846,153.89815150003415,153.89815150003415,153.89815150003415,153.89815150003415,153.89815150003415,153.89815150003415,153.89815150003415,153.89815150003415,153.89815150003415,23,0,,,153.89815150003415,154.0982252000249,3.7,154.0982252000249,1,3.7,1,1,1000,num_4,0.8747190000140108,,24,12,2026-03-04_16h14.10.532,2026A_exp2,2022.2.4,59.843222708735034,
1000,1,0.0,0.0,1,0,37,37,1,,,,,154.9990492000361,155.6332473999937,155.6332473999937,156.13424390001455,315,315,156.13424390001455,156.13424390001455,156.13424390001455,156.13424390001455,156.13424390001455,156.13424390001455,156.13424390001455,156.13424390001455,156.13424390001455,156.500687199994,156.500687199994,156.500687199994,156.500687199994,156.500687199994,156.500687199994,156.500687199994,156.500687199994,156.500687199994,23,0,,,156.500687199994,156.70313979999628,1000,156.70313979999628,1000,1000,1000,1000,0,num_3,0.9739182000048459,,24,12,2026-03-04_16h14.10.532,2026A_exp2,2022.2.4,59.843222708735034,
1000,1,3.7,6.1,1,0,38,38,58,,,,,157.70233620004728,158.3525842000381,158.3525842000381,158.83697880001273,315,315,158.83697880001273,158.83697880001273,158.83697880001273,158.83697880001273,158.83697880001273,158.83697880001273,158.83697880001273,158.83697880001273,158.83697880001273,159.2034805000294,159.2034805000294,159.2034805000294,159.2034805000294,159.2034805000294,159.2034805000294,159.2034805000294,159.2034805000294,159.2034805000294,22,1,[0.1336433000396937],[0.15050089999567717],159.2034805000294,159.40556630003266,1000,159.40556630003266,1000,1000,1000,1000,1,num_2,0.5353275999659672,,24,12,2026-03-04_16h14.10.532,2026A_exp2,2022.2.4,59.843222708735034,
1000,1,4.9,3.7,0,0,39,39,40,,,,,159.9708638000302,160.6215812000446,160.6215812000446,161.12269640003797,45,45,161.12269640003797,161.12269640003797,161.12269640003797,161.12269640003797,161.12269640003797,161.12269640003797,161.12269640003797,161.12269640003797,161.12269640003797,161.4723961999989,161.4723961999989,161.4723961999989,161.4723961999989,161.4723961999989,161.4723961999989,161.4723961999989,161.4723961999989,161.4723961999989,22,0,,,161.4723961999989,161.67255360004492,1000,161.68933320004726,1000,1000,1000,1000,0,num_3,0.5792411000002176,,24,12,2026-03-04_16h14.10.532,2026A_exp2,2022.2.4,59.843222708735034,
1000,1,0.0,0.0,0,0,40,40,15,,,,,162.28965570003493,162.9406106999959,162.9406106999959,163.44169350003358,45,315,163.44169350003358,163.44169350003358,163.44169350003358,163.44169350003358,163.44169350003358,163.44169350003358,163.44169350003358,163.44169350003358,163.44169350003358,163.79133730003377,163.79133730003377,163.79133730003377,163.79133730003377,163.79133730003377,163.79133730003377,163.79133730003377,163.79133730003377,163.79133730003377,18,4,"[0.21714030002476647, 0.266931599995587, 0.3004386000102386, 0.33384370000567287]","[0.2336879000067711, 0.2836068000178784, 0.31701920001069084, 0.350699300004635]",163.79133730003377,163.9933611000306,1000,164.00823150004726,1000,1000,1000,1000,1,num_2,0.8605338000343181,,24,12,2026-03-04_16h14.10.532,2026A_exp2,2022.2.4,59.843222708735034,
1000,1,4.9,4.9,1,0,41,41,68,,,,,164.89245270000538,165.54318470001454,165.54318470001454,166.04514770000242,45,45,166.04514770000242,166.04514770000242,166.04514770000242,166.04514770000242,166.04514770000242,166.04514770000242,166.04514770000242,166.04514770000242,166.04514770000242,166.39406700001564,166.39406700001564,166.39406700001564,166.39406700001564,166.39406700001564,166.39406700001564,166.39406700001564,166.39406700001564,166.39406700001564,22,0,,,166.39406700001564,166.59616740001366,1000,166.59616740001366,1000,1000,1000,1000,1,num_2,1.064533600001596,,24,12,2026-03-04_16h14.10.532,2026A_exp2,2022.2.4,59.843222708735034,
1000,1,0.0,4.9,1,0,42,42,66,,,,,167.67839380004443,168.32931110000936,168.32931110000936,168.8303534000297,45,315,168.8303534000297,168.8303534000297,168.8303534000297,168.8303534000297,168.8303534000297,168.8303534000297,168.8303534000297,168.8303534000297,168.8303534000297,169.19679660000838,169.19679660000838,169.19679660000838,169.19679660000838,169.19679660000838,169.19679660000838,169.19679660000838,169.19679660000838,169.19679660000838,23,0,,,169.19679660000838,169.39863810001407,1000,169.39863810001407,1000,1000,1000,1000,1,num_2,0.47137559996917844,,24,12,2026-03-04_16h14.10.532,2026A_exp2,2022.2.4,59.843222708735034,
0,0,0.0,0.0,0,0,43,43,59,,,,,169.8973185000359,170.5481523000053,170.5481523000053,171.05934259999776,45,315,171.05934259999776,171.05934259999776,171.05934259999776,171.05934259999776,171.05934259999776,171.05934259999776,171.05934259999776,171.05934259999776,171.05934259999776,171.41577080002753,171.41577080002753,171.41577080002753,171.41577080002753,171.41577080002753,171.41577080002753,171.41577080002753,171.41577080002753,171.41577080002753,7,2,"[0.027108400012366474, 0.3147906999802217]","[0.2814147000317462, 0.33157939999364316]",171.41577080002753,171.61587350000627,0.0,171.61587350000627,0,0.0,0,1,1000,num_1,1.365300900011789,,24,12,2026-03-04_16h14.10.532,2026A_exp2,2022.2.4,59.843222708735034,
1000,1,3.7,0.0,1,0,44,44,38,,,,,173.00063580001006,173.65119510004297,173.65119510004297,174.13574410002911,315,45,174.13574410002911,174.13574410002911,174.13574410002911,174.13574410002911,174.13574410002911,174.13574410002911,174.13574410002911,174.13574410002911,174.13574410002911,174.50203070003772,174.50203070003772,174.50203070003772,174.50203070003772,174.50203070003772,174.50203070003772,174.50203070003772,174.50203070003772,174.50203070003772,23,0,,,174.50203070003772,174.70408560003852,1000,174.70408560003852,1000,1000,1000,1000,0,num_3,1.1489578000037,,24,12,2026-03-04_16h14.10.532,2026A_exp2,2022.2.4,59.843222708735034,
1,0,6.1,0.0,0,0,45,45,47,,,,,175.87001080001937,176.53153630002635,176.53153630002635,177.02194040000904,45,45,177.02194040000904,177.02194040000904,177.02194040000904,177.02194040000904,177.02194040000904,177.02194040000904,177.02194040000904,177.02194040000904,177.02194040000904,177.37177480000537,177.37177480000537,177.37177480000537,177.37177480000537,177.37177480000537,177.37177480000537,177.37177480000537,177.37177480000537,177.37177480000537,0,1,[0.0012105999630875885],[0.3507832999457605],177.37177480000537,177.57181290001608,6.1,177.58858209999744,1,6.1,1,1,1000,num_4,0.7126417999970727,,24,12,2026-03-04_16h14.10.532,2026A_exp2,2022.2.4,59.843222708735034,
1000,1,0.0,0.0,1,0,46,46,78,,,,,178.3224778000149,178.97318760002963,178.97318760002963,179.4576455000206,45,45,179.4576455000206,179.4576455000206,179.4576455000206,179.4576455000206,179.4576455000206,179.4576455000206,179.4576455000206,179.4576455000206,179.4576455000206,179.82414229999995,179.82414229999995,179.82414229999995,179.82414229999995,179.82414229999995,179.82414229999995,179.82414229999995,179.82414229999995,179.82414229999995,2,2,"[0.0012134999851696193, 0.10015099996235222]","[0.06672150001395494, 0.3670843999716453]",179.82414229999995,180.02576460002456,1000,180.02576460002456,1000,1000,1000,1000,0,num_3,1.2357558000367135,,24,12,2026-03-04_16h14.10.532,2026A_exp2,2022.2.4,59.843222708735034,
1,0,0.0,3.7,1,0,47,47,32,,,,,181.29210560000502,181.942875800014,181.942875800014,182.44390310003655,315,315,182.44390310003655,182.44390310003655,182.44390310003655,182.44390310003655,182.44390310003655,182.44390310003655,182.44390310003655,182.44390310003655,182.44390310003655,182.81039669999154,182.81039669999154,182.81039669999154,182.81039669999154,182.81039669999154,182.81039669999154,182.81039669999154,182.81039669999154,182.81039669999154,0,1,[0.0012047000345773995],[0.3674013999989256],182.81039669999154,183.01064440002665,3.7,183.01064440002665,1,3.7,1,1,1000,num_4,0.8020052000065334,,24,12,2026-03-04_16h14.10.532,2026A_exp2,2022.2.4,59.843222708735034,
1,0,3.7,0.0,0,0,48,48,87,,,,,183.8448183000437,184.49547680001706,184.49547680001706,184.9798993000295,45,315,184.9798993000295,184.9798993000295,184.9798993000295,184.9798993000295,184.9798993000295,184.9798993000295,184.9798993000295,184.9798993000295,184.9798993000295,185.3463153000339,185.3463153000339,185.3463153000339,185.3463153000339,185.3463153000339,185.3463153000339,185.3463153000339,185.3463153000339,185.3463153000339,0,1,[0.0012449999921955168],[0.3671717999968678],185.3463153000339,185.54656250000698,3.7,185.54656250000698,1,3.7,1,1,1000,num_4,0.9713882000069134,,24,12,2026-03-04_16h14.10.532,2026A_exp2,2022.2.4,59.843222708735034,
1,0,6.1,4.9,1,0,49,49,64,,,,,186.54741850000573,187.1983004999929,187.1983004999929,187.6990877999924,45,315,187.6990877999924,187.6990877999924,187.6990877999924,187.6990877999924,187.6990877999924,187.6990877999924,187.6990877999924,187.6990877999924,187.6990877999924,188.06566920003388,188.06566920003388,188.06566920003388,188.06566920003388,188.06566920003388,188.06566920003388,188.06566920003388,188.06566920003388,188.06566920003388,11,3,"[0.0012375999940559268, 0.23360759997740388, 0.3166848999680951]","[0.08357139996951446, 0.28372760000638664, 0.36709309997968376]",188.06566920003388,188.26575290004257,4.9,188.26575290004257,1,4.9,1,1,1000,num_4,0.8989877999993041,,24,12,2026-03-04_16h14.10.532,2026A_exp2,2022.2.4,59.843222708735034,
1000,1,3.7,0.0,1,0,50,50,19,,,,,189.18342570000095,189.8360296000028,189.8360296000028,190.34019489999628,45,45,190.34019489999628,190.34019489999628,190.34019489999628,190.34019489999628,190.34019489999628,190.34019489999628,190.34019489999628,190.34019489999628,190.34019489999628,190.70175210002344,190.70175210002344,190.70175210002344,190.70175210002344,190.70175210002344,190.70175210002344,190.70175210002344,190.70175210002344,190.70175210002344,23,0,,,190.70175210002344,190.91333220002707,1000,190.91333220002707,1000,1000,1000,1000,0,num_3,0.7079154000384733,,24,12,2026-03-04_16h14.10.532,2026A_exp2,2022.2.4,59.843222708735034,
1000,1,4.9,0.0,0,0,51,51,54,,,,,191.65258789999643,192.30324010003824,192.30324010003824,192.80436400003964,45,45,192.80436400003964,192.80436400003964,192.80436400003964,192.80436400003964,192.80436400003964,192.80436400003964,192.80436400003964,192.80436400003964,192.80436400003964,193.1541189000127,193.1541189000127,193.1541189000127,193.1541189000127,193.1541189000127,193.1541189000127,193.1541189000127,193.1541189000127,193.1541189000127,22,0,,,193.1541189000127,193.35628130001714,1000,193.35628130001714,1000,1000,1000,1000,0,num_3,0.5770309999934398,,24,12,2026-03-04_16h14.10.532,2026A_exp2,2022.2.4,59.843222708735034,
1000,1,3.7,0.0,0,0,52,52,56,,,,,193.95472040004097,194.6055583000416,194.6055583000416,195.10659300000407,45,45,195.10659300000407,195.10659300000407,195.10659300000407,195.10659300000407,195.10659300000407,195.10659300000407,195.10659300000407,195.10659300000407,195.10659300000407,195.47279190004338,195.47279190004338,195.47279190004338,195.47279190004338,195.47279190004338,195.47279190004338,195.47279190004338,195.47279190004338,195.47279190004338,14,2,"[0.0012864000163972378, 0.11717959999805316]","[0.10029589995974675, 0.15036239998880774]",195.47279190004338,195.67493249999825,1000,195.67493249999825,1000,1000,1000,1000,0,num_3,0.3222022000118159,,24,12,2026-03-04_16h14.10.532,2026A_exp2,2022.2.4,59.843222708735034,
1,0,0.0,0.0,1,0,53,53,49,,,,,196.02351490000729,196.67426370002795,196.67426370002795,197.17543080000905,45,315,197.17543080000905,197.17543080000905,197.17543080000905,197.17543080000905,197.17543080000905,197.17543080000905,197.17543080000905,197.17543080000905,197.17543080000905,197.54149950004648,197.54149950004648,197.54149950004648,197.54149950004648,197.54149950004648,197.54149950004648,197.54149950004648,197.54149950004648,197.54149950004648,23,0,,,197.54149950004648,197.7420178000466,0.0,197.7420178000466,0,0.0,0,1,1000,num_1,1.4798585000098683,,24,12,2026-03-04_16h14.10.532,2026A_exp2,2022.2.4,59.843222708735034,
1,0,0.0,0.0,1,0,54,54,42,,,,,199.24332030001096,199.89412469998933,199.89412469998933,200.37836950004566,315,45,200.37836950004566,200.37836950004566,200.37836950004566,200.37836950004566,200.37836950004566,200.37836950004566,200.37836950004566,200.37836950004566,200.37836950004566,200.74504040001193,200.74504040001193,200.74504040001193,200.74504040001193,200.74504040001193,200.74504040001193,200.74504040001193,200.74504040001193,200.74504040001193,20,3,"[0.08271360001526773, 0.2329301999998279, 0.34963260003132746]","[0.09961780003504828, 0.2495902000227943, 0.3665550000150688]",200.74504040001193,200.94525879999856,0.0,200.94525879999856,1,0.0,0,0,1000,num_4,3.1242948999861255,,24,12,2026-03-04_16h14.10.532,2026A_exp2,2022.2.4,59.843222708735034,
1,0,0.0,6.1,1,0,55,55,33,,,,,204.0982296000002,204.74899260001257,204.74899260001257,205.23338990000775,315,45,205.23338990000775,205.23338990000775,205.23338990000775,205.23338990000775,205.23338990000775,205.23338990000775,205.23338990000775,205.23338990000775,205.23338990000775,205.59988250001334,205.59988250001334,205.59988250001334,205.59988250001334,205.59988250001334,205.59988250001334,205.59988250001334,205.59988250001334,205.59988250001334,21,1,[0.2003194999997504],[0.23364029999356717],205.59988250001334,205.8000369000365,6.1,205.8000369000365,1,6.1,1,1,1000,num_4,0.6931357000139542,,24,12,2026-03-04_16h14.10.532,2026A_exp2,2022.2.4,59.843222708735034,
1,0,6.1,6.1,1,0,56,56,23,,,,,206.51731980004115,207.16825160000008,207.16825160000008,207.65238610003144,315,45,207.65238610003144,207.65238610003144,207.65238610003144,207.65238610003144,207.65238610003144,207.65238610003144,207.65238610003144,207.65238610003144,207.65238610003144,208.01886000001105,208.01886000001105,208.01886000001105,208.01886000001105,208.01886000001105,208.01886000001105,208.01886000001105,208.01886000001105,208.01886000001105,12,2,"[0.0012042999733239412, 0.16709479998098686]","[0.13369639997836202, 0.217143899993971]",208.01886000001105,208.21923450002214,6.1,208.21923450002214,1,6.1,1,1,1000,num_4,0.8340966000105254,,24,12,2026-03-04_16h14.10.532,2026A_exp2,2022.2.4,59.843222708735034,
1000,1,6.1,0.0,1,0,57,57,25,,,,,209.06982289999723,209.72062440001173,209.72062440001173,210.20509900001343,315,45,210.20509900001343,210.20509900001343,210.20509900001343,210.20509900001343,210.20509900001343,210.20509900001343,210.20509900001343,210.20509900001343,210.20509900001343,210.57112959999358,210.57112959999358,210.57112959999358,210.57112959999358,210.57112959999358,210.57112959999358,210.57112959999358,210.57112959999358,210.57112959999358,23,0,,,210.57112959999358,210.77335360000143,1000,210.77335360000143,1000,1000,1000,1000,0,num_3,0.8472272999933921,,24,12,2026-03-04_16h14.10.532,2026A_exp2,2022.2.4,59.843222708735034,
1000,1,0.0,3.7,1,0,58,58,13,,,,,211.63913510000566,212.290100000042,212.290100000042,212.79099370003678,315,45,212.79099370003678,212.79099370003678,212.79099370003678,212.79099370003678,212.79099370003678,212.79099370003678,212.79099370003678,212.79099370003678,212.79099370003678,213.15740280004684,213.15740280004684,213.15740280004684,213.15740280004684,213.15740280004684,213.15740280004684,213.15740280004684,213.15740280004684,213.15740280004684,23,0,,,213.15740280004684,213.35935990000144,1000,213.35935990000144,1000,1000,1000,1000,1,num_2,1.653629100008402,,24,12,2026-03-04_16h14.10.532,2026A_exp2,2022.2.4,59.843222708735034,
1,0,3.7,4.9,1,0,59,59,18,,,,,215.0424358000164,215.67647400003625,215.67647400003625,216.17758930003038,315,315,216.17758930003038,216.17758930003038,216.17758930003038,216.17758930003038,216.17758930003038,216.17758930003038,216.17758930003038,216.17758930003038,216.17758930003038,216.54408520000288,216.54408520000288,216.54408520000288,216.54408520000288,216.54408520000288,216.54408520000288,216.54408520000288,216.54408520000288,216.54408520000288,23,0,,,216.54408520000288,216.7443726999918,4.9,216.7443726999918,1,4.9,1,1,1000,num_4,0.7486444999813102,,24,12,2026-03-04_16h14.10.532,2026A_exp2,2022.2.4,59.843222708735034,
1,0,0.0,3.7,1,0,60,60,35,,,,,217.5115492999903,218.1620602000039,218.1620602000039,218.651013900002,45,315,218.651013900002,218.651013900002,218.651013900002,218.651013900002,218.651013900002,218.651013900002,218.651013900002,218.651013900002,218.651013900002,219.01327719999244,219.01327719999244,219.01327719999244,219.01327719999244,219.01327719999244,219.01327719999244,219.01327719999244,219.01327719999244,219.01327719999244,23,0,,,219.01327719999244,219.21352720004506,3.7,219.21352720004506,1,3.7,1,1,1000,num_4,0.6632016000221483,,24,12,2026-03-04_16h14.10.532,2026A_exp2,2022.2.4,59.843222708735034,
1000,1,0.0,3.7,1,0,61,61,84,,,,,219.89730150002288,220.54813640000066,220.54813640000066,221.0326655000099,315,45,221.0326655000099,221.0326655000099,221.0326655000099,221.0326655000099,221.0326655000099,221.0326655000099,221.0326655000099,221.0326655000099,221.0326655000099,221.39899459999288,221.39899459999288,221.39899459999288,221.39899459999288,221.39899459999288,221.39899459999288,221.39899459999288,221.39899459999288,221.39899459999288,21,1,[0.18355640000663698],[0.200221800012514],221.39899459999288,221.60166839999147,1000,221.60166839999147,1000,1000,1000,1000,1,num_2,0.7319421999854967,,24,12,2026-03-04_16h14.10.532,2026A_exp2,2022.2.4,59.843222708735034,
1,0,3.7,6.1,0,0,62,62,52,,,,,222.34993110003415,223.00051700003678,223.00051700003678,223.50177110004006,45,45,223.50177110004006,223.50177110004006,223.50177110004006,223.50177110004006,223.50177110004006,223.50177110004006,223.50177110004006,223.50177110004006,223.50177110004006,223.86807220004266,223.86807220004266,223.86807220004266,223.86807220004266,223.86807220004266,223.86807220004266,223.86807220004266,223.86807220004266,223.86807220004266,3,1,[0.0013996000052429736],[0.3335646000341512],223.86807220004266,224.06828700000187,3.7,224.06828700000187,0,3.7,1,0,1000,num_1,1.0082323999959044,,24,12,2026-03-04_16h14.10.532,2026A_exp2,2022.2.4,59.843222708735034,
1000,1,0.0,0.0,0,0,63,63,86,,,,,225.10265680000884,225.73671890003607,225.73671890003607,226.2378044000361,45,315,226.2378044000361,226.2378044000361,226.2378044000361,226.2378044000361,226.2378044000361,226.2378044000361,226.2378044000361,226.2378044000361,226.2378044000361,226.60421200003475,226.60421200003475,226.60421200003475,226.60421200003475,226.60421200003475,226.60421200003475,226.60421200003475,226.60421200003475,226.60421200003475,23,0,,,226.60421200003475,226.8063418000238,1000,226.8063418000238,1000,1000,1000,1000,0,num_3,0.6224293999839574,,24,12,2026-03-04_16h14.10.532,2026A_exp2,2022.2.4,59.843222708735034,
1,0,0.0,4.9,0,0,64,64,73,,,,,227.45492980000563,228.10568979999516,228.10568979999516,228.60660649999045,315,45,228.60660649999045,228.60660649999045,228.60660649999045,228.60660649999045,228.60660649999045,228.60660649999045,228.60660649999045,228.60660649999045,228.60660649999045,228.97327469999436,228.97327469999436,228.97327469999436,228.97327469999436,228.97327469999436,228.97327469999436,228.97327469999436,228.97327469999436,228.97327469999436,9,1,[0.0007273000082932413],[0.2340414000209421],228.97327469999436,229.17340500000864,0.0,229.17340500000864,0,0.0,0,1,1000,num_1,1.0643045000033453,,24,12,2026-03-04_16h14.10.532,2026A_exp2,2022.2.4,59.843222708735034,
1000,1,0.0,3.7,0,0,65,65,46,,,,,230.25770710001234,230.90855560003547,230.90855560003547,231.3928417999996,45,45,231.3928417999996,231.3928417999996,231.3928417999996,231.3928417999996,231.3928417999996,231.3928417999996,231.3928417999996,231.3928417999996,231.3928417999996,231.75928950001253,231.75928950001253,231.75928950001253,231.75928950001253,231.75928950001253,231.75928950001253,231.75928950001253,231.75928950001253,231.75928950001253,0,1,[0.0012524000485427678],[0.36737130000256],231.75928950001253,231.96141350001562,1000,231.96141350001562,1000,1000,1000,1000,1,num_2,0.6762264999561012,,24,12,2026-03-04_16h14.10.532,2026A_exp2,2022.2.4,59.843222708735034,
1,0,6.1,3.7,1,0,66,66,51,,,,,232.6600341000012,233.32117060001474,233.32117060001474,233.81046180002159,45,315,233.81046180002159,233.81046180002159,233.81046180002159,233.81046180002159,233.81046180002159,233.81046180002159,233.81046180002159,233.81046180002159,233.81046180002159,234.1616689999937,234.1616689999937,234.1616689999937,234.1616689999937,234.1616689999937,234.1616689999937,234.1616689999937,234.1616689999937,234.1616689999937,3,4,"[0.004201000032480806, 0.2640322000370361, 0.3140646000392735, 0.3643261000397615]","[0.24746959999902174, 0.2974975000252016, 0.34734199999365956, 0.3643307000165805]",234.1616689999937,234.36180489999242,3.7,234.37870580004528,1,3.7,1,1,1000,num_4,0.922895600029733,,24,12,2026-03-04_16h14.10.532,2026A_exp2,2022.2.4,59.843222708735034,
1,0,4.9,0.0,1,0,67,67,65,,,,,235.32924990000902,235.96361229999457,235.96361229999457,236.46476310002618,315,45,236.46476310002618,236.46476310002618,236.46476310002618,236.46476310002618,236.46476310002618,236.46476310002618,236.46476310002618,236.46476310002618,236.46476310002618,236.83114120003302,236.83114120003302,236.83114120003302,236.83114120003302,236.83114120003302,236.83114120003302,236.83114120003302,236.83114120003302,236.83114120003302,0,1,[0.0007090000435709953],[0.36899670003913343],236.83114120003302,237.03112739999779,0.0,237.03112739999779,0,0.0,0,1,1000,num_1,0.8381741999764927,,24,12,2026-03-04_16h14.10.532,2026A_exp2,2022.2.4,59.843222708735034,
1,0,0.0,0.0,1,0,68,68,39,,,,,237.89884650002932,238.5493637000327,238.5493637000327,239.05070820002584,315,315,239.05070820002584,239.05070820002584,239.05070820002584,239.05070820002584,239.05070820002584,239.05070820002584,239.05070820002584,239.05070820002584,239.05070820002584,239.41692779998994,239.41692779998994,239.41692779998994,239.41692779998994,239.41692779998994,239.41692779998994,239.41692779998994,239.41692779998994,239.41692779998994,0,1,[0.0008467999869026244],[0.36742049996973947],239.41692779998994,239.6172402999946,0.0,239.6172402999946,0,0.0,0,1,1000,num_1,0.9473919000010937,,24,12,2026-03-04_16h14.10.532,2026A_exp2,2022.2.4,59.843222708735034,
1,0,3.7,3.7,1,0,69,69,30,,,,,240.58473740000045,241.2353138999897,241.2353138999897,241.71979639999336,315,45,241.71979639999336,241.71979639999336,241.71979639999336,241.71979639999336,241.71979639999336,241.71979639999336,241.71979639999336,241.71979639999336,241.71979639999336,242.08632030000445,242.08632030000445,242.08632030000445,242.08632030000445,242.08632030000445,242.08632030000445,242.08632030000445,242.08632030000445,242.08632030000445,0,1,[0.001227000029757619],[0.36716169997816905],242.08632030000445,242.2865531000425,3.7,242.2865531000425,0,3.7,1,0,1000,num_1,0.7347475999849848,,24,12,2026-03-04_16h14.10.532,2026A_exp2,2022.2.4,59.843222708735034,
1000,1,0.0,0.0,1,0,70,70,9,,,,,243.0371953000431,243.68793980003102,243.68793980003102,244.1724331000005,45,315,244.1724331000005,244.1724331000005,244.1724331000005,244.1724331000005,244.1724331000005,244.1724331000005,244.1724331000005,244.1724331000005,244.1724331000005,244.5388329999987,244.5388329999987,244.5388329999987,244.5388329999987,244.5388329999987,244.5388329999987,244.5388329999987,244.5388329999987,244.5388329999987,0,1,[0.0012284000404179096],[0.36718820000533015],244.5388329999987,244.74134100001538,1000,244.74134100001538,1000,1000,1000,1000,1,num_2,2.2158304000040516,,24,12,2026-03-04_16h14.10.532,2026A_exp2,2022.2.4,59.843222708735034,
1,0,4.9,0.0,0,0,71,71,53,,,,,246.97452950000297,247.62528860004386,247.62528860004386,248.12636420002673,45,315,248.12636420002673,248.12636420002673,248.12636420002673,248.12636420002673,248.12636420002673,248.12636420002673,248.12636420002673,248.12636420002673,248.12636420002673,248.49265520001063,248.49265520001063,248.49265520001063,248.49265520001063,248.49265520001063,248.49265520001063,248.49265520001063,248.49265520001063,248.49265520001063,3,2,"[0.0012600999907590449, 0.3667099999729544]","[0.3170185000053607, 0.36671319999732077]",248.49265520001063,248.70062499999767,4.9,248.70062499999767,1,4.9,1,1,1000,num_4,0.7285320000373758,,24,12,2026-03-04_16h14.10.532,2026A_exp2,2022.2.4,59.843222708735034,
1,0,0.0,6.1,1,0,72,72,36,,,,,249.46010580001166,250.09458989999257,250.09458989999257,250.59534980001627,45,45,250.59534980001627,250.59534980001627,250.59534980001627,250.59534980001627,250.59534980001627,250.59534980001627,250.59534980001627,250.59534980001627,250.59534980001627,250.96188930002972,250.96188930002972,250.96188930002972,250.96188930002972,250.96188930002972,250.96188930002972,250.96188930002972,250.96188930002972,250.96188930002972,0,1,[0.0012447999906726182],[0.3672188999480568],250.96188930002972,251.16217630001483,6.1,251.16217630001483,1,6.1,1,1,1000,num_4,0.7232765999506228,,24,12,2026-03-04_16h14.10.532,2026A_exp2,2022.2.4,59.843222708735034,
1000,1,6.1,0.0,1,0,73,73,29,,,,,251.91277160000755,252.56353450001916,252.56353450001916,253.04782140004681,315,45,253.04782140004681,253.04782140004681,253.04782140004681,253.04782140004681,253.04782140004681,253.04782140004681,253.04782140004681,253.04782140004681,253.04782140004681,253.41427980002481,253.41427980002481,253.41427980002481,253.41427980002481,253.41427980002481,253.41427980002481,253.41427980002481,253.41427980002481,253.41427980002481,0,1,[0.0012603000504896045],[0.3672311000409536],253.41427980002481,253.61644100002013,1000,253.61644100002013,1000,1000,1000,1000,0,num_3,1.0936283000046387,,24,12,2026-03-04_16h14.10.532,2026A_exp2,2022.2.4,59.843222708735034,
1,0,6.1,0.0,1,0,74,74,89,,,,,254.73212000000058,255.38282870000694,255.38282870000694,255.8840063000098,315,45,255.8840063000098,255.8840063000098,255.8840063000098,255.8840063000098,255.8840063000098,255.8840063000098,255.8840063000098,255.8840063000098,255.8840063000098,256.25036130001536,256.25036130001536,256.25036130001536,256.25036130001536,256.25036130001536,256.25036130001536,256.25036130001536,256.25036130001536,256.25036130001536,0,1,[0.00120900000911206],[0.3671141000231728],256.25036130001536,256.4505471000448,0.0,256.4505471000448,0,0.0,0,1,1000,num_1,0.922243700013496,,24,12,2026-03-04_16h14.10.532,2026A_exp2,2022.2.4,59.843222708735034,
1000,1,4.9,0.0,1,0,75,75,77,,,,,257.4016014999943,258.0522355000139,258.0522355000139,258.55336499999976,45,315,258.55336499999976,258.55336499999976,258.55336499999976,258.55336499999976,258.55336499999976,258.55336499999976,258.55336499999976,258.55336499999976,258.55336499999976,258.91971420001937,258.91971420001937,258.91971420001937,258.91971420001937,258.91971420001937,258.91971420001937,258.91971420001937,258.91971420001937,258.91971420001937,0,1,[0.0007786999922245741],[0.3677231000037864],258.91971420001937,259.12011150002945,1000,259.12011150002945,1000,1000,1000,1000,0,num_3,1.10939330002293,,24,12,2026-03-04_16h14.10.532,2026A_exp2,2022.2.4,59.843222708735034,
1000,1,0.0,4.9,0,0,76,76,60,,,,,260.2543883000035,260.9051378000295,260.9051378000295,261.4062113999971,45,315,261.4062113999971,261.4062113999971,261.4062113999971,261.4062113999971,261.4062113999971,261.4062113999971,261.4062113999971,261.4062113999971,261.4062113999971,261.7724554000306,261.7724554000306,261.7724554000306,261.7724554000306,261.7724554000306,261.7724554000306,261.7724554000306,261.7724554000306,261.7724554000306,0,1,[0.0012410999624989927],[0.36686759995063767],261.7724554000306,261.9746999000199,1000,261.9746999000199,1000,1000,1000,1000,1,num_2,0.8624049999634735,,24,12,2026-03-04_16h14.10.532,2026A_exp2,2022.2.4,59.843222708735034,
1000,1,0.0,4.9,0,0,77,77,61,,,,,262.8569606000092,263.50764140003594,263.50764140003594,264.00893489999,315,45,264.00893489999,264.00893489999,264.00893489999,264.00893489999,264.00893489999,264.00893489999,264.00893489999,264.00893489999,264.00893489999,264.375172900036,264.375172900036,264.375172900036,264.375172900036,264.375172900036,264.375172900036,264.375172900036,264.375172900036,264.375172900036,4,2,"[0.0012262999662198126, 0.3170589999645017]","[0.26703679998172447, 0.36704509996343404]",264.375172900036,264.57725269999355,1000,264.57725269999355,1000,1000,1000,1000,1,num_2,0.9002298000268638,,24,12,2026-03-04_16h14.10.532,2026A_exp2,2022.2.4,59.843222708735034,
0,0,0.0,3.7,0,0,78,78,34,,,,,265.5098702000105,266.1437986000092,266.1437986000092,266.64490290003596,315,45,266.64490290003596,266.64490290003596,266.64490290003596,266.64490290003596,266.64490290003596,266.64490290003596,266.64490290003596,266.64490290003596,266.64490290003596,267.0112667999929,267.0112667999929,267.0112667999929,267.0112667999929,267.0112667999929,267.0112667999929,267.0112667999929,267.0112667999929,267.0112667999929,1,2,"[0.0012315000058151782, 0.18378029996529222]","[0.16694289998849854, 0.3671844999771565]",267.0112667999929,267.21139900002163,3.7,267.21139900002163,1,3.7,1,1,1000,num_4,0.68998940003803,,24,12,2026-03-04_16h14.10.532,2026A_exp2,2022.2.4,59.843222708735034,
1000,1,6.1,6.1,1,0,79,79,4,,,,,267.92872700002044,268.5794980000355,268.5794980000355,269.06399950000923,45,315,269.06399950000923,269.06399950000923,269.06399950000923,269.06399950000923,269.06399950000923,269.06399950000923,269.06399950000923,269.06399950000923,269.06399950000923,269.43038910004543,269.43038910004543,269.43038910004543,269.43038910004543,269.43038910004543,269.43038910004543,269.43038910004543,269.43038910004543,269.43038910004543,23,0,,,269.43038910004543,269.6325671999948,1000,269.6325671999948,1000,1000,1000,1000,0,num_3,1.244509000040125,,24,12,2026-03-04_16h14.10.532,2026A_exp2,2022.2.4,59.843222708735034,
1,0,0.0,6.1,0,0,80,80,0,,,,,270.8983121000347,271.54904509999324,271.54904509999324,272.0501903000404,45,45,272.0501903000404,272.0501903000404,272.0501903000404,272.0501903000404,272.0501903000404,272.0501903000404,272.0501903000404,272.0501903000404,272.0501903000404,272.39992679998977,272.39992679998977,272.39992679998977,272.39992679998977,272.39992679998977,272.39992679998977,272.39992679998977,272.39992679998977,272.39992679998977,20,1,[0.13350009999703616],[0.16694070002995431],272.39992679998977,272.6001876000082,0.0,272.61685799999395,0,0.0,0,1,1000,num_1,1.4207561000366695,,24,12,2026-03-04_16h14.10.532,2026A_exp2,2022.2.4,59.843222708735034,
1,0,0.0,4.9,1,0,81,81,37,,,,,274.0685643000179,274.71897450002143,274.71897450002143,275.2033023000113,315,315,275.2033023000113,275.2033023000113,275.2033023000113,275.2033023000113,275.2033023000113,275.2033023000113,275.2033023000113,275.2033023000113,275.2033023000113,275.5699368999922,275.5699368999922,275.5699368999922,275.5699368999922,275.5699368999922,275.5699368999922,275.5699368999922,275.5699368999922,275.5699368999922,1,2,"[0.001241199963260442, 0.36680219997651875]","[0.35008059995016083, 0.36680540000088513]",275.5699368999922,275.77004080003826,4.9,275.77004080003826,1,4.9,1,1,1000,num_4,0.7399771999916993,,24,12,2026-03-04_16h14.10.532,2026A_exp2,2022.2.4,59.843222708735034,
1,0,6.1,0.0,1,0,82,82,80,,,,,276.5372972000041,277.1881383000291,277.1881383000291,277.6725824000314,45,315,277.6725824000314,277.6725824000314,277.6725824000314,277.6725824000314,277.6725824000314,277.6725824000314,277.6725824000314,277.6725824000314,277.6725824000314,278.03904510004213,278.03904510004213,278.03904510004213,278.03904510004213,278.03904510004213,278.03904510004213,278.03904510004213,278.03904510004213,278.03904510004213,23,0,,,278.03904510004213,278.2390841000015,0.0,278.2390841000015,0,0.0,0,1,1000,num_1,1.3655382000142708,,24,12,2026-03-04_16h14.10.532,2026A_exp2,2022.2.4,59.843222708735034,
1,0,6.1,0.0,1,0,83,83,70,,,,,279.6240313000162,280.2745466000051,280.2745466000051,280.75897329999134,315,315,280.75897329999134,280.75897329999134,280.75897329999134,280.75897329999134,280.75897329999134,280.75897329999134,280.75897329999134,280.75897329999134,280.75897329999134,281.1253180000349,281.1253180000349,281.1253180000349,281.1253180000349,281.1253180000349,281.1253180000349,281.1253180000349,281.1253180000349,281.1253180000349,23,0,,,281.1253180000349,281.32562380004674,0.0,281.32562380004674,0,0.0,0,1,1000,num_1,1.0710138999857008,,24,12,2026-03-04_16h14.10.532,2026A_exp2,2022.2.4,59.843222708735034,
1000,1,3.7,6.1,1,0,84,84,48,,,,,282.4264506000327,283.0773593999911,283.0773593999911,283.56166500004474,315,45,283.56166500004474,283.56166500004474,283.56166500004474,283.56166500004474,283.56166500004474,283.56166500004474,283.56166500004474,283.56166500004474,283.56166500004474,283.927894500026,283.927894500026,283.927894500026,283.927894500026,283.927894500026,283.927894500026,283.927894500026,283.927894500026,283.927894500026,9,5,"[0.0012543000048026443, 0.08312429999932647, 0.15010779997101054, 0.21679370000492781, 0.3002324999542907]","[0.033135399979073554, 0.13341419998323545, 0.1999597999965772, 0.28348599997116253, 0.3334993000025861]",283.927894500026,284.13024630001746,1000,284.13024630001746,1000,1000,1000,1000,1,num_2,0.95561699999962,,24,12,2026-03-04_16h14.10.532,2026A_exp2,2022.2.4,59.843222708735034,
1000,1,0.0,0.0,0,0,85,85,17,,,,,285.1125544999959,285.7630070000305,285.7630070000305,286.2643308000406,315,315,286.2643308000406,286.2643308000406,286.2643308000406,286.2643308000406,286.2643308000406,286.2643308000406,286.2643308000406,286.2643308000406,286.2643308000406,286.63089550001314,286.63089550001314,286.63089550001314,286.63089550001314,286.63089550001314,286.63089550001314,286.63089550001314,286.63089550001314,286.63089550001314,23,0,,,286.63089550001314,286.83292860002257,1000,286.83292860002257,1000,1000,1000,1000,1,num_2,1.5242483000038192,,24,12,2026-03-04_16h14.10.532,2026A_exp2,2022.2.4,59.843222708735034,
1,0,4.9,3.7,0,0,86,86,44,,,,,288.3825809000409,289.03329769999254,289.03329769999254,289.5345912000048,315,315,289.5345912000048,289.5345912000048,289.5345912000048,289.5345912000048,289.5345912000048,289.5345912000048,289.5345912000048,289.5345912000048,289.5345912000048,289.90078690001974,289.90078690001974,289.90078690001974,289.90078690001974,289.90078690001974,289.90078690001974,289.90078690001974,289.90078690001974,289.90078690001974,0,1,[0.001208700006827712],[0.3671353000099771],289.90078690001974,290.1008727000444,4.9,290.1008727000444,1,4.9,1,1,1000,num_4,0.7196097000269219,,24,12,2026-03-04_16h14.10.532,2026A_exp2,2022.2.4,59.843222708735034,
1000,1,6.1,0.0,0,0,87,87,81,,,,,290.85331110004336,291.5024336000206,291.5024336000206,292.00344920001226,45,45,292.00344920001226,292.00344920001226,292.00344920001226,292.00344920001226,292.00344920001226,292.00344920001226,292.00344920001226,292.00344920001226,292.00344920001226,292.3697737000184,292.3697737000184,292.3697737000184,292.3697737000184,292.3697737000184,292.3697737000184,292.3697737000184,292.3697737000184,292.3697737000184,0,1,[0.0012444999883882701],[0.3667305000126362],292.3697737000184,292.5722614999977,1000,292.5722614999977,1000,1000,1000,1000,0,num_3,0.6329488000483252,,24,12,2026-03-04_16h14.10.532,2026A_exp2,2022.2.4,59.843222708735034,
1000,1,4.9,0.0,0,0,88,88,41,,,,,293.2206961000338,293.8713373999926,293.8713373999926,294.3724205000326,315,315,294.3724205000326,294.3724205000326,294.3724205000326,294.3724205000326,294.3724205000326,294.3724205000326,294.3724205000326,294.3724205000326,294.3724205000326,294.739049100026,294.739049100026,294.739049100026,294.739049100026,294.739049100026,294.739049100026,294.739049100026,294.739049100026,294.739049100026,0,1,[0.001193900010548532],[0.36727479996625334],294.739049100026,294.9392994000227,1000,294.9392994000227,1000,1000,1000,1000,0,num_3,0.6657529000076465,,24,12,2026-03-04_16h14.10.532,2026A_exp2,2022.2.4,59.843222708735034,
1,0,0.0,0.0,0,0,89,89,55,,,,,295.62310260004597,296.2736588999978,296.2736588999978,296.7580878000008,315,315,296.7580878000008,296.7580878000008,296.7580878000008,296.7580878000008,296.7580878000008,296.7580878000008,296.7580878000008,296.7580878000008,296.7580878000008,297.1247434000252,297.1247434000252,297.1247434000252,297.1247434000252,297.1247434000252,297.1247434000252,297.1247434000252,297.1247434000252,297.1247434000252,0,1,[0.001226099964696914],[0.36713959998451173],297.1247434000252,297.3249096000218,0.0,297.3249096000218,1,0.0,0,0,1000,num_4,2.648188699968159,,24,12,2026-03-04_16h14.10.532,2026A_exp2,2022.2.4,59.843222708735034,
,,,,,,,,,,,,,,,,,,,,,,,,,,,,,,,,,,,,,,,,,,,,,,,,,,,,300.00299180002185,,,,,,,
