validity,detectorcomp,contrastCW,contrastCCW,precueCWorCCW,block_80trials.thisRepN,block_80trials.thisTrialN,block_80trials.thisN,block_80trials.thisIndex,etRecord.started,etRecord.stopped,text.started,text.stopped,text_4.started,text_4.stopped,text_6.started,text_6.stopped,oriCW,oriCCW,roi_2.started,grating_UR.started,grating_UL.started,grating_LR.started,grating_LL.started,noise_UR.started,noise_UL.started,noise_LR.started,noise_LL.started,roi_2.stopped,grating_UR.stopped,grating_UL.stopped,grating_LR.stopped,grating_LL.stopped,noise_UR.stopped,noise_UL.stopped,noise_LR.stopped,noise_LL.stopped,outframe,roi_2.numLooks,roi_2.timesOn,roi_2.timesOff,text_2.started,text_2.stopped,probedcontrast,key_resp.started,respdetect,relevantContrast,correctDetect,TorFdetect,respCWorCCW,key_resp.keys,key_resp.rt,feedback_display_.started,participantNo,blockNo,date,expName,psychopyVersion,frameRate,
1,0,4.9,0.0,1,0,0,0,4,4.090002039447427e-05,4.090002039447427e-05,51.62477080000099,53.628489800030366,53.628489800030366,54.26089969999157,54.26089969999157,54.779096900019795,45,45,54.779096900019795,54.779096900019795,54.779096900019795,54.779096900019795,54.779096900019795,54.779096900019795,54.779096900019795,54.779096900019795,54.779096900019795,55.12863400002243,55.12863400002243,55.12863400002243,55.12863400002243,55.12863400002243,55.12863400002243,55.12863400002243,55.12863400002243,55.12863400002243,2,2,"[0.0009266000124625862, 0.26762120000785217]","[0.23429679998662323, 0.36768969998229295]",55.12863400002243,55.32873629999813,0.0,55.32873629999813,0,0.0,0,1,1000,num_1,1.187730100005865,,24,11,2026-03-04_16h08.40.224,2026A_exp2,2022.2.4,59.81623257761143,
1000,1,3.7,3.7,1,0,1,1,40,,,,,56.546736099990085,57.19727880001301,57.19727880001301,57.6818070000154,315,315,57.6818070000154,57.6818070000154,57.6818070000154,57.6818070000154,57.6818070000154,57.6818070000154,57.6818070000154,57.6818070000154,57.6818070000154,58.04823389998637,58.04823389998637,58.04823389998637,58.04823389998637,58.04823389998637,58.04823389998637,58.04823389998637,58.04823389998637,58.04823389998637,6,4,"[0.001211599970702082, 0.20026539999525994, 0.26692619995446876, 0.35028690000763163]","[0.183521099970676, 0.2335884000058286, 0.3002732999739237, 0.3671527999686077]",58.04823389998637,58.24871300003724,1000,58.24871300003724,1000,1000,1000,1000,1,num_2,1.6506570999627002,,24,11,2026-03-04_16h08.40.224,2026A_exp2,2022.2.4,59.81623257761143,
1,0,4.9,0.0,0,0,2,2,48,,,,,59.916738600004464,60.57273220003117,60.57273220003117,61.0780373000307,315,45,61.0780373000307,61.0780373000307,61.0780373000307,61.0780373000307,61.0780373000307,61.0780373000307,61.0780373000307,61.0780373000307,61.0780373000307,61.434934000018984,61.434934000018984,61.434934000018984,61.434934000018984,61.434934000018984,61.434934000018984,61.434934000018984,61.434934000018984,61.434934000018984,0,1,[0.0034571000142022967],[0.3652161000063643],61.434934000018984,61.635144800005946,4.9,61.635144800005946,1,4.9,1,1,1000,num_4,0.7361658000154421,,24,11,2026-03-04_16h08.40.224,2026A_exp2,2022.2.4,59.81623257761143,
1000,1,4.9,0.0,0,0,3,3,58,,,,,62.4024162000278,63.036335700016934,63.036335700016934,63.537639699992724,315,315,63.537639699992724,63.537639699992724,63.537639699992724,63.537639699992724,63.537639699992724,63.537639699992724,63.537639699992724,63.537639699992724,63.537639699992724,63.90385589998914,63.90385589998914,63.90385589998914,63.90385589998914,63.90385589998914,63.90385589998914,63.90385589998914,63.90385589998914,63.90385589998914,0,1,[0.0011603999882936478],[0.3673737999633886],63.90385589998914,64.10589390003588,1000,64.10589390003588,1000,1000,1000,1000,0,num_3,0.7053485999931581,,24,11,2026-03-04_16h08.40.224,2026A_exp2,2022.2.4,59.81623257761143,
1000,1,0.0,6.1,0,0,4,4,34,,,,,64.8383333000238,65.48892370000249,65.48892370000249,65.99011290003546,45,45,65.99011290003546,65.99011290003546,65.99011290003546,65.99011290003546,65.99011290003546,65.99011290003546,65.99011290003546,65.99011290003546,65.99011290003546,66.35659660003148,66.35659660003148,66.35659660003148,66.35659660003148,66.35659660003148,66.35659660003148,66.35659660003148,66.35659660003148,66.35659660003148,0,1,[0.0012863000156357884],[0.36691219999920577],66.35659660003148,66.55841840000357,1000,66.55841840000357,1000,1000,1000,1000,1,num_2,0.5893378999899141,,24,11,2026-03-04_16h08.40.224,2026A_exp2,2022.2.4,59.81623257761143,
1,0,0.0,0.0,0,0,5,5,49,,,,,67.17398590000812,67.8246436000336,67.8246436000336,68.30916050000815,45,315,68.30916050000815,68.30916050000815,68.30916050000815,68.30916050000815,68.30916050000815,68.30916050000815,68.30916050000815,68.30916050000815,68.30916050000815,68.69220610003686,68.69220610003686,68.69220610003686,68.69220610003686,68.69220610003686,68.69220610003686,68.69220610003686,68.69220610003686,68.69220610003686,0,1,[0.0007281999569386244],[0.3806546999840066],68.69220610003686,68.89232650003396,0.0,68.89232650003396,1,0.0,0,0,1000,num_4,0.7194463000050746,,24,11,2026-03-04_16h08.40.224,2026A_exp2,2022.2.4,59.81623257761143,
1,0,6.1,0.0,1,0,6,6,13,,,,,69.6264674999984,70.27714020002168,70.27714020002168,70.7782131000422,45,45,70.7782131000422,70.7782131000422,70.7782131000422,70.7782131000422,70.7782131000422,70.7782131000422,70.7782131000422,70.7782131000422,70.7782131000422,71.1444803000195,71.1444803000195,71.1444803000195,71.1444803000195,71.1444803000195,71.1444803000195,71.1444803000195,71.1444803000195,71.1444803000195,0,1,[0.0012241000076755881],[0.36700519995065406],71.1444803000195,71.34483890002593,0.0,71.34483890002593,0,0.0,0,1,1000,num_1,1.059659999969881,,24,11,2026-03-04_16h08.40.224,2026A_exp2,2022.2.4,59.81623257761143,
1000,1,0.0,3.7,1,0,7,7,80,,,,,72.42915929999435,73.07977140002185,73.07977140002185,73.56433600001037,315,45,73.56433600001037,73.56433600001037,73.56433600001037,73.56433600001037,73.56433600001037,73.56433600001037,73.56433600001037,73.56433600001037,73.56433600001037,73.9307832000195,73.9307832000195,73.9307832000195,73.9307832000195,73.9307832000195,73.9307832000195,73.9307832000195,73.9307832000195,73.9307832000195,0,1,[0.0012182999635115266],[0.3672645000042394],73.9307832000195,74.13303050003015,1000,74.13303050003015,1000,1000,1000,1000,1,num_2,0.6303085999679752,,24,11,2026-03-04_16h08.40.224,2026A_exp2,2022.2.4,59.81623257761143,
1000,1,0.0,0.0,0,0,8,8,65,,,,,74.78142840001965,75.432095199998,75.432095199998,75.93330660002539,45,315,75.93330660002539,75.93330660002539,75.93330660002539,75.93330660002539,75.93330660002539,75.93330660002539,75.93330660002539,75.93330660002539,75.93330660002539,76.29961149999872,76.29961149999872,76.29961149999872,76.29961149999872,76.29961149999872,76.29961149999872,76.29961149999872,76.29961149999872,76.29961149999872,22,1,[0.21684230002574623],[0.23359220003476366],76.29961149999872,76.50214340002276,1000,76.50214340002276,1000,1000,1000,1000,0,num_3,0.6772308999788947,,24,11,2026-03-04_16h08.40.224,2026A_exp2,2022.2.4,59.81623257761143,
1000,1,0.0,3.7,0,0,9,9,52,,,,,77.20046640001237,77.85112290002871,77.85112290002871,78.33576139999786,315,315,78.33576139999786,78.33576139999786,78.33576139999786,78.33576139999786,78.33576139999786,78.33576139999786,78.33576139999786,78.33576139999786,78.33576139999786,78.70235239999602,78.70235239999602,78.70235239999602,78.70235239999602,78.70235239999602,78.70235239999602,78.70235239999602,78.70235239999602,78.70235239999602,0,1,[0.0007145999697968364],[0.36751700000604615],78.70235239999602,78.90217730001314,1000,78.90217730001314,1000,1000,1000,1000,1,num_2,0.4849664000212215,,24,11,2026-03-04_16h08.40.224,2026A_exp2,2022.2.4,59.81623257761143,
1,0,6.1,4.9,1,0,10,10,35,,,,,79.41931140003726,80.05321350001032,80.05321350001032,80.5542878000415,315,315,80.5542878000415,80.5542878000415,80.5542878000415,80.5542878000415,80.5542878000415,80.5542878000415,80.5542878000415,80.5542878000415,80.5542878000415,80.92063070001313,80.92063070001313,80.92063070001313,80.92063070001313,80.92063070001313,80.92063070001313,80.92063070001313,80.92063070001313,80.92063070001313,0,1,[0.0007925999816507101],[0.3672968000173569],80.92063070001313,81.12122940004338,4.9,81.12122940004338,1,4.9,1,1,1000,num_4,0.6662521000253037,,24,11,2026-03-04_16h08.40.224,2026A_exp2,2022.2.4,59.81623257761143,
1000,1,0.0,0.0,1,0,11,11,47,,,,,81.80483830004232,82.43900820001727,82.43900820001727,82.9402195000439,315,315,82.9402195000439,82.9402195000439,82.9402195000439,82.9402195000439,82.9402195000439,82.9402195000439,82.9402195000439,82.9402195000439,82.9402195000439,83.30679619999137,83.30679619999137,83.30679619999137,83.30679619999137,83.30679619999137,83.30679619999137,83.30679619999137,83.30679619999137,83.30679619999137,0,1,[0.0010442999773658812],[0.3683067999663763],83.30679619999137,83.51818780001486,1000,83.51818780001486,1000,1000,1000,1000,0,num_3,0.5663119999808259,,24,11,2026-03-04_16h08.40.224,2026A_exp2,2022.2.4,59.81623257761143,
1,0,0.0,3.7,0,0,12,12,78,,,,,84.10747470002389,84.75823710003169,84.75823710003169,85.25926070002606,45,315,85.25926070002606,85.25926070002606,85.25926070002606,85.25926070002606,85.25926070002606,85.25926070002606,85.25926070002606,85.25926070002606,85.25926070002606,85.60901970003033,85.60901970003033,85.60901970003033,85.60901970003033,85.60901970003033,85.60901970003033,85.60901970003033,85.60901970003033,85.60901970003033,3,2,"[0.0012131999828852713, 0.31735939998179674]","[0.3005255999742076, 0.33377879997715354]",85.60901970003033,85.80921830004081,0.0,85.80921830004081,0,0.0,0,1,1000,num_1,1.0507788000395522,,24,11,2026-03-04_16h08.40.224,2026A_exp2,2022.2.4,59.81623257761143,
1,0,0.0,0.0,0,0,13,13,81,,,,,86.87678099999903,87.52776249998715,87.52776249998715,88.01212590001523,315,315,88.01212590001523,88.01212590001523,88.01212590001523,88.01212590001523,88.01212590001523,88.01212590001523,88.01212590001523,88.01212590001523,88.01212590001523,88.37856919999467,88.37856919999467,88.37856919999467,88.37856919999467,88.37856919999467,88.37856919999467,88.37856919999467,88.37856919999467,88.37856919999467,0,1,[0.0012407999602146447],[0.36725760000990704],88.37856919999467,88.57853679999243,0.0,88.57853679999243,1,0.0,0,0,1000,num_4,0.8727074000053108,,24,11,2026-03-04_16h08.40.224,2026A_exp2,2022.2.4,59.81623257761143,
1000,1,6.1,0.0,0,0,14,14,19,,,,,89.47943480004324,90.13035689998651,90.13035689998651,90.61456870002439,315,315,90.61456870002439,90.61456870002439,90.61456870002439,90.61456870002439,90.61456870002439,90.61456870002439,90.61456870002439,90.61456870002439,90.61456870002439,90.98111980000976,90.98111980000976,90.98111980000976,90.98111980000976,90.98111980000976,90.98111980000976,90.98111980000976,90.98111980000976,90.98111980000976,7,4,"[0.0012951999669894576, 0.13633329997537658, 0.21837789996061474, 0.3017970999935642]","[0.09981290000723675, 0.1542644999572076, 0.2844055999885313, 0.3684309999807738]",90.98111980000976,91.19750350003596,1000,91.19750350003596,1000,1000,1000,1000,0,num_3,1.806429999996908,,24,11,2026-03-04_16h08.40.224,2026A_exp2,2022.2.4,59.81623257761143,
1000,1,0.0,0.0,1,0,15,15,14,,,,,93.03305140003795,93.68390510004247,93.68390510004247,94.18503260001307,315,45,94.18503260001307,94.18503260001307,94.18503260001307,94.18503260001307,94.18503260001307,94.18503260001307,94.18503260001307,94.18503260001307,94.18503260001307,94.53460020001512,94.53460020001512,94.53460020001512,94.53460020001512,94.53460020001512,94.53460020001512,94.53460020001512,94.53460020001512,94.53460020001512,9,3,"[0.0012938000145368278, 0.033384300011675805, 0.23357280000345781]","[0.0174564000335522, 0.21705100004328415, 0.2502688000095077]",94.53460020001512,94.73586290003732,1000,94.75151760003064,1000,1000,1000,1000,0,num_3,0.6279317999724299,,24,11,2026-03-04_16h08.40.224,2026A_exp2,2022.2.4,59.81623257761143,
0,0,4.9,0.0,0,0,16,16,30,,,,,95.40210170001956,96.05277509998996,96.05277509998996,96.53727620001882,45,315,96.53727620001882,96.53727620001882,96.53727620001882,96.53727620001882,96.53727620001882,96.53727620001882,96.53727620001882,96.53727620001882,96.53727620001882,96.90373110002838,96.90373110002838,96.90373110002838,96.90373110002838,96.90373110002838,96.90373110002838,96.90373110002838,96.90373110002838,96.90373110002838,23,0,,,96.90373110002838,97.10396080004284,0.0,97.10396080004284,0,0.0,0,1,1000,num_1,1.5392514999839477,,24,11,2026-03-04_16h08.40.224,2026A_exp2,2022.2.4,59.81623257761143,
0,0,0.0,3.7,1,0,17,17,21,,,,,98.67203850002261,99.32280960003845,99.32280960003845,99.80721749999793,315,45,99.80721749999793,99.80721749999793,99.80721749999793,99.80721749999793,99.80721749999793,99.80721749999793,99.80721749999793,99.80721749999793,99.80721749999793,100.17367660003947,100.17367660003947,100.17367660003947,100.17367660003947,100.17367660003947,100.17367660003947,100.17367660003947,100.17367660003947,100.17367660003947,23,0,,,100.17367660003947,100.37395259999903,0.0,100.37395259999903,0,0.0,0,1,1000,num_1,1.1171762999729253,,24,11,2026-03-04_16h08.40.224,2026A_exp2,2022.2.4,59.81623257761143,
1000,1,0.0,0.0,0,0,18,18,20,,,,,101.5081680000294,102.15905210003257,102.15905210003257,102.64341310004238,45,45,102.64341310004238,102.64341310004238,102.64341310004238,102.64341310004238,102.64341310004238,102.64341310004238,102.64341310004238,102.64341310004238,102.64341310004238,103.00981379998848,103.00981379998848,103.00981379998848,103.00981379998848,103.00981379998848,103.00981379998848,103.00981379998848,103.00981379998848,103.00981379998848,0,1,[0.0011955000227317214],[0.3671790999942459],103.00981379998848,103.21184270002414,1000,103.21184270002414,1000,1000,1000,1000,0,num_3,0.7280927999527194,,24,11,2026-03-04_16h08.40.224,2026A_exp2,2022.2.4,59.81623257761143,
1000,1,0.0,3.7,0,0,19,19,44,,,,,103.96388659998775,104.61146330001066,104.61146330001066,105.11264930001926,315,45,105.11264930001926,105.11264930001926,105.11264930001926,105.11264930001926,105.11264930001926,105.11264930001926,105.11264930001926,105.11264930001926,105.11264930001926,105.47885290003615,105.47885290003615,105.47885290003615,105.47885290003615,105.47885290003615,105.47885290003615,105.47885290003615,105.47885290003615,105.47885290003615,8,3,"[0.050176599994301796, 0.1335679999901913, 0.20033560000592843]","[0.08368839998729527, 0.1668803000357002, 0.3671654000063427]",105.47885290003615,105.68123500002548,1000,105.68123500002548,1000,1000,1000,1000,1,num_2,0.7699941000319086,,24,11,2026-03-04_16h08.40.224,2026A_exp2,2022.2.4,59.81623257761143,
1000,1,0.0,6.1,1,0,20,20,88,,,,,106.47980969998753,107.13062140002148,107.13062140002148,107.63167140004225,45,45,107.63167140004225,107.63167140004225,107.63167140004225,107.63167140004225,107.63167140004225,107.63167140004225,107.63167140004225,107.63167140004225,107.63167140004225,107.98132170003373,107.98132170003373,107.98132170003373,107.98132170003373,107.98132170003373,107.98132170003373,107.98132170003373,107.98132170003373,107.98132170003373,16,2,"[0.0012131000403314829, 0.21644840005319566]","[0.08359070000005886, 0.23345230001723394]",107.98132170003373,108.18407100002514,1000,108.18407100002514,1000,1000,1000,1000,1,num_2,0.4431991999736056,,24,11,2026-03-04_16h08.40.224,2026A_exp2,2022.2.4,59.81623257761143,
1,0,0.0,0.0,0,0,21,21,38,,,,,108.64869050000561,109.29929510003421,109.29929510003421,109.80048159998842,45,45,109.80048159998842,109.80048159998842,109.80048159998842,109.80048159998842,109.80048159998842,109.80048159998842,109.80048159998842,109.80048159998842,109.80048159998842,110.16687880002428,110.16687880002428,110.16687880002428,110.16687880002428,110.16687880002428,110.16687880002428,110.16687880002428,110.16687880002428,110.16687880002428,21,2,"[0.001244500046595931, 0.08294960000785068]","[0.017199199995957315, 0.10020149999763817]",110.16687880002428,110.36704620003002,0.0,110.36704620003002,0,0.0,0,1,1000,num_1,1.3640920000034384,,24,11,2026-03-04_16h08.40.224,2026A_exp2,2022.2.4,59.81623257761143,
1000,1,6.1,3.7,1,0,22,22,10,,,,,111.75182990002213,112.40252230002079,112.40252230002079,112.8867855000426,315,45,112.8867855000426,112.8867855000426,112.8867855000426,112.8867855000426,112.8867855000426,112.8867855000426,112.8867855000426,112.8867855000426,112.8867855000426,113.25347280001733,113.25347280001733,113.25347280001733,113.25347280001733,113.25347280001733,113.25347280001733,113.25347280001733,113.25347280001733,113.25347280001733,0,1,[0.0012553000124171376],[0.3672161999857053],113.25347280001733,113.4560538000078,1000,113.4560538000078,1000,1000,1000,1000,0,num_3,1.6282761000329629,,24,11,2026-03-04_16h08.40.224,2026A_exp2,2022.2.4,59.81623257761143,
1,0,0.0,4.9,1,0,23,23,45,,,,,115.105138599989,115.75586999999359,115.75586999999359,116.25679280003533,315,315,116.25679280003533,116.25679280003533,116.25679280003533,116.25679280003533,116.25679280003533,116.25679280003533,116.25679280003533,116.25679280003533,116.25679280003533,116.62340250000125,116.62340250000125,116.62340250000125,116.62340250000125,116.62340250000125,116.62340250000125,116.62340250000125,116.62340250000125,116.62340250000125,8,3,"[0.0997631000354886, 0.15039280004566535, 0.2671635000151582]","[0.13366620003944263, 0.25047760002780706, 0.3671392000396736]",116.62340250000125,116.82365650002612,4.9,116.82365650002612,1,4.9,1,1,1000,num_4,0.7235252000391483,,24,11,2026-03-04_16h08.40.224,2026A_exp2,2022.2.4,59.81623257761143,
1,0,4.9,6.1,1,0,24,24,86,,,,,117.57424480002373,118.22503560001496,118.22503560001496,118.70944950002013,315,315,118.70944950002013,118.70944950002013,118.70944950002013,118.70944950002013,118.70944950002013,118.70944950002013,118.70944950002013,118.70944950002013,118.70944950002013,119.07581980002578,119.07581980002578,119.07581980002578,119.07581980002578,119.07581980002578,119.07581980002578,119.07581980002578,119.07581980002578,119.07581980002578,0,1,[0.0012331000179983675],[0.36688069999217987],119.07581980002578,119.27599230001215,6.1,119.27599230001215,1,6.1,1,1,1000,num_4,0.5999269000021741,,24,11,2026-03-04_16h08.40.224,2026A_exp2,2022.2.4,59.81623257761143,
1000,1,6.1,0.0,1,0,25,25,60,,,,,119.89314260001993,120.543957100017,120.543957100017,121.04504850000376,45,315,121.04504850000376,121.04504850000376,121.04504850000376,121.04504850000376,121.04504850000376,121.04504850000376,121.04504850000376,121.04504850000376,121.04504850000376,121.41152800002601,121.41152800002601,121.41152800002601,121.41152800002601,121.41152800002601,121.41152800002601,121.41152800002601,121.41152800002601,121.41152800002601,21,1,[0.033463000028859824],[0.06689280003774911],121.41152800002601,121.61395150003955,1000,121.61395150003955,1000,1000,1000,1000,0,num_3,0.6373256000224501,,24,11,2026-03-04_16h08.40.224,2026A_exp2,2022.2.4,59.81623257761143,
1000,1,4.9,0.0,1,0,26,26,25,,,,,122.27905830001691,122.91299209999852,122.91299209999852,123.41405080002733,315,45,123.41405080002733,123.41405080002733,123.41405080002733,123.41405080002733,123.41405080002733,123.41405080002733,123.41405080002733,123.41405080002733,123.41405080002733,123.78043680003611,123.78043680003611,123.78043680003611,123.78043680003611,123.78043680003611,123.78043680003611,123.78043680003611,123.78043680003611,123.78043680003611,0,1,[0.0012401000130921602],[0.36704939999617636],123.78043680003611,123.98294950003037,1000,123.98294950003037,1000,1000,1000,1000,0,num_3,1.2521009999909438,,24,11,2026-03-04_16h08.40.224,2026A_exp2,2022.2.4,59.81623257761143,
1000,1,6.1,4.9,1,0,27,27,53,,,,,125.26530299999285,125.91608440002892,125.91608440002892,126.41701179998927,45,315,126.41701179998927,126.41701179998927,126.41701179998927,126.41701179998927,126.41701179998927,126.41701179998927,126.41701179998927,126.41701179998927,126.41701179998927,126.7668273000163,126.7668273000163,126.7668273000163,126.7668273000163,126.7668273000163,126.7668273000163,126.7668273000163,126.7668273000163,126.7668273000163,14,3,"[0.017233000020496547, 0.050203299964778125, 0.2174517000094056]","[0.033335499989334494, 0.15053869999246672, 0.23409400001401082]",126.7668273000163,126.96940440003527,1000,126.96940440003527,1000,1000,1000,1000,0,num_3,0.6899291999870911,,24,11,2026-03-04_16h08.40.224,2026A_exp2,2022.2.4,59.81623257761143,
1,0,3.7,4.9,1,0,28,28,39,,,,,127.68442980002146,128.33519630000228,128.33519630000228,128.83614640001906,45,45,128.83614640001906,128.83614640001906,128.83614640001906,128.83614640001906,128.83614640001906,128.83614640001906,128.83614640001906,128.83614640001906,128.83614640001906,129.20261520001804,129.20261520001804,129.20261520001804,129.20261520001804,129.20261520001804,129.20261520001804,129.20261520001804,129.20261520001804,129.20261520001804,1,2,"[0.00122819998068735, 0.03336310002487153]","[0.01696859998628497, 0.3670595000148751]",129.20261520001804,129.40265070000896,4.9,129.40265070000896,1,4.9,1,1,1000,num_4,0.7683318000053987,,24,11,2026-03-04_16h08.40.224,2026A_exp2,2022.2.4,59.81623257761143,
1000,1,4.9,0.0,0,0,29,29,36,,,,,130.18682639999315,130.837632699986,130.837632699986,131.32187849999173,315,45,131.32187849999173,131.32187849999173,131.32187849999173,131.32187849999173,131.32187849999173,131.32187849999173,131.32187849999173,131.32187849999173,131.32187849999173,131.68842140003107,131.68842140003107,131.68842140003107,131.68842140003107,131.68842140003107,131.68842140003107,131.68842140003107,131.68842140003107,131.68842140003107,0,1,[0.001588099985383451],[0.36735889996634796],131.68842140003107,131.89303700003074,1000,131.89303700003074,1000,1000,1000,1000,0,num_3,0.7021114000235684,,24,11,2026-03-04_16h08.40.224,2026A_exp2,2022.2.4,59.81623257761143,
1000,1,0.0,4.9,0,0,30,30,11,,,,,132.62251110002398,133.27335530001437,133.27335530001437,133.77445580001222,315,45,133.77445580001222,133.77445580001222,133.77445580001222,133.77445580001222,133.77445580001222,133.77445580001222,133.77445580001222,133.77445580001222,133.77445580001222,134.1408298999886,134.1408298999886,134.1408298999886,134.1408298999886,134.1408298999886,134.1408298999886,134.1408298999886,134.1408298999886,134.1408298999886,0,1,[0.0012722000246867537],[0.3671043000067584],134.1408298999886,134.34261330001755,1000,134.34261330001755,1000,1000,1000,1000,1,num_2,0.6217464000219479,,24,11,2026-03-04_16h08.40.224,2026A_exp2,2022.2.4,59.81623257761143,
1000,1,6.1,3.7,1,0,31,31,24,,,,,134.991943800007,135.6424670999986,135.6424670999986,136.14344120002352,45,45,136.14344120002352,136.14344120002352,136.14344120002352,136.14344120002352,136.14344120002352,136.14344120002352,136.14344120002352,136.14344120002352,136.14344120002352,136.50990619999357,136.50990619999357,136.50990619999357,136.50990619999357,136.50990619999357,136.50990619999357,136.50990619999357,136.50990619999357,136.50990619999357,14,4,"[0.0012122000334784389, 0.11689090001164004, 0.21697740000672638, 0.3337134000030346]","[0.08353520004311576, 0.1335448000463657, 0.2336984000285156, 0.3670929000363685]",136.50990619999357,136.71007219998864,1000,136.71007219998864,1000,1000,1000,1000,0,num_3,0.4295052999514155,,24,11,2026-03-04_16h08.40.224,2026A_exp2,2022.2.4,59.81623257761143,
0,0,0.0,0.0,1,0,32,32,62,,,,,137.16050910000922,137.81125249998877,137.81125249998877,138.312393900007,45,315,138.312393900007,138.312393900007,138.312393900007,138.312393900007,138.312393900007,138.312393900007,138.312393900007,138.312393900007,138.312393900007,138.67878060002113,138.67878060002113,138.67878060002113,138.67878060002113,138.67878060002113,138.67878060002113,138.67878060002113,138.67878060002113,138.67878060002113,0,1,[0.0012467000051401556],[0.3670429000048898],138.67878060002113,138.87894570000935,0.0,138.87894570000935,1,0.0,0,0,1000,num_4,0.7414396000094712,,24,11,2026-03-04_16h08.40.224,2026A_exp2,2022.2.4,59.81623257761143,
1000,1,4.9,6.1,1,0,33,33,1,,,,,139.64630190003663,140.29710850003175,140.29710850003175,140.78143410000484,315,45,140.78143410000484,140.78143410000484,140.78143410000484,140.78143410000484,140.78143410000484,140.78143410000484,140.78143410000484,140.78143410000484,140.78143410000484,141.14802600000985,141.14802600000985,141.14802600000985,141.14802600000985,141.14802600000985,141.14802600000985,141.14802600000985,141.14802600000985,141.14802600000985,0,1,[0.00121489999582991],[0.3672449000296183],141.14802600000985,141.35056960000657,1000,141.35056960000657,1000,1000,1000,1000,1,num_2,1.3166832000133581,,24,11,2026-03-04_16h08.40.224,2026A_exp2,2022.2.4,59.81623257761143,
1000,1,3.7,0.0,1,0,34,34,79,,,,,142.68278530001407,143.3334283999866,143.3334283999866,143.83459220000077,315,45,143.83459220000077,143.83459220000077,143.83459220000077,143.83459220000077,143.83459220000077,143.83459220000077,143.83459220000077,143.83459220000077,143.83459220000077,144.20096869999543,144.20096869999543,144.20096869999543,144.20096869999543,144.20096869999543,144.20096869999543,144.20096869999543,144.20096869999543,144.20096869999543,0,1,[0.0012488000211305916],[0.3672033000038937],144.20096869999543,144.4031393000041,1000,144.4031393000041,1000,1000,1000,1000,0,num_3,0.5130033000023104,,24,11,2026-03-04_16h08.40.224,2026A_exp2,2022.2.4,59.81623257761143,
0,0,3.7,4.9,1,0,35,35,3,,,,,144.93509370001266,145.58557900000596,145.58557900000596,146.08679920004215,45,315,146.08679920004215,146.08679920004215,146.08679920004215,146.08679920004215,146.08679920004215,146.08679920004215,146.08679920004215,146.08679920004215,146.08679920004215,146.43656260002172,146.43656260002172,146.43656260002172,146.43656260002172,146.43656260002172,146.43656260002172,146.43656260002172,146.43656260002172,146.43656260002172,0,1,[0.0012138999882154167],[0.35007129999576136],146.43656260002172,146.63662220002152,3.7,146.63662220002152,1,3.7,1,1,1000,num_4,1.19187369995052,,24,11,2026-03-04_16h08.40.224,2026A_exp2,2022.2.4,59.81623257761143,
1,0,0.0,0.0,1,0,36,36,66,,,,,147.85447880002903,148.5052730999887,148.5052730999887,148.98973130004015,315,315,148.98973130004015,148.98973130004015,148.98973130004015,148.98973130004015,148.98973130004015,148.98973130004015,148.98973130004015,148.98973130004015,148.98973130004015,149.356190600025,149.356190600025,149.356190600025,149.356190600025,149.356190600025,149.356190600025,149.356190600025,149.356190600025,149.356190600025,0,1,[0.0012245000107213855],[0.3672080000396818],149.356190600025,149.5562709000078,0.0,149.5562709000078,0,0.0,0,1,1000,num_1,0.7994516000035219,,24,11,2026-03-04_16h08.40.224,2026A_exp2,2022.2.4,59.81623257761143,
1,0,0.0,0.0,1,0,37,37,18,,,,,150.37382580002304,151.02440370002296,151.02440370002296,151.5255548999994,45,315,151.5255548999994,151.5255548999994,151.5255548999994,151.5255548999994,151.5255548999994,151.5255548999994,151.5255548999994,151.5255548999994,151.5255548999994,151.89206310000736,151.89206310000736,151.89206310000736,151.89206310000736,151.89206310000736,151.89206310000736,151.89206310000736,151.89206310000736,151.89206310000736,0,1,[0.0011981999850831926],[0.3671310999779962],151.89206310000736,152.0921604000032,0.0,152.0921604000032,0,0.0,0,1,1000,num_1,0.8712979999836534,,24,11,2026-03-04_16h08.40.224,2026A_exp2,2022.2.4,59.81623257761143,
1,0,4.9,6.1,0,0,38,38,15,,,,,152.99292009999044,153.65433370001847,153.65433370001847,154.13366200000746,315,315,154.13366200000746,154.13366200000746,154.13366200000746,154.13366200000746,154.13366200000746,154.13366200000746,154.13366200000746,154.13366200000746,154.13366200000746,154.49452390003717,154.49452390003717,154.49452390003717,154.49452390003717,154.49452390003717,154.49452390003717,154.49452390003717,154.49452390003717,154.49452390003717,11,2,"[0.13209690002258867, 0.2989244000054896]","[0.2655392000451684, 0.36576950002927333]",154.49452390003717,154.69486079999479,4.9,154.69486079999479,1,4.9,1,1,1000,num_4,0.6202756999991834,,24,11,2026-03-04_16h08.40.224,2026A_exp2,2022.2.4,59.81623257761143,
1,0,0.0,6.1,0,0,39,39,68,,,,,155.34532580000814,155.99607120000292,155.99607120000292,156.48045410000486,315,45,156.48045410000486,156.48045410000486,156.48045410000486,156.48045410000486,156.48045410000486,156.48045410000486,156.48045410000486,156.48045410000486,156.48045410000486,156.84691690001637,156.84691690001637,156.84691690001637,156.84691690001637,156.84691690001637,156.84691690001637,156.84691690001637,156.84691690001637,156.84691690001637,21,1,[0.21717429999262094],[0.2504015999729745],156.84691690001637,157.0470758000156,0.0,157.0470758000156,0,0.0,0,1,1000,num_1,1.6684281000052579,,24,11,2026-03-04_16h08.40.224,2026A_exp2,2022.2.4,59.81623257761143,
1000,1,4.9,4.9,0,0,40,40,42,,,,,158.73201109998627,159.38270519999787,159.38270519999787,159.86728250002488,315,45,159.86728250002488,159.86728250002488,159.86728250002488,159.86728250002488,159.86728250002488,159.86728250002488,159.86728250002488,159.86728250002488,159.86728250002488,160.23353329999372,160.23353329999372,160.23353329999372,160.23353329999372,160.23353329999372,160.23353329999372,160.23353329999372,160.23353329999372,160.23353329999372,22,1,[0.05011819995706901],[0.06663409998873249],160.23353329999372,160.43561330001103,1000,160.43561330001103,1000,1000,1000,1000,0,num_3,1.1520267999731004,,24,11,2026-03-04_16h08.40.224,2026A_exp2,2022.2.4,59.81623257761143,
1000,1,6.1,3.7,1,0,41,41,0,,,,,161.61875630001305,162.26910340000177,162.26910340000177,162.75353139999788,45,315,162.75353139999788,162.75353139999788,162.75353139999788,162.75353139999788,162.75353139999788,162.75353139999788,162.75353139999788,162.75353139999788,162.75353139999788,163.11974640004337,163.11974640004337,163.11974640004337,163.11974640004337,163.11974640004337,163.11974640004337,163.11974640004337,163.11974640004337,163.11974640004337,0,1,[0.0012070999946445227],[0.3671017999877222],163.11974640004337,163.321693600039,1000,163.321693600039,1000,1000,1000,1000,0,num_3,0.6422599999932572,,24,11,2026-03-04_16h08.40.224,2026A_exp2,2022.2.4,59.81623257761143,
1000,1,3.7,0.0,1,0,42,42,55,,,,,163.9872753000236,164.638148500002,164.638148500002,165.1392477999907,45,315,165.1392477999907,165.1392477999907,165.1392477999907,165.1392477999907,165.1392477999907,165.1392477999907,165.1392477999907,165.1392477999907,165.1392477999907,165.5056829000241,165.5056829000241,165.5056829000241,165.5056829000241,165.5056829000241,165.5056829000241,165.5056829000241,165.5056829000241,165.5056829000241,14,1,[0.23349199997028336],[0.36711240001022816],165.5056829000241,165.70568890002323,1000,165.70568890002323,1000,1000,1000,1000,0,num_3,0.4339419000316411,,24,11,2026-03-04_16h08.40.224,2026A_exp2,2022.2.4,59.81623257761143,
1,0,3.7,0.0,1,0,43,43,74,,,,,166.15616220002994,166.80698930000653,166.80698930000653,167.30794339999557,315,45,167.30794339999557,167.30794339999557,167.30794339999557,167.30794339999557,167.30794339999557,167.30794339999557,167.30794339999557,167.30794339999557,167.30794339999557,167.6743986000074,167.6743986000074,167.6743986000074,167.6743986000074,167.6743986000074,167.6743986000074,167.6743986000074,167.6743986000074,167.6743986000074,3,1,[0.001211599970702082],[0.33398350002244115],167.6743986000074,167.87458770000376,0.0,167.87458770000376,0,0.0,0,1,1000,num_1,1.8579154000035487,,24,11,2026-03-04_16h08.40.224,2026A_exp2,2022.2.4,59.81623257761143,
1,0,0.0,0.0,0,0,44,44,2,,,,,169.75976760004414,170.41055130003951,170.41055130003951,170.8949098000303,315,315,170.8949098000303,170.8949098000303,170.8949098000303,170.8949098000303,170.8949098000303,170.8949098000303,170.8949098000303,170.8949098000303,170.8949098000303,171.26136569998926,171.26136569998926,171.26136569998926,171.26136569998926,171.26136569998926,171.26136569998926,171.26136569998926,171.26136569998926,171.26136569998926,0,1,[0.0012862999574281275],[0.36700510000810027],171.26136569998926,171.4616071000346,0.0,171.4616071000346,1,0.0,0,0,1000,num_4,1.3106365000130609,,24,11,2026-03-04_16h08.40.224,2026A_exp2,2022.2.4,59.81623257761143,
1000,1,0.0,0.0,0,0,45,45,75,,,,,172.79618890001439,173.4467849000357,173.4467849000357,173.94783540000208,45,45,173.94783540000208,173.94783540000208,173.94783540000208,173.94783540000208,173.94783540000208,173.94783540000208,173.94783540000208,173.94783540000208,173.94783540000208,174.31430309999269,174.31430309999269,174.31430309999269,174.31430309999269,174.31430309999269,174.31430309999269,174.31430309999269,174.31430309999269,174.31430309999269,0,1,[0.0012058999855071306],[0.3674887999659404],174.31430309999269,174.51684330002172,1000,174.51684330002172,1000,1000,1000,1000,0,num_3,1.4783155000186525,,24,11,2026-03-04_16h08.40.224,2026A_exp2,2022.2.4,59.81623257761143,
1000,1,4.9,0.0,1,0,46,46,72,,,,,176.0161487000296,176.66667310002958,176.66667310002958,177.16795289999573,45,315,177.16795289999573,177.16795289999573,177.16795289999573,177.16795289999573,177.16795289999573,177.16795289999573,177.16795289999573,177.16795289999573,177.16795289999573,177.53431220003404,177.53431220003404,177.53431220003404,177.53431220003404,177.53431220003404,177.53431220003404,177.53431220003404,177.53431220003404,177.53431220003404,0,1,[0.0012363999849185348],[0.36712080001598224],177.53431220003404,177.73661880003056,1000,177.73661880003056,1000,1000,1000,1000,0,num_3,0.7714833000209183,,24,11,2026-03-04_16h08.40.224,2026A_exp2,2022.2.4,59.81623257761143,
1000,1,6.1,4.9,1,0,47,47,16,,,,,178.53524440003093,179.18593590002274,179.18593590002274,179.68704839999555,315,45,179.68704839999555,179.68704839999555,179.68704839999555,179.68704839999555,179.68704839999555,179.68704839999555,179.68704839999555,179.68704839999555,179.68704839999555,180.05320590001065,180.05320590001065,180.05320590001065,180.05320590001065,180.05320590001065,180.05320590001065,180.05320590001065,180.05320590001065,180.05320590001065,3,4,"[0.0012398000108078122, 0.2838684000307694, 0.33376080001471564, 0.3667989000095986]","[0.267248300020583, 0.3170498000108637, 0.35034310002811253, 0.3668018000316806]",180.05320590001065,180.2537169000134,1000,180.2537169000134,1000,1000,1000,1000,0,num_3,1.5342357999761589,,24,11,2026-03-04_16h08.40.224,2026A_exp2,2022.2.4,59.81623257761143,
1000,1,0.0,4.9,1,0,48,48,27,,,,,181.80514609999955,182.45585840003332,182.45585840003332,182.95705940003973,45,45,182.95705940003973,182.95705940003973,182.95705940003973,182.95705940003973,182.95705940003973,182.95705940003973,182.95705940003973,182.95705940003973,182.95705940003973,183.32337960001314,183.32337960001314,183.32337960001314,183.32337960001314,183.32337960001314,183.32337960001314,183.32337960001314,183.32337960001314,183.32337960001314,0,1,[0.0013093000161461532],[0.36686479998752475],183.32337960001314,183.5256754999864,1000,183.5256754999864,1000,1000,1000,1000,0,num_3,0.917723200051114,,24,11,2026-03-04_16h08.40.224,2026A_exp2,2022.2.4,59.81623257761143,
1000,1,0.0,0.0,0,0,49,49,69,,,,,184.47445199999493,185.12522310001077,185.12522310001077,185.6263692000066,45,45,185.6263692000066,185.6263692000066,185.6263692000066,185.6263692000066,185.6263692000066,185.6263692000066,185.6263692000066,185.6263692000066,185.6263692000066,185.99280750000617,185.99280750000617,185.99280750000617,185.99280750000617,185.99280750000617,185.99280750000617,185.99280750000617,185.99280750000617,185.99280750000617,0,1,[0.0012073999969288707],[0.36711039999499917],185.99280750000617,186.19318130001193,1000,186.19318130001193,1000,1000,1000,1000,1,num_2,0.6356777000473812,,24,11,2026-03-04_16h08.40.224,2026A_exp2,2022.2.4,59.81623257761143,
1,0,0.0,0.0,1,0,50,50,41,,,,,186.86045350000495,187.49423670000397,187.49423670000397,187.99532139999792,45,315,187.99532139999792,187.99532139999792,187.99532139999792,187.99532139999792,187.99532139999792,187.99532139999792,187.99532139999792,187.99532139999792,187.99532139999792,188.36186970002018,188.36186970002018,188.36186970002018,188.36186970002018,188.36186970002018,188.36186970002018,188.36186970002018,188.36186970002018,188.36186970002018,0,1,[0.0012868000194430351],[0.3670634999871254],188.36186970002018,188.56225870002527,0.0,188.56225870002527,1,0.0,0,0,1000,num_4,1.6899900999851525,,24,11,2026-03-04_16h08.40.224,2026A_exp2,2022.2.4,59.81623257761143,
0,0,0.0,0.0,1,0,51,51,8,,,,,190.28024370002095,190.93107719998807,190.93107719998807,191.41544650000287,315,45,191.41544650000287,191.41544650000287,191.41544650000287,191.41544650000287,191.41544650000287,191.41544650000287,191.41544650000287,191.41544650000287,191.41544650000287,191.78171609999845,191.78171609999845,191.78171609999845,191.78171609999845,191.78171609999845,191.78171609999845,191.78171609999845,191.78171609999845,191.78171609999845,0,1,[0.0012636000174097717],[0.3665669999900274],191.78171609999845,191.98215320002055,0.0,191.98215320002055,1,0.0,0,0,1000,num_4,1.5651988000026904,,24,11,2026-03-04_16h08.40.224,2026A_exp2,2022.2.4,59.81623257761143,
1,0,0.0,0.0,0,0,52,52,64,,,,,193.5669700000435,194.21774910000386,194.21774910000386,194.70211539999582,45,45,194.70211539999582,194.70211539999582,194.70211539999582,194.70211539999582,194.70211539999582,194.70211539999582,194.70211539999582,194.70211539999582,194.70211539999582,195.0685467000003,195.0685467000003,195.0685467000003,195.0685467000003,195.0685467000003,195.0685467000003,195.0685467000003,195.0685467000003,195.0685467000003,0,1,[0.0007025999948382378],[0.36900629999581724],195.0685467000003,195.270805200038,0.0,195.270805200038,1,0.0,0,0,1000,num_4,1.0449365000240505,,24,11,2026-03-04_16h08.40.224,2026A_exp2,2022.2.4,59.81623257761143,
1,0,0.0,3.7,1,0,53,53,57,,,,,196.33623549999902,196.98715560004348,196.98715560004348,197.4882815000019,45,45,197.4882815000019,197.4882815000019,197.4882815000019,197.4882815000019,197.4882815000019,197.4882815000019,197.4882815000019,197.4882815000019,197.4882815000019,197.83824110002024,197.83824110002024,197.83824110002024,197.83824110002024,197.83824110002024,197.83824110002024,197.83824110002024,197.83824110002024,197.83824110002024,0,1,[0.0013139999937266111],[0.35069480002857745],197.83824110002024,198.03819660004228,3.7,198.03819660004228,1,3.7,1,1,1000,num_4,0.6062412000028417,,24,11,2026-03-04_16h08.40.224,2026A_exp2,2022.2.4,59.81623257761143,
1,0,6.1,3.7,0,0,54,54,26,,,,,198.67191860004095,199.33278900000732,199.33278900000732,199.81291869998677,45,45,199.81291869998677,199.81291869998677,199.81291869998677,199.81291869998677,199.81291869998677,199.81291869998677,199.81291869998677,199.81291869998677,199.81291869998677,200.17358890001196,200.17358890001196,200.17358890001196,200.17358890001196,200.17358890001196,200.17358890001196,200.17358890001196,200.17358890001196,200.17358890001196,0,1,[0.0025507999816909432],[0.36570590001065284],200.17358890001196,200.38137509999797,6.1,200.38137509999797,1,6.1,1,1,1000,num_4,0.6142736000474542,,24,11,2026-03-04_16h08.40.224,2026A_exp2,2022.2.4,59.81623257761143,
1,0,0.0,0.0,1,0,55,55,43,,,,,201.02430230000755,201.67517290002434,201.67517290002434,202.15956649999134,315,315,202.15956649999134,202.15956649999134,202.15956649999134,202.15956649999134,202.15956649999134,202.15956649999134,202.15956649999134,202.15956649999134,202.15956649999134,202.52594710001722,202.52594710001722,202.52594710001722,202.52594710001722,202.52594710001722,202.52594710001722,202.52594710001722,202.52594710001722,202.52594710001722,0,1,[0.0012956999707967043],[0.36712559999432415],202.52594710001722,202.726158400008,0.0,202.726158400008,1,0.0,0,0,1000,num_4,0.7816605999832973,,24,11,2026-03-04_16h08.40.224,2026A_exp2,2022.2.4,59.81623257761143,
0,0,0.0,6.1,1,0,56,56,76,,,,,203.52721870003734,204.1775794000132,204.1775794000132,204.6619970999891,45,45,204.6619970999891,204.6619970999891,204.6619970999891,204.6619970999891,204.6619970999891,204.6619970999891,204.6619970999891,204.6619970999891,204.6619970999891,205.028457300039,205.028457300039,205.028457300039,205.028457300039,205.028457300039,205.028457300039,205.028457300039,205.028457300039,205.028457300039,0,1,[0.001242399972397834],[0.36687939998228103],205.028457300039,205.22859940002672,0.0,205.22859940002672,0,0.0,0,1,1000,num_1,0.8873475999571383,,24,11,2026-03-04_16h08.40.224,2026A_exp2,2022.2.4,59.81623257761143,
1000,1,4.9,3.7,1,0,57,57,32,,,,,206.14607930002967,206.79696810001042,206.79696810001042,207.2812508000061,45,315,207.2812508000061,207.2812508000061,207.2812508000061,207.2812508000061,207.2812508000061,207.2812508000061,207.2812508000061,207.2812508000061,207.2812508000061,207.6478250999935,207.6478250999935,207.6478250999935,207.6478250999935,207.6478250999935,207.6478250999935,207.6478250999935,207.6478250999935,207.6478250999935,0,1,[0.0012190000270493329],[0.3670107999932952],207.6478250999935,207.8497042999952,1000,207.8497042999952,1000,1000,1000,1000,0,num_3,1.0101200999924913,,24,11,2026-03-04_16h08.40.224,2026A_exp2,2022.2.4,59.81623257761143,
0,0,3.7,0.0,1,0,58,58,83,,,,,208.88230600004317,209.5263721999945,209.5263721999945,210.01746310002636,45,315,210.01746310002636,210.01746310002636,210.01746310002636,210.01746310002636,210.01746310002636,210.01746310002636,210.01746310002636,210.01746310002636,210.01746310002636,210.38390680000884,210.38390680000884,210.38390680000884,210.38390680000884,210.38390680000884,210.38390680000884,210.38390680000884,210.38390680000884,210.38390680000884,0,1,[0.0014556999667547643],[0.366493699955754],210.38390680000884,210.58406050002668,3.7,210.58406050002668,1,3.7,1,1,1000,num_4,0.8921913000522181,,24,11,2026-03-04_16h08.40.224,2026A_exp2,2022.2.4,59.81623257761143,
1000,1,0.0,0.0,1,0,59,59,7,,,,,211.50149860000238,212.15235170000233,212.15235170000233,212.63670910004294,45,315,212.63670910004294,212.63670910004294,212.63670910004294,212.63670910004294,212.63670910004294,212.63670910004294,212.63670910004294,212.63670910004294,212.63670910004294,213.00315010000486,213.00315010000486,213.00315010000486,213.00315010000486,213.00315010000486,213.00315010000486,213.00315010000486,213.00315010000486,213.00315010000486,0,1,[0.0012506000348366797],[0.3670912000234239],213.00315010000486,213.20494610001333,1000,213.20494610001333,1000,1000,1000,1000,1,num_2,1.190950799966231,,24,11,2026-03-04_16h08.40.224,2026A_exp2,2022.2.4,59.81623257761143,
1,0,0.0,6.1,0,0,60,60,5,,,,,214.42107909999322,215.07173200004036,215.07173200004036,215.57299449999118,45,45,215.57299449999118,215.57299449999118,215.57299449999118,215.57299449999118,215.57299449999118,215.57299449999118,215.57299449999118,215.57299449999118,215.57299449999118,215.93939060001867,215.93939060001867,215.93939060001867,215.93939060001867,215.93939060001867,215.93939060001867,215.93939060001867,215.93939060001867,215.93939060001867,0,1,[0.0012328000157140195],[0.3672451000311412],215.93939060001867,216.1395371000399,0.0,216.1395371000399,0,0.0,0,1,1000,num_1,1.263730000006035,,24,11,2026-03-04_16h08.40.224,2026A_exp2,2022.2.4,59.81623257761143,
1,0,0.0,4.9,0,0,61,61,71,,,,,217.42422069999157,218.07888270000694,218.07888270000694,218.58425850002095,45,315,218.58425850002095,218.58425850002095,218.58425850002095,218.58425850002095,218.58425850002095,218.58425850002095,218.58425850002095,218.58425850002095,218.58425850002095,218.92572780000046,218.92572780000046,218.92572780000046,218.92572780000046,218.92572780000046,218.92572780000046,218.92572780000046,218.92572780000046,218.92572780000046,0,1,[0.0031716999947093427],[0.348818400001619],218.92572780000046,219.12583640002413,0.0,219.12583640002413,1,0.0,0,0,1000,num_4,1.237897899991367,,24,11,2026-03-04_16h08.40.224,2026A_exp2,2022.2.4,59.81623257761143,
1000,1,0.0,0.0,1,0,62,62,29,,,,,220.3937728999881,221.05299789999845,221.05299789999845,221.54530440003145,45,315,221.54530440003145,221.54530440003145,221.54530440003145,221.54530440003145,221.54530440003145,221.54530440003145,221.54530440003145,221.54530440003145,221.54530440003145,221.89547940000193,221.89547940000193,221.89547940000193,221.89547940000193,221.89547940000193,221.89547940000193,221.89547940000193,221.89547940000193,221.89547940000193,0,1,[0.0007304000318981707],[0.3516167000052519],221.89547940000193,222.12619830004405,1000,222.12619830004405,1000,1000,1000,1000,0,num_3,1.0368318000109866,,24,11,2026-03-04_16h08.40.224,2026A_exp2,2022.2.4,59.81623257761143,
1000,1,4.9,3.7,1,0,63,63,67,,,,,223.17991850001272,223.830576700042,223.830576700042,224.33172409998951,45,45,224.33172409998951,224.33172409998951,224.33172409998951,224.33172409998951,224.33172409998951,224.33172409998951,224.33172409998951,224.33172409998951,224.33172409998951,224.69817749998765,224.69817749998765,224.69817749998765,224.69817749998765,224.69817749998765,224.69817749998765,224.69817749998765,224.69817749998765,224.69817749998765,0,1,[0.0012490000226534903],[0.3673899000277743],224.69817749998765,224.90053340001032,1000,224.90053340001032,1000,1000,1000,1000,1,num_2,0.9995959000079893,,24,11,2026-03-04_16h08.40.224,2026A_exp2,2022.2.4,59.81623257761143,
1,0,0.0,4.9,0,0,64,64,85,,,,,225.91794050001772,226.5748908999958,226.5748908999958,227.06768040003954,315,45,227.06768040003954,227.06768040003954,227.06768040003954,227.06768040003954,227.06768040003954,227.06768040003954,227.06768040003954,227.06768040003954,227.06768040003954,227.43422060000012,227.43422060000012,227.43422060000012,227.43422060000012,227.43422060000012,227.43422060000012,227.43422060000012,227.43422060000012,227.43422060000012,0,1,[0.0016134000034071505],[0.366704199986998],227.43422060000012,227.63439920003293,0.0,227.63439920003293,1,0.0,0,0,1000,num_4,0.8728527000057511,,24,11,2026-03-04_16h08.40.224,2026A_exp2,2022.2.4,59.81623257761143,
0,0,0.0,4.9,1,0,65,65,56,,,,,228.53518619999522,229.18600799998967,229.18600799998967,229.67038530000718,45,315,229.67038530000718,229.67038530000718,229.67038530000718,229.67038530000718,229.67038530000718,229.67038530000718,229.67038530000718,229.67038530000718,229.67038530000718,230.03676200000336,230.03676200000336,230.03676200000336,230.03676200000336,230.03676200000336,230.03676200000336,230.03676200000336,230.03676200000336,230.03676200000336,0,1,[0.001242399972397834],[0.3671288999612443],230.03676200000336,230.23698570003035,0.0,230.23698570003035,0,0.0,0,1,1000,num_1,1.6221817000187002,,24,11,2026-03-04_16h08.40.224,2026A_exp2,2022.2.4,59.81623257761143,
1,0,0.0,0.0,0,0,66,66,9,,,,,231.88852540001972,232.53374610003084,232.53374610003084,233.02901090000523,45,315,233.02901090000523,233.02901090000523,233.02901090000523,233.02901090000523,233.02901090000523,233.02901090000523,233.02901090000523,233.02901090000523,233.02901090000523,233.3904286000179,233.3904286000179,233.3904286000179,233.3904286000179,233.3904286000179,233.3904286000179,233.3904286000179,233.3904286000179,233.3904286000179,0,1,[0.0029316999716684222],[0.36493029998382553],233.3904286000179,233.59027390001575,0.0,233.59027390001575,1,0.0,0,0,1000,num_4,1.8767852999735624,,24,11,2026-03-04_16h08.40.224,2026A_exp2,2022.2.4,59.81623257761143,
1,0,4.9,4.9,1,0,67,67,89,,,,,235.4921580000082,236.14291340002092,236.14291340002092,236.62737930001458,315,45,236.62737930001458,236.62737930001458,236.62737930001458,236.62737930001458,236.62737930001458,236.62737930001458,236.62737930001458,236.62737930001458,236.62737930001458,236.99381940002786,236.99381940002786,236.99381940002786,236.99381940002786,236.99381940002786,236.99381940002786,236.99381940002786,236.99381940002786,236.99381940002786,2,2,"[0.0012559000169858336, 0.2351388000533916]","[0.20395280001685023, 0.36856660002376884]",236.99381940002786,237.1940075000166,4.9,237.1940075000166,1,4.9,1,1,1000,num_4,0.7138211000128649,,24,11,2026-03-04_16h08.40.224,2026A_exp2,2022.2.4,59.81623257761143,
1000,1,0.0,4.9,0,0,68,68,77,,,,,237.9277887000353,238.58414719998837,238.58414719998837,239.063135400007,45,315,239.063135400007,239.063135400007,239.063135400007,239.063135400007,239.063135400007,239.063135400007,239.063135400007,239.063135400007,239.063135400007,239.44604559999425,239.44604559999425,239.44604559999425,239.44604559999425,239.44604559999425,239.44604559999425,239.44604559999425,239.44604559999425,239.44604559999425,0,1,[0.0012310000020079315],[0.38387930003227666],239.44604559999425,239.6488260999904,1000,239.6488260999904,1000,1000,1000,1000,1,num_2,1.9955497000482865,,24,11,2026-03-04_16h08.40.224,2026A_exp2,2022.2.4,59.81623257761143,
1000,1,6.1,3.7,0,0,69,69,87,,,,,241.66503149998607,242.3240061000106,242.3240061000106,242.82871060003527,45,315,242.82871060003527,242.82871060003527,242.82871060003527,242.82871060003527,242.82871060003527,242.82871060003527,242.82871060003527,242.82871060003527,242.82871060003527,243.18326060002437,243.18326060002437,243.18326060002437,243.18326060002437,243.18326060002437,243.18326060002437,243.18326060002437,243.18326060002437,243.18326060002437,0,1,[0.004123999970033765],[0.3644346999935806],243.18326060002437,243.3852964999969,1000,243.3852964999969,1000,1000,1000,1000,0,num_3,1.3543498000362888,,24,11,2026-03-04_16h08.40.224,2026A_exp2,2022.2.4,59.81623257761143,
1000,1,4.9,0.0,0,0,70,70,22,,,,,244.768115999992,245.4223636999959,245.4223636999959,245.92854759999318,315,45,245.92854759999318,245.92854759999318,245.92854759999318,245.92854759999318,245.92854759999318,245.92854759999318,245.92854759999318,245.92854759999318,245.92854759999318,246.28646090003895,246.28646090003895,246.28646090003895,246.28646090003895,246.28646090003895,246.28646090003895,246.28646090003895,246.28646090003895,246.28646090003895,0,1,[0.0032290000235661864],[0.36575499997707084],246.28646090003895,246.50936840003124,1000,246.50936840003124,1000,1000,1000,1000,0,num_3,0.44586050003999844,,24,11,2026-03-04_16h08.40.224,2026A_exp2,2022.2.4,59.81623257761143,
1,0,0.0,0.0,1,0,71,71,37,,,,,246.97041090001585,247.6210107000079,247.6210107000079,248.12209570000414,45,315,248.12209570000414,248.12209570000414,248.12209570000414,248.12209570000414,248.12209570000414,248.12209570000414,248.12209570000414,248.12209570000414,248.12209570000414,248.4885811000131,248.4885811000131,248.4885811000131,248.4885811000131,248.4885811000131,248.4885811000131,248.4885811000131,248.4885811000131,248.4885811000131,0,1,[0.0012014000094495714],[0.3671843000338413],248.4885811000131,248.68886950000888,0.0,248.68886950000888,1,0.0,0,0,1000,num_4,0.81036609999137,,24,11,2026-03-04_16h08.40.224,2026A_exp2,2022.2.4,59.81623257761143,
1000,1,0.0,4.9,1,0,72,72,51,,,,,249.52290410001297,250.17361669999082,250.17361669999082,250.65790849999757,45,315,250.65790849999757,250.65790849999757,250.65790849999757,250.65790849999757,250.65790849999757,250.65790849999757,250.65790849999757,250.65790849999757,250.65790849999757,251.02453520003473,251.02453520003473,251.02453520003473,251.02453520003473,251.02453520003473,251.02453520003473,251.02453520003473,251.02453520003473,251.02453520003473,0,1,[0.0012309000012464821],[0.3671354999532923],251.02453520003473,251.22477480000816,1000,251.22477480000816,1000,1000,1000,1000,1,num_2,0.7944611000129953,,24,11,2026-03-04_16h08.40.224,2026A_exp2,2022.2.4,59.81623257761143,
1000,1,6.1,0.0,0,0,73,73,33,,,,,252.0419508999912,252.69284919998609,252.69284919998609,253.19395980000263,45,45,253.19395980000263,253.19395980000263,253.19395980000263,253.19395980000263,253.19395980000263,253.19395980000263,253.19395980000263,253.19395980000263,253.19395980000263,253.54378360003466,253.54378360003466,253.54378360003466,253.54378360003466,253.54378360003466,253.54378360003466,253.54378360003466,253.54378360003466,253.54378360003466,0,1,[0.001228200038895011],[0.3504879000247456],253.54378360003466,253.74612379999598,1000,253.74612379999598,1000,1000,1000,1000,0,num_3,0.633606499992311,,24,11,2026-03-04_16h08.40.224,2026A_exp2,2022.2.4,59.81623257761143,
1,0,4.9,0.0,1,0,74,74,84,,,,,254.41118310001912,255.07163920003222,255.07163920003222,255.56809539999813,315,315,255.56809539999813,255.56809539999813,255.56809539999813,255.56809539999813,255.56809539999813,255.56809539999813,255.56809539999813,255.56809539999813,255.56809539999813,255.91260989999864,255.91260989999864,255.91260989999864,255.91260989999864,255.91260989999864,255.91260989999864,255.91260989999864,255.91260989999864,255.91260989999864,11,5,"[0.022487099980935454, 0.13357049995101988, 0.18194159999256954, 0.2656465999898501, 0.29910199996083975]","[0.10028469999087974, 0.15022519999183714, 0.2151704999851063, 0.2823939999798313, 0.33257979998597875]",255.91260989999864,256.1128619000083,0.0,256.1128619000083,1,0.0,0,0,1000,num_4,0.7947432000073604,,24,11,2026-03-04_16h08.40.224,2026A_exp2,2022.2.4,59.81623257761143,
1000,1,0.0,0.0,0,0,75,75,61,,,,,256.9302200000384,257.5644053000142,257.5644053000142,258.06515290000243,45,45,258.06515290000243,258.06515290000243,258.06515290000243,258.06515290000243,258.06515290000243,258.06515290000243,258.06515290000243,258.06515290000243,258.06515290000243,258.4319084000308,258.4319084000308,258.4319084000308,258.4319084000308,258.4319084000308,258.4319084000308,258.4319084000308,258.4319084000308,258.4319084000308,0,1,[0.0007191000040620565],[0.36795350001193583],258.4319084000308,258.63431210001,1000,258.63431210001,1000,1000,1000,1000,0,num_3,1.0329607999883592,,24,11,2026-03-04_16h08.40.224,2026A_exp2,2022.2.4,59.81623257761143,
1000,1,3.7,6.1,0,0,76,76,28,,,,,259.6830564000411,260.3337414000416,260.3337414000416,260.8350165000302,45,45,260.8350165000302,260.8350165000302,260.8350165000302,260.8350165000302,260.8350165000302,260.8350165000302,260.8350165000302,260.8350165000302,260.8350165000302,261.1847451000358,261.1847451000358,261.1847451000358,261.1847451000358,261.1847451000358,261.1847451000358,261.1847451000358,261.1847451000358,261.1847451000358,14,1,[0.0007450999692082405],[0.1351145000080578],261.1847451000358,261.3977676000213,1000,261.3977676000213,1000,1000,1000,1000,0,num_3,0.5986358000081964,,24,11,2026-03-04_16h08.40.224,2026A_exp2,2022.2.4,59.81623257761143,
1,0,4.9,0.0,1,0,77,77,6,,,,,262.01867790002143,262.66943690000335,262.66943690000335,263.1704636000213,45,45,263.1704636000213,263.1704636000213,263.1704636000213,263.1704636000213,263.1704636000213,263.1704636000213,263.1704636000213,263.1704636000213,263.1704636000213,263.5370488000335,263.5370488000335,263.5370488000335,263.5370488000335,263.5370488000335,263.5370488000335,263.5370488000335,263.5370488000335,263.5370488000335,0,1,[0.0017378000193275511],[0.3673331000027247],263.5370488000335,263.7370593000087,0.0,263.7370593000087,0,0.0,0,1,1000,num_1,1.003101299982518,,24,11,2026-03-04_16h08.40.224,2026A_exp2,2022.2.4,59.81623257761143,
1,0,0.0,3.7,0,0,78,78,12,,,,,264.771409100038,265.41647970001213,265.41647970001213,265.9066232999903,315,45,265.9066232999903,265.9066232999903,265.9066232999903,265.9066232999903,265.9066232999903,265.9066232999903,265.9066232999903,265.9066232999903,265.9066232999903,266.273189700034,266.273189700034,266.273189700034,266.273189700034,266.273189700034,266.273189700034,266.273189700034,266.273189700034,266.273189700034,0,1,[0.0009138000314123929],[0.3684075000346638],266.273189700034,266.47732950001955,0.0,266.47732950001955,1,0.0,0,0,1000,num_4,1.0220376000506803,,24,11,2026-03-04_16h08.40.224,2026A_exp2,2022.2.4,59.81623257761143,
1000,1,4.9,4.9,0,0,79,79,31,,,,,267.52438720001373,268.1748954000068,268.1748954000068,268.67609940003604,315,45,268.67609940003604,268.67609940003604,268.67609940003604,268.67609940003604,268.67609940003604,268.67609940003604,268.67609940003604,268.67609940003604,268.67609940003604,269.04243880003924,269.04243880003924,269.04243880003924,269.04243880003924,269.04243880003924,269.04243880003924,269.04243880003924,269.04243880003924,269.04243880003924,0,1,[0.0012585999793373048],[0.36721950001083314],269.04243880003924,269.24469359999057,1000,269.24469359999057,1000,1000,1000,1000,0,num_3,0.75099189998582,,24,11,2026-03-04_16h08.40.224,2026A_exp2,2022.2.4,59.81623257761143,
1,0,4.9,0.0,1,0,80,80,82,,,,,270.02689320000354,270.6773089999915,270.6773089999915,271.1788843999966,315,45,271.1788843999966,271.1788843999966,271.1788843999966,271.1788843999966,271.1788843999966,271.1788843999966,271.1788843999966,271.1788843999966,271.1788843999966,271.54493289999664,271.54493289999664,271.54493289999664,271.54493289999664,271.54493289999664,271.54493289999664,271.54493289999664,271.54493289999664,271.54493289999664,6,5,"[0.001227299973834306, 0.03349189995788038, 0.23356319998856634, 0.2836788999848068, 0.3504057999816723]","[0.017350399983115494, 0.2002871999866329, 0.2669194999616593, 0.3170284999650903, 0.3671394999837503]",271.54493289999664,271.745163900021,0.0,271.745163900021,1,0.0,0,0,1000,num_4,1.0751850999658927,,24,11,2026-03-04_16h08.40.224,2026A_exp2,2022.2.4,59.81623257761143,
1,0,0.0,0.0,1,0,81,81,70,,,,,272.84613090002676,273.4969902000157,273.4969902000157,273.98128780000843,315,315,273.98128780000843,273.98128780000843,273.98128780000843,273.98128780000843,273.98128780000843,273.98128780000843,273.98128780000843,273.98128780000843,273.98128780000843,274.34770790004404,274.34770790004404,274.34770790004404,274.34770790004404,274.34770790004404,274.34770790004404,274.34770790004404,274.34770790004404,274.34770790004404,8,4,"[0.0011910999892279506, 0.16688169998815283, 0.25037219998193905, 0.367169399978593]","[0.1502988999709487, 0.21703429997432977, 0.2837763999705203, 0.36717369995312765]",274.34770790004404,274.5480308000115,0.0,274.5480308000115,0,0.0,0,1,1000,num_1,0.759836399985943,,24,11,2026-03-04_16h08.40.224,2026A_exp2,2022.2.4,59.81623257761143,
1000,1,0.0,0.0,1,0,82,82,23,,,,,275.3319307999918,275.96606300002895,275.96606300002895,276.467240100028,315,45,276.467240100028,276.467240100028,276.467240100028,276.467240100028,276.467240100028,276.467240100028,276.467240100028,276.467240100028,276.467240100028,276.8335873000324,276.8335873000324,276.8335873000324,276.8335873000324,276.8335873000324,276.8335873000324,276.8335873000324,276.8335873000324,276.8335873000324,2,3,"[0.0012098000152036548, 0.06695960002252832, 0.1503814000170678]","[0.05028419999871403, 0.13372180005535483, 0.3671669000177644]",276.8335873000324,277.0359756000107,1000,277.0359756000107,1000,1000,1000,1000,0,num_3,0.8152314000180922,,24,11,2026-03-04_16h08.40.224,2026A_exp2,2022.2.4,59.81623257761143,
0,0,0.0,4.9,0,0,83,83,54,,,,,277.86789779999526,278.5184828999918,278.5184828999918,279.0200407000375,45,315,279.0200407000375,279.0200407000375,279.0200407000375,279.0200407000375,279.0200407000375,279.0200407000375,279.0200407000375,279.0200407000375,279.0200407000375,279.38617660000455,279.38617660000455,279.38617660000455,279.38617660000455,279.38617660000455,279.38617660000455,279.38617660000455,279.38617660000455,279.38617660000455,0,1,[0.0019718999974429607],[0.36674639995908365],279.38617660000455,279.5862591000041,4.9,279.5862591000041,1,4.9,1,1,1000,num_4,0.7936721000005491,,24,11,2026-03-04_16h08.40.224,2026A_exp2,2022.2.4,59.81623257761143,
1,0,0.0,0.0,0,0,84,84,59,,,,,280.40370220004115,281.05454610002926,281.05454610002926,281.53878240002086,315,315,281.53878240002086,281.53878240002086,281.53878240002086,281.53878240002086,281.53878240002086,281.53878240002086,281.53878240002086,281.53878240002086,281.53878240002086,281.90533109998796,281.90533109998796,281.90533109998796,281.90533109998796,281.90533109998796,281.90533109998796,281.90533109998796,281.90533109998796,281.90533109998796,0,1,[0.0012552999542094767],[0.3670501000015065],281.90533109998796,282.10537030000705,0.0,282.10537030000705,1,0.0,0,0,1000,num_4,0.650277599983383,,24,11,2026-03-04_16h08.40.224,2026A_exp2,2022.2.4,59.81623257761143,
1,0,4.9,6.1,1,0,85,85,46,,,,,282.77271260001,283.42357010004343,283.42357010004343,283.9080543000018,45,315,283.9080543000018,283.9080543000018,283.9080543000018,283.9080543000018,283.9080543000018,283.9080543000018,283.9080543000018,283.9080543000018,283.9080543000018,284.2745073999977,284.2745073999977,284.2745073999977,284.2745073999977,284.2745073999977,284.2745073999977,284.2745073999977,284.2745073999977,284.2745073999977,23,0,,,284.2745073999977,284.47466440004064,6.1,284.47466440004064,1,6.1,1,1,1000,num_4,0.6812524000415578,,24,11,2026-03-04_16h08.40.224,2026A_exp2,2022.2.4,59.81623257761143,
1,0,6.1,0.0,0,0,86,86,50,,,,,285.17508620000444,285.8258848999976,285.8258848999976,286.3102599999984,45,45,286.3102599999984,286.3102599999984,286.3102599999984,286.3102599999984,286.3102599999984,286.3102599999984,286.3102599999984,286.3102599999984,286.3102599999984,286.67680850002216,286.67680850002216,286.67680850002216,286.67680850002216,286.67680850002216,286.67680850002216,286.67680850002216,286.67680850002216,286.67680850002216,23,0,,,286.67680850002216,286.8768929000362,6.1,286.8768929000362,1,6.1,1,1,1000,num_4,0.8235942000173964,,24,11,2026-03-04_16h08.40.224,2026A_exp2,2022.2.4,59.81623257761143,
1,0,0.0,4.9,0,0,87,87,17,,,,,287.72767570003634,288.37835270003416,288.37835270003416,288.862949100032,315,45,288.862949100032,288.862949100032,288.862949100032,288.862949100032,288.862949100032,288.862949100032,288.862949100032,288.862949100032,288.862949100032,289.2293394000153,289.2293394000153,289.2293394000153,289.2293394000153,289.2293394000153,289.2293394000153,289.2293394000153,289.2293394000153,289.2293394000153,19,2,"[0.2505871999892406, 0.28395690000616014]","[0.26710880000609905, 0.33385090000228956]",289.2293394000153,289.4295222000219,0.0,289.4295222000219,0,0.0,0,1,1000,num_1,1.566609499976039,,24,11,2026-03-04_16h08.40.224,2026A_exp2,2022.2.4,59.81623257761143,
1,0,0.0,0.0,1,0,88,88,73,,,,,291.01431110000703,291.664941199997,291.664941199997,292.1494111000211,315,315,292.1494111000211,292.1494111000211,292.1494111000211,292.1494111000211,292.1494111000211,292.1494111000211,292.1494111000211,292.1494111000211,292.1494111000211,292.5157976000337,292.5157976000337,292.5157976000337,292.5157976000337,292.5157976000337,292.5157976000337,292.5157976000337,292.5157976000337,292.5157976000337,0,1,[0.0010806000209413469],[0.36736740003107116],292.5157976000337,292.71618200000376,0.0,292.71618200000376,0,0.0,0,1,1000,num_1,0.8802326999721117,,24,11,2026-03-04_16h08.40.224,2026A_exp2,2022.2.4,59.81623257761143,
1,0,4.9,4.9,0,0,89,89,63,,,,,293.6168803999899,294.26772599999094,294.26772599999094,294.7521989000379,315,45,294.7521989000379,294.7521989000379,294.7521989000379,294.7521989000379,294.7521989000379,294.7521989000379,294.7521989000379,294.7521989000379,294.7521989000379,295.1186126000248,295.1186126000248,295.1186126000248,295.1186126000248,295.1186126000248,295.1186126000248,295.1186126000248,295.1186126000248,295.1186126000248,0,1,[0.001193300005979836],[0.3670657000038773],295.1186126000248,295.3186823000433,4.9,295.3186823000433,1,4.9,1,1,1000,num_4,0.5246561000240035,,24,11,2026-03-04_16h08.40.224,2026A_exp2,2022.2.4,59.81623257761143,
,,,,,,,,,,,,,,,,,,,,,,,,,,,,,,,,,,,,,,,,,,,,,,,,,,,,295.876936900022,,,,,,,
