validity,detectorcomp,contrastCW,contrastCCW,precueCWorCCW,block_80trials.thisRepN,block_80trials.thisTrialN,block_80trials.thisN,block_80trials.thisIndex,etRecord.started,etRecord.stopped,text.started,text.stopped,text_4.started,text_4.stopped,text_6.started,text_6.stopped,oriCW,oriCCW,roi_2.started,grating_UR.started,grating_UL.started,grating_LR.started,grating_LL.started,noise_UR.started,noise_UL.started,noise_LR.started,noise_LL.started,roi_2.stopped,grating_UR.stopped,grating_UL.stopped,grating_LR.stopped,grating_LL.stopped,noise_UR.stopped,noise_UL.stopped,noise_LR.stopped,noise_LL.stopped,outframe,roi_2.numLooks,roi_2.timesOn,roi_2.timesOff,text_2.started,text_2.stopped,probedcontrast,key_resp.started,respdetect,relevantContrast,correctDetect,TorFdetect,respCWorCCW,key_resp.keys,key_resp.rt,feedback_display_.started,participantNo,blockNo,date,expName,psychopyVersion,frameRate,
1000,1,3.7,0.0,1,0,0,0,38,8.399994112551212e-05,8.399994112551212e-05,47.25633480004035,49.25894820014946,49.25894820014946,49.89311229996383,49.89311229996383,50.413952300092205,315,315,50.413952300092205,50.413952300092205,50.413952300092205,50.413952300092205,50.413952300092205,50.413952300092205,50.413952300092205,50.413952300092205,50.413952300092205,50.76073980005458,50.76073980005458,50.76073980005458,50.76073980005458,50.76073980005458,50.76073980005458,50.76073980005458,50.76073980005458,50.76073980005458,0,1,[0.0009954001288861036],[0.3680243999697268],50.76073980005458,50.96559670008719,1000,50.96559670008719,1000,1000,1000,1000,1,num_2,0.7047360001597553,,34,15,2026-03-13_11h23.31.763,2026A_exp2,2022.2.4,59.941293454898926,
1000,1,0.0,4.9,0,0,1,1,23,,,,,51.69504240015522,52.3456959000323,52.3456959000323,52.84682149998844,45,315,52.84682149998844,52.84682149998844,52.84682149998844,52.84682149998844,52.84682149998844,52.84682149998844,52.84682149998844,52.84682149998844,52.84682149998844,53.21324250008911,53.21324250008911,53.21324250008911,53.21324250008911,53.21324250008911,53.21324250008911,53.21324250008911,53.21324250008911,53.21324250008911,0,1,[0.0012529999949038029],[0.3671057999599725],53.21324250008911,53.415004200069234,1000,53.415004200069234,1000,1000,1000,1000,1,num_2,0.6150100999511778,,34,15,2026-03-13_11h23.31.763,2026A_exp2,2022.2.4,59.941293454898926,
1,0,4.9,6.1,1,0,2,2,36,,,,,54.04718350013718,54.69799570017494,54.69799570017494,55.199127700179815,45,315,55.199127700179815,55.199127700179815,55.199127700179815,55.199127700179815,55.199127700179815,55.199127700179815,55.199127700179815,55.199127700179815,55.199127700179815,55.56541090016253,55.56541090016253,55.56541090016253,55.56541090016253,55.56541090016253,55.56541090016253,55.56541090016253,55.56541090016253,55.56541090016253,0,1,[0.001191799994558096],[0.36706790002062917],55.56541090016253,55.76552480016835,6.1,55.76552480016835,1,6.1,1,1,1000,num_4,1.0246725999750197,,34,15,2026-03-13_11h23.31.763,2026A_exp2,2022.2.4,59.941293454898926,
1,0,4.9,4.9,0,0,3,3,28,,,,,56.8168751001358,57.46741829998791,57.46741829998791,57.95191240007989,45,315,57.95191240007989,57.95191240007989,57.95191240007989,57.95191240007989,57.95191240007989,57.95191240007989,57.95191240007989,57.95191240007989,57.95191240007989,58.31829369999468,58.31829369999468,58.31829369999468,58.31829369999468,58.31829369999468,58.31829369999468,58.31829369999468,58.31829369999468,58.31829369999468,0,1,[0.0011974000371992588],[0.36717300000600517],58.31829369999468,58.5184873000253,4.9,58.5184873000253,1,4.9,1,1,1000,num_4,0.6151503000874072,,34,15,2026-03-13_11h23.31.763,2026A_exp2,2022.2.4,59.941293454898926,
1,0,4.9,0.0,0,0,4,4,47,,,,,59.152536400128156,59.786458200076595,59.786458200076595,60.287539300043136,45,315,60.287539300043136,60.287539300043136,60.287539300043136,60.287539300043136,60.287539300043136,60.287539300043136,60.287539300043136,60.287539300043136,60.287539300043136,60.654009900055826,60.654009900055826,60.654009900055826,60.654009900055826,60.654009900055826,60.654009900055826,60.654009900055826,60.654009900055826,60.654009900055826,0,1,[0.0012166001833975315],[0.3672718000598252],60.654009900055826,60.854212400037795,4.9,60.854212400037795,1,4.9,1,1,1000,num_4,0.6396914999932051,,34,15,2026-03-13_11h23.31.763,2026A_exp2,2022.2.4,59.941293454898926,
1,0,0.0,0.0,0,0,5,5,61,,,,,61.52152639999986,62.17221140000038,62.17221140000038,62.65651720017195,315,315,62.65651720017195,62.65651720017195,62.65651720017195,62.65651720017195,62.65651720017195,62.65651720017195,62.65651720017195,62.65651720017195,62.65651720017195,63.023043900029734,63.023043900029734,63.023043900029734,63.023043900029734,63.023043900029734,63.023043900029734,63.023043900029734,63.023043900029734,63.023043900029734,0,1,[0.0012380999978631735],[0.3673178998287767],63.023043900029734,63.22307369997725,0.0,63.22307369997725,0,0.0,0,1,1000,num_1,0.559257899876684,,34,15,2026-03-13_11h23.31.763,2026A_exp2,2022.2.4,59.941293454898926,
1000,1,0.0,0.0,0,0,6,6,79,,,,,63.80701690004207,64.4577503001783,64.4577503001783,64.94226830010302,45,315,64.94226830010302,64.94226830010302,64.94226830010302,64.94226830010302,64.94226830010302,64.94226830010302,64.94226830010302,64.94226830010302,64.94226830010302,65.30862600007094,65.30862600007094,65.30862600007094,65.30862600007094,65.30862600007094,65.30862600007094,65.30862600007094,65.30862600007094,65.30862600007094,0,1,[0.0012115000281482935],[0.3670122001785785],65.30862600007094,65.51012370013632,1000,65.51012370013632,1000,1000,1000,1000,1,num_2,0.4476147999521345,,34,15,2026-03-13_11h23.31.763,2026A_exp2,2022.2.4,59.941293454898926,
1000,1,0.0,4.9,1,0,7,7,72,,,,,65.97597640007734,66.62647110014223,66.62647110014223,67.11092100013047,45,315,67.11092100013047,67.11092100013047,67.11092100013047,67.11092100013047,67.11092100013047,67.11092100013047,67.11092100013047,67.11092100013047,67.11092100013047,67.47750150016509,67.47750150016509,67.47750150016509,67.47750150016509,67.47750150016509,67.47750150016509,67.47750150016509,67.47750150016509,67.47750150016509,0,1,[0.0007740000728517771],[0.3675615999381989],67.47750150016509,67.6797727001831,1000,67.6797727001831,1000,1000,1000,1000,1,num_2,0.5100748999975622,,34,15,2026-03-13_11h23.31.763,2026A_exp2,2022.2.4,59.941293454898926,
0,0,0.0,0.0,1,0,8,8,80,,,,,68.21134950011037,68.86227220017463,68.86227220017463,69.36325479997322,45,45,69.36325479997322,69.36325479997322,69.36325479997322,69.36325479997322,69.36325479997322,69.36325479997322,69.36325479997322,69.36325479997322,69.36325479997322,69.7130353001412,69.7130353001412,69.7130353001412,69.7130353001412,69.7130353001412,69.7130353001412,69.7130353001412,69.7130353001412,69.7130353001412,2,2,"[0.0012443999294191599, 0.31694469996728003]","[0.2834093999117613, 0.3501351000741124]",69.7130353001412,69.91319720004685,0.0,69.93000659998506,0,0.0,0,1,1000,num_1,0.4835683999117464,,34,15,2026-03-13_11h23.31.763,2026A_exp2,2022.2.4,59.941293454898926,
1,0,0.0,0.0,0,0,9,9,11,,,,,70.43027160014026,71.08113509998657,71.08113509998657,71.56545920018107,315,45,71.56545920018107,71.56545920018107,71.56545920018107,71.56545920018107,71.56545920018107,71.56545920018107,71.56545920018107,71.56545920018107,71.56545920018107,71.93184570013545,71.93184570013545,71.93184570013545,71.93184570013545,71.93184570013545,71.93184570013545,71.93184570013545,71.93184570013545,71.93184570013545,0,1,[0.001208100002259016],[0.3671661999542266],71.93184570013545,72.13214350002818,0.0,72.13214350002818,0,0.0,0,1,1000,num_1,0.6173374999780208,,34,15,2026-03-13_11h23.31.763,2026A_exp2,2022.2.4,59.941293454898926,
1000,1,0.0,0.0,1,0,10,10,88,,,,,72.76623110007495,73.41677630017512,73.41677630017512,73.90132550010458,45,315,73.90132550010458,73.90132550010458,73.90132550010458,73.90132550010458,73.90132550010458,73.90132550010458,73.90132550010458,73.90132550010458,73.90132550010458,74.26761130010709,74.26761130010709,74.26761130010709,74.26761130010709,74.26761130010709,74.26761130010709,74.26761130010709,74.26761130010709,74.26761130010709,15,2,"[0.0007150999736040831, 0.13367350003682077]","[0.10031659994274378, 0.16715730004943907]",74.26761130010709,74.46979000000283,1000,74.46979000000283,1000,1000,1000,1000,1,num_2,0.4483018999453634,,34,15,2026-03-13_11h23.31.763,2026A_exp2,2022.2.4,59.941293454898926,
1,0,0.0,0.0,0,0,11,11,85,,,,,74.93489659996703,75.5854607000947,75.5854607000947,76.08659840002656,45,45,76.08659840002656,76.08659840002656,76.08659840002656,76.08659840002656,76.08659840002656,76.08659840002656,76.08659840002656,76.08659840002656,76.08659840002656,76.45293500018306,76.45293500018306,76.45293500018306,76.45293500018306,76.45293500018306,76.45293500018306,76.45293500018306,76.45293500018306,76.45293500018306,0,1,[0.0007245999295264482],[0.36732540000230074],76.45293500018306,76.65335889998823,0.0,76.65335889998823,1,0.0,0,0,1000,num_4,0.5936141998972744,,34,15,2026-03-13_11h23.31.763,2026A_exp2,2022.2.4,59.941293454898926,
1000,1,0.0,0.0,1,0,12,12,44,,,,,77.27050440013409,77.92116999998689,77.92116999998689,78.41567630018108,315,45,78.41567630018108,78.41567630018108,78.41567630018108,78.41567630018108,78.41567630018108,78.41567630018108,78.41567630018108,78.41567630018108,78.41567630018108,78.77200200012885,78.77200200012885,78.77200200012885,78.77200200012885,78.77200200012885,78.77200200012885,78.77200200012885,78.77200200012885,78.77200200012885,0,1,[0.0037395998369902372],[0.36504649999551475],78.77200200012885,78.97458080016077,1000,78.97458080016077,1000,1000,1000,1000,1,num_2,0.43898099986836314,,34,15,2026-03-13_11h23.31.763,2026A_exp2,2022.2.4,59.941293454898926,
1,0,0.0,3.7,0,0,13,13,64,,,,,79.43938450003043,80.09014530014247,80.09014530014247,80.5912413999904,45,45,80.5912413999904,80.5912413999904,80.5912413999904,80.5912413999904,80.5912413999904,80.5912413999904,80.5912413999904,80.5912413999904,80.5912413999904,80.94083720003255,80.94083720003255,80.94083720003255,80.94083720003255,80.94083720003255,80.94083720003255,80.94083720003255,80.94083720003255,80.94083720003255,0,1,[0.0013511001598089933],[0.35045520006679],80.94083720003255,81.14087040000595,0.0,81.14087040000595,0,0.0,0,1,1000,num_1,0.4732814999297261,,34,15,2026-03-13_11h23.31.763,2026A_exp2,2022.2.4,59.941293454898926,
1000,1,6.1,4.9,1,0,14,14,15,,,,,81.6415840999689,82.29236940015107,82.29236940015107,82.77675090008415,315,45,82.77675090008415,82.77675090008415,82.77675090008415,82.77675090008415,82.77675090008415,82.77675090008415,82.77675090008415,82.77675090008415,82.77675090008415,83.14299240009859,83.14299240009859,83.14299240009859,83.14299240009859,83.14299240009859,83.14299240009859,83.14299240009859,83.14299240009859,83.14299240009859,16,3,"[0.0012341998517513275, 0.30052549997344613, 0.33387780003249645]","[0.08352730004116893, 0.31727919983677566, 0.3671734998933971]",83.14299240009859,83.345150800189,1000,83.345150800189,1000,1000,1000,1000,1,num_2,0.517283400055021,,34,15,2026-03-13_11h23.31.763,2026A_exp2,2022.2.4,59.941293454898926,
1000,1,0.0,3.7,1,0,15,15,82,,,,,83.89392880001105,84.544495300157,84.544495300157,85.02886079996824,45,45,85.02886079996824,85.02886079996824,85.02886079996824,85.02886079996824,85.02886079996824,85.02886079996824,85.02886079996824,85.02886079996824,85.02886079996824,85.39543460006826,85.39543460006826,85.39543460006826,85.39543460006826,85.39543460006826,85.39543460006826,85.39543460006826,85.39543460006826,85.39543460006826,0,1,[0.0012501999735832214],[0.36711300001479685],85.39543460006826,85.59772279998288,1000,85.59772279998288,1000,1000,1000,1000,1,num_2,1.056996300118044,,34,15,2026-03-13_11h23.31.763,2026A_exp2,2022.2.4,59.941293454898926,
0,0,0.0,4.9,1,0,16,16,0,,,,,86.68000970012508,87.33066430012695,87.33066430012695,87.83183050015941,45,45,87.83183050015941,87.83183050015941,87.83183050015941,87.83183050015941,87.83183050015941,87.83183050015941,87.83183050015941,87.83183050015941,87.83183050015941,88.198099500034,88.198099500034,88.198099500034,88.198099500034,88.198099500034,88.198099500034,88.198099500034,88.198099500034,88.198099500034,4,2,"[0.0012424001470208168, 0.11709610000252724]","[0.050302900141105056, 0.36704830010421574]",88.198099500034,88.39835540018976,0.0,88.39835540018976,0,0.0,0,1,1000,num_1,0.5834334001410753,,34,15,2026-03-13_11h23.31.763,2026A_exp2,2022.2.4,59.941293454898926,
1,0,3.7,0.0,0,0,17,17,9,,,,,88.99887920008041,89.64972089999355,89.64972089999355,90.13394040009007,315,315,90.13394040009007,90.13394040009007,90.13394040009007,90.13394040009007,90.13394040009007,90.13394040009007,90.13394040009007,90.13394040009007,90.13394040009007,90.50012530013919,90.50012530013919,90.50012530013919,90.50012530013919,90.50012530013919,90.50012530013919,90.50012530013919,90.50012530013919,90.50012530013919,0,1,[0.001261899946257472],[0.36644500005058944],90.50012530013919,90.70039770007133,3.7,90.70039770007133,0,3.7,1,0,1000,num_1,0.5614720000885427,,34,15,2026-03-13_11h23.31.763,2026A_exp2,2022.2.4,59.941293454898926,
1,0,0.0,0.0,0,0,18,18,6,,,,,91.28450930002145,91.93526570009999,91.93526570009999,92.41980060003698,315,315,92.41980060003698,92.41980060003698,92.41980060003698,92.41980060003698,92.41980060003698,92.41980060003698,92.41980060003698,92.41980060003698,92.41980060003698,92.78612220007926,92.78612220007926,92.78612220007926,92.78612220007926,92.78612220007926,92.78612220007926,92.78612220007926,92.78612220007926,92.78612220007926,15,2,"[0.0007121998351067305, 0.334082999965176]","[0.11730639985762537, 0.3508167997933924]",92.78612220007926,92.98628040007316,0.0,92.98628040007316,0,0.0,0,1,1000,num_1,0.5478997998870909,,34,15,2026-03-13_11h23.31.763,2026A_exp2,2022.2.4,59.941293454898926,
1,0,0.0,3.7,1,0,19,19,30,,,,,93.55360750015825,94.20407910016365,94.20407910016365,94.68848620005883,315,45,94.68848620005883,94.68848620005883,94.68848620005883,94.68848620005883,94.68848620005883,94.68848620005883,94.68848620005883,94.68848620005883,94.68848620005883,95.05503479996696,95.05503479996696,95.05503479996696,95.05503479996696,95.05503479996696,95.05503479996696,95.05503479996696,95.05503479996696,95.05503479996696,0,1,[0.001238600118085742],[0.36719470005482435],95.05503479996696,95.25520130014047,3.7,95.25520130014047,0,3.7,1,0,1000,num_1,0.48701700009405613,,34,15,2026-03-13_11h23.31.763,2026A_exp2,2022.2.4,59.941293454898926,
1000,1,0.0,0.0,0,0,20,20,2,,,,,95.77235460001975,96.42294259998016,96.42294259998016,96.9077677000314,315,45,96.9077677000314,96.9077677000314,96.9077677000314,96.9077677000314,96.9077677000314,96.9077677000314,96.9077677000314,96.9077677000314,96.9077677000314,97.27377630001865,97.27377630001865,97.27377630001865,97.27377630001865,97.27377630001865,97.27377630001865,97.27377630001865,97.27377630001865,97.27377630001865,0,1,[0.0007565999403595924],[0.3674675999209285],97.27377630001865,97.47632610006258,1000,97.47632610006258,1000,1000,1000,1000,1,num_2,0.7700604000128806,,34,15,2026-03-13_11h23.31.763,2026A_exp2,2022.2.4,59.941293454898926,
1,0,0.0,0.0,0,0,21,21,39,,,,,98.27491160016507,98.93223630008288,98.93223630008288,99.42670870013535,45,315,99.42670870013535,99.42670870013535,99.42670870013535,99.42670870013535,99.42670870013535,99.42670870013535,99.42670870013535,99.42670870013535,99.42670870013535,99.77648830018006,99.77648830018006,99.77648830018006,99.77648830018006,99.77648830018006,99.77648830018006,99.77648830018006,99.77648830018006,99.77648830018006,22,0,,,99.77648830018006,99.97622950002551,0.0,99.99325709999539,0,0.0,0,1,1000,num_1,0.4289727001450956,,34,15,2026-03-13_11h23.31.763,2026A_exp2,2022.2.4,59.941293454898926,
1,0,0.0,0.0,1,0,22,22,66,,,,,100.44358230009675,101.09437209996395,101.09437209996395,101.5954556001816,315,315,101.5954556001816,101.5954556001816,101.5954556001816,101.5954556001816,101.5954556001816,101.5954556001816,101.5954556001816,101.5954556001816,101.5954556001816,101.9451356001664,101.9451356001664,101.9451356001664,101.9451356001664,101.9451356001664,101.9451356001664,101.9451356001664,101.9451356001664,101.9451356001664,0,1,[0.0012348999734967947],[0.3504408998414874],101.9451356001664,102.14548599999398,0.0,102.14548599999398,1,0.0,0,0,1000,num_4,0.7572141999844462,,34,15,2026-03-13_11h23.31.763,2026A_exp2,2022.2.4,59.941293454898926,
1000,1,4.9,0.0,1,0,23,23,56,,,,,102.92988030007109,103.58022600016557,103.58022600016557,104.08126470004208,315,315,104.08126470004208,104.08126470004208,104.08126470004208,104.08126470004208,104.08126470004208,104.08126470004208,104.08126470004208,104.08126470004208,104.08126470004208,104.44776080013253,104.44776080013253,104.44776080013253,104.44776080013253,104.44776080013253,104.44776080013253,104.44776080013253,104.44776080013253,104.44776080013253,23,0,,,104.44776080013253,104.65011080005206,1000,104.65011080005206,1000,1000,1000,1000,1,num_2,0.644396600080654,,34,15,2026-03-13_11h23.31.763,2026A_exp2,2022.2.4,59.941293454898926,
1000,1,3.7,4.9,0,0,24,24,25,,,,,105.31552020017989,105.94915330014192,105.94915330014192,106.45083780004643,315,45,106.45083780004643,106.45083780004643,106.45083780004643,106.45083780004643,106.45083780004643,106.45083780004643,106.45083780004643,106.45083780004643,106.45083780004643,106.81680270005018,106.81680270005018,106.81680270005018,106.81680270005018,106.81680270005018,106.81680270005018,106.81680270005018,106.81680270005018,106.81680270005018,23,0,,,106.81680270005018,107.01882070000283,1000,107.01882070000283,1000,1000,1000,1000,1,num_2,0.450672100065276,,34,15,2026-03-13_11h23.31.763,2026A_exp2,2022.2.4,59.941293454898926,
1,0,4.9,4.9,1,0,25,25,18,,,,,107.50090290000662,108.15153650008142,108.15153650008142,108.65241990005597,45,45,108.65241990005597,108.65241990005597,108.65241990005597,108.65241990005597,108.65241990005597,108.65241990005597,108.65241990005597,108.65241990005597,108.65241990005597,109.0190389000345,109.0190389000345,109.0190389000345,109.0190389000345,109.0190389000345,109.0190389000345,109.0190389000345,109.0190389000345,109.0190389000345,9,4,"[0.0012970000971108675, 0.13355110003612936, 0.2502739999908954, 0.299988399958238]","[0.01707369997166097, 0.2336176000535488, 0.2834344001021236, 0.3669765000231564]",109.0190389000345,109.21919760014862,4.9,109.21919760014862,1,4.9,1,1,1000,num_4,0.6829323000274599,,34,15,2026-03-13_11h23.31.763,2026A_exp2,2022.2.4,59.941293454898926,
1,0,6.1,0.0,0,0,26,26,51,,,,,109.91971140005626,110.57060370012186,110.57060370012186,111.05498849996366,315,45,111.05498849996366,111.05498849996366,111.05498849996366,111.05498849996366,111.05498849996366,111.05498849996366,111.05498849996366,111.05498849996366,111.05498849996366,111.4214304999914,111.4214304999914,111.4214304999914,111.4214304999914,111.4214304999914,111.4214304999914,111.4214304999914,111.4214304999914,111.4214304999914,23,0,,,111.4214304999914,111.62166539998725,6.1,111.62166539998725,0,6.1,1,0,1000,num_1,0.5362513000145555,,34,15,2026-03-13_11h23.31.763,2026A_exp2,2022.2.4,59.941293454898926,
1,0,3.7,0.0,0,0,27,27,7,,,,,112.18876330018975,112.83946180017665,112.83946180017665,113.32383320014924,315,45,113.32383320014924,113.32383320014924,113.32383320014924,113.32383320014924,113.32383320014924,113.32383320014924,113.32383320014924,113.32383320014924,113.32383320014924,113.69039470003918,113.69039470003918,113.69039470003918,113.69039470003918,113.69039470003918,113.69039470003918,113.69039470003918,113.69039470003918,113.69039470003918,0,1,[0.001329400110989809],[0.36726039997301996],113.69039470003918,113.89041650015861,3.7,113.89041650015861,1,3.7,1,1,1000,num_4,0.5725336000323296,,34,15,2026-03-13_11h23.31.763,2026A_exp2,2022.2.4,59.941293454898926,
1,0,0.0,0.0,0,0,28,28,22,,,,,114.49106320017017,115.14161910000257,115.14161910000257,115.62621610006317,45,45,115.62621610006317,115.62621610006317,115.62621610006317,115.62621610006317,115.62621610006317,115.62621610006317,115.62621610006317,115.62621610006317,115.62621610006317,115.99258870002814,115.99258870002814,115.99258870002814,115.99258870002814,115.99258870002814,115.99258870002814,115.99258870002814,115.99258870002814,115.99258870002814,23,0,,,115.99258870002814,116.19274550001137,0.0,116.19274550001137,0,0.0,0,1,1000,num_1,0.6291221999563277,,34,15,2026-03-13_11h23.31.763,2026A_exp2,2022.2.4,59.941293454898926,
0,0,6.1,6.1,1,0,29,29,48,,,,,116.84331959998235,117.49411289999261,117.49411289999261,117.97849150002003,45,315,117.97849150002003,117.97849150002003,117.97849150002003,117.97849150002003,117.97849150002003,117.97849150002003,117.97849150002003,117.97849150002003,117.97849150002003,118.34505290002562,118.34505290002562,118.34505290002562,118.34505290002562,118.34505290002562,118.34505290002562,118.34505290002562,118.34505290002562,118.34505290002562,23,0,,,118.34505290002562,118.54511300008744,6.1,118.54511300008744,1,6.1,1,1,1000,num_4,0.6293969000689685,,34,15,2026-03-13_11h23.31.763,2026A_exp2,2022.2.4,59.941293454898926,
1,0,0.0,3.7,0,0,30,30,76,,,,,119.195997599978,119.8299043001607,119.8299043001607,120.33100030012429,45,45,120.33100030012429,120.33100030012429,120.33100030012429,120.33100030012429,120.33100030012429,120.33100030012429,120.33100030012429,120.33100030012429,120.33100030012429,120.69717280007899,120.69717280007899,120.69717280007899,120.69717280007899,120.69717280007899,120.69717280007899,120.69717280007899,120.69717280007899,120.69717280007899,23,0,,,120.69717280007899,120.89740760019049,0.0,120.89740760019049,0,0.0,0,1,1000,num_1,0.5647495000157505,,34,15,2026-03-13_11h23.31.763,2026A_exp2,2022.2.4,59.941293454898926,
1000,1,3.7,0.0,0,0,31,31,81,,,,,121.48143910011277,122.13212940003723,122.13212940003723,122.61659810016863,45,315,122.61659810016863,122.61659810016863,122.61659810016863,122.61659810016863,122.61659810016863,122.61659810016863,122.61659810016863,122.61659810016863,122.61659810016863,122.98297840007581,122.98297840007581,122.98297840007581,122.98297840007581,122.98297840007581,122.98297840007581,122.98297840007581,122.98297840007581,122.98297840007581,23,0,,,122.98297840007581,123.18554520001635,1000,123.18554520001635,1000,1000,1000,1000,1,num_2,0.5480076000094414,,34,15,2026-03-13_11h23.31.763,2026A_exp2,2022.2.4,59.941293454898926,
1000,1,6.1,6.1,1,0,32,32,53,,,,,123.75032650004141,124.40097680012695,124.40097680012695,124.9020923001226,315,45,124.9020923001226,124.9020923001226,124.9020923001226,124.9020923001226,124.9020923001226,124.9020923001226,124.9020923001226,124.9020923001226,124.9020923001226,125.2685970000457,125.2685970000457,125.2685970000457,125.2685970000457,125.2685970000457,125.2685970000457,125.2685970000457,125.2685970000457,125.2685970000457,23,0,,,125.2685970000457,125.47023390000686,1000,125.47023390000686,1000,1000,1000,1000,1,num_2,0.4889696000609547,,34,15,2026-03-13_11h23.31.763,2026A_exp2,2022.2.4,59.941293454898926,
1000,1,0.0,0.0,1,0,33,33,35,,,,,125.98594960011542,126.636399500072,126.636399500072,127.13783210003749,45,315,127.13783210003749,127.13783210003749,127.13783210003749,127.13783210003749,127.13783210003749,127.13783210003749,127.13783210003749,127.13783210003749,127.13783210003749,127.50418910011649,127.50418910011649,127.50418910011649,127.50418910011649,127.50418910011649,127.50418910011649,127.50418910011649,127.50418910011649,127.50418910011649,0,1,[0.0007567000575363636],[0.3678307000081986],127.50418910011649,127.70705760014243,1000,127.70705760014243,1000,1000,1000,1000,1,num_2,0.47586390003561974,,34,15,2026-03-13_11h23.31.763,2026A_exp2,2022.2.4,59.941293454898926,
0,0,0.0,0.0,1,0,34,34,14,,,,,128.2048999001272,128.85564750013873,128.85564750013873,129.35671620001085,45,315,129.35671620001085,129.35671620001085,129.35671620001085,129.35671620001085,129.35671620001085,129.35671620001085,129.35671620001085,129.35671620001085,129.35671620001085,129.72306130011566,129.72306130011566,129.72306130011566,129.72306130011566,129.72306130011566,129.72306130011566,129.72306130011566,129.72306130011566,129.72306130011566,2,2,"[0.00132719986140728, 0.10025650006718934]","[0.06683490006253123, 0.36707299994304776]",129.72306130011566,129.92326790001243,0.0,129.92326790001243,0,0.0,0,1,1000,num_1,0.538444499950856,,34,15,2026-03-13_11h23.31.763,2026A_exp2,2022.2.4,59.941293454898926,
1,0,3.7,6.1,1,0,35,35,75,,,,,130.49035100010224,131.14100220007822,131.14100220007822,131.6255713000428,315,315,131.6255713000428,131.6255713000428,131.6255713000428,131.6255713000428,131.6255713000428,131.6255713000428,131.6255713000428,131.6255713000428,131.6255713000428,131.99200960015878,131.99200960015878,131.99200960015878,131.99200960015878,131.99200960015878,131.99200960015878,131.99200960015878,131.99200960015878,131.99200960015878,0,1,[0.0012199000921100378],[0.36721990001387894],131.99200960015878,132.19225140009075,6.1,132.19225140009075,1,6.1,1,1,1000,num_4,0.5653574001044035,,34,15,2026-03-13_11h23.31.763,2026A_exp2,2022.2.4,59.941293454898926,
1,0,3.7,3.7,0,0,36,36,60,,,,,132.7759283001069,133.42674630018882,133.42674630018882,133.91106200008653,45,315,133.91106200008653,133.91106200008653,133.91106200008653,133.91106200008653,133.91106200008653,133.91106200008653,133.91106200008653,133.91106200008653,133.91106200008653,134.2775298000779,134.2775298000779,134.2775298000779,134.2775298000779,134.2775298000779,134.2775298000779,134.2775298000779,134.2775298000779,134.2775298000779,1,1,[0.0012278999201953411],[0.36723390012048185],134.2775298000779,134.4776668001432,3.7,134.4776668001432,1,3.7,1,1,1000,num_4,0.5605558000970632,,34,15,2026-03-13_11h23.31.763,2026A_exp2,2022.2.4,59.941293454898926,
1,0,6.1,3.7,1,0,37,37,16,,,,,135.06158110010438,135.71230320003815,135.71230320003815,136.19665580010042,315,45,136.19665580010042,136.19665580010042,136.19665580010042,136.19665580010042,136.19665580010042,136.19665580010042,136.19665580010042,136.19665580010042,136.19665580010042,136.56318000005558,136.56318000005558,136.56318000005558,136.56318000005558,136.56318000005558,136.56318000005558,136.56318000005558,136.56318000005558,136.56318000005558,21,1,[0.26701670000329614],[0.3003530998248607],136.56318000005558,136.76346410019323,3.7,136.76346410019323,1,3.7,1,1,1000,num_4,0.5223046001046896,,34,15,2026-03-13_11h23.31.763,2026A_exp2,2022.2.4,59.941293454898926,
1000,1,0.0,6.1,0,0,38,38,27,,,,,137.31379360007122,137.94789970014244,137.94789970014244,138.44908839999698,45,315,138.44908839999698,138.44908839999698,138.44908839999698,138.44908839999698,138.44908839999698,138.44908839999698,138.44908839999698,138.44908839999698,138.44908839999698,138.81551740015857,138.81551740015857,138.81551740015857,138.81551740015857,138.81551740015857,138.81551740015857,138.81551740015857,138.81551740015857,138.81551740015857,8,2,"[0.08362639998085797, 0.2003423001151532]","[0.16698530013673007, 0.3671425001230091]",138.81551740015857,139.01758700003847,1000,139.01758700003847,1000,1000,1000,1000,1,num_2,0.8211962999776006,,34,15,2026-03-13_11h23.31.763,2026A_exp2,2022.2.4,59.941293454898926,
1,0,0.0,0.0,1,0,39,39,58,,,,,139.86669469997287,140.51691810018383,140.51691810018383,141.00155020016246,315,45,141.00155020016246,141.00155020016246,141.00155020016246,141.00155020016246,141.00155020016246,141.00155020016246,141.00155020016246,141.00155020016246,141.00155020016246,141.36784190009348,141.36784190009348,141.36784190009348,141.36784190009348,141.36784190009348,141.36784190009348,141.36784190009348,141.36784190009348,141.36784190009348,0,1,[0.0011994000524282455],[0.36740759992972016],141.36784190009348,141.56817300012335,0.0,141.56817300012335,1,0.0,0,0,1000,num_4,0.6701317999977618,,34,15,2026-03-13_11h23.31.763,2026A_exp2,2022.2.4,59.941293454898926,
0,0,0.0,4.9,1,0,40,40,33,,,,,142.2689692999702,142.9195861001499,142.9195861001499,143.40405260003172,315,45,143.40405260003172,143.40405260003172,143.40405260003172,143.40405260003172,143.40405260003172,143.40405260003172,143.40405260003172,143.40405260003172,143.40405260003172,143.77046720008366,143.77046720008366,143.77046720008366,143.77046720008366,143.77046720008366,143.77046720008366,143.77046720008366,143.77046720008366,143.77046720008366,23,0,,,143.77046720008366,143.97057000012137,0.0,143.97057000012137,0,0.0,0,1,1000,num_1,0.5630552000366151,,34,15,2026-03-13_11h23.31.763,2026A_exp2,2022.2.4,59.941293454898926,
1,0,0.0,3.7,0,0,41,41,31,,,,,144.5544376000762,145.20515260007232,145.20515260007232,145.68963619996794,315,315,145.68963619996794,145.68963619996794,145.68963619996794,145.68963619996794,145.68963619996794,145.68963619996794,145.68963619996794,145.68963619996794,145.68963619996794,146.05601370008662,146.05601370008662,146.05601370008662,146.05601370008662,146.05601370008662,146.05601370008662,146.05601370008662,146.05601370008662,146.05601370008662,21,1,[0.20035090018063784],[0.23370780004188418],146.05601370008662,146.2560509000905,0.0,146.2560509000905,0,0.0,0,1,1000,num_1,0.5655797000508755,,34,15,2026-03-13_11h23.31.763,2026A_exp2,2022.2.4,59.941293454898926,
1000,1,4.9,0.0,0,0,42,42,37,,,,,146.8399910000153,147.49073920003138,147.49073920003138,147.97545010014437,315,315,147.97545010014437,147.97545010014437,147.97545010014437,147.97545010014437,147.97545010014437,147.97545010014437,147.97545010014437,147.97545010014437,147.97545010014437,148.34166180016473,148.34166180016473,148.34166180016473,148.34166180016473,148.34166180016473,148.34166180016473,148.34166180016473,148.34166180016473,148.34166180016473,23,0,,,148.34166180016473,148.54360570013523,1000,148.54360570013523,1000,1000,1000,1000,1,num_2,0.5985317998565733,,34,15,2026-03-13_11h23.31.763,2026A_exp2,2022.2.4,59.941293454898926,
1,0,4.9,6.1,0,0,43,43,29,,,,,149.15884599997662,149.80967670003884,149.80967670003884,150.31099130003713,45,315,150.31099130003713,150.31099130003713,150.31099130003713,150.31099130003713,150.31099130003713,150.31099130003713,150.31099130003713,150.31099130003713,150.31099130003713,150.67694979999214,150.67694979999214,150.67694979999214,150.67694979999214,150.67694979999214,150.67694979999214,150.67694979999214,150.67694979999214,150.67694979999214,23,0,,,150.67694979999214,150.8775102000218,4.9,150.8775102000218,0,4.9,1,0,1000,num_1,0.5043136000167578,,34,15,2026-03-13_11h23.31.763,2026A_exp2,2022.2.4,59.941293454898926,
1,0,3.7,0.0,0,0,44,44,3,,,,,151.41151280002668,152.0450963000767,152.0450963000767,152.54653160017915,45,315,152.54653160017915,152.54653160017915,152.54653160017915,152.54653160017915,152.54653160017915,152.54653160017915,152.54653160017915,152.54653160017915,152.54653160017915,152.91280669998378,152.91280669998378,152.91280669998378,152.91280669998378,152.91280669998378,152.91280669998378,152.91280669998378,152.91280669998378,152.91280669998378,22,1,[0.35033380007371306],[0.3670232000295073],152.91280669998378,153.1131339999847,3.7,153.1131339999847,0,3.7,1,0,1000,num_1,0.5487953999545425,,34,15,2026-03-13_11h23.31.763,2026A_exp2,2022.2.4,59.941293454898926,
1000,1,0.0,0.0,1,0,45,45,34,,,,,153.68016770016402,154.33097710018046,154.33097710018046,154.81531870015897,315,45,154.81531870015897,154.81531870015897,154.81531870015897,154.81531870015897,154.81531870015897,154.81531870015897,154.81531870015897,154.81531870015897,154.81531870015897,155.1817876000423,155.1817876000423,155.1817876000423,155.1817876000423,155.1817876000423,155.1817876000423,155.1817876000423,155.1817876000423,155.1817876000423,9,2,"[0.11714449990540743, 0.3505810999777168]","[0.33396989991888404, 0.36724100005812943]",155.1817876000423,155.38399060000665,1000,155.38399060000665,1000,1000,1000,1000,1,num_2,0.5334663998801261,,34,15,2026-03-13_11h23.31.763,2026A_exp2,2022.2.4,59.941293454898926,
1000,1,3.7,3.7,1,0,46,46,54,,,,,155.93255150015466,156.58318169997074,156.58318169997074,157.08413520012982,315,315,157.08413520012982,157.08413520012982,157.08413520012982,157.08413520012982,157.08413520012982,157.08413520012982,157.08413520012982,157.08413520012982,157.08413520012982,157.45089420001023,157.45089420001023,157.45089420001023,157.45089420001023,157.45089420001023,157.45089420001023,157.45089420001023,157.45089420001023,157.45089420001023,23,0,,,157.45089420001023,157.65298350015655,1000,157.65298350015655,1000,1000,1000,1000,1,num_2,0.7047715000808239,,34,15,2026-03-13_11h23.31.763,2026A_exp2,2022.2.4,59.941293454898926,
1,0,6.1,0.0,1,0,47,47,17,,,,,158.3852495001629,159.03566469997168,159.03566469997168,159.52004309999757,315,45,159.52004309999757,159.52004309999757,159.52004309999757,159.52004309999757,159.52004309999757,159.52004309999757,159.52004309999757,159.52004309999757,159.52004309999757,159.8864043999929,159.8864043999929,159.8864043999929,159.8864043999929,159.8864043999929,159.8864043999929,159.8864043999929,159.8864043999929,159.8864043999929,20,3,"[0.06683439994230866, 0.18362240004353225, 0.3674899998586625]","[0.08347139996476471, 0.20025169989094138, 0.36749559990130365]",159.8864043999929,160.0866151000373,0.0,160.0866151000373,1,0.0,0,0,1000,num_4,0.975877899909392,,34,15,2026-03-13_11h23.31.763,2026A_exp2,2022.2.4,59.941293454898926,
1000,1,6.1,0.0,0,0,48,48,69,,,,,161.08775390009396,161.73825610009953,161.73825610009953,162.22271180013195,315,45,162.22271180013195,162.22271180013195,162.22271180013195,162.22271180013195,162.22271180013195,162.22271180013195,162.22271180013195,162.22271180013195,162.22271180013195,162.58909839997068,162.58909839997068,162.58909839997068,162.58909839997068,162.58909839997068,162.58909839997068,162.58909839997068,162.58909839997068,162.58909839997068,23,0,,,162.58909839997068,162.78950479999185,1000,162.78950479999185,1000,1000,1000,1000,0,num_3,0.5523409999441355,,34,15,2026-03-13_11h23.31.763,2026A_exp2,2022.2.4,59.941293454898926,
1,0,6.1,0.0,0,0,49,49,77,,,,,163.3734166000504,164.0240329001099,164.0240329001099,164.52508180006407,315,315,164.52508180006407,164.52508180006407,164.52508180006407,164.52508180006407,164.52508180006407,164.52508180006407,164.52508180006407,164.52508180006407,164.52508180006407,164.891339099966,164.891339099966,164.891339099966,164.891339099966,164.891339099966,164.891339099966,164.891339099966,164.891339099966,164.891339099966,23,0,,,164.891339099966,165.0917603999842,6.1,165.0917603999842,0,6.1,1,0,1000,num_1,0.4592255000025034,,34,15,2026-03-13_11h23.31.763,2026A_exp2,2022.2.4,59.941293454898926,
0,0,3.7,3.7,1,0,50,50,62,,,,,165.57540510012768,166.2263134000823,166.2263134000823,166.71065749996342,45,45,166.71065749996342,166.71065749996342,166.71065749996342,166.71065749996342,166.71065749996342,166.71065749996342,166.71065749996342,166.71065749996342,166.71065749996342,167.07707710005343,167.07707710005343,167.07707710005343,167.07707710005343,167.07707710005343,167.07707710005343,167.07707710005343,167.07707710005343,167.07707710005343,0,1,[0.0011986000463366508],[0.3674186000134796],167.07707710005343,167.27729120012373,3.7,167.27729120012373,0,3.7,1,0,1000,num_1,0.5295955999754369,,34,15,2026-03-13_11h23.31.763,2026A_exp2,2022.2.4,59.941293454898926,
1000,1,4.9,0.0,0,0,51,51,45,,,,,167.82762920018286,168.47847390011884,168.47847390011884,168.96277350001037,315,45,168.96277350001037,168.96277350001037,168.96277350001037,168.96277350001037,168.96277350001037,168.96277350001037,168.96277350001037,168.96277350001037,168.96277350001037,169.32928770012222,169.32928770012222,169.32928770012222,169.32928770012222,169.32928770012222,169.32928770012222,169.32928770012222,169.32928770012222,169.32928770012222,0,1,[0.001255400013178587],[0.3670810000039637],169.32928770012222,169.53150549996644,1000,169.53150549996644,1000,1000,1000,1000,1,num_2,0.5147250001318753,,34,15,2026-03-13_11h23.31.763,2026A_exp2,2022.2.4,59.941293454898926,
0,0,4.9,6.1,1,0,52,52,70,,,,,170.06327689997852,170.71399640012532,170.71399640012532,171.2151522000786,45,45,171.2151522000786,171.2151522000786,171.2151522000786,171.2151522000786,171.2151522000786,171.2151522000786,171.2151522000786,171.2151522000786,171.2151522000786,171.56486340006813,171.56486340006813,171.56486340006813,171.56486340006813,171.56486340006813,171.56486340006813,171.56486340006813,171.56486340006813,171.56486340006813,0,1,[0.0008534998632967472],[0.3509515000041574],171.56486340006813,171.76511000003666,4.9,171.78169309999794,0,4.9,1,0,1000,num_1,0.6321861001197249,,34,15,2026-03-13_11h23.31.763,2026A_exp2,2022.2.4,59.941293454898926,
1000,1,0.0,0.0,1,0,53,53,63,,,,,172.43240380007774,173.08301230007783,173.08301230007783,173.56739190011285,315,45,173.56739190011285,173.56739190011285,173.56739190011285,173.56739190011285,173.56739190011285,173.56739190011285,173.56739190011285,173.56739190011285,173.56739190011285,173.9339700001292,173.9339700001292,173.9339700001292,173.9339700001292,173.9339700001292,173.9339700001292,173.9339700001292,173.9339700001292,173.9339700001292,0,1,[0.0012489000800997019],[0.3672247000504285],173.9339700001292,174.1368673001416,1000,174.1368673001416,1000,1000,1000,1000,0,num_3,0.5579521998297423,,34,15,2026-03-13_11h23.31.763,2026A_exp2,2022.2.4,59.941293454898926,
1,0,4.9,3.7,1,0,54,54,71,,,,,174.7179904000368,175.3686069000978,175.3686069000978,175.8697083001025,315,45,175.8697083001025,175.8697083001025,175.8697083001025,175.8697083001025,175.8697083001025,175.8697083001025,175.8697083001025,175.8697083001025,175.8697083001025,176.23605850012973,176.23605850012973,176.23605850012973,176.23605850012973,176.23605850012973,176.23605850012973,176.23605850012973,176.23605850012973,176.23605850012973,0,1,[0.0012368999887257814],[0.36715850001201034],176.23605850012973,176.43634240003303,3.7,176.43634240003303,1,3.7,1,1,1000,num_4,1.1786326000001281,,34,15,2026-03-13_11h23.31.763,2026A_exp2,2022.2.4,59.941293454898926,
1,0,0.0,0.0,1,0,55,55,59,,,,,177.63755009998567,178.28816019999795,178.28816019999795,178.77275230013765,315,45,178.77275230013765,178.77275230013765,178.77275230013765,178.77275230013765,178.77275230013765,178.77275230013765,178.77275230013765,178.77275230013765,178.77275230013765,179.13905400014482,179.13905400014482,179.13905400014482,179.13905400014482,179.13905400014482,179.13905400014482,179.13905400014482,179.13905400014482,179.13905400014482,7,3,"[0.0012043002061545849, 0.15047430014237761, 0.2671972999814898]","[0.13364750007167459, 0.16705350019037724, 0.367350900080055]",179.13905400014482,179.33918310003355,0.0,179.33918310003355,1,0.0,0,0,1000,num_4,0.5465671999845654,,34,15,2026-03-13_11h23.31.763,2026A_exp2,2022.2.4,59.941293454898926,
1000,1,3.7,0.0,1,0,56,56,78,,,,,179.9064174001105,180.55703840008937,180.55703840008937,181.04171280004084,45,315,181.04171280004084,181.04171280004084,181.04171280004084,181.04171280004084,181.04171280004084,181.04171280004084,181.04171280004084,181.04171280004084,181.04171280004084,181.40821370016783,181.40821370016783,181.40821370016783,181.40821370016783,181.40821370016783,181.40821370016783,181.40821370016783,181.40821370016783,181.40821370016783,23,0,,,181.40821370016783,181.61032810015604,1000,181.61032810015604,1000,1000,1000,1000,0,num_3,0.4681212999857962,,34,15,2026-03-13_11h23.31.763,2026A_exp2,2022.2.4,59.941293454898926,
1000,1,4.9,0.0,1,0,57,57,84,,,,,182.10859460011125,182.75938279996626,182.75938279996626,183.26053990004584,45,315,183.26053990004584,183.26053990004584,183.26053990004584,183.26053990004584,183.26053990004584,183.26053990004584,183.26053990004584,183.26053990004584,183.26053990004584,183.6268372000195,183.6268372000195,183.6268372000195,183.6268372000195,183.6268372000195,183.6268372000195,183.6268372000195,183.6268372000195,183.6268372000195,0,1,[0.001302200136706233],[0.3668734999373555],183.6268372000195,183.82904940005392,1000,183.82904940005392,1000,1000,1000,1000,1,num_2,0.6493027999531478,,34,15,2026-03-13_11h23.31.763,2026A_exp2,2022.2.4,59.941293454898926,
1,0,0.0,0.0,1,0,58,58,4,,,,,184.49441749998368,185.14517250005156,185.14517250005156,185.64604170015082,45,45,185.64604170015082,185.64604170015082,185.64604170015082,185.64604170015082,185.64604170015082,185.64604170015082,185.64604170015082,185.64604170015082,185.64604170015082,186.01265490008518,186.01265490008518,186.01265490008518,186.01265490008518,186.01265490008518,186.01265490008518,186.01265490008518,186.01265490008518,186.01265490008518,1,2,"[0.0011158999986946583, 0.24981550010852516]","[0.2334179999306798, 0.3670902999583632]",186.01265490008518,186.21278379997239,0.0,186.21278379997239,1,0.0,0,0,1000,num_4,0.9448995001148432,,34,15,2026-03-13_11h23.31.763,2026A_exp2,2022.2.4,59.941293454898926,
1000,1,3.7,0.0,1,0,59,59,19,,,,,187.18032440007664,187.81451659998856,187.81451659998856,188.31544620008208,45,45,188.31544620008208,188.31544620008208,188.31544620008208,188.31544620008208,188.31544620008208,188.31544620008208,188.31544620008208,188.31544620008208,188.31544620008208,188.68200740008615,188.68200740008615,188.68200740008615,188.68200740008615,188.68200740008615,188.68200740008615,188.68200740008615,188.68200740008615,188.68200740008615,0,1,[0.0012274000328034163],[0.36718249996192753],188.68200740008615,188.8838712000288,1000,188.8838712000288,1000,1000,1000,1000,1,num_2,0.49831009982153773,,34,15,2026-03-13_11h23.31.763,2026A_exp2,2022.2.4,59.941293454898926,
1000,1,0.0,0.0,0,0,60,60,24,,,,,189.3993115001358,190.0500594000332,190.0500594000332,190.55101660010405,45,45,190.55101660010405,190.55101660010405,190.55101660010405,190.55101660010405,190.55101660010405,190.55101660010405,190.55101660010405,190.55101660010405,190.55101660010405,190.90076600015163,190.90076600015163,190.90076600015163,190.90076600015163,190.90076600015163,190.90076600015163,190.90076600015163,190.90076600015163,190.90076600015163,1,1,[0.016825699945911765],[0.3505867999047041],190.90076600015163,191.10329090012237,1000,191.10329090012237,1000,1000,1000,1000,1,num_2,0.3342854999937117,,34,15,2026-03-13_11h23.31.763,2026A_exp2,2022.2.4,59.941293454898926,
1000,1,3.7,6.1,1,0,61,61,43,,,,,191.46801620000042,192.11875140015036,192.11875140015036,192.6199056999758,315,315,192.6199056999758,192.6199056999758,192.6199056999758,192.6199056999758,192.6199056999758,192.6199056999758,192.6199056999758,192.6199056999758,192.6199056999758,192.96955310017802,192.96955310017802,192.96955310017802,192.96955310017802,192.96955310017802,192.96955310017802,192.96955310017802,192.96955310017802,192.96955310017802,22,0,,,192.96955310017802,193.17199830012396,1000,193.17199830012396,1000,1000,1000,1000,1,num_2,0.41879460006020963,,34,15,2026-03-13_11h23.31.763,2026A_exp2,2022.2.4,59.941293454898926,
1,0,0.0,0.0,0,0,62,62,32,,,,,193.62023790017702,194.27091840002686,194.27091840002686,194.7720184000209,315,315,194.7720184000209,194.7720184000209,194.7720184000209,194.7720184000209,194.7720184000209,194.7720184000209,194.7720184000209,194.7720184000209,194.7720184000209,195.1383653001394,195.1383653001394,195.1383653001394,195.1383653001394,195.1383653001394,195.1383653001394,195.1383653001394,195.1383653001394,195.1383653001394,23,0,,,195.1383653001394,195.33856469998136,0.0,195.33856469998136,1,0.0,0,0,1000,num_4,1.123836699873209,,34,15,2026-03-13_11h23.31.763,2026A_exp2,2022.2.4,59.941293454898926,
1000,1,4.9,0.0,1,0,63,63,74,,,,,196.48973900009878,197.1402812001761,197.1402812001761,197.62487570010126,315,45,197.62487570010126,197.62487570010126,197.62487570010126,197.62487570010126,197.62487570010126,197.62487570010126,197.62487570010126,197.62487570010126,197.62487570010126,197.9912403000053,197.9912403000053,197.9912403000053,197.9912403000053,197.9912403000053,197.9912403000053,197.9912403000053,197.9912403000053,197.9912403000053,23,0,,,197.9912403000053,198.2255752000492,1000,198.2255752000492,1000,1000,1000,1000,0,num_3,0.4838978999760002,,34,15,2026-03-13_11h23.31.763,2026A_exp2,2022.2.4,59.941293454898926,
1,0,6.1,3.7,1,0,64,64,83,,,,,198.72519759996794,199.37610900006257,199.37610900006257,199.87702720006928,315,315,199.87702720006928,199.87702720006928,199.87702720006928,199.87702720006928,199.87702720006928,199.87702720006928,199.87702720006928,199.87702720006928,199.87702720006928,200.24349789996631,200.24349789996631,200.24349789996631,200.24349789996631,200.24349789996631,200.24349789996631,200.24349789996631,200.24349789996631,200.24349789996631,23,0,,,200.24349789996631,200.44371590018272,3.7,200.44371590018272,1,3.7,1,1,1000,num_4,0.8824261000845581,,34,15,2026-03-13_11h23.31.763,2026A_exp2,2022.2.4,59.941293454898926,
1000,1,6.1,6.1,0,0,65,65,87,,,,,201.34485310013406,201.99531000014395,201.99531000014395,202.4796287000645,45,45,202.4796287000645,202.4796287000645,202.4796287000645,202.4796287000645,202.4796287000645,202.4796287000645,202.4796287000645,202.4796287000645,202.4796287000645,202.84615730005316,202.84615730005316,202.84615730005316,202.84615730005316,202.84615730005316,202.84615730005316,202.84615730005316,202.84615730005316,202.84615730005316,0,1,[0.001222300110384822],[0.3672647001221776],202.84615730005316,203.04820530000143,1000,203.04820530000143,1000,1000,1000,1000,1,num_2,0.4055592999793589,,34,15,2026-03-13_11h23.31.763,2026A_exp2,2022.2.4,59.941293454898926,
1,0,6.1,6.1,0,0,66,66,89,,,,,203.48003610013984,204.13299060007557,204.13299060007557,204.6318014001008,45,315,204.6318014001008,204.6318014001008,204.6318014001008,204.6318014001008,204.6318014001008,204.6318014001008,204.6318014001008,204.6318014001008,204.6318014001008,204.99825810012408,204.99825810012408,204.99825810012408,204.99825810012408,204.99825810012408,204.99825810012408,204.99825810012408,204.99825810012408,204.99825810012408,8,2,"[0.1002385001629591, 0.13360150018706918]","[0.11685300013050437, 0.367180900182575]",204.99825810012408,205.19849000009708,6.1,205.19849000009708,1,6.1,1,1,1000,num_4,0.7439691000618041,,34,15,2026-03-13_11h23.31.763,2026A_exp2,2022.2.4,59.941293454898926,
1000,1,0.0,3.7,1,0,67,67,1,,,,,205.9660316000227,206.6165591001045,206.6165591001045,207.10093359998427,45,315,207.10093359998427,207.10093359998427,207.10093359998427,207.10093359998427,207.10093359998427,207.10093359998427,207.10093359998427,207.10093359998427,207.10093359998427,207.46730210003443,207.46730210003443,207.46730210003443,207.46730210003443,207.46730210003443,207.46730210003443,207.46730210003443,207.46730210003443,207.46730210003443,23,0,,,207.46730210003443,207.66949900006875,1000,207.66949900006875,1000,1000,1000,1000,1,num_2,0.48048070003278553,,34,15,2026-03-13_11h23.31.763,2026A_exp2,2022.2.4,59.941293454898926,
1000,1,6.1,4.9,1,0,68,68,86,,,,,208.16802450013347,208.8186321000103,208.8186321000103,209.31982140010223,315,45,209.31982140010223,209.31982140010223,209.31982140010223,209.31982140010223,209.31982140010223,209.31982140010223,209.31982140010223,209.31982140010223,209.31982140010223,209.66973019996658,209.66973019996658,209.66973019996658,209.66973019996658,209.66973019996658,209.66973019996658,209.66973019996658,209.66973019996658,209.66973019996658,22,0,,,209.66973019996658,209.8715779001359,1000,209.8715779001359,1000,1000,1000,1000,0,num_3,0.41470269998535514,,34,15,2026-03-13_11h23.31.763,2026A_exp2,2022.2.4,59.941293454898926,
1000,1,4.9,3.7,0,0,69,69,40,,,,,210.30353890010156,210.95425290009007,210.95425290009007,211.45541639998555,45,315,211.45541639998555,211.45541639998555,211.45541639998555,211.45541639998555,211.45541639998555,211.45541639998555,211.45541639998555,211.45541639998555,211.45541639998555,211.8218147000298,211.8218147000298,211.8218147000298,211.8218147000298,211.8218147000298,211.8218147000298,211.8218147000298,211.8218147000298,211.8218147000298,23,0,,,211.8218147000298,212.02380020008422,1000,212.02380020008422,1000,1000,1000,1000,0,num_3,0.430461100069806,,34,15,2026-03-13_11h23.31.763,2026A_exp2,2022.2.4,59.941293454898926,
1000,1,6.1,0.0,0,0,70,70,21,,,,,212.47238040016964,213.12686840002425,213.12686840002425,213.6324795000255,45,45,213.6324795000255,213.6324795000255,213.6324795000255,213.6324795000255,213.6324795000255,213.6324795000255,213.6324795000255,213.6324795000255,213.6324795000255,213.99070690013468,213.99070690013468,213.99070690013468,213.99070690013468,213.99070690013468,213.99070690013468,213.99070690013468,213.99070690013468,213.99070690013468,23,0,,,213.99070690013468,214.19748950004578,1000,214.19748950004578,1000,1000,1000,1000,0,num_3,0.4328862000256777,,34,15,2026-03-13_11h23.31.763,2026A_exp2,2022.2.4,59.941293454898926,
1,0,6.1,6.1,1,0,71,71,49,,,,,214.65811150008813,215.30858279997483,215.30858279997483,215.79309180006385,315,45,215.79309180006385,215.79309180006385,215.79309180006385,215.79309180006385,215.79309180006385,215.79309180006385,215.79309180006385,215.79309180006385,215.79309180006385,216.15958050009795,216.15958050009795,216.15958050009795,216.15958050009795,216.15958050009795,216.15958050009795,216.15958050009795,216.15958050009795,216.15958050009795,23,0,,,216.15958050009795,216.35974830016494,6.1,216.35974830016494,1,6.1,1,1,1000,num_4,0.8386619999073446,,34,15,2026-03-13_11h23.31.763,2026A_exp2,2022.2.4,59.941293454898926,
1000,1,0.0,3.7,0,0,72,72,50,,,,,217.2269183001481,217.8778289000038,217.8778289000038,218.3622836000286,45,315,218.3622836000286,218.3622836000286,218.3622836000286,218.3622836000286,218.3622836000286,218.3622836000286,218.3622836000286,218.3622836000286,218.3622836000286,218.7286537999753,218.7286537999753,218.7286537999753,218.7286537999753,218.7286537999753,218.7286537999753,218.7286537999753,218.7286537999753,218.7286537999753,23,0,,,218.7286537999753,218.92891690018587,1000,218.92891690018587,1000,1000,1000,1000,1,num_2,1.2774312000256032,,34,15,2026-03-13_11h23.31.763,2026A_exp2,2022.2.4,59.941293454898926,
1000,1,3.7,0.0,1,0,73,73,52,,,,,220.23013569996692,220.88100760011002,220.88100760011002,221.38189260009676,45,315,221.38189260009676,221.38189260009676,221.38189260009676,221.38189260009676,221.38189260009676,221.38189260009676,221.38189260009676,221.38189260009676,221.38189260009676,221.7482827999629,221.7482827999629,221.7482827999629,221.7482827999629,221.7482827999629,221.7482827999629,221.7482827999629,221.7482827999629,221.7482827999629,23,0,,,221.7482827999629,221.95072810002603,1000,221.95072810002603,1000,1000,1000,1000,0,num_3,0.5195042998529971,,34,15,2026-03-13_11h23.31.763,2026A_exp2,2022.2.4,59.941293454898926,
1,0,0.0,4.9,1,0,74,74,73,,,,,222.49911580001935,223.14991130004637,223.14991130004637,223.65092599997297,315,315,223.65092599997297,223.65092599997297,223.65092599997297,223.65092599997297,223.65092599997297,223.65092599997297,223.65092599997297,223.65092599997297,223.65092599997297,224.01729160011746,224.01729160011746,224.01729160011746,224.01729160011746,224.01729160011746,224.01729160011746,224.01729160011746,224.01729160011746,224.01729160011746,19,2,"[0.3005333999171853, 0.33389690006151795]","[0.31731280009262264, 0.36729920003563166]",224.01729160011746,224.21754290000536,4.9,224.21754290000536,1,4.9,1,1,1000,num_4,0.540979300159961,,34,15,2026-03-13_11h23.31.763,2026A_exp2,2022.2.4,59.941293454898926,
1000,1,0.0,0.0,0,0,75,75,13,,,,,224.78463070001453,225.43540089996532,225.43540089996532,225.91990370000713,45,45,225.91990370000713,225.91990370000713,225.91990370000713,225.91990370000713,225.91990370000713,225.91990370000713,225.91990370000713,225.91990370000713,225.91990370000713,226.28629720001481,226.28629720001481,226.28629720001481,226.28629720001481,226.28629720001481,226.28629720001481,226.28629720001481,226.28629720001481,226.28629720001481,23,0,,,226.28629720001481,226.48852640017867,1000,226.48852640017867,1000,1000,1000,1000,1,num_2,0.4862867998890579,,34,15,2026-03-13_11h23.31.763,2026A_exp2,2022.2.4,59.941293454898926,
1,0,0.0,0.0,1,0,76,76,20,,,,,227.00358809996396,227.6541725001298,227.6541725001298,228.1554517999757,45,45,228.1554517999757,228.1554517999757,228.1554517999757,228.1554517999757,228.1554517999757,228.1554517999757,228.1554517999757,228.1554517999757,228.1554517999757,228.50513820000924,228.50513820000924,228.50513820000924,228.50513820000924,228.50513820000924,228.50513820000924,228.50513820000924,228.50513820000924,228.50513820000924,22,0,,,228.50513820000924,228.7053032000549,0.0,228.7053032000549,1,0.0,0,0,1000,num_4,0.596597199793905,,34,15,2026-03-13_11h23.31.763,2026A_exp2,2022.2.4,59.941293454898926,
0,0,6.1,4.9,1,0,77,77,42,,,,,229.32251100009307,229.97328900010325,229.97328900010325,230.4578156999778,45,315,230.4578156999778,230.4578156999778,230.4578156999778,230.4578156999778,230.4578156999778,230.4578156999778,230.4578156999778,230.4578156999778,230.4578156999778,230.8241207001265,230.8241207001265,230.8241207001265,230.8241207001265,230.8241207001265,230.8241207001265,230.8241207001265,230.8241207001265,230.8241207001265,23,0,,,230.8241207001265,231.02425420004874,6.1,231.02425420004874,0,6.1,1,0,1000,num_1,0.8060524000320584,,34,15,2026-03-13_11h23.31.763,2026A_exp2,2022.2.4,59.941293454898926,
1,0,0.0,4.9,1,0,78,78,41,,,,,231.85815920005552,232.50923540000804,232.50923540000804,232.99351180018857,315,45,232.99351180018857,232.99351180018857,232.99351180018857,232.99351180018857,232.99351180018857,232.99351180018857,232.99351180018857,232.99351180018857,232.99351180018857,233.3599251001142,233.3599251001142,233.3599251001142,233.3599251001142,233.3599251001142,233.3599251001142,233.3599251001142,233.3599251001142,233.3599251001142,23,0,,,233.3599251001142,233.56014680000953,4.9,233.56014680000953,1,4.9,1,1,1000,num_4,0.9100638998206705,,34,15,2026-03-13_11h23.31.763,2026A_exp2,2022.2.4,59.941293454898926,
1000,1,3.7,0.0,0,0,79,79,55,,,,,234.49446620000526,235.14511100016534,235.14511100016534,235.62954800017178,315,315,235.62954800017178,235.62954800017178,235.62954800017178,235.62954800017178,235.62954800017178,235.62954800017178,235.62954800017178,235.62954800017178,235.62954800017178,235.99592160014436,235.99592160014436,235.99592160014436,235.99592160014436,235.99592160014436,235.99592160014436,235.99592160014436,235.99592160014436,235.99592160014436,23,0,,,235.99592160014436,236.19787170016207,1000,236.19787170016207,1000,1000,1000,1000,0,num_3,0.48066020011901855,,34,15,2026-03-13_11h23.31.763,2026A_exp2,2022.2.4,59.941293454898926,
0,0,0.0,4.9,0,0,80,80,65,,,,,236.6965689000208,237.34727410017513,237.34727410017513,237.84846960008144,45,315,237.84846960008144,237.84846960008144,237.84846960008144,237.84846960008144,237.84846960008144,237.84846960008144,237.84846960008144,237.84846960008144,237.84846960008144,238.21479780017398,238.21479780017398,238.21479780017398,238.21479780017398,238.21479780017398,238.21479780017398,238.21479780017398,238.21479780017398,238.21479780017398,23,0,,,238.21479780017398,238.41496419999748,4.9,238.41496419999748,1,4.9,1,1,1000,num_4,0.5189978999551386,,34,15,2026-03-13_11h23.31.763,2026A_exp2,2022.2.4,59.941293454898926,
0,0,0.0,6.1,1,0,81,81,46,,,,,238.96571010001935,239.61627700016834,239.61627700016834,240.10068100015633,315,315,240.10068100015633,240.10068100015633,240.10068100015633,240.10068100015633,240.10068100015633,240.10068100015633,240.10068100015633,240.10068100015633,240.10068100015633,240.46694290009327,240.46694290009327,240.46694290009327,240.46694290009327,240.46694290009327,240.46694290009327,240.46694290009327,240.46694290009327,240.46694290009327,23,0,,,240.46694290009327,240.66736810002476,0.0,240.66736810002476,0,0.0,0,1,1000,num_1,0.6190937999635935,,34,15,2026-03-13_11h23.31.763,2026A_exp2,2022.2.4,59.941293454898926,
1000,1,0.0,4.9,1,0,82,82,57,,,,,241.31784260016866,241.96867040009238,241.96867040009238,242.4529276001267,315,315,242.4529276001267,242.4529276001267,242.4529276001267,242.4529276001267,242.4529276001267,242.4529276001267,242.4529276001267,242.4529276001267,242.4529276001267,242.81947360001504,242.81947360001504,242.81947360001504,242.81947360001504,242.81947360001504,242.81947360001504,242.81947360001504,242.81947360001504,242.81947360001504,23,0,,,242.81947360001504,243.02152110007592,1000,243.02152110007592,1000,1000,1000,1000,1,num_2,0.5205208000261337,,34,15,2026-03-13_11h23.31.763,2026A_exp2,2022.2.4,59.941293454898926,
1,0,3.7,0.0,0,0,83,83,10,,,,,243.57019670004956,244.22087249998003,244.22087249998003,244.72200340009294,45,45,244.72200340009294,244.72200340009294,244.72200340009294,244.72200340009294,244.72200340009294,244.72200340009294,244.72200340009294,244.72200340009294,244.72200340009294,245.08844240009785,245.08844240009785,245.08844240009785,245.08844240009785,245.08844240009785,245.08844240009785,245.08844240009785,245.08844240009785,245.08844240009785,23,0,,,245.08844240009785,245.28853880008683,3.7,245.28853880008683,0,3.7,1,0,1000,num_1,0.4456738999579102,,34,15,2026-03-13_11h23.31.763,2026A_exp2,2022.2.4,59.941293454898926,
0,0,4.9,0.0,1,0,84,84,26,,,,,245.75556150008924,246.40633799997158,246.40633799997158,246.91025040019304,315,315,246.91025040019304,246.91025040019304,246.91025040019304,246.91025040019304,246.91025040019304,246.91025040019304,246.91025040019304,246.91025040019304,246.91025040019304,247.25720750004984,247.25720750004984,247.25720750004984,247.25720750004984,247.25720750004984,247.25720750004984,247.25720750004984,247.25720750004984,247.25720750004984,22,0,,,247.25720750004984,247.4573001000099,4.9,247.4573001000099,0,4.9,1,0,1000,num_1,0.5814881999976933,,34,15,2026-03-13_11h23.31.763,2026A_exp2,2022.2.4,59.941293454898926,
1000,1,4.9,0.0,0,0,85,85,12,,,,,248.05815230007283,248.71423480007797,248.71423480007797,249.20972250006162,315,45,249.20972250006162,249.20972250006162,249.20972250006162,249.20972250006162,249.20972250006162,249.20972250006162,249.20972250006162,249.20972250006162,249.20972250006162,249.5761973001063,249.5761973001063,249.5761973001063,249.5761973001063,249.5761973001063,249.5761973001063,249.5761973001063,249.5761973001063,249.5761973001063,16,1,[0.2670426000840962],[0.36730549996718764],249.5761973001063,249.77885900018737,1000,249.77885900018737,1000,1000,1000,1000,0,num_3,0.4675094000995159,,34,15,2026-03-13_11h23.31.763,2026A_exp2,2022.2.4,59.941293454898926,
1000,1,0.0,3.7,1,0,86,86,67,,,,,250.27705899998546,250.92768330010585,250.92768330010585,251.42871820018627,315,45,251.42871820018627,251.42871820018627,251.42871820018627,251.42871820018627,251.42871820018627,251.42871820018627,251.42871820018627,251.42871820018627,251.42871820018627,251.7949892000761,251.7949892000761,251.7949892000761,251.7949892000761,251.7949892000761,251.7949892000761,251.7949892000761,251.7949892000761,251.7949892000761,7,2,"[0.0670657001901418, 0.15039800014346838]","[0.10020540002733469, 0.3673708001151681]",251.7949892000761,251.99552500015125,1000,251.99552500015125,1000,1000,1000,1000,1,num_2,0.538163100136444,,34,15,2026-03-13_11h23.31.763,2026A_exp2,2022.2.4,59.941293454898926,
1,0,0.0,6.1,1,0,87,87,5,,,,,252.5626201000996,253.2131098001264,253.2131098001264,253.71432040003128,45,315,253.71432040003128,253.71432040003128,253.71432040003128,253.71432040003128,253.71432040003128,253.71432040003128,253.71432040003128,253.71432040003128,253.71432040003128,254.08067150018178,254.08067150018178,254.08067150018178,254.08067150018178,254.08067150018178,254.08067150018178,254.08067150018178,254.08067150018178,254.08067150018178,1,2,"[0.0012083000037819147, 0.06687940005213022]","[0.05023639998398721, 0.3667011000216007]",254.08067150018178,254.28081310004927,6.1,254.28081310004927,1,6.1,1,1,1000,num_4,0.6610659998841584,,34,15,2026-03-13_11h23.31.763,2026A_exp2,2022.2.4,59.941293454898926,
1,0,3.7,3.7,0,0,88,88,8,,,,,254.96497169998474,255.6155485000927,255.6155485000927,256.11644980008714,45,315,256.11644980008714,256.11644980008714,256.11644980008714,256.11644980008714,256.11644980008714,256.11644980008714,256.11644980008714,256.11644980008714,256.11644980008714,256.46639519999735,256.46639519999735,256.46639519999735,256.46639519999735,256.46639519999735,256.46639519999735,256.46639519999735,256.46639519999735,256.46639519999735,22,0,,,256.46639519999735,256.6662785001099,3.7,256.6662785001099,1,3.7,1,1,1000,num_4,0.6362336000893265,,34,15,2026-03-13_11h23.31.763,2026A_exp2,2022.2.4,59.941293454898926,
1000,1,0.0,0.0,1,0,89,89,68,,,,,257.3341663000174,257.97649900009856,257.97649900009856,258.4690558000002,45,45,258.4690558000002,258.4690558000002,258.4690558000002,258.4690558000002,258.4690558000002,258.4690558000002,258.4690558000002,258.4690558000002,258.4690558000002,258.83545800019056,258.83545800019056,258.83545800019056,258.83545800019056,258.83545800019056,258.83545800019056,258.83545800019056,258.83545800019056,258.83545800019056,6,6,"[0.0012389000039547682, 0.06688549998216331, 0.1501499000005424, 0.18364599999040365, 0.21697239996865392, 0.2669575000181794]","[0.05024399980902672, 0.13350989995524287, 0.1668674999382347, 0.20028089988045394, 0.23361300001852214, 0.3671502999495715]",258.83545800019056,259.0376186000649,1000,259.0376186000649,1000,1000,1000,1000,1,num_2,1.0965093998238444,,34,15,2026-03-13_11h23.31.763,2026A_exp2,2022.2.4,59.941293454898926,
,,,,,,,,,,,,,,,,,,,,,,,,,,,,,,,,,,,,,,,,,,,,,,,,,,,,260.1623384000268,,,,,,,
