validity,detectorcomp,contrastCW,contrastCCW,precueCWorCCW,block_80trials.thisRepN,block_80trials.thisTrialN,block_80trials.thisN,block_80trials.thisIndex,etRecord.started,etRecord.stopped,text.started,text.stopped,text_4.started,text_4.stopped,text_6.started,text_6.stopped,oriCW,oriCCW,roi_2.started,grating_UR.started,grating_UL.started,grating_LR.started,grating_LL.started,noise_UR.started,noise_UL.started,noise_LR.started,noise_LL.started,roi_2.stopped,grating_UR.stopped,grating_UL.stopped,grating_LR.stopped,grating_LL.stopped,noise_UR.stopped,noise_UL.stopped,noise_LR.stopped,noise_LL.stopped,outframe,roi_2.numLooks,roi_2.timesOn,roi_2.timesOff,text_2.started,text_2.stopped,probedcontrast,key_resp.started,respdetect,relevantContrast,correctDetect,TorFdetect,respCWorCCW,key_resp.keys,key_resp.rt,feedback_display_.started,participantNo,blockNo,date,expName,psychopyVersion,frameRate,
1,0,0.0,6.1,1,0,0,0,5,4.529999569058418e-05,4.529999569058418e-05,47.01551259984262,49.01841359981336,49.01841359981336,49.65211799996905,49.65211799996905,50.178205699892715,45,45,50.178205699892715,50.178205699892715,50.178205699892715,50.178205699892715,50.178205699892715,50.178205699892715,50.178205699892715,50.178205699892715,50.178205699892715,50.519635199801996,50.519635199801996,50.519635199801996,50.519635199801996,50.519635199801996,50.519635199801996,50.519635199801996,50.519635199801996,50.519635199801996,23,0,,,50.519635199801996,50.72000369988382,6.1,50.72000369988382,0,6.1,1,0,1000,num_1,0.6771808001212776,,30,7,2026-03-12_10h48.51.466,2026A_exp2,2022.2.4,59.79101845586134,
1000,1,0.0,4.9,0,0,1,1,23,,,,,51.42042789980769,52.054979799780995,52.054979799780995,52.55614529992454,45,315,52.55614529992454,52.55614529992454,52.55614529992454,52.55614529992454,52.55614529992454,52.55614529992454,52.55614529992454,52.55614529992454,52.55614529992454,52.921866699820384,52.921866699820384,52.921866699820384,52.921866699820384,52.921866699820384,52.921866699820384,52.921866699820384,52.921866699820384,52.921866699820384,23,0,,,52.921866699820384,53.122474799863994,1000,53.122474799863994,1000,1000,1000,1000,1,num_2,0.5383382001891732,,30,7,2026-03-12_10h48.51.466,2026A_exp2,2022.2.4,59.79101845586134,
1000,1,0.0,0.0,0,0,2,2,2,,,,,53.68973240000196,54.340422899927944,54.340422899927944,54.82480579987168,315,315,54.82480579987168,54.82480579987168,54.82480579987168,54.82480579987168,54.82480579987168,54.82480579987168,54.82480579987168,54.82480579987168,54.82480579987168,55.19161339988932,55.19161339988932,55.19161339988932,55.19161339988932,55.19161339988932,55.19161339988932,55.19161339988932,55.19161339988932,55.19161339988932,0,1,[0.0008054999634623528],[0.3667274001054466],55.19161339988932,55.39125229977071,1000,55.39125229977071,1000,1000,1000,1000,1,num_2,0.5972386000212282,,30,7,2026-03-12_10h48.51.466,2026A_exp2,2022.2.4,59.79101845586134,
1,0,4.9,0.0,0,0,3,3,47,,,,,56.00863879988901,56.65938589978032,56.65938589978032,57.14371049986221,315,45,57.14371049986221,57.14371049986221,57.14371049986221,57.14371049986221,57.14371049986221,57.14371049986221,57.14371049986221,57.14371049986221,57.14371049986221,57.526516799815,57.526516799815,57.526516799815,57.526516799815,57.526516799815,57.526516799815,57.526516799815,57.526516799815,57.526516799815,0,1,[0.0009290000889450312],[0.3828933001495898],57.526516799815,57.726927999872714,4.9,57.726927999872714,1,4.9,1,1,1000,num_4,0.6532196002081037,,30,7,2026-03-12_10h48.51.466,2026A_exp2,2022.2.4,59.79101845586134,
0,0,4.9,6.1,1,0,4,4,70,,,,,58.41099639981985,59.04504139977507,59.04504139977507,59.54590089991689,45,315,59.54590089991689,59.54590089991689,59.54590089991689,59.54590089991689,59.54590089991689,59.54590089991689,59.54590089991689,59.54590089991689,59.54590089991689,59.912682299967855,59.912682299967855,59.912682299967855,59.912682299967855,59.912682299967855,59.912682299967855,59.912682299967855,59.912682299967855,59.912682299967855,0,1,[0.0007624002173542976],[0.3665536001790315],59.912682299967855,60.11271289992146,4.9,60.11271289992146,0,4.9,1,0,1000,num_1,0.6838175002485514,,30,7,2026-03-12_10h48.51.466,2026A_exp2,2022.2.4,59.79101845586134,
1,0,3.7,0.0,0,0,5,5,7,,,,,60.81337759993039,61.44751529977657,61.44751529977657,61.948733099969104,315,315,61.948733099969104,61.948733099969104,61.948733099969104,61.948733099969104,61.948733099969104,61.948733099969104,61.948733099969104,61.948733099969104,61.948733099969104,62.31438639992848,62.31438639992848,62.31438639992848,62.31438639992848,62.31438639992848,62.31438639992848,62.31438639992848,62.31438639992848,62.31438639992848,1,2,"[0.0007956000044941902, 0.13382470002397895]","[0.11731010000221431, 0.36671430012211204]",62.31438639992848,62.51462999987416,3.7,62.51462999987416,1,3.7,1,1,1000,num_4,0.5217425001319498,,30,7,2026-03-12_10h48.51.466,2026A_exp2,2022.2.4,59.79101845586134,
1,0,4.9,4.9,0,0,6,6,28,,,,,63.065607299795374,63.69961579982191,63.69961579982191,64.20068329991773,45,45,64.20068329991773,64.20068329991773,64.20068329991773,64.20068329991773,64.20068329991773,64.20068329991773,64.20068329991773,64.20068329991773,64.20068329991773,64.56720789987594,64.56720789987594,64.56720789987594,64.56720789987594,64.56720789987594,64.56720789987594,64.56720789987594,64.56720789987594,64.56720789987594,0,1,[0.0009298999793827534],[0.36722889984957874],64.56720789987594,64.76701059984043,4.9,64.76701059984043,1,4.9,1,1,1000,num_4,0.4218587002251297,,30,7,2026-03-12_10h48.51.466,2026A_exp2,2022.2.4,59.79101845586134,
1000,1,4.9,0.0,0,0,7,7,37,,,,,65.21794979996048,65.85200189985335,65.85200189985335,66.35273779998533,315,45,66.35273779998533,66.35273779998533,66.35273779998533,66.35273779998533,66.35273779998533,66.35273779998533,66.35273779998533,66.35273779998533,66.35273779998533,66.71882389998063,66.71882389998063,66.71882389998063,66.71882389998063,66.71882389998063,66.71882389998063,66.71882389998063,66.71882389998063,66.71882389998063,0,1,[0.0009291998576372862],[0.3666732998099178],66.71882389998063,66.91947519988753,1000,66.91947519988753,1000,1000,1000,1000,0,num_3,0.6695152001921088,,30,7,2026-03-12_10h48.51.466,2026A_exp2,2022.2.4,59.79101845586134,
1000,1,6.1,0.0,0,0,8,8,69,,,,,67.62037589983083,68.27104809996672,68.27104809996672,68.75526039977558,315,315,68.75526039977558,68.75526039977558,68.75526039977558,68.75526039977558,68.75526039977558,68.75526039977558,68.75526039977558,68.75526039977558,68.75526039977558,69.12185879983008,69.12185879983008,69.12185879983008,69.12185879983008,69.12185879983008,69.12185879983008,69.12185879983008,69.12185879983008,69.12185879983008,0,1,[0.0008160998113453388],[0.3671039999462664],69.12185879983008,69.32171159982681,1000,69.32171159982681,1000,1000,1000,1000,0,num_3,0.5866588002536446,,30,7,2026-03-12_10h48.51.466,2026A_exp2,2022.2.4,59.79101845586134,
1,0,0.0,4.9,1,0,9,9,73,,,,,69.93926129979081,70.57331619993784,70.57331619993784,71.07419559988193,45,45,71.07419559988193,71.07419559988193,71.07419559988193,71.07419559988193,71.07419559988193,71.07419559988193,71.07419559988193,71.07419559988193,71.07419559988193,71.44088729983196,71.44088729983196,71.44088729983196,71.44088729983196,71.44088729983196,71.44088729983196,71.44088729983196,71.44088729983196,71.44088729983196,0,1,[0.0007650000043213367],[0.36683670012280345],71.44088729983196,71.64113529981114,4.9,71.64113529981114,1,4.9,1,1,1000,num_4,0.4030747003853321,,30,7,2026-03-12_10h48.51.466,2026A_exp2,2022.2.4,59.79101845586134,
1,0,6.1,6.1,0,0,10,10,89,,,,,72.07488319999538,72.72517179977149,72.72517179977149,73.20933559979312,45,45,73.20933559979312,73.20933559979312,73.20933559979312,73.20933559979312,73.20933559979312,73.20933559979312,73.20933559979312,73.20933559979312,73.20933559979312,73.57600319990888,73.57600319990888,73.57600319990888,73.57600319990888,73.57600319990888,73.57600319990888,73.57600319990888,73.57600319990888,73.57600319990888,0,1,[0.0007690000347793102],[0.3679573000408709],73.57600319990888,73.77596429991536,6.1,73.77596429991536,1,6.1,1,1,1000,num_4,0.4922159002162516,,30,7,2026-03-12_10h48.51.466,2026A_exp2,2022.2.4,59.79101845586134,
1,0,0.0,0.0,1,0,11,11,20,,,,,74.29339429992251,74.92748829978518,74.92748829978518,75.42844369984232,45,315,75.42844369984232,75.42844369984232,75.42844369984232,75.42844369984232,75.42844369984232,75.42844369984232,75.42844369984232,75.42844369984232,75.42844369984232,75.79529959987849,75.79529959987849,75.79529959987849,75.79529959987849,75.79529959987849,75.79529959987849,75.79529959987849,75.79529959987849,75.79529959987849,0,1,[0.0007576001808047295],[0.3677438001614064],75.79529959987849,75.99491619993933,0.0,75.99491619993933,0,0.0,0,1,1000,num_1,0.4342056002933532,,30,7,2026-03-12_10h48.51.466,2026A_exp2,2022.2.4,59.79101845586134,
1000,1,6.1,4.9,1,0,12,12,15,,,,,76.44549409998581,77.09614619985223,77.09614619985223,77.5970634999685,315,315,77.5970634999685,77.5970634999685,77.5970634999685,77.5970634999685,77.5970634999685,77.5970634999685,77.5970634999685,77.5970634999685,77.5970634999685,77.9469188998919,77.9469188998919,77.9469188998919,77.9469188998919,77.9469188998919,77.9469188998919,77.9469188998919,77.9469188998919,77.9469188998919,0,1,[0.0007295999675989151],[0.35127800004556775],77.9469188998919,78.14745579985902,1000,78.14745579985902,1000,1000,1000,1000,1,num_2,0.7212528001982719,,30,7,2026-03-12_10h48.51.466,2026A_exp2,2022.2.4,59.79101845586134,
1,0,0.0,0.0,1,0,13,13,66,,,,,78.89831369998865,79.54920109990053,79.54920109990053,80.03324649995193,315,45,80.03324649995193,80.03324649995193,80.03324649995193,80.03324649995193,80.03324649995193,80.03324649995193,80.03324649995193,80.03324649995193,80.03324649995193,80.39944269997068,80.39944269997068,80.39944269997068,80.39944269997068,80.39944269997068,80.39944269997068,80.39944269997068,80.39944269997068,80.39944269997068,0,1,[0.0008423000108450651],[0.3669155000243336],80.39944269997068,80.59978819987737,0.0,80.59978819987737,0,0.0,0,1,1000,num_1,0.26127010001800954,,30,7,2026-03-12_10h48.51.466,2026A_exp2,2022.2.4,59.79101845586134,
0,0,4.9,0.0,1,0,14,14,26,,,,,80.88338219979778,81.51735239988193,81.51735239988193,82.01932179997675,315,45,82.01932179997675,82.01932179997675,82.01932179997675,82.01932179997675,82.01932179997675,82.01932179997675,82.01932179997675,82.01932179997675,82.01932179997675,82.38478219998069,82.38478219998069,82.38478219998069,82.38478219998069,82.38478219998069,82.38478219998069,82.38478219998069,82.38478219998069,82.38478219998069,1,2,"[0.0009314999915659428, 0.06758869998157024]","[0.05080539989285171, 0.3675247998908162]",82.38478219998069,82.58509199996479,4.9,82.58509199996479,1,4.9,1,1,1000,num_4,0.47597040026448667,,30,7,2026-03-12_10h48.51.466,2026A_exp2,2022.2.4,59.79101845586134,
0,0,6.1,6.1,1,0,15,15,48,,,,,83.08582819998264,83.7363057998009,83.7363057998009,84.2208127998747,45,315,84.2208127998747,84.2208127998747,84.2208127998747,84.2208127998747,84.2208127998747,84.2208127998747,84.2208127998747,84.2208127998747,84.2208127998747,84.58725729980506,84.58725729980506,84.58725729980506,84.58725729980506,84.58725729980506,84.58725729980506,84.58725729980506,84.58725729980506,84.58725729980506,0,1,[0.0009846000466495752],[0.36711809993721545],84.58725729980506,84.78753419988789,6.1,84.78753419988789,1,6.1,1,1,1000,num_4,0.5374060000758618,,30,7,2026-03-12_10h48.51.466,2026A_exp2,2022.2.4,59.79101845586134,
1000,1,6.1,6.1,0,0,16,16,87,,,,,85.35475819977,85.98890989995562,85.98890989995562,86.48988549993373,315,315,86.48988549993373,86.48988549993373,86.48988549993373,86.48988549993373,86.48988549993373,86.48988549993373,86.48988549993373,86.48988549993373,86.48988549993373,86.85598449991085,86.85598449991085,86.85598449991085,86.85598449991085,86.85598449991085,86.85598449991085,86.85598449991085,86.85598449991085,86.85598449991085,0,1,[0.0008065998554229736],[0.36749579990282655],86.85598449991085,87.0563939998392,1000,87.0563939998392,1000,1000,1000,1000,1,num_2,0.7560570002533495,,30,7,2026-03-12_10h48.51.466,2026A_exp2,2022.2.4,59.79101845586134,
1000,1,4.9,0.0,1,0,17,17,74,,,,,87.84053759998642,88.47455959999934,88.47455959999934,88.9751971999649,45,45,88.9751971999649,88.9751971999649,88.9751971999649,88.9751971999649,88.9751971999649,88.9751971999649,88.9751971999649,88.9751971999649,88.9751971999649,89.34173349989578,89.34173349989578,89.34173349989578,89.34173349989578,89.34173349989578,89.34173349989578,89.34173349989578,89.34173349989578,89.34173349989578,0,1,[0.0007615999784320593],[0.36726589989848435],89.34173349989578,89.54178589978255,1000,89.54178589978255,1000,1000,1000,1000,0,num_3,0.5827600001357496,,30,7,2026-03-12_10h48.51.466,2026A_exp2,2022.2.4,59.79101845586134,
1000,1,0.0,3.7,0,0,18,18,50,,,,,90.14268079982139,90.79336139978841,90.79336139978841,91.29464459978044,45,45,91.29464459978044,91.29464459978044,91.29464459978044,91.29464459978044,91.29464459978044,91.29464459978044,91.29464459978044,91.29464459978044,91.29464459978044,91.66104549984448,91.66104549984448,91.66104549984448,91.66104549984448,91.66104549984448,91.66104549984448,91.66104549984448,91.66104549984448,91.66104549984448,0,1,[0.001066500088199973],[0.36702720005996525],91.66104549984448,91.86092359991744,1000,91.86092359991744,1000,1000,1000,1000,1,num_2,0.5994910004083067,,30,7,2026-03-12_10h48.51.466,2026A_exp2,2022.2.4,59.79101845586134,
1,0,0.0,0.0,1,0,19,19,4,,,,,92.47857019980438,93.12920039985329,93.12920039985329,93.63012499990873,45,45,93.63012499990873,93.63012499990873,93.63012499990873,93.63012499990873,93.63012499990873,93.63012499990873,93.63012499990873,93.63012499990873,93.63012499990873,93.99653859995306,93.99653859995306,93.99653859995306,93.99653859995306,93.99653859995306,93.99653859995306,93.99653859995306,93.99653859995306,93.99653859995306,0,1,[0.0007776999846100807],[0.3675019999500364],93.99653859995306,94.19682839978486,0.0,94.19682839978486,0,0.0,0,1,1000,num_1,0.47223800024949014,,30,7,2026-03-12_10h48.51.466,2026A_exp2,2022.2.4,59.79101845586134,
1,0,6.1,0.0,1,0,20,20,17,,,,,94.69716019998305,95.33118619979359,95.33118619979359,95.83240329986438,315,45,95.83240329986438,95.83240329986438,95.83240329986438,95.83240329986438,95.83240329986438,95.83240329986438,95.83240329986438,95.83240329986438,95.83240329986438,96.19864099984989,96.19864099984989,96.19864099984989,96.19864099984989,96.19864099984989,96.19864099984989,96.19864099984989,96.19864099984989,96.19864099984989,0,1,[0.0007755998522043228],[0.3672223000321537],96.19864099984989,96.39891279977746,0.0,96.39891279977746,0,0.0,0,1,1000,num_1,0.9096739001106471,,30,7,2026-03-12_10h48.51.466,2026A_exp2,2022.2.4,59.79101845586134,
1,0,3.7,0.0,0,0,21,21,3,,,,,97.33333569997922,97.9670536997728,97.9670536997728,98.46809029998258,315,315,98.46809029998258,98.46809029998258,98.46809029998258,98.46809029998258,98.46809029998258,98.46809029998258,98.46809029998258,98.46809029998258,98.46809029998258,98.83470339979976,98.83470339979976,98.83470339979976,98.83470339979976,98.83470339979976,98.83470339979976,98.83470339979976,98.83470339979976,98.83470339979976,0,1,[0.0007660998962819576],[0.3677898000460118],98.83470339979976,99.03496049996465,3.7,99.03496049996465,0,3.7,1,0,1000,num_1,0.35346730006858706,,30,7,2026-03-12_10h48.51.466,2026A_exp2,2022.2.4,59.79101845586134,
1,0,0.0,0.0,0,0,22,22,32,,,,,99.41850659996271,100.06892369990237,100.06892369990237,100.55349589977413,45,315,100.55349589977413,100.55349589977413,100.55349589977413,100.55349589977413,100.55349589977413,100.55349589977413,100.55349589977413,100.55349589977413,100.55349589977413,100.92000559996814,100.92000559996814,100.92000559996814,100.92000559996814,100.92000559996814,100.92000559996814,100.92000559996814,100.92000559996814,100.92000559996814,0,1,[0.0007650000043213367],[0.36772689991630614],100.92000559996814,101.12037739995867,0.0,101.12037739995867,0,0.0,0,1,1000,num_1,0.5159666002728045,,30,7,2026-03-12_10h48.51.466,2026A_exp2,2022.2.4,59.79101845586134,
1,0,3.7,0.0,0,0,23,23,10,,,,,101.65430759987794,102.28850239980966,102.28850239980966,102.78941789991222,315,315,102.78941789991222,102.78941789991222,102.78941789991222,102.78941789991222,102.78941789991222,102.78941789991222,102.78941789991222,102.78941789991222,102.78941789991222,103.15607299981639,103.15607299981639,103.15607299981639,103.15607299981639,103.15607299981639,103.15607299981639,103.15607299981639,103.15607299981639,103.15607299981639,0,1,[0.0008327001705765724],[0.3673771000467241],103.15607299981639,103.35625249985605,3.7,103.35625249985605,1,3.7,1,1,1000,num_4,0.9683556002564728,,30,7,2026-03-12_10h48.51.466,2026A_exp2,2022.2.4,59.79101845586134,
0,0,6.1,4.9,1,0,24,24,42,,,,,104.35692709987052,104.99085779977031,104.99085779977031,105.49199439981021,315,315,105.49199439981021,105.49199439981021,105.49199439981021,105.49199439981021,105.49199439981021,105.49199439981021,105.49199439981021,105.49199439981021,105.49199439981021,105.85851329984143,105.85851329984143,105.85851329984143,105.85851329984143,105.85851329984143,105.85851329984143,105.85851329984143,105.85851329984143,105.85851329984143,3,1,[0.0007482001092284918],[0.3340197999496013],105.85851329984143,106.05871489993297,6.1,106.05871489993297,1,6.1,1,1,1000,num_4,0.9061092003248632,,30,7,2026-03-12_10h48.51.466,2026A_exp2,2022.2.4,59.79101845586134,
1000,1,0.0,0.0,0,0,25,25,13,,,,,106.99297689995728,107.62670139991678,107.62670139991678,108.12844949983992,45,45,108.12844949983992,108.12844949983992,108.12844949983992,108.12844949983992,108.12844949983992,108.12844949983992,108.12844949983992,108.12844949983992,108.12844949983992,108.49432669999078,108.49432669999078,108.49432669999078,108.49432669999078,108.49432669999078,108.49432669999078,108.49432669999078,108.49432669999078,108.49432669999078,1,2,"[0.0011823999229818583, 0.11667359992861748]","[0.10023849993012846, 0.3673902000300586]",108.49432669999078,108.69470529980026,1000,108.69470529980026,1000,1000,1000,1000,1,num_2,0.7583738001994789,,30,7,2026-03-12_10h48.51.466,2026A_exp2,2022.2.4,59.79101845586134,
1,0,0.0,0.0,1,0,26,26,59,,,,,109.47861039987765,110.12928209989332,110.12928209989332,110.63047069986351,45,315,110.63047069986351,110.63047069986351,110.63047069986351,110.63047069986351,110.63047069986351,110.63047069986351,110.63047069986351,110.63047069986351,110.63047069986351,110.98004289995879,110.98004289995879,110.98004289995879,110.98004289995879,110.98004289995879,110.98004289995879,110.98004289995879,110.98004289995879,110.98004289995879,1,2,"[0.001261299941688776, 0.0998877000529319]","[0.08338900003582239, 0.3508482000324875]",110.98004289995879,111.18018959998153,0.0,111.18018959998153,0,0.0,0,1,1000,num_1,0.33617920032702386,,30,7,2026-03-12_10h48.51.466,2026A_exp2,2022.2.4,59.79101845586134,
0,0,0.0,0.0,1,0,27,27,80,,,,,111.54700949997641,112.18127409997396,112.18127409997396,112.68235119991004,315,315,112.68235119991004,112.68235119991004,112.68235119991004,112.68235119991004,112.68235119991004,112.68235119991004,112.68235119991004,112.68235119991004,112.68235119991004,113.04890249995515,113.04890249995515,113.04890249995515,113.04890249995515,113.04890249995515,113.04890249995515,113.04890249995515,113.04890249995515,113.04890249995515,0,1,[0.0007972999010235071],[0.36772449989803135],113.04890249995515,113.2490824998822,0.0,113.2490824998822,0,0.0,0,1,1000,num_1,0.6915467004291713,,30,7,2026-03-12_10h48.51.466,2026A_exp2,2022.2.4,59.79101845586134,
1000,1,3.7,0.0,1,0,28,28,38,,,,,113.96614849986508,114.60065289982595,114.60065289982595,115.10136049985886,315,315,115.10136049985886,115.10136049985886,115.10136049985886,115.10136049985886,115.10136049985886,115.10136049985886,115.10136049985886,115.10136049985886,115.10136049985886,115.46758539997973,115.46758539997973,115.46758539997973,115.46758539997973,115.46758539997973,115.46758539997973,115.46758539997973,115.46758539997973,115.46758539997973,2,3,"[0.0009200000204145908, 0.28332770010456443, 0.316702299984172]","[0.266915800049901, 0.3000227001029998, 0.3665764001198113]",115.46758539997973,115.66833299980499,1000,115.66833299980499,1000,1000,1000,1000,0,num_3,0.9364593003410846,,30,7,2026-03-12_10h48.51.466,2026A_exp2,2022.2.4,59.79101845586134,
1000,1,3.7,4.9,0,0,29,29,25,,,,,116.63576729991473,117.269873799989,117.269873799989,117.77108069998212,45,315,117.77108069998212,117.77108069998212,117.77108069998212,117.77108069998212,117.77108069998212,117.77108069998212,117.77108069998212,117.77108069998212,117.77108069998212,118.13818559981883,118.13818559981883,118.13818559981883,118.13818559981883,118.13818559981883,118.13818559981883,118.13818559981883,118.13818559981883,118.13818559981883,2,2,"[0.0007321001030504704, 0.2508937001693994]","[0.2179515000898391, 0.36852610018104315]",118.13818559981883,118.33845139993355,1000,118.33845139993355,1000,1000,1000,1000,1,num_2,0.7624960001558065,,30,7,2026-03-12_10h48.51.466,2026A_exp2,2022.2.4,59.79101845586134,
1000,1,6.1,6.1,1,0,30,30,53,,,,,119.12219679984264,119.77240909985267,119.77240909985267,120.27323429984972,315,315,120.27323429984972,120.27323429984972,120.27323429984972,120.27323429984972,120.27323429984972,120.27323429984972,120.27323429984972,120.27323429984972,120.27323429984972,120.63974519982003,120.63974519982003,120.63974519982003,120.63974519982003,120.63974519982003,120.63974519982003,120.63974519982003,120.63974519982003,120.63974519982003,2,1,[0.0007476999890059233],[0.3505245998967439],120.63974519982003,120.84040929982439,1000,120.84040929982439,1000,1000,1000,1000,1,num_2,0.5086154001764953,,30,7,2026-03-12_10h48.51.466,2026A_exp2,2022.2.4,59.79101845586134,
1000,1,0.0,0.0,1,0,31,31,68,,,,,121.3742278998252,122.0081254998222,122.0081254998222,122.51036129985005,315,315,122.51036129985005,122.51036129985005,122.51036129985005,122.51036129985005,122.51036129985005,122.51036129985005,122.51036129985005,122.51036129985005,122.51036129985005,122.87583949998952,122.87583949998952,122.87583949998952,122.87583949998952,122.87583949998952,122.87583949998952,122.87583949998952,122.87583949998952,122.87583949998952,15,3,"[0.10140669997781515, 0.25025680009275675, 0.3009803001768887]","[0.11688650003634393, 0.28395380009897053, 0.367011200170964]",122.87583949998952,123.07665339997038,1000,123.07665339997038,1000,1000,1000,1000,1,num_2,0.47211030032485723,,30,7,2026-03-12_10h48.51.466,2026A_exp2,2022.2.4,59.79101845586134,
0,0,3.7,3.7,1,0,32,32,62,,,,,123.57659989991225,124.22660860000178,124.22660860000178,124.7113997999113,45,315,124.7113997999113,124.7113997999113,124.7113997999113,124.7113997999113,124.7113997999113,124.7113997999113,124.7113997999113,124.7113997999113,124.7113997999113,125.07724569994025,125.07724569994025,125.07724569994025,125.07724569994025,125.07724569994025,125.07724569994025,125.07724569994025,125.07724569994025,125.07724569994025,0,1,[0.0008960999548435211],[0.3667433999944478],125.07724569994025,125.27815449982882,3.7,125.27815449982882,1,3.7,1,1,1000,num_4,0.6624794001691043,,30,7,2026-03-12_10h48.51.466,2026A_exp2,2022.2.4,59.79101845586134,
1000,1,4.9,0.0,1,0,33,33,56,,,,,125.96197229996324,126.61238999990746,126.61238999990746,127.09678119979799,45,45,127.09678119979799,127.09678119979799,127.09678119979799,127.09678119979799,127.09678119979799,127.09678119979799,127.09678119979799,127.09678119979799,127.09678119979799,127.46299119992182,127.46299119992182,127.46299119992182,127.46299119992182,127.46299119992182,127.46299119992182,127.46299119992182,127.46299119992182,127.46299119992182,7,2,"[0.0007509998977184296, 0.050598799949511886]","[0.03402819996699691, 0.2839840999804437]",127.46299119992182,127.66404979978688,1000,127.66404979978688,1000,1000,1000,1000,0,num_3,0.652137600351125,,30,7,2026-03-12_10h48.51.466,2026A_exp2,2022.2.4,59.79101845586134,
1000,1,6.1,4.9,1,0,34,34,86,,,,,128.3474616999738,128.9817159997765,128.9817159997765,129.4831780998502,45,315,129.4831780998502,129.4831780998502,129.4831780998502,129.4831780998502,129.4831780998502,129.4831780998502,129.4831780998502,129.4831780998502,129.4831780998502,129.84903119993396,129.84903119993396,129.84903119993396,129.84903119993396,129.84903119993396,129.84903119993396,129.84903119993396,129.84903119993396,129.84903119993396,0,1,[0.0008153000380843878],[0.36722059990279377],129.84903119993396,130.0501102998387,1000,130.0501102998387,1000,1000,1000,1000,0,num_3,0.8423302003648132,,30,7,2026-03-12_10h48.51.466,2026A_exp2,2022.2.4,59.79101845586134,
1000,1,0.0,4.9,1,0,35,35,57,,,,,130.9168354999274,131.5672985999845,131.5672985999845,132.05181839992292,45,45,132.05181839992292,132.05181839992292,132.05181839992292,132.05181839992292,132.05181839992292,132.05181839992292,132.05181839992292,132.05181839992292,132.05181839992292,132.41807229979895,132.41807229979895,132.41807229979895,132.41807229979895,132.41807229979895,132.41807229979895,132.41807229979895,132.41807229979895,132.41807229979895,0,1,[0.0007952998857945204],[0.3669845999684185],132.41807229979895,132.61847749981098,1000,132.61847749981098,1000,1000,1000,1000,1,num_2,0.4420569003559649,,30,7,2026-03-12_10h48.51.466,2026A_exp2,2022.2.4,59.79101845586134,
1000,1,0.0,0.0,1,0,36,36,34,,,,,133.0858566998504,133.73634859989397,133.73634859989397,134.22095199977048,315,315,134.22095199977048,134.22095199977048,134.22095199977048,134.22095199977048,134.22095199977048,134.22095199977048,134.22095199977048,134.22095199977048,134.22095199977048,134.58722829981707,134.58722829981707,134.58722829981707,134.58722829981707,134.58722829981707,134.58722829981707,134.58722829981707,134.58722829981707,134.58722829981707,0,1,[0.0009326001163572073],[0.3669143000151962],134.58722829981707,134.7870239999611,1000,134.7870239999611,1000,1000,1000,1000,1,num_2,0.5293343001976609,,30,7,2026-03-12_10h48.51.466,2026A_exp2,2022.2.4,59.79101845586134,
1,0,0.0,0.0,0,0,37,37,85,,,,,135.33796649985015,135.9721177997999,135.9721177997999,136.47300939983688,315,45,136.47300939983688,136.47300939983688,136.47300939983688,136.47300939983688,136.47300939983688,136.47300939983688,136.47300939983688,136.47300939983688,136.47300939983688,136.83944739983417,136.83944739983417,136.83944739983417,136.83944739983417,136.83944739983417,136.83944739983417,136.83944739983417,136.83944739983417,136.83944739983417,0,1,[0.0007307999767363071],[0.36725979996845126],136.83944739983417,137.0397762998473,0.0,137.0397762998473,0,0.0,0,1,1000,num_1,0.42123770038597286,,30,7,2026-03-12_10h48.51.466,2026A_exp2,2022.2.4,59.79101845586134,
1,0,6.1,3.7,1,0,38,38,83,,,,,137.49038759991527,138.1241691999603,138.1241691999603,138.6251479999628,45,315,138.6251479999628,138.6251479999628,138.6251479999628,138.6251479999628,138.6251479999628,138.6251479999628,138.6251479999628,138.6251479999628,138.6251479999628,138.99143549986184,138.99143549986184,138.99143549986184,138.99143549986184,138.99143549986184,138.99143549986184,138.99143549986184,138.99143549986184,138.99143549986184,23,0,,,138.99143549986184,139.19190929993056,3.7,139.19190929993056,1,3.7,1,1,1000,num_4,0.5888513003010303,,30,7,2026-03-12_10h48.51.466,2026A_exp2,2022.2.4,59.79101845586134,
1,0,0.0,4.9,1,0,39,39,41,,,,,139.80899819987826,140.44319909997284,140.44319909997284,140.9440860999748,45,315,140.9440860999748,140.9440860999748,140.9440860999748,140.9440860999748,140.9440860999748,140.9440860999748,140.9440860999748,140.9440860999748,140.9440860999748,141.31042319978587,141.31042319978587,141.31042319978587,141.31042319978587,141.31042319978587,141.31042319978587,141.31042319978587,141.31042319978587,141.31042319978587,8,1,[0.0007752999663352966],[0.25055360002443194],141.31042319978587,141.51079559978098,4.9,141.51079559978098,1,4.9,1,1,1000,num_4,0.37368850014172494,,30,7,2026-03-12_10h48.51.466,2026A_exp2,2022.2.4,59.79101845586134,
1000,1,4.9,0.0,0,0,40,40,45,,,,,141.91103469999507,142.54493329999968,142.54493329999968,143.04680389980786,315,45,143.04680389980786,143.04680389980786,143.04680389980786,143.04680389980786,143.04680389980786,143.04680389980786,143.04680389980786,143.04680389980786,143.04680389980786,143.41262709978037,143.41262709978037,143.41262709978037,143.41262709978037,143.41262709978037,143.41262709978037,143.41262709978037,143.41262709978037,143.41262709978037,1,2,"[0.0010341000743210316, 0.1334142000414431]","[0.11690420005470514, 0.36705060000531375]",143.41262709978037,143.6130568999797,1000,143.6130568999797,1000,1000,1000,1000,0,num_3,0.5361156002618372,,30,7,2026-03-12_10h48.51.466,2026A_exp2,2022.2.4,59.79101845586134,
1000,1,0.0,0.0,1,0,41,41,35,,,,,144.1803443999961,144.8308547998313,144.8308547998313,145.31530669983476,315,315,145.31530669983476,145.31530669983476,145.31530669983476,145.31530669983476,145.31530669983476,145.31530669983476,145.31530669983476,145.31530669983476,145.31530669983476,145.68158889980987,145.68158889980987,145.68158889980987,145.68158889980987,145.68158889980987,145.68158889980987,145.68158889980987,145.68158889980987,145.68158889980987,0,1,[0.0009441999718546867],[0.36687539983540773],145.68158889980987,145.8818543998059,1000,145.8818543998059,1000,1000,1000,1000,1,num_2,0.554644700139761,,30,7,2026-03-12_10h48.51.466,2026A_exp2,2022.2.4,59.79101845586134,
1,0,0.0,0.0,0,0,42,42,6,,,,,146.46630079997703,147.11587469978258,147.11587469978258,147.6173346999567,315,315,147.6173346999567,147.6173346999567,147.6173346999567,147.6173346999567,147.6173346999567,147.6173346999567,147.6173346999567,147.6173346999567,147.6173346999567,147.9676164998673,147.9676164998673,147.9676164998673,147.9676164998673,147.9676164998673,147.9676164998673,147.9676164998673,147.9676164998673,147.9676164998673,4,4,"[0.0009021998848766088, 0.06683439994230866, 0.15004569990560412, 0.26676329993642867]","[0.049975299974903464, 0.13333220011554658, 0.23348339996300638, 0.3511532999109477]",147.9676164998673,148.16732539981604,0.0,148.16732539981604,0,0.0,0,1,1000,num_1,0.6056127001065761,,30,7,2026-03-12_10h48.51.466,2026A_exp2,2022.2.4,59.79101845586134,
1,0,0.0,3.7,0,0,43,43,64,,,,,148.80138829979114,149.45204669982195,149.45204669982195,149.93631319981068,45,45,149.93631319981068,149.93631319981068,149.93631319981068,149.93631319981068,149.93631319981068,149.93631319981068,149.93631319981068,149.93631319981068,149.93631319981068,150.30268069985323,150.30268069985323,150.30268069985323,150.30268069985323,150.30268069985323,150.30268069985323,150.30268069985323,150.30268069985323,150.30268069985323,0,1,[0.0007620998658239841],[0.3673458998091519],150.30268069985323,150.5030474998057,0.0,150.5030474998057,1,0.0,0,0,1000,num_4,0.49353560036979616,,30,7,2026-03-12_10h48.51.466,2026A_exp2,2022.2.4,59.79101845586134,
1,0,0.0,0.0,0,0,44,44,11,,,,,151.02049979986623,151.67106249998324,151.67106249998324,152.15557269984856,45,45,152.15557269984856,152.15557269984856,152.15557269984856,152.15557269984856,152.15557269984856,152.15557269984856,152.15557269984856,152.15557269984856,152.15557269984856,152.52190629998222,152.52190629998222,152.52190629998222,152.52190629998222,152.52190629998222,152.52190629998222,152.52190629998222,152.52190629998222,152.52190629998222,0,1,[0.0009521001484245062],[0.3659143000841141],152.52190629998222,152.7221803998109,0.0,152.7221803998109,0,0.0,0,1,1000,num_1,0.3542932004202157,,30,7,2026-03-12_10h48.51.466,2026A_exp2,2022.2.4,59.79101845586134,
1000,1,0.0,0.0,1,0,45,45,44,,,,,153.1056945999153,153.73980989982374,153.73980989982374,154.24072259990498,315,45,154.24072259990498,154.24072259990498,154.24072259990498,154.24072259990498,154.24072259990498,154.24072259990498,154.24072259990498,154.24072259990498,154.24072259990498,154.607260099845,154.607260099845,154.607260099845,154.607260099845,154.607260099845,154.607260099845,154.607260099845,154.607260099845,154.607260099845,21,1,[0.21686120005324483],[0.2504823000635952],154.607260099845,154.8073825999163,1000,154.8073825999163,1000,1000,1000,1000,1,num_2,0.6848508003167808,,30,7,2026-03-12_10h48.51.466,2026A_exp2,2022.2.4,59.79101845586134,
1000,1,0.0,3.7,1,0,46,46,67,,,,,155.50810619979165,156.14198029995896,156.14198029995896,156.64292829995975,45,315,156.64292829995975,156.64292829995975,156.64292829995975,156.64292829995975,156.64292829995975,156.64292829995975,156.64292829995975,156.64292829995975,156.64292829995975,157.00931399990804,157.00931399990804,157.00931399990804,157.00931399990804,157.00931399990804,157.00931399990804,157.00931399990804,157.00931399990804,157.00931399990804,1,2,"[0.0007521999068558216, 0.049863999942317605]","[0.03335809987038374, 0.36712059983983636]",157.00931399990804,157.21027209982276,1000,157.21027209982276,1000,1000,1000,1000,1,num_2,0.5699042002670467,,30,7,2026-03-12_10h48.51.466,2026A_exp2,2022.2.4,59.79101845586134,
1,0,4.9,6.1,1,0,47,47,36,,,,,157.81005999981426,158.46097489981912,158.46097489981912,158.9455967999529,315,45,158.9455967999529,158.9455967999529,158.9455967999529,158.9455967999529,158.9455967999529,158.9455967999529,158.9455967999529,158.9455967999529,158.9455967999529,159.3116484999191,159.3116484999191,159.3116484999191,159.3116484999191,159.3116484999191,159.3116484999191,159.3116484999191,159.3116484999191,159.3116484999191,1,2,"[0.0007550998125225306, 0.1003176998347044]","[0.08379999990575016, 0.3671936998143792]",159.3116484999191,159.5121191998478,6.1,159.5121191998478,1,6.1,1,1,1000,num_4,0.4044417003169656,,30,7,2026-03-12_10h48.51.466,2026A_exp2,2022.2.4,59.79101845586134,
1000,1,0.0,4.9,1,0,48,48,72,,,,,159.94578369986266,160.57975839986466,160.57975839986466,161.08054309990257,315,45,161.08054309990257,161.08054309990257,161.08054309990257,161.08054309990257,161.08054309990257,161.08054309990257,161.08054309990257,161.08054309990257,161.08054309990257,161.4469503997825,161.4469503997825,161.4469503997825,161.4469503997825,161.4469503997825,161.4469503997825,161.4469503997825,161.4469503997825,161.4469503997825,23,0,,,161.4469503997825,161.64756049984135,1000,161.64756049984135,1000,1000,1000,1000,1,num_2,0.7093691001646221,,30,7,2026-03-12_10h48.51.466,2026A_exp2,2022.2.4,59.79101845586134,
1,0,3.7,0.0,0,0,49,49,9,,,,,162.38230649987236,163.0318620998878,163.0318620998878,163.53341429983266,45,45,163.53341429983266,163.53341429983266,163.53341429983266,163.53341429983266,163.53341429983266,163.53341429983266,163.53341429983266,163.53341429983266,163.53341429983266,163.899669499835,163.899669499835,163.899669499835,163.899669499835,163.899669499835,163.899669499835,163.899669499835,163.899669499835,163.899669499835,1,2,"[0.0007474001031368971, 0.33381920005194843]","[0.3169646000023931, 0.3670562000479549]",163.899669499835,164.09998879977502,3.7,164.09998879977502,1,3.7,1,1,1000,num_4,0.5771176002454013,,30,7,2026-03-12_10h48.51.466,2026A_exp2,2022.2.4,59.79101845586134,
1000,1,3.7,0.0,1,0,50,50,78,,,,,164.70037689991295,165.33459759992547,165.33459759992547,165.83607339998707,315,45,165.83607339998707,165.83607339998707,165.83607339998707,165.83607339998707,165.83607339998707,165.83607339998707,165.83607339998707,165.83607339998707,165.83607339998707,166.2022185998503,166.2022185998503,166.2022185998503,166.2022185998503,166.2022185998503,166.2022185998503,166.2022185998503,166.2022185998503,166.2022185998503,8,1,[0.0007674000225961208],[0.25061230012215674],166.2022185998503,166.4024070999585,1000,166.4024070999585,1000,1000,1000,1000,0,num_3,0.5783976002130657,,30,7,2026-03-12_10h48.51.466,2026A_exp2,2022.2.4,59.79101845586134,
1,0,6.1,3.7,1,0,51,51,16,,,,,167.0030684999656,167.65372699988075,167.65372699988075,168.13794709998183,45,315,168.13794709998183,168.13794709998183,168.13794709998183,168.13794709998183,168.13794709998183,168.13794709998183,168.13794709998183,168.13794709998183,168.13794709998183,168.5044748999644,168.5044748999644,168.5044748999644,168.5044748999644,168.5044748999644,168.5044748999644,168.5044748999644,168.5044748999644,168.5044748999644,0,1,[0.0010535998735576868],[0.36658879998140037],168.5044748999644,168.70425319997594,3.7,168.70425319997594,1,3.7,1,1,1000,num_4,0.6600590001326054,,30,7,2026-03-12_10h48.51.466,2026A_exp2,2022.2.4,59.79101845586134,
1,0,0.0,3.7,0,0,52,52,76,,,,,169.38902849983424,170.02260599983856,170.02260599983856,170.524070299929,315,45,170.524070299929,170.524070299929,170.524070299929,170.524070299929,170.524070299929,170.524070299929,170.524070299929,170.524070299929,170.524070299929,170.8898590998724,170.8898590998724,170.8898590998724,170.8898590998724,170.8898590998724,170.8898590998724,170.8898590998724,170.8898590998724,170.8898590998724,2,2,"[0.0009363000281155109, 0.2500674999319017]","[0.23329939995892346, 0.3669523000717163]",170.8898590998724,171.0902089998126,0.0,171.0902089998126,0,0.0,0,1,1000,num_1,0.6020009003113955,,30,7,2026-03-12_10h48.51.466,2026A_exp2,2022.2.4,59.79101845586134,
1,0,0.0,3.7,0,0,53,53,31,,,,,171.72458079992794,172.37489649979398,172.37489649979398,172.85935879987665,315,315,172.85935879987665,172.85935879987665,172.85935879987665,172.85935879987665,172.85935879987665,172.85935879987665,172.85935879987665,172.85935879987665,172.85935879987665,173.22572759981267,173.22572759981267,173.22572759981267,173.22572759981267,173.22572759981267,173.22572759981267,173.22572759981267,173.22572759981267,173.22572759981267,2,1,[0.0007728999480605125],[0.35071619995869696],173.22572759981267,173.42597299977206,0.0,173.42597299977206,0,0.0,0,1,1000,num_1,1.394480800256133,,30,7,2026-03-12_10h48.51.466,2026A_exp2,2022.2.4,59.79101845586134,
1,0,6.1,0.0,0,0,54,54,77,,,,,174.8439168999903,175.47808719985187,175.47808719985187,175.97875239979476,45,315,175.97875239979476,175.97875239979476,175.97875239979476,175.97875239979476,175.97875239979476,175.97875239979476,175.97875239979476,175.97875239979476,175.97875239979476,176.34549539978616,176.34549539978616,176.34549539978616,176.34549539978616,176.34549539978616,176.34549539978616,176.34549539978616,176.34549539978616,176.34549539978616,23,0,,,176.34549539978616,176.54533869982697,6.1,176.54533869982697,1,6.1,1,1,1000,num_4,0.8433906002901495,,30,7,2026-03-12_10h48.51.466,2026A_exp2,2022.2.4,59.79101845586134,
0,0,0.0,0.0,1,0,55,55,14,,,,,177.41346879978664,178.04750529979356,178.04750529979356,178.54849599977024,315,315,178.54849599977024,178.54849599977024,178.54849599977024,178.54849599977024,178.54849599977024,178.54849599977024,178.54849599977024,178.54849599977024,178.54849599977024,178.9146476997994,178.9146476997994,178.9146476997994,178.9146476997994,178.9146476997994,178.9146476997994,178.9146476997994,178.9146476997994,178.9146476997994,23,0,,,178.9146476997994,179.11456619994715,0.0,179.11456619994715,0,0.0,0,1,1000,num_1,0.5299326002132148,,30,7,2026-03-12_10h48.51.466,2026A_exp2,2022.2.4,59.79101845586134,
1000,1,0.0,0.0,1,0,56,56,63,,,,,179.66584919998422,180.29943509981968,180.29943509981968,180.80053199990653,45,45,180.80053199990653,180.80053199990653,180.80053199990653,180.80053199990653,180.80053199990653,180.80053199990653,180.80053199990653,180.80053199990653,180.80053199990653,181.1670059999451,181.1670059999451,181.1670059999451,181.1670059999451,181.1670059999451,181.1670059999451,181.1670059999451,181.1670059999451,181.1670059999451,0,1,[0.0008375998586416245],[0.3670021998696029],181.1670059999451,181.3673635998275,1000,181.3673635998275,1000,1000,1000,1000,1,num_2,1.0054851002059877,,30,7,2026-03-12_10h48.51.466,2026A_exp2,2022.2.4,59.79101845586134,
1000,1,0.0,0.0,0,0,57,57,79,,,,,182.40187709988095,183.05216789990664,183.05216789990664,183.537268999964,315,315,183.537268999964,183.537268999964,183.537268999964,183.537268999964,183.537268999964,183.537268999964,183.537268999964,183.537268999964,183.537268999964,183.90311379986815,183.90311379986815,183.90311379986815,183.90311379986815,183.90311379986815,183.90311379986815,183.90311379986815,183.90311379986815,183.90311379986815,23,0,,,183.90311379986815,184.10315389977768,1000,184.10315389977768,1000,1000,1000,1000,1,num_2,0.6374552000779659,,30,7,2026-03-12_10h48.51.466,2026A_exp2,2022.2.4,59.79101845586134,
1,0,6.1,6.1,1,0,58,58,49,,,,,184.77064959984273,185.4216037997976,185.4216037997976,185.9058711999096,45,315,185.9058711999096,185.9058711999096,185.9058711999096,185.9058711999096,185.9058711999096,185.9058711999096,185.9058711999096,185.9058711999096,185.9058711999096,186.27220689994283,186.27220689994283,186.27220689994283,186.27220689994283,186.27220689994283,186.27220689994283,186.27220689994283,186.27220689994283,186.27220689994283,23,0,,,186.27220689994283,186.47267049993388,6.1,186.47267049993388,1,6.1,1,1,1000,num_4,0.4600933000911027,,30,7,2026-03-12_10h48.51.466,2026A_exp2,2022.2.4,59.79101845586134,
1,0,0.0,3.7,1,0,59,59,30,,,,,186.95615299977362,187.59017469990067,187.59017469990067,188.09123369981535,45,315,188.09123369981535,188.09123369981535,188.09123369981535,188.09123369981535,188.09123369981535,188.09123369981535,188.09123369981535,188.09123369981535,188.09123369981535,188.45779399992898,188.45779399992898,188.45779399992898,188.45779399992898,188.45779399992898,188.45779399992898,188.45779399992898,188.45779399992898,188.45779399992898,23,0,,,188.45779399992898,188.65953019983135,3.7,188.65953019983135,1,3.7,1,1,1000,num_4,1.801753000356257,,30,7,2026-03-12_10h48.51.466,2026A_exp2,2022.2.4,59.79101845586134,
1,0,3.7,6.1,1,0,60,60,75,,,,,190.49307869980112,191.14495799993165,191.14495799993165,191.62820659996942,315,315,191.62820659996942,191.62820659996942,191.62820659996942,191.62820659996942,191.62820659996942,191.62820659996942,191.62820659996942,191.62820659996942,191.62820659996942,191.9944929999765,191.9944929999765,191.9944929999765,191.9944929999765,191.9944929999765,191.9944929999765,191.9944929999765,191.9944929999765,191.9944929999765,23,0,,,191.9944929999765,192.19446739996783,6.1,192.19446739996783,1,6.1,1,1,1000,num_4,0.5380831002257764,,30,7,2026-03-12_10h48.51.466,2026A_exp2,2022.2.4,59.79101845586134,
1,0,6.1,0.0,0,0,61,61,51,,,,,192.76199079980142,193.39615069981664,193.39615069981664,193.89739959989674,315,315,193.89739959989674,193.89739959989674,193.89739959989674,193.89739959989674,193.89739959989674,193.89739959989674,193.89739959989674,193.89739959989674,193.89739959989674,194.26360700000077,194.26360700000077,194.26360700000077,194.26360700000077,194.26360700000077,194.26360700000077,194.26360700000077,194.26360700000077,194.26360700000077,1,2,"[0.0007711001671850681, 0.3005927000194788]","[0.2837513000704348, 0.3667448000051081]",194.26360700000077,194.46347759990022,6.1,194.46347759990022,1,6.1,1,1,1000,num_4,0.6053833002224565,,30,7,2026-03-12_10h48.51.466,2026A_exp2,2022.2.4,59.79101845586134,
1000,1,4.9,3.7,0,0,62,62,40,,,,,195.09730289992876,195.7314916998148,195.7314916998148,196.23236459982581,45,315,196.23236459982581,196.23236459982581,196.23236459982581,196.23236459982581,196.23236459982581,196.23236459982581,196.23236459982581,196.23236459982581,196.23236459982581,196.59920769999735,196.59920769999735,196.59920769999735,196.59920769999735,196.59920769999735,196.59920769999735,196.59920769999735,196.59920769999735,196.59920769999735,2,3,"[0.0007299000862985849, 0.0338145000860095, 0.25123520009219646]","[0.01746700005605817, 0.23457380011677742, 0.36767049995251]",196.59920769999735,196.7996021998115,1000,196.7996021998115,1000,1000,1000,1000,1,num_2,1.1655085000675172,,30,7,2026-03-12_10h48.51.466,2026A_exp2,2022.2.4,59.79101845586134,
0,0,0.0,4.9,1,0,63,63,0,,,,,197.9842755999416,198.63479869998991,198.63479869998991,199.1356511998456,45,315,199.1356511998456,199.1356511998456,199.1356511998456,199.1356511998456,199.1356511998456,199.1356511998456,199.1356511998456,199.1356511998456,199.1356511998456,199.48539789998904,199.48539789998904,199.48539789998904,199.48539789998904,199.48539789998904,199.48539789998904,199.48539789998904,199.48539789998904,199.48539789998904,1,2,"[0.0007245999295264482, 0.06700400006957352]","[0.05043689999729395, 0.35064940014854074]",199.48539789998904,199.6857372999657,0.0,199.6857372999657,0,0.0,0,1,1000,num_1,0.935337400296703,,30,7,2026-03-12_10h48.51.466,2026A_exp2,2022.2.4,59.79101845586134,
1000,1,3.7,0.0,1,0,64,64,52,,,,,200.6530882997904,201.30368419992737,201.30368419992737,201.7885046999436,315,315,201.7885046999436,201.7885046999436,201.7885046999436,201.7885046999436,201.7885046999436,201.7885046999436,201.7885046999436,201.7885046999436,201.7885046999436,202.15528869978152,202.15528869978152,202.15528869978152,202.15528869978152,202.15528869978152,202.15528869978152,202.15528869978152,202.15528869978152,202.15528869978152,1,2,"[0.000762399984523654, 0.28473469987511635]","[0.2675246999133378, 0.3671097999904305]",202.15528869978152,202.3555576999206,1000,202.3555576999206,1000,1000,1000,1000,1,num_2,0.5534248002804816,,30,7,2026-03-12_10h48.51.466,2026A_exp2,2022.2.4,59.79101845586134,
1,0,4.9,4.9,1,0,65,65,18,,,,,202.93908329983242,203.58934159995988,203.58934159995988,204.07342599984258,315,315,204.07342599984258,204.07342599984258,204.07342599984258,204.07342599984258,204.07342599984258,204.07342599984258,204.07342599984258,204.07342599984258,204.07342599984258,204.44034179998562,204.44034179998562,204.44034179998562,204.44034179998562,204.44034179998562,204.44034179998562,204.44034179998562,204.44034179998562,204.44034179998562,22,1,[0.3675328001845628],[0.3675357000902295],204.44034179998562,204.6405092999339,4.9,204.6405092999339,1,4.9,1,1,1000,num_4,0.5878541001584381,,30,7,2026-03-12_10h48.51.466,2026A_exp2,2022.2.4,59.79101845586134,
1,0,0.0,0.0,0,0,66,66,39,,,,,205.25804619980045,205.9088175999932,205.9088175999932,206.39251609984785,315,315,206.39251609984785,206.39251609984785,206.39251609984785,206.39251609984785,206.39251609984785,206.39251609984785,206.39251609984785,206.39251609984785,206.39251609984785,206.75919449981302,206.75919449981302,206.75919449981302,206.75919449981302,206.75919449981302,206.75919449981302,206.75919449981302,206.75919449981302,206.75919449981302,18,1,[0.0009244000539183617],[0.08389330003410578],206.75919449981302,206.9598253997974,0.0,206.9598253997974,0,0.0,0,1,1000,num_1,0.18875740026123822,,30,7,2026-03-12_10h48.51.466,2026A_exp2,2022.2.4,59.79101845586134,
1000,1,4.9,0.0,0,0,67,67,12,,,,,207.17602919996716,207.81023549987003,207.81023549987003,208.31118369987234,315,315,208.31118369987234,208.31118369987234,208.31118369987234,208.31118369987234,208.31118369987234,208.31118369987234,208.31118369987234,208.31118369987234,208.31118369987234,208.67792689986527,208.67792689986527,208.67792689986527,208.67792689986527,208.67792689986527,208.67792689986527,208.67792689986527,208.67792689986527,208.67792689986527,0,1,[0.0011108999606221914],[0.3678747001104057],208.67792689986527,208.87802069983445,1000,208.87802069983445,1000,1000,1000,1000,0,num_3,0.6151367002166808,,30,7,2026-03-12_10h48.51.466,2026A_exp2,2022.2.4,59.79101845586134,
1000,1,0.0,0.0,1,0,68,68,88,,,,,209.51219229982235,210.16237329994328,210.16237329994328,210.64704759977758,315,45,210.64704759977758,210.64704759977758,210.64704759977758,210.64704759977758,210.64704759977758,210.64704759977758,210.64704759977758,210.64704759977758,210.64704759977758,211.01307329977863,211.01307329977863,211.01307329977863,211.01307329977863,211.01307329977863,211.01307329977863,211.01307329977863,211.01307329977863,211.01307329977863,2,3,"[0.0010402998887002468, 0.16606529988348484, 0.29997549997642636]","[0.149298399919644, 0.2829219000414014, 0.36623889999464154]",211.01307329977863,211.21385009982623,1000,211.21385009982623,1000,1000,1000,1000,1,num_2,0.5025944001972675,,30,7,2026-03-12_10h48.51.466,2026A_exp2,2022.2.4,59.79101845586134,
1000,1,3.7,3.7,1,0,69,69,54,,,,,211.7474918998778,212.39791439985856,212.39791439985856,212.89900189987384,315,45,212.89900189987384,212.89900189987384,212.89900189987384,212.89900189987384,212.89900189987384,212.89900189987384,212.89900189987384,212.89900189987384,212.89900189987384,213.26531669986434,213.26531669986434,213.26531669986434,213.26531669986434,213.26531669986434,213.26531669986434,213.26531669986434,213.26531669986434,213.26531669986434,2,2,"[0.01731389993801713, 0.08394789998419583]","[0.06674230005592108, 0.36721300007775426]",213.26531669986434,213.4656627997756,1000,213.4656627997756,1000,1000,1000,1000,1,num_2,0.8665588002186269,,30,7,2026-03-12_10h48.51.466,2026A_exp2,2022.2.4,59.79101845586134,
1000,1,3.7,0.0,1,0,70,70,19,,,,,214.349862099858,215.00070769991726,215.00070769991726,215.4849187999498,45,315,215.4849187999498,215.4849187999498,215.4849187999498,215.4849187999498,215.4849187999498,215.4849187999498,215.4849187999498,215.4849187999498,215.4849187999498,215.85206189984456,215.85206189984456,215.85206189984456,215.85206189984456,215.85206189984456,215.85206189984456,215.85206189984456,215.85206189984456,215.85206189984456,3,3,"[0.0007340000011026859, 0.11686820001341403, 0.30054379999637604]","[0.10044639999978244, 0.2838860999327153, 0.3684595001395792]",215.85206189984456,216.05187219986692,1000,216.05187219986692,1000,1000,1000,1000,0,num_3,0.512519400101155,,30,7,2026-03-12_10h48.51.466,2026A_exp2,2022.2.4,59.79101845586134,
0,0,0.0,6.1,1,0,71,71,46,,,,,216.5854538998101,217.21977909980342,217.21977909980342,217.720602999907,315,45,217.720602999907,217.720602999907,217.720602999907,217.720602999907,217.720602999907,217.720602999907,217.720602999907,217.720602999907,217.720602999907,218.08714439999312,218.08714439999312,218.08714439999312,218.08714439999312,218.08714439999312,218.08714439999312,218.08714439999312,218.08714439999312,218.08714439999312,1,1,[0.0007331999950110912],[0.3678519001696259],218.08714439999312,218.28758389991708,0.0,218.28758389991708,0,0.0,0,1,1000,num_1,0.5887176003307104,,30,7,2026-03-12_10h48.51.466,2026A_exp2,2022.2.4,59.79101845586134,
1,0,0.0,0.0,0,0,72,72,61,,,,,218.90474069979973,219.53876539994963,219.53876539994963,220.03968169982545,315,45,220.03968169982545,220.03968169982545,220.03968169982545,220.03968169982545,220.03968169982545,220.03968169982545,220.03968169982545,220.03968169982545,220.03968169982545,220.40608679992147,220.40608679992147,220.40608679992147,220.40608679992147,220.40608679992147,220.40608679992147,220.40608679992147,220.40608679992147,220.40608679992147,0,1,[0.0007688999176025391],[0.3666654999833554],220.40608679992147,220.60627939994447,0.0,220.60627939994447,0,0.0,0,1,1000,num_1,0.2701496002264321,,30,7,2026-03-12_10h48.51.466,2026A_exp2,2022.2.4,59.79101845586134,
1000,1,6.1,0.0,0,0,73,73,21,,,,,220.90676409984007,221.55720269982703,221.55720269982703,222.04324219981208,315,45,222.04324219981208,222.04324219981208,222.04324219981208,222.04324219981208,222.04324219981208,222.04324219981208,222.04324219981208,222.04324219981208,222.04324219981208,222.40799449989572,222.40799449989572,222.40799449989572,222.40799449989572,222.40799449989572,222.40799449989572,222.40799449989572,222.40799449989572,222.40799449989572,7,3,"[0.03336420003324747, 0.11640250007621944, 0.24957529990933836]","[0.049738100031390786, 0.23368679988197982, 0.36634190008044243]",222.40799449989572,222.60861159977503,1000,222.60861159977503,1000,1000,1000,1000,0,num_3,0.46765660028904676,,30,7,2026-03-12_10h48.51.466,2026A_exp2,2022.2.4,59.79101845586134,
0,0,0.0,4.9,0,0,74,74,65,,,,,223.0924024998676,223.72629559994675,223.72629559994675,224.22713229991496,45,45,224.22713229991496,224.22713229991496,224.22713229991496,224.22713229991496,224.22713229991496,224.22713229991496,224.22713229991496,224.22713229991496,224.22713229991496,224.5938653999474,224.5938653999474,224.5938653999474,224.5938653999474,224.5938653999474,224.5938653999474,224.5938653999474,224.5938653999474,224.5938653999474,2,4,"[0.0007664000149816275, 0.10027709999121726, 0.150193199981004, 0.2172646000981331]","[0.08392730006016791, 0.13374580000527203, 0.20080079999752343, 0.3672962000127882]",224.5938653999474,224.79400959983468,4.9,224.79400959983468,1,4.9,1,1,1000,num_4,0.6741894003935158,,30,7,2026-03-12_10h48.51.466,2026A_exp2,2022.2.4,59.79101845586134,
1,0,4.9,6.1,0,0,75,75,29,,,,,225.4943258999847,226.12915989989415,226.12915989989415,226.62980699981563,315,45,226.62980699981563,226.62980699981563,226.62980699981563,226.62980699981563,226.62980699981563,226.62980699981563,226.62980699981563,226.62980699981563,226.62980699981563,226.99610439990647,226.99610439990647,226.99610439990647,226.99610439990647,226.99610439990647,226.99610439990647,226.99610439990647,226.99610439990647,226.99610439990647,21,2,"[0.21750919986516237, 0.3338703999761492]","[0.23404989996924996, 0.35048240004107356]",226.99610439990647,227.19632519991137,4.9,227.19632519991137,1,4.9,1,1,1000,num_4,0.8078578002750874,,30,7,2026-03-12_10h48.51.466,2026A_exp2,2022.2.4,59.79101845586134,
1000,1,0.0,6.1,0,0,76,76,27,,,,,228.03059179987758,228.6645814999938,228.6645814999938,229.16580689977854,45,45,229.16580689977854,229.16580689977854,229.16580689977854,229.16580689977854,229.16580689977854,229.16580689977854,229.16580689977854,229.16580689977854,229.16580689977854,229.53200239990838,229.53200239990838,229.53200239990838,229.53200239990838,229.53200239990838,229.53200239990838,229.53200239990838,229.53200239990838,229.53200239990838,1,2,"[0.0007675997912883759, 0.3672210997901857]","[0.350722000002861, 0.36722429981455207]",229.53200239990838,229.7320109999273,1000,229.7320109999273,1000,1000,1000,1000,1,num_2,0.5528184003196657,,30,7,2026-03-12_10h48.51.466,2026A_exp2,2022.2.4,59.79101845586134,
1000,1,3.7,0.0,0,0,77,77,55,,,,,230.31684359977953,230.96667569992132,230.96667569992132,231.45133599988185,315,315,231.45133599988185,231.45133599988185,231.45133599988185,231.45133599988185,231.45133599988185,231.45133599988185,231.45133599988185,231.45133599988185,231.45133599988185,231.81770639983006,231.81770639983006,231.81770639983006,231.81770639983006,231.81770639983006,231.81770639983006,231.81770639983006,231.81770639983006,231.81770639983006,12,2,"[0.1505106999538839, 0.30031550000421703]","[0.28366359998472035, 0.35021489998325706]",231.81770639983006,232.01819659979083,1000,232.01819659979083,1000,1000,1000,1000,0,num_3,0.6027943002991378,,30,7,2026-03-12_10h48.51.466,2026A_exp2,2022.2.4,59.79101845586134,
1,0,3.7,3.7,0,0,78,78,60,,,,,232.65207679988816,233.3028944998514,233.3028944998514,233.80384919978678,45,315,233.80384919978678,233.80384919978678,233.80384919978678,233.80384919978678,233.80384919978678,233.80384919978678,233.80384919978678,233.80384919978678,233.80384919978678,234.17035659984685,234.17035659984685,234.17035659984685,234.17035659984685,234.17035659984685,234.17035659984685,234.17035659984685,234.17035659984685,234.17035659984685,2,3,"[0.000839299988001585, 0.09987540007568896, 0.16649820003658533]","[0.08331259991973639, 0.14984719990752637, 0.36678309994749725]",234.17035659984685,234.37053989991546,3.7,234.37053989991546,1,3.7,1,1,1000,num_4,1.3302927003242075,,30,7,2026-03-12_10h48.51.466,2026A_exp2,2022.2.4,59.79101845586134,
0,0,0.0,4.9,1,0,79,79,33,,,,,235.72155839996412,236.37201069993898,236.37201069993898,236.85687879985198,315,45,236.85687879985198,236.85687879985198,236.85687879985198,236.85687879985198,236.85687879985198,236.85687879985198,236.85687879985198,236.85687879985198,236.85687879985198,237.22385859978385,237.22385859978385,237.22385859978385,237.22385859978385,237.22385859978385,237.22385859978385,237.22385859978385,237.22385859978385,237.22385859978385,1,1,[0.017233800143003464],[0.36826610006392],237.22385859978385,237.4233359999489,0.0,237.4233359999489,0,0.0,0,1,1000,num_1,1.053440300282091,,30,7,2026-03-12_10h48.51.466,2026A_exp2,2022.2.4,59.79101845586134,
1,0,4.9,3.7,1,0,80,80,71,,,,,238.50780099979602,239.15852349996567,239.15852349996567,239.6595668999944,45,315,239.6595668999944,239.6595668999944,239.6595668999944,239.6595668999944,239.6595668999944,239.6595668999944,239.6595668999944,239.6595668999944,239.6595668999944,240.02578329993412,240.02578329993412,240.02578329993412,240.02578329993412,240.02578329993412,240.02578329993412,240.02578329993412,240.02578329993412,240.02578329993412,2,3,"[0.0007830001413822174, 0.25086480006575584, 0.2842234999407083]","[0.23401100002229214, 0.267291400115937, 0.36786790005862713]",240.02578329993412,240.22583559993654,3.7,240.22583559993654,1,3.7,1,1,1000,num_4,1.154308200115338,,30,7,2026-03-12_10h48.51.466,2026A_exp2,2022.2.4,59.79101845586134,
1000,1,3.7,6.1,1,0,81,81,43,,,,,241.41057859989814,242.04462790000252,242.04462790000252,242.5455711998511,315,315,242.5455711998511,242.5455711998511,242.5455711998511,242.5455711998511,242.5455711998511,242.5455711998511,242.5455711998511,242.5455711998511,242.5455711998511,242.91251909988932,242.91251909988932,242.91251909988932,242.91251909988932,242.91251909988932,242.91251909988932,242.91251909988932,242.91251909988932,242.91251909988932,2,2,"[0.0007466999813914299, 0.26718119997531176]","[0.2339355000294745, 0.36821600003167987]",242.91251909988932,243.11227349983528,1000,243.11227349983528,1000,1000,1000,1000,1,num_2,0.6287261003162712,,30,7,2026-03-12_10h48.51.466,2026A_exp2,2022.2.4,59.79101845586134,
1000,1,0.0,3.7,1,0,82,82,1,,,,,243.76331119984388,244.39699529996142,244.39699529996142,244.9143560999073,315,45,244.9143560999073,244.9143560999073,244.9143560999073,244.9143560999073,244.9143560999073,244.9143560999073,244.9143560999073,244.9143560999073,244.9143560999073,245.2645072999876,245.2645072999876,245.2645072999876,245.2645072999876,245.2645072999876,245.2645072999876,245.2645072999876,245.2645072999876,245.2645072999876,6,2,"[0.01756279985420406, 0.1844299000222236]","[0.16772779985331, 0.3012631998863071]",245.2645072999876,245.46510029979981,1000,245.46510029979981,1000,1000,1000,1000,1,num_2,0.5559379002079368,,30,7,2026-03-12_10h48.51.466,2026A_exp2,2022.2.4,59.79101845586134,
1,0,3.7,3.7,0,0,83,83,8,,,,,246.04864209983498,246.69975309981965,246.69975309981965,247.20027939998545,315,45,247.20027939998545,247.20027939998545,247.20027939998545,247.20027939998545,247.20027939998545,247.20027939998545,247.20027939998545,247.20027939998545,247.20027939998545,247.55033969995566,247.55033969995566,247.55033969995566,247.55033969995566,247.55033969995566,247.55033969995566,247.55033969995566,247.55033969995566,247.55033969995566,21,1,[0.1507406998425722],[0.1673862999305129],247.55033969995566,247.7501272999216,3.7,247.7501272999216,0,3.7,1,0,1000,num_1,0.6233126004226506,,30,7,2026-03-12_10h48.51.466,2026A_exp2,2022.2.4,59.79101845586134,
1000,1,3.7,0.0,0,0,84,84,81,,,,,248.40092309983447,249.03494709986262,249.03494709986262,249.53623639978468,45,315,249.53623639978468,249.53623639978468,249.53623639978468,249.53623639978468,249.53623639978468,249.53623639978468,249.53623639978468,249.53623639978468,249.53623639978468,249.90238029998727,249.90238029998727,249.90238029998727,249.90238029998727,249.90238029998727,249.90238029998727,249.90238029998727,249.90238029998727,249.90238029998727,14,1,[0.0007831999100744724],[0.15019800001755357],249.90238029998727,250.10397049994208,1000,250.10397049994208,1000,1000,1000,1000,0,num_3,0.6524461002554744,,30,7,2026-03-12_10h48.51.466,2026A_exp2,2022.2.4,59.79101845586134,
1,0,0.0,0.0,1,0,85,85,58,,,,,250.7874800998252,251.4374326998368,251.4374326998368,251.92195909982547,45,315,251.92195909982547,251.92195909982547,251.92195909982547,251.92195909982547,251.92195909982547,251.92195909982547,251.92195909982547,251.92195909982547,251.92195909982547,252.28801479982212,252.28801479982212,252.28801479982212,252.28801479982212,252.28801479982212,252.28801479982212,252.28801479982212,252.28801479982212,252.28801479982212,0,1,[0.000847300048917532],[0.3666972001083195],252.28801479982212,252.48848679987714,0.0,252.48848679987714,0,0.0,0,1,1000,num_1,0.28387350030243397,,30,7,2026-03-12_10h48.51.466,2026A_exp2,2022.2.4,59.79101845586134,
1,0,0.0,0.0,0,0,86,86,22,,,,,252.78860939992592,253.43936119996943,253.43936119996943,253.92361419997178,45,315,253.92361419997178,253.92361419997178,253.92361419997178,253.92361419997178,253.92361419997178,253.92361419997178,253.92361419997178,253.92361419997178,253.92361419997178,254.29018889996223,254.29018889996223,254.29018889996223,254.29018889996223,254.29018889996223,254.29018889996223,254.29018889996223,254.29018889996223,254.29018889996223,23,0,,,254.29018889996223,254.49104529991746,0.0,254.49104529991746,0,0.0,0,1,1000,num_1,0.37709150020964444,,30,7,2026-03-12_10h48.51.466,2026A_exp2,2022.2.4,59.79101845586134,
1000,1,4.9,0.0,1,0,87,87,84,,,,,254.89059069985524,255.52474709996022,255.52474709996022,256.0261683999561,315,315,256.0261683999561,256.0261683999561,256.0261683999561,256.0261683999561,256.0261683999561,256.0261683999561,256.0261683999561,256.0261683999561,256.0261683999561,256.3924061998259,256.3924061998259,256.3924061998259,256.3924061998259,256.3924061998259,256.3924061998259,256.3924061998259,256.3924061998259,256.3924061998259,2,2,"[0.0009308001026511192, 0.2337921999860555]","[0.20048999995924532, 0.3669396999757737]",256.3924061998259,256.59269599989057,1000,256.59269599989057,1000,1000,1000,1000,0,num_3,0.5477508001495153,,30,7,2026-03-12_10h48.51.466,2026A_exp2,2022.2.4,59.79101845586134,
1000,1,0.0,3.7,1,0,88,88,82,,,,,257.1600656998344,257.81003599986434,257.81003599986434,258.31129159987904,315,315,258.31129159987904,258.31129159987904,258.31129159987904,258.31129159987904,258.31129159987904,258.31129159987904,258.31129159987904,258.31129159987904,258.31129159987904,258.67784159979783,258.67784159979783,258.67784159979783,258.67784159979783,258.67784159979783,258.67784159979783,258.67784159979783,258.67784159979783,258.67784159979783,0,1,[0.000784300034865737],[0.36695359996519983],258.67784159979783,258.8779703998007,1000,258.8779703998007,1000,1000,1000,1000,1,num_2,0.41439930023625493,,30,7,2026-03-12_10h48.51.466,2026A_exp2,2022.2.4,59.79101845586134,
1000,1,0.0,0.0,0,0,89,89,24,,,,,259.31214739987627,259.9620845997706,259.9620845997706,260.44688759977,315,315,260.44688759977,260.44688759977,260.44688759977,260.44688759977,260.44688759977,260.44688759977,260.44688759977,260.44688759977,260.44688759977,260.8134740998503,260.8134740998503,260.8134740998503,260.8134740998503,260.8134740998503,260.8134740998503,260.8134740998503,260.8134740998503,260.8134740998503,0,1,[0.000831299927085638],[0.3671844999771565],260.8134740998503,261.01352519984357,1000,261.01352519984357,1000,1000,1000,1000,1,num_2,0.5755643001757562,,30,7,2026-03-12_10h48.51.466,2026A_exp2,2022.2.4,59.79101845586134,
,,,,,,,,,,,,,,,,,,,,,,,,,,,,,,,,,,,,,,,,,,,,,,,,,,,,261.62544069997966,,,,,,,
