validity,detectorcomp,contrastCW,contrastCCW,precueCWorCCW,block_80trials.thisRepN,block_80trials.thisTrialN,block_80trials.thisN,block_80trials.thisIndex,etRecord.started,etRecord.stopped,text.started,text.stopped,text_4.started,text_4.stopped,text_6.started,text_6.stopped,oriCW,oriCCW,roi_2.started,grating_UR.started,grating_UL.started,grating_LR.started,grating_LL.started,noise_UR.started,noise_UL.started,noise_LR.started,noise_LL.started,roi_2.stopped,grating_UR.stopped,grating_UL.stopped,grating_LR.stopped,grating_LL.stopped,noise_UR.stopped,noise_UL.stopped,noise_LR.stopped,noise_LL.stopped,outframe,roi_2.numLooks,roi_2.timesOn,roi_2.timesOff,text_2.started,text_2.stopped,probedcontrast,key_resp.started,respdetect,relevantContrast,correctDetect,TorFdetect,respCWorCCW,key_resp.keys,key_resp.rt,feedback_display_.started,participantNo,blockNo,date,expName,psychopyVersion,frameRate,
1000,1,3.7,0.0,1,0,0,0,78,3.409991040825844e-05,3.409991040825844e-05,46.510859300149605,48.51533280010335,48.51533280010335,49.148923200089484,49.148923200089484,49.67069870000705,45,315,49.67069870000705,49.67069870000705,49.67069870000705,49.67069870000705,49.67069870000705,49.67069870000705,49.67069870000705,49.67069870000705,49.67069870000705,50.01466029998846,50.01466029998846,50.01466029998846,50.01466029998846,50.01466029998846,50.01466029998846,50.01466029998846,50.01466029998846,50.01466029998846,0,1,[0.0011503000278025866],[0.36587300011888146],50.01466029998846,50.216185400029644,1000,50.216185400029644,1000,1000,1000,1000,0,num_3,0.3235063999891281,,33,15,2026-03-12_18h33.26.912,2026A_exp2,2022.2.4,59.850815876996954,
1,0,4.9,6.1,0,0,1,1,29,,,,,50.566004700027406,51.215935999993235,51.215935999993235,51.716998000163585,315,45,51.716998000163585,51.716998000163585,51.716998000163585,51.716998000163585,51.716998000163585,51.716998000163585,51.716998000163585,51.716998000163585,51.716998000163585,52.0677775000222,52.0677775000222,52.0677775000222,52.0677775000222,52.0677775000222,52.0677775000222,52.0677775000222,52.0677775000222,52.0677775000222,0,1,[0.0007535999175161123],[0.35153189999982715],52.0677775000222,52.26698429998942,4.9,52.283669100143015,0,4.9,1,0,1000,num_1,0.6238812000956386,,33,15,2026-03-12_18h33.26.912,2026A_exp2,2022.2.4,59.850815876996954,
1000,1,0.0,4.9,1,0,2,2,72,,,,,52.93433880014345,53.56827040016651,53.56827040016651,54.06978589994833,315,315,54.06978589994833,54.06978589994833,54.06978589994833,54.06978589994833,54.06978589994833,54.06978589994833,54.06978589994833,54.06978589994833,54.06978589994833,54.43599639995955,54.43599639995955,54.43599639995955,54.43599639995955,54.43599639995955,54.43599639995955,54.43599639995955,54.43599639995955,54.43599639995955,0,1,[0.0007579999510198832],[0.3672614998649806],54.43599639995955,54.636725099990144,1000,54.636725099990144,1000,1000,1000,1000,1,num_2,0.3514608999248594,,33,15,2026-03-12_18h33.26.912,2026A_exp2,2022.2.4,59.850815876996954,
1000,1,0.0,0.0,1,0,3,3,88,,,,,55.019877900136635,55.67153699998744,55.67153699998744,56.17168160015717,45,315,56.17168160015717,56.17168160015717,56.17168160015717,56.17168160015717,56.17168160015717,56.17168160015717,56.17168160015717,56.17168160015717,56.17168160015717,56.52173850010149,56.52173850010149,56.52173850010149,56.52173850010149,56.52173850010149,56.52173850010149,56.52173850010149,56.52173850010149,56.52173850010149,0,1,[0.000735200010240078],[0.3507036999799311],56.52173850010149,56.7215963001363,1000,56.73840970010497,1000,1000,1000,1000,0,num_3,0.3451670000795275,,33,15,2026-03-12_18h33.26.912,2026A_exp2,2022.2.4,59.850815876996954,
1000,1,0.0,3.7,1,0,4,4,1,,,,,57.10551770008169,57.73998720012605,57.73998720012605,58.24014910007827,45,45,58.24014910007827,58.24014910007827,58.24014910007827,58.24014910007827,58.24014910007827,58.24014910007827,58.24014910007827,58.24014910007827,58.24014910007827,58.60686790011823,58.60686790011823,58.60686790011823,58.60686790011823,58.60686790011823,58.60686790011823,58.60686790011823,58.60686790011823,58.60686790011823,0,1,[0.0007668000180274248],[0.36738860001787543],58.60686790011823,58.80710900016129,1000,58.80710900016129,1000,1000,1000,1000,1,num_2,0.5887044998817146,,33,15,2026-03-12_18h33.26.912,2026A_exp2,2022.2.4,59.850815876996954,
1000,1,0.0,3.7,1,0,5,5,82,,,,,59.4242928000167,60.074707000050694,60.074707000050694,60.55924420012161,45,45,60.55924420012161,60.55924420012161,60.55924420012161,60.55924420012161,60.55924420012161,60.55924420012161,60.55924420012161,60.55924420012161,60.55924420012161,60.92592910001986,60.92592910001986,60.92592910001986,60.92592910001986,60.92592910001986,60.92592910001986,60.92592910001986,60.92592910001986,60.92592910001986,0,1,[0.0007227999158203602],[0.3682591998949647],60.92592910001986,61.12591570010409,1000,61.12591570010409,1000,1000,1000,1000,1,num_2,0.40622670017182827,,33,15,2026-03-12_18h33.26.912,2026A_exp2,2022.2.4,59.850815876996954,
0,0,4.9,0.0,1,0,6,6,26,,,,,61.55989839998074,62.210423700045794,62.210423700045794,62.711647800169885,45,315,62.711647800169885,62.711647800169885,62.711647800169885,62.711647800169885,62.711647800169885,62.711647800169885,62.711647800169885,62.711647800169885,62.711647800169885,63.06100690015592,63.06100690015592,63.06100690015592,63.06100690015592,63.06100690015592,63.06100690015592,63.06100690015592,63.06100690015592,63.06100690015592,0,1,[0.000999300042167306],[0.3500238999258727],63.06100690015592,63.26122330012731,4.9,63.26122330012731,1,4.9,1,1,1000,num_4,0.7664159999694675,,33,15,2026-03-12_18h33.26.912,2026A_exp2,2022.2.4,59.850815876996954,
1,0,0.0,3.7,0,0,7,7,31,,,,,64.04541340004653,64.67977500008419,64.67977500008419,65.18058030004613,315,315,65.18058030004613,65.18058030004613,65.18058030004613,65.18058030004613,65.18058030004613,65.18058030004613,65.18058030004613,65.18058030004613,65.18058030004613,65.547052500071,65.547052500071,65.547052500071,65.547052500071,65.547052500071,65.547052500071,65.547052500071,65.547052500071,65.547052500071,0,1,[0.0007378000300377607],[0.36744880001060665],65.547052500071,65.74753480008803,0.0,65.74753480008803,0,0.0,0,1,1000,num_1,1.3444951002020389,,33,15,2026-03-12_18h33.26.912,2026A_exp2,2022.2.4,59.850815876996954,
1000,1,4.9,3.7,0,0,8,8,40,,,,,67.11517340014689,67.74912849999964,67.74912849999964,68.25144660007209,315,45,68.25144660007209,68.25144660007209,68.25144660007209,68.25144660007209,68.25144660007209,68.25144660007209,68.25144660007209,68.25144660007209,68.25144660007209,68.61669300007634,68.61669300007634,68.61669300007634,68.61669300007634,68.61669300007634,68.61669300007634,68.61669300007634,68.61669300007634,68.61669300007634,6,1,[0.06647680001333356],[0.3498340998776257],68.61669300007634,68.81706090015359,1000,68.81706090015359,1000,1000,1000,1000,0,num_3,0.3790307999588549,,33,15,2026-03-12_18h33.26.912,2026A_exp2,2022.2.4,59.850815876996954,
1,0,0.0,3.7,0,0,9,9,64,,,,,69.21730650006793,69.8681083000265,69.8681083000265,70.35244800010696,45,45,70.35244800010696,70.35244800010696,70.35244800010696,70.35244800010696,70.35244800010696,70.35244800010696,70.35244800010696,70.35244800010696,70.35244800010696,70.71914350008592,70.71914350008592,70.71914350008592,70.71914350008592,70.71914350008592,70.71914350008592,70.71914350008592,70.71914350008592,70.71914350008592,0,1,[0.0007217000238597393],[0.36763230012729764],70.71914350008592,70.91902470006607,0.0,70.91902470006607,0,0.0,0,1,1000,num_1,0.9247995000332594,,33,15,2026-03-12_18h33.26.912,2026A_exp2,2022.2.4,59.850815876996954,
1,0,0.0,0.0,0,0,10,10,32,,,,,71.8704001000151,72.52075670007616,72.52075670007616,73.0053016000893,315,45,73.0053016000893,73.0053016000893,73.0053016000893,73.0053016000893,73.0053016000893,73.0053016000893,73.0053016000893,73.0053016000893,73.0053016000893,73.37144120014273,73.37144120014273,73.37144120014273,73.37144120014273,73.37144120014273,73.37144120014273,73.37144120014273,73.37144120014273,73.37144120014273,0,1,[0.0007468999829143286],[0.3674482998903841],73.37144120014273,73.57191359996796,0.0,73.57191359996796,1,0.0,0,0,1000,num_4,0.8395281000994146,,33,15,2026-03-12_18h33.26.912,2026A_exp2,2022.2.4,59.850815876996954,
1000,1,4.9,0.0,1,0,11,11,74,,,,,74.43956840015016,75.0899649001658,75.0899649001658,75.57545899995603,315,45,75.57545899995603,75.57545899995603,75.57545899995603,75.57545899995603,75.57545899995603,75.57545899995603,75.57545899995603,75.57545899995603,75.57545899995603,75.94063040008768,75.94063040008768,75.94063040008768,75.94063040008768,75.94063040008768,75.94063040008768,75.94063040008768,75.94063040008768,75.94063040008768,0,1,[0.0009158998727798462],[0.36662780004553497],75.94063040008768,76.14118980010971,1000,76.14118980010971,1000,1000,1000,1000,0,num_3,0.4552912001963705,,33,15,2026-03-12_18h33.26.912,2026A_exp2,2022.2.4,59.850815876996954,
1,0,4.9,4.9,1,0,12,12,18,,,,,76.62481880001724,77.27533000009134,77.27533000009134,77.76001169998199,45,45,77.76001169998199,77.76001169998199,77.76001169998199,77.76001169998199,77.76001169998199,77.76001169998199,77.76001169998199,77.76001169998199,77.76001169998199,78.12658630008809,78.12658630008809,78.12658630008809,78.12658630008809,78.12658630008809,78.12658630008809,78.12658630008809,78.12658630008809,78.12658630008809,2,2,"[0.0009099999442696571, 0.14956599986180663]","[0.11606599995866418, 0.3669306000228971]",78.12658630008809,78.32785889995284,4.9,78.32785889995284,1,4.9,1,1,1000,num_4,0.6361064000520855,,33,15,2026-03-12_18h33.26.912,2026A_exp2,2022.2.4,59.850815876996954,
1,0,0.0,0.0,0,0,13,13,85,,,,,78.99362120009027,79.62780770007521,79.62780770007521,80.1286997999996,315,315,80.1286997999996,80.1286997999996,80.1286997999996,80.1286997999996,80.1286997999996,80.1286997999996,80.1286997999996,80.1286997999996,80.1286997999996,80.49506670003757,80.49506670003757,80.49506670003757,80.49506670003757,80.49506670003757,80.49506670003757,80.49506670003757,80.49506670003757,80.49506670003757,4,4,"[0.0007299999706447124, 0.2003494999371469, 0.3343036000151187, 0.3671635000500828]","[0.16697969986125827, 0.31761719984933734, 0.35033219982869923, 0.36716669984161854]",80.49506670003757,80.69580940017477,0.0,80.69580940017477,1,0.0,0,0,1000,num_4,0.6197536999825388,,33,15,2026-03-12_18h33.26.912,2026A_exp2,2022.2.4,59.850815876996954,
1,0,6.1,6.1,1,0,14,14,49,,,,,81.34614000003785,81.9803764000535,81.9803764000535,82.4812576000113,315,315,82.4812576000113,82.4812576000113,82.4812576000113,82.4812576000113,82.4812576000113,82.4812576000113,82.4812576000113,82.4812576000113,82.4812576000113,82.84745960007422,82.84745960007422,82.84745960007422,82.84745960007422,82.84745960007422,82.84745960007422,82.84745960007422,82.84745960007422,82.84745960007422,9,4,"[0.03374790004454553, 0.16733919992111623, 0.23419210012070835, 0.3007567999884486]","[0.15046959999017417, 0.21751719992607832, 0.251022000098601, 0.3508941000327468]",82.84745960007422,83.04784719995223,6.1,83.04784719995223,1,6.1,1,1,1000,num_4,0.5798569999169558,,33,15,2026-03-12_18h33.26.912,2026A_exp2,2022.2.4,59.850815876996954,
1000,1,3.7,0.0,0,0,15,15,81,,,,,83.64839790016413,84.28229410015047,84.28229410015047,84.78334360010922,315,45,84.78334360010922,84.78334360010922,84.78334360010922,84.78334360010922,84.78334360010922,84.78334360010922,84.78334360010922,84.78334360010922,84.78334360010922,85.14987470000051,85.14987470000051,85.14987470000051,85.14987470000051,85.14987470000051,85.14987470000051,85.14987470000051,85.14987470000051,85.14987470000051,0,1,[0.0007651001214981079],[0.3673869001213461],85.14987470000051,85.35025210003369,1000,85.35025210003369,1000,1000,1000,1000,0,num_3,0.4143141999375075,,33,15,2026-03-12_18h33.26.912,2026A_exp2,2022.2.4,59.850815876996954,
1,0,6.1,3.7,1,0,16,16,16,,,,,85.78392540011555,86.43468650011346,86.43468650011346,86.91905360016972,315,315,86.91905360016972,86.91905360016972,86.91905360016972,86.91905360016972,86.91905360016972,86.91905360016972,86.91905360016972,86.91905360016972,86.91905360016972,87.28552220016718,87.28552220016718,87.28552220016718,87.28552220016718,87.28552220016718,87.28552220016718,87.28552220016718,87.28552220016718,87.28552220016718,1,2,"[0.0008007998112589121, 0.31709739984944463]","[0.30020869988948107, 0.36713839997537434]",87.28552220016718,87.4858337000478,3.7,87.4858337000478,0,3.7,1,0,1000,num_1,0.7019815999083221,,33,15,2026-03-12_18h33.26.912,2026A_exp2,2022.2.4,59.850815876996954,
1,0,6.1,3.7,1,0,17,17,83,,,,,88.2198042999953,88.85370870004408,88.85370870004408,89.35475940001197,45,315,89.35475940001197,89.35475940001197,89.35475940001197,89.35475940001197,89.35475940001197,89.35475940001197,89.35475940001197,89.35475940001197,89.35475940001197,89.7217220000457,89.7217220000457,89.7217220000457,89.7217220000457,89.7217220000457,89.7217220000457,89.7217220000457,89.7217220000457,89.7217220000457,19,2,"[0.08356570010073483, 0.13423580001108348]","[0.11692670010961592, 0.16724330000579357]",89.7217220000457,89.92155570001341,3.7,89.92155570001341,0,3.7,1,0,1000,num_1,0.5864099999889731,,33,15,2026-03-12_18h33.26.912,2026A_exp2,2022.2.4,59.850815876996954,
1000,1,4.9,0.0,0,0,18,18,45,,,,,90.53907370008528,91.17274009995162,91.17274009995162,91.67366460012272,315,315,91.67366460012272,91.67366460012272,91.67366460012272,91.67366460012272,91.67366460012272,91.67366460012272,91.67366460012272,91.67366460012272,91.67366460012272,92.03994520008564,92.03994520008564,92.03994520008564,92.03994520008564,92.03994520008564,92.03994520008564,92.03994520008564,92.03994520008564,92.03994520008564,15,3,"[0.13330129999667406, 0.18409300013445318, 0.30010899994522333]","[0.16672570002265275, 0.21663079992868006, 0.3498132999520749]",92.03994520008564,92.24039590009488,1000,92.24039590009488,1000,1000,1000,1000,0,num_3,0.44366520014591515,,33,15,2026-03-12_18h33.26.912,2026A_exp2,2022.2.4,59.850815876996954,
1000,1,6.1,4.9,1,0,19,19,15,,,,,92.70806580013596,93.35812860005535,93.35812860005535,93.85929469997063,45,315,93.85929469997063,93.85929469997063,93.85929469997063,93.85929469997063,93.85929469997063,93.85929469997063,93.85929469997063,93.85929469997063,93.85929469997063,94.2256267000921,94.2256267000921,94.2256267000921,94.2256267000921,94.2256267000921,94.2256267000921,94.2256267000921,94.2256267000921,94.2256267000921,21,1,[0.10186839988455176],[0.13391769980080426],94.2256267000921,94.42592460010201,1000,94.42592460010201,1000,1000,1000,1000,0,num_3,0.3059874998871237,,33,15,2026-03-12_18h33.26.912,2026A_exp2,2022.2.4,59.850815876996954,
1,0,0.0,0.0,0,0,20,20,6,,,,,94.76040410017595,95.41033730003983,95.41033730003983,95.91149610001594,45,45,95.91149610001594,95.91149610001594,95.91149610001594,95.91149610001594,95.91149610001594,95.91149610001594,95.91149610001594,95.91149610001594,95.91149610001594,96.26088650012389,96.26088650012389,96.26088650012389,96.26088650012389,96.26088650012389,96.26088650012389,96.26088650012389,96.26088650012389,96.26088650012389,13,6,"[0.03464019997045398, 0.06671729986555874, 0.13346169982105494, 0.1670540999621153, 0.200474499957636, 0.25032459991052747]","[0.05015329993329942, 0.08348959987051785, 0.15039279987104237, 0.18376109981909394, 0.21723810001276433, 0.31735979998484254]",96.26088650012389,96.4613401000388,0.0,96.47830389998853,0,0.0,0,1,1000,num_1,0.6691685998812318,,33,15,2026-03-12_18h33.26.912,2026A_exp2,2022.2.4,59.850815876996954,
1000,1,4.9,0.0,1,0,21,21,56,,,,,97.17843550001271,97.81248530000448,97.81248530000448,98.31364549999125,315,315,98.31364549999125,98.31364549999125,98.31364549999125,98.31364549999125,98.31364549999125,98.31364549999125,98.31364549999125,98.31364549999125,98.31364549999125,98.68027979996987,98.68027979996987,98.68027979996987,98.68027979996987,98.68027979996987,98.68027979996987,98.68027979996987,98.68027979996987,98.68027979996987,21,2,"[0.1004812999162823, 0.2502061000559479]","[0.11704290006309748, 0.2669458999298513]",98.68027979996987,98.88080639997497,1000,98.88080639997497,1000,1000,1000,1000,0,num_3,0.42753490014001727,,33,15,2026-03-12_18h33.26.912,2026A_exp2,2022.2.4,59.850815876996954,
1000,1,0.0,4.9,1,0,22,22,57,,,,,99.33104710001498,99.98159050010145,99.98159050010145,100.46598640014417,315,45,100.46598640014417,100.46598640014417,100.46598640014417,100.46598640014417,100.46598640014417,100.46598640014417,100.46598640014417,100.46598640014417,100.46598640014417,100.83220569998957,100.83220569998957,100.83220569998957,100.83220569998957,100.83220569998957,100.83220569998957,100.83220569998957,100.83220569998957,100.83220569998957,14,5,"[0.017633399926126003, 0.06710109999403358, 0.21694519999437034, 0.2837411998771131, 0.3338112998753786]","[0.05047799996100366, 0.1002932998817414, 0.2669875000137836, 0.30027819983661175, 0.35076739988289773]",100.83220569998957,101.03255350003019,1000,101.03255350003019,1000,1000,1000,1000,1,num_2,0.4754294001031667,,33,15,2026-03-12_18h33.26.912,2026A_exp2,2022.2.4,59.850815876996954,
0,0,0.0,0.0,1,0,23,23,80,,,,,101.5331628001295,102.18365400005132,102.18365400005132,102.66822270001285,315,315,102.66822270001285,102.66822270001285,102.66822270001285,102.66822270001285,102.66822270001285,102.66822270001285,102.66822270001285,102.66822270001285,102.66822270001285,103.0346079999581,103.0346079999581,103.0346079999581,103.0346079999581,103.0346079999581,103.0346079999581,103.0346079999581,103.0346079999581,103.0346079999581,6,4,"[0.0010387999936938286, 0.13315400015562773, 0.31848210003226995, 0.3668776999693364]","[0.0997061999514699, 0.2832614001818001, 0.33539420017041266, 0.36688069999217987]",103.0346079999581,103.23499629995786,0.0,103.23499629995786,0,0.0,0,1,1000,num_1,0.6413723002187908,,33,15,2026-03-12_18h33.26.912,2026A_exp2,2022.2.4,59.850815876996954,
1,0,0.0,0.0,0,0,24,24,11,,,,,103.90243580006063,104.53613070002757,104.53613070002757,105.0392990000546,315,45,105.0392990000546,105.0392990000546,105.0392990000546,105.0392990000546,105.0392990000546,105.0392990000546,105.0392990000546,105.0392990000546,105.0392990000546,105.40342560014687,105.40342560014687,105.40342560014687,105.40342560014687,105.40342560014687,105.40342560014687,105.40342560014687,105.40342560014687,105.40342560014687,5,4,"[0.0009004001040011644, 0.23365220008417964, 0.26799280010163784, 0.35017360001802444]","[0.19980780011974275, 0.2503766999579966, 0.3167846999131143, 0.3668939000926912]",105.40342560014687,105.60372030013241,0.0,105.60372030013241,0,0.0,0,1,1000,num_1,0.8168196000624448,,33,15,2026-03-12_18h33.26.912,2026A_exp2,2022.2.4,59.850815876996954,
1000,1,6.1,4.9,1,0,25,25,86,,,,,106.43815620010719,107.07197619997896,107.07197619997896,107.57387750013731,315,315,107.57387750013731,107.57387750013731,107.57387750013731,107.57387750013731,107.57387750013731,107.57387750013731,107.57387750013731,107.57387750013731,107.57387750013731,107.93944790004753,107.93944790004753,107.93944790004753,107.93944790004753,107.93944790004753,107.93944790004753,107.93944790004753,107.93944790004753,107.93944790004753,21,2,"[0.0824019000865519, 0.16574690002016723]","[0.0991648999042809, 0.18313889997079968]",107.93944790004753,108.1396362001542,1000,108.1396362001542,1000,1000,1000,1000,1,num_2,0.5207376999314874,,33,15,2026-03-12_18h33.26.912,2026A_exp2,2022.2.4,59.850815876996954,
1,0,4.9,0.0,0,0,26,26,47,,,,,108.6901683001779,109.34090860001743,109.34090860001743,109.82521939999424,45,315,109.82521939999424,109.82521939999424,109.82521939999424,109.82521939999424,109.82521939999424,109.82521939999424,109.82521939999424,109.82521939999424,109.82521939999424,110.19162319996394,110.19162319996394,110.19162319996394,110.19162319996394,110.19162319996394,110.19162319996394,110.19162319996394,110.19162319996394,110.19162319996394,21,2,"[0.0007660000119358301, 0.21720300009474158]","[0.017460500122979283, 0.23386769997887313]",110.19162319996394,110.39188940008171,4.9,110.39188940008171,1,4.9,1,1,1000,num_4,0.6042818001005799,,33,15,2026-03-12_18h33.26.912,2026A_exp2,2022.2.4,59.850815876996954,
1000,1,3.7,3.7,1,0,27,27,54,,,,,111.02588080009446,111.67636950011365,111.67636950011365,112.16088340012357,315,315,112.16088340012357,112.16088340012357,112.16088340012357,112.16088340012357,112.16088340012357,112.16088340012357,112.16088340012357,112.16088340012357,112.16088340012357,112.52754020015709,112.52754020015709,112.52754020015709,112.52754020015709,112.52754020015709,112.52754020015709,112.52754020015709,112.52754020015709,112.52754020015709,11,5,"[0.03374500013887882, 0.06698530004359782, 0.13368710014037788, 0.2003701999783516, 0.2672542999498546]","[0.05149230011738837, 0.08362490008585155, 0.1504397001117468, 0.23391159996390343, 0.36731830006465316]",112.52754020015709,112.72757370001636,1000,112.72757370001636,1000,1000,1000,1000,1,num_2,0.33190700015984476,,33,15,2026-03-12_18h33.26.912,2026A_exp2,2022.2.4,59.850815876996954,
0,0,3.7,3.7,1,0,28,28,62,,,,,113.07791740004905,113.7119010000024,113.7119010000024,114.21292730001733,315,45,114.21292730001733,114.21292730001733,114.21292730001733,114.21292730001733,114.21292730001733,114.21292730001733,114.21292730001733,114.21292730001733,114.21292730001733,114.57937010005116,114.57937010005116,114.57937010005116,114.57937010005116,114.57937010005116,114.57937010005116,114.57937010005116,114.57937010005116,114.57937010005116,0,1,[0.0007903000805526972],[0.3671726998873055],114.57937010005116,114.77935860003345,3.7,114.77935860003345,1,3.7,1,1,1000,num_4,0.8566920000594109,,33,15,2026-03-12_18h33.26.912,2026A_exp2,2022.2.4,59.850815876996954,
1000,1,0.0,0.0,1,0,29,29,44,,,,,115.66404710011557,116.29772659996524,116.29772659996524,116.79891130002216,45,315,116.79891130002216,116.79891130002216,116.79891130002216,116.79891130002216,116.79891130002216,116.79891130002216,116.79891130002216,116.79891130002216,116.79891130002216,117.16512180003338,117.16512180003338,117.16512180003338,117.16512180003338,117.16512180003338,117.16512180003338,117.16512180003338,117.16512180003338,117.16512180003338,1,1,[0.0007533000316470861],[0.36699750018306077],117.16512180003338,117.36550089996308,1000,117.36550089996308,1000,1000,1000,1000,1,num_2,0.5106925999280065,,33,15,2026-03-12_18h33.26.912,2026A_exp2,2022.2.4,59.850815876996954,
0,0,6.1,4.9,1,0,30,30,42,,,,,117.89953340007924,118.55068640015088,118.55068640015088,119.03456260007806,315,315,119.03456260007806,119.03456260007806,119.03456260007806,119.03456260007806,119.03456260007806,119.03456260007806,119.03456260007806,119.03456260007806,119.03456260007806,119.40100049995817,119.40100049995817,119.40100049995817,119.40100049995817,119.40100049995817,119.40100049995817,119.40100049995817,119.40100049995817,119.40100049995817,3,3,"[0.000812100013718009, 0.05046169995330274, 0.11780050001107156]","[0.0337606999091804, 0.08369969995692372, 0.36732989992015064]",119.40100049995817,119.60142990015447,6.1,119.60142990015447,0,6.1,1,0,1000,num_1,0.9950200999155641,,33,15,2026-03-12_18h33.26.912,2026A_exp2,2022.2.4,59.850815876996954,
1,0,0.0,0.0,0,0,31,31,39,,,,,120.61886960011907,121.26937670004554,121.26937670004554,121.75406219996512,45,45,121.75406219996512,121.75406219996512,121.75406219996512,121.75406219996512,121.75406219996512,121.75406219996512,121.75406219996512,121.75406219996512,121.75406219996512,122.120466100052,122.120466100052,122.120466100052,122.120466100052,122.120466100052,122.120466100052,122.120466100052,122.120466100052,122.120466100052,11,5,"[0.01720310002565384, 0.08340979996137321, 0.216895799851045, 0.2838455999735743, 0.3501966998446733]","[0.050112799974158406, 0.13361330004408956, 0.25036639999598265, 0.3331078998744488, 0.36684360005892813]",122.120466100052,122.32079090015031,0.0,122.32079090015031,0,0.0,0,1,1000,num_1,0.5799286998808384,,33,15,2026-03-12_18h33.26.912,2026A_exp2,2022.2.4,59.850815876996954,
1,0,6.1,0.0,0,0,32,32,77,,,,,122.9212492001243,123.57232409995049,123.57232409995049,124.05657010013238,315,315,124.05657010013238,124.05657010013238,124.05657010013238,124.05657010013238,124.05657010013238,124.05657010013238,124.05657010013238,124.05657010013238,124.05657010013238,124.42295820009895,124.42295820009895,124.42295820009895,124.42295820009895,124.42295820009895,124.42295820009895,124.42295820009895,124.42295820009895,124.42295820009895,11,4,"[0.0012904999312013388, 0.08330449997447431, 0.2838309998624027, 0.3673161000479013]","[0.05009200004860759, 0.1671283000614494, 0.3338880999945104, 0.36732079996727407]",124.42295820009895,124.62315210001543,6.1,124.62315210001543,1,6.1,1,1,1000,num_4,0.6291720999870449,,33,15,2026-03-12_18h33.26.912,2026A_exp2,2022.2.4,59.850815876996954,
1,0,0.0,6.1,1,0,33,33,5,,,,,125.27342370012775,125.92431699996814,125.92431699996814,126.40856130002066,45,45,126.40856130002066,126.40856130002066,126.40856130002066,126.40856130002066,126.40856130002066,126.40856130002066,126.40856130002066,126.40856130002066,126.40856130002066,126.77520409994759,126.77520409994759,126.77520409994759,126.77520409994759,126.77520409994759,126.77520409994759,126.77520409994759,126.77520409994759,126.77520409994759,3,2,"[0.017173999920487404, 0.10000580013729632]","[0.06688580010086298, 0.3672231000382453]",126.77520409994759,126.9754640001338,6.1,126.9754640001338,1,6.1,1,1,1000,num_4,0.6370262999553233,,33,15,2026-03-12_18h33.26.912,2026A_exp2,2022.2.4,59.850815876996954,
1,0,4.9,3.7,1,0,34,34,71,,,,,127.6425660001114,128.29344970011152,128.29344970011152,128.77780700009316,45,315,128.77780700009316,128.77780700009316,128.77780700009316,128.77780700009316,128.77780700009316,128.77780700009316,128.77780700009316,128.77780700009316,128.77780700009316,129.14423670014367,129.14423670014367,129.14423670014367,129.14423670014367,129.14423670014367,129.14423670014367,129.14423670014367,129.14423670014367,129.14423670014367,1,2,"[0.0012397998943924904, 0.3170987998601049]","[0.3004935998469591, 0.36735009984113276]",129.14423670014367,129.34433900006115,3.7,129.34433900006115,0,3.7,1,0,1000,num_1,0.5401121999602765,,33,15,2026-03-12_18h33.26.912,2026A_exp2,2022.2.4,59.850815876996954,
0,0,0.0,0.0,1,0,35,35,14,,,,,129.911515600048,130.56229660008103,130.56229660008103,131.04678980004974,315,45,131.04678980004974,131.04678980004974,131.04678980004974,131.04678980004974,131.04678980004974,131.04678980004974,131.04678980004974,131.04678980004974,131.04678980004974,131.41277449997142,131.41277449997142,131.41277449997142,131.41277449997142,131.41277449997142,131.41277449997142,131.41277449997142,131.41277449997142,131.41277449997142,5,4,"[0.0012290000449866056, 0.033469000132754445, 0.26689820014871657, 0.31699880002997816]","[0.017387900035828352, 0.23383280006237328, 0.28382640006020665, 0.3667939000297338]",131.41277449997142,131.6134218000807,0.0,131.6134218000807,1,0.0,0,0,1000,num_4,0.6303677998948842,,33,15,2026-03-12_18h33.26.912,2026A_exp2,2022.2.4,59.850815876996954,
1000,1,0.0,3.7,0,0,36,36,50,,,,,132.26389549998567,132.89803090016358,132.89803090016358,133.39904070016928,45,315,133.39904070016928,133.39904070016928,133.39904070016928,133.39904070016928,133.39904070016928,133.39904070016928,133.39904070016928,133.39904070016928,133.39904070016928,133.7654944001697,133.7654944001697,133.7654944001697,133.7654944001697,133.7654944001697,133.7654944001697,133.7654944001697,133.7654944001697,133.7654944001697,10,6,"[0.0012864999007433653, 0.11670439993031323, 0.16657530004158616, 0.23319229995831847, 0.2831426998600364, 0.3502741998527199]","[0.10007729986682534, 0.1333599998615682, 0.1999906999990344, 0.24980479991063476, 0.30000429996289313, 0.36683329986408353]",133.7654944001697,133.9674517000094,1000,133.9674517000094,1000,1000,1000,1000,1,num_2,0.4286128000821918,,33,15,2026-03-12_18h33.26.912,2026A_exp2,2022.2.4,59.850815876996954,
1,0,0.0,0.0,1,0,37,37,4,,,,,134.41635680012405,135.0554051999934,135.0554051999934,135.553272300167,315,315,135.553272300167,135.553272300167,135.553272300167,135.553272300167,135.553272300167,135.553272300167,135.553272300167,135.553272300167,135.553272300167,135.91771419998258,135.91771419998258,135.91771419998258,135.91771419998258,135.91771419998258,135.91771419998258,135.91771419998258,135.91771419998258,135.91771419998258,19,2,"[0.002069199923425913, 0.1825302999932319]","[0.04939349996857345, 0.1993253999389708]",135.91771419998258,136.11790710012428,0.0,136.11790710012428,0,0.0,0,1,1000,num_1,0.5504674999974668,,33,15,2026-03-12_18h33.26.912,2026A_exp2,2022.2.4,59.850815876996954,
1000,1,3.7,0.0,1,0,38,38,38,,,,,136.685197400162,137.33573870011605,137.33573870011605,137.81999500002712,315,315,137.81999500002712,137.81999500002712,137.81999500002712,137.81999500002712,137.81999500002712,137.81999500002712,137.81999500002712,137.81999500002712,137.81999500002712,138.18652960006148,138.18652960006148,138.18652960006148,138.18652960006148,138.18652960006148,138.18652960006148,138.18652960006148,138.18652960006148,138.18652960006148,2,2,"[0.0010834999848157167, 0.3342155001591891]","[0.30087779997847974, 0.3674951000139117]",138.18652960006148,138.38691480015405,1000,138.38691480015405,1000,1000,1000,1000,0,num_3,0.3287762999534607,,33,15,2026-03-12_18h33.26.912,2026A_exp2,2022.2.4,59.850815876996954,
1,0,0.0,3.7,0,0,39,39,76,,,,,138.73735020007007,139.38780890009366,139.38780890009366,139.88890180015005,45,315,139.88890180015005,139.88890180015005,139.88890180015005,139.88890180015005,139.88890180015005,139.88890180015005,139.88890180015005,139.88890180015005,139.88890180015005,140.2554262999911,140.2554262999911,140.2554262999911,140.2554262999911,140.2554262999911,140.2554262999911,140.2554262999911,140.2554262999911,140.2554262999911,1,1,[0.017562600085511804],[0.3671238999813795],140.2554262999911,140.45558629999869,0.0,140.45558629999869,0,0.0,0,1,1000,num_1,0.5245703998953104,,33,15,2026-03-12_18h33.26.912,2026A_exp2,2022.2.4,59.850815876996954,
1000,1,4.9,0.0,0,0,40,40,12,,,,,141.0059833000414,141.65666900016367,141.65666900016367,142.14115260005929,45,315,142.14115260005929,142.14115260005929,142.14115260005929,142.14115260005929,142.14115260005929,142.14115260005929,142.14115260005929,142.14115260005929,142.14115260005929,142.50749640003778,142.50749640003778,142.50749640003778,142.50749640003778,142.50749640003778,142.50749640003778,142.50749640003778,142.50749640003778,142.50749640003778,11,3,"[0.0012123999185860157, 0.1498677998315543, 0.35107859992422163]","[0.13315439992584288, 0.18323359987698495, 0.36699499981477857]",142.50749640003778,142.7100128000602,1000,142.7100128000602,1000,1000,1000,1000,0,num_3,0.21445999993011355,,33,15,2026-03-12_18h33.26.912,2026A_exp2,2022.2.4,59.850815876996954,
1000,1,0.0,0.0,0,0,41,41,13,,,,,142.94127920013852,143.5919697000645,143.5919697000645,144.09313880000263,45,315,144.09313880000263,144.09313880000263,144.09313880000263,144.09313880000263,144.09313880000263,144.09313880000263,144.09313880000263,144.09313880000263,144.09313880000263,144.4595598001033,144.4595598001033,144.4595598001033,144.4595598001033,144.4595598001033,144.4595598001033,144.4595598001033,144.4595598001033,144.4595598001033,0,1,[0.0012834998778998852],[0.36703479988500476],144.4595598001033,144.661467500031,1000,144.661467500031,1000,1000,1000,1000,1,num_2,0.39128499990329146,,33,15,2026-03-12_18h33.26.912,2026A_exp2,2022.2.4,59.850815876996954,
1,0,6.1,6.1,0,0,42,42,89,,,,,145.07675460004248,145.72743400000036,145.72743400000036,146.22849380015396,45,315,146.22849380015396,146.22849380015396,146.22849380015396,146.22849380015396,146.22849380015396,146.22849380015396,146.22849380015396,146.22849380015396,146.22849380015396,146.59489920013584,146.59489920013584,146.59489920013584,146.59489920013584,146.59489920013584,146.59489920013584,146.59489920013584,146.59489920013584,146.59489920013584,19,3,"[0.06655419990420341, 0.1333176998887211, 0.2168109999038279]","[0.09960249997675419, 0.1500970998313278, 0.2331658999901265]",146.59489920013584,146.79514089995064,6.1,146.79514089995064,0,6.1,1,0,1000,num_1,0.7205025001894683,,33,15,2026-03-12_18h33.26.912,2026A_exp2,2022.2.4,59.850815876996954,
1000,1,3.7,6.1,1,0,43,43,43,,,,,147.54602260002866,148.18763810000382,148.18763810000382,148.6811081999913,45,315,148.6811081999913,148.6811081999913,148.6811081999913,148.6811081999913,148.6811081999913,148.6811081999913,148.6811081999913,148.6811081999913,148.6811081999913,149.04738460015506,149.04738460015506,149.04738460015506,149.04738460015506,149.04738460015506,149.04738460015506,149.04738460015506,149.04738460015506,149.04738460015506,0,1,[0.0007290001958608627],[0.3676021001301706],149.04738460015506,149.2500136999879,1000,149.2500136999879,1000,1000,1000,1000,1,num_2,0.4417149000801146,,33,15,2026-03-12_18h33.26.912,2026A_exp2,2022.2.4,59.850815876996954,
1,0,0.0,4.9,1,0,44,44,73,,,,,149.7147121001035,150.36533630010672,150.36533630010672,150.86661120015197,315,315,150.86661120015197,150.86661120015197,150.86661120015197,150.86661120015197,150.86661120015197,150.86661120015197,150.86661120015197,150.86661120015197,150.86661120015197,151.2163211000152,151.2163211000152,151.2163211000152,151.2163211000152,151.2163211000152,151.2163211000152,151.2163211000152,151.2163211000152,151.2163211000152,19,3,"[0.1336515999864787, 0.23372639995068312, 0.35057160002179444]","[0.1503363000229001, 0.25051719998009503, 0.3505768000613898]",151.2163211000152,151.4163471001666,4.9,151.4331388999708,1,4.9,1,1,1000,num_4,0.7234452001284808,,33,15,2026-03-12_18h33.26.912,2026A_exp2,2022.2.4,59.850815876996954,
1000,1,3.7,0.0,1,0,45,45,19,,,,,152.18378269998357,152.83446920011193,152.83446920011193,153.33563830005005,45,45,153.33563830005005,153.33563830005005,153.33563830005005,153.33563830005005,153.33563830005005,153.33563830005005,153.33563830005005,153.33563830005005,153.33563830005005,153.7020338999573,153.7020338999573,153.7020338999573,153.7020338999573,153.7020338999573,153.7020338999573,153.7020338999573,153.7020338999573,153.7020338999573,9,5,"[0.0012459999416023493, 0.10026789992116392, 0.1502761000301689, 0.2334503000602126, 0.3673137999139726]","[0.050272100139409304, 0.13356800004839897, 0.20027650007978082, 0.3171775999944657, 0.3673195999581367]",153.7020338999573,153.90420900005847,1000,153.90420900005847,1000,1000,1000,1000,0,num_3,0.3964929999783635,,33,15,2026-03-12_18h33.26.912,2026A_exp2,2022.2.4,59.850815876996954,
1000,1,0.0,0.0,1,0,46,46,63,,,,,154.31911649997346,154.97007880010642,154.97007880010642,155.4712007001508,45,45,155.4712007001508,155.4712007001508,155.4712007001508,155.4712007001508,155.4712007001508,155.4712007001508,155.4712007001508,155.4712007001508,155.4712007001508,155.83758480008692,155.83758480008692,155.83758480008692,155.83758480008692,155.83758480008692,155.83758480008692,155.83758480008692,155.83758480008692,155.83758480008692,9,6,"[0.0012122998014092445, 0.050132199889048934, 0.16699369996786118, 0.25064619979821146, 0.33374149980954826, 0.3671762999147177]","[0.017489799996837974, 0.11690789996646345, 0.21711879991926253, 0.31717849988490343, 0.3510413998737931, 0.36718119983561337]",155.83758480008692,156.0394149001222,1000,156.0394149001222,1000,1000,1000,1000,1,num_2,0.4694378999993205,,33,15,2026-03-12_18h33.26.912,2026A_exp2,2022.2.4,59.850815876996954,
1,0,0.0,3.7,1,0,47,47,30,,,,,156.5383443001192,157.18898420012556,157.18898420012556,157.68986980011687,315,315,157.68986980011687,157.68986980011687,157.68986980011687,157.68986980011687,157.68986980011687,157.68986980011687,157.68986980011687,157.68986980011687,157.68986980011687,158.05637430003844,158.05637430003844,158.05637430003844,158.05637430003844,158.05637430003844,158.05637430003844,158.05637430003844,158.05637430003844,158.05637430003844,0,1,[0.0012116001453250647],[0.3666030999738723],158.05637430003844,158.25662230001763,3.7,158.25662230001763,1,3.7,1,1,1000,num_4,0.6122091000434011,,33,15,2026-03-12_18h33.26.912,2026A_exp2,2022.2.4,59.850815876996954,
1000,1,6.1,0.0,0,0,48,48,21,,,,,158.89052739995532,159.54139170004055,159.54139170004055,160.02558370004408,315,45,160.02558370004408,160.02558370004408,160.02558370004408,160.02558370004408,160.02558370004408,160.02558370004408,160.02558370004408,160.02558370004408,160.02558370004408,160.39197160000913,160.39197160000913,160.39197160000913,160.39197160000913,160.39197160000913,160.39197160000913,160.39197160000913,160.39197160000913,160.39197160000913,8,4,"[0.0012163000646978617, 0.06685630022548139, 0.2002816000021994, 0.30033220001496375]","[0.017196800094097853, 0.1670199001673609, 0.2502368001732975, 0.36723500001244247]",160.39197160000913,160.59404250001535,1000,160.59404250001535,1000,1000,1000,1000,0,num_3,0.23398040002211928,,33,15,2026-03-12_18h33.26.912,2026A_exp2,2022.2.4,59.850815876996954,
1000,1,4.9,0.0,1,0,49,49,84,,,,,160.85901610017754,161.50993130006827,161.50993130006827,161.99421020015143,45,45,161.99421020015143,161.99421020015143,161.99421020015143,161.99421020015143,161.99421020015143,161.99421020015143,161.99421020015143,161.99421020015143,161.99421020015143,162.36081240000203,162.36081240000203,162.36081240000203,162.36081240000203,162.36081240000203,162.36081240000203,162.36081240000203,162.36081240000203,162.36081240000203,0,1,[0.0012513999827206135],[0.3671051000710577],162.36081240000203,162.5635234999936,1000,162.5635234999936,1000,1000,1000,1000,0,num_3,0.3442015000618994,,33,15,2026-03-12_18h33.26.912,2026A_exp2,2022.2.4,59.850815876996954,
1,0,0.0,0.0,1,0,50,50,66,,,,,162.92806750000454,163.57867810013704,163.57867810013704,164.07963560009375,315,315,164.07963560009375,164.07963560009375,164.07963560009375,164.07963560009375,164.07963560009375,164.07963560009375,164.07963560009375,164.07963560009375,164.07963560009375,164.44612600002438,164.44612600002438,164.44612600002438,164.44612600002438,164.44612600002438,164.44612600002438,164.44612600002438,164.44612600002438,164.44612600002438,0,1,[0.0009689000435173512],[0.3676305999979377],164.44612600002438,164.64649880002253,0.0,164.64649880002253,1,0.0,0,0,1000,num_4,0.557345800101757,,33,15,2026-03-12_18h33.26.912,2026A_exp2,2022.2.4,59.850815876996954,
1000,1,0.0,0.0,1,0,51,51,35,,,,,165.23021059995517,165.8809642000124,165.8809642000124,166.36540780006908,45,45,166.36540780006908,166.36540780006908,166.36540780006908,166.36540780006908,166.36540780006908,166.36540780006908,166.36540780006908,166.36540780006908,166.36540780006908,166.7317518000491,166.7317518000491,166.7317518000491,166.7317518000491,166.7317518000491,166.7317518000491,166.7317518000491,166.7317518000491,166.7317518000491,1,2,"[0.00123109994456172, 0.3505941000767052]","[0.3337346001062542, 0.36719939997419715]",166.7317518000491,166.93340380000882,1000,166.93340380000882,1000,1000,1000,1000,1,num_2,0.4873224999755621,,33,15,2026-03-12_18h33.26.912,2026A_exp2,2022.2.4,59.850815876996954,
1,0,3.7,3.7,0,0,52,52,8,,,,,167.44915829994716,168.0996952999849,168.0996952999849,168.60102470009588,45,45,168.60102470009588,168.60102470009588,168.60102470009588,168.60102470009588,168.60102470009588,168.60102470009588,168.60102470009588,168.60102470009588,168.60102470009588,168.96728760004044,168.96728760004044,168.96728760004044,168.96728760004044,168.96728760004044,168.96728760004044,168.96728760004044,168.96728760004044,168.96728760004044,8,4,"[0.001248599961400032, 0.18375069997273386, 0.26710109994746745, 0.31694109993986785]","[0.1501789998728782, 0.2170670998748392, 0.30043429997749627, 0.35046230000443757]",168.96728760004044,169.16745900013484,3.7,169.16745900013484,1,3.7,1,1,1000,num_4,0.54894999996759,,33,15,2026-03-12_18h33.26.912,2026A_exp2,2022.2.4,59.850815876996954,
1000,1,0.0,0.0,0,0,53,53,24,,,,,169.73464390006848,170.3854272000026,170.3854272000026,170.8696708001662,45,315,170.8696708001662,170.8696708001662,170.8696708001662,170.8696708001662,170.8696708001662,170.8696708001662,170.8696708001662,170.8696708001662,170.8696708001662,171.2360772001557,171.2360772001557,171.2360772001557,171.2360772001557,171.2360772001557,171.2360772001557,171.2360772001557,171.2360772001557,171.2360772001557,0,1,[0.001208700006827712],[0.3668728000484407],171.2360772001557,171.4386532001663,1000,171.4386532001663,1000,1000,1000,1000,1,num_2,0.3411369000095874,,33,15,2026-03-12_18h33.26.912,2026A_exp2,2022.2.4,59.850815876996954,
0,0,4.9,6.1,1,0,54,54,70,,,,,171.80348889995366,172.45431579998694,172.45431579998694,172.9384348001331,315,45,172.9384348001331,172.9384348001331,172.9384348001331,172.9384348001331,172.9384348001331,172.9384348001331,172.9384348001331,172.9384348001331,172.9384348001331,173.32149760005996,173.32149760005996,173.32149760005996,173.32149760005996,173.32149760005996,173.32149760005996,173.32149760005996,173.32149760005996,173.32149760005996,1,1,[0.0012650999706238508],[0.3837200999259949],173.32149760005996,173.52186430012807,4.9,173.52186430012807,1,4.9,1,1,1000,num_4,0.5388052000198513,,33,15,2026-03-12_18h33.26.912,2026A_exp2,2022.2.4,59.850815876996954,
1000,1,0.0,0.0,1,0,55,55,68,,,,,174.08898760005832,174.73967560008168,174.73967560008168,175.2242265001405,315,315,175.2242265001405,175.2242265001405,175.2242265001405,175.2242265001405,175.2242265001405,175.2242265001405,175.2242265001405,175.2242265001405,175.2242265001405,175.59068890009075,175.59068890009075,175.59068890009075,175.59068890009075,175.59068890009075,175.59068890009075,175.59068890009075,175.59068890009075,175.59068890009075,2,2,"[0.017351999878883362, 0.16789499996230006]","[0.15412100008688867, 0.3671858001034707]",175.59068890009075,175.79295130004175,1000,175.79295130004175,1000,1000,1000,1000,0,num_3,0.3632809000555426,,33,15,2026-03-12_18h33.26.912,2026A_exp2,2022.2.4,59.850815876996954,
1,0,3.7,0.0,0,0,56,56,7,,,,,176.17447410011664,176.8252705000341,176.8252705000341,177.32633060007356,315,315,177.32633060007356,177.32633060007356,177.32633060007356,177.32633060007356,177.32633060007356,177.32633060007356,177.32633060007356,177.32633060007356,177.32633060007356,177.67607800010592,177.67607800010592,177.67607800010592,177.67607800010592,177.67607800010592,177.67607800010592,177.67607800010592,177.67607800010592,177.67607800010592,0,1,[0.0012063998728990555],[0.3507429000455886],177.67607800010592,177.8886190999765,3.7,177.8886190999765,1,3.7,1,1,1000,num_4,0.5392340999096632,,33,15,2026-03-12_18h33.26.912,2026A_exp2,2022.2.4,59.850815876996954,
1,0,0.0,0.0,0,0,57,57,22,,,,,178.44338960014284,179.09413300012238,179.09413300012238,179.59498660010286,315,45,179.59498660010286,179.59498660010286,179.59498660010286,179.59498660010286,179.59498660010286,179.59498660010286,179.59498660010286,179.59498660010286,179.59498660010286,179.94502710015513,179.94502710015513,179.94502710015513,179.94502710015513,179.94502710015513,179.94502710015513,179.94502710015513,179.94502710015513,179.94502710015513,2,3,"[0.0012379998806864023, 0.28387689986266196, 0.3170793999452144]","[0.2672603998798877, 0.3005939000286162, 0.3505394000094384]",179.94502710015513,180.14517150004394,0.0,180.14517150004394,1,0.0,0,0,1000,num_4,0.7632621000520885,,33,15,2026-03-12_18h33.26.912,2026A_exp2,2022.2.4,59.850815876996954,
1000,1,0.0,0.0,0,0,58,58,79,,,,,180.92917330004275,181.57964100013487,181.57964100013487,182.0641634000931,315,315,182.0641634000931,182.0641634000931,182.0641634000931,182.0641634000931,182.0641634000931,182.0641634000931,182.0641634000931,182.0641634000931,182.0641634000931,182.43085250002332,182.43085250002332,182.43085250002332,182.43085250002332,182.43085250002332,182.43085250002332,182.43085250002332,182.43085250002332,182.43085250002332,1,2,"[0.001212799921631813, 0.3172674998641014]","[0.3005733999889344, 0.3672845000401139]",182.43085250002332,182.63342550001107,1000,182.63342550001107,1000,1000,1000,1000,0,num_3,0.44337900006212294,,33,15,2026-03-12_18h33.26.912,2026A_exp2,2022.2.4,59.850815876996954,
1000,1,0.0,3.7,1,0,59,59,67,,,,,183.09836870012805,183.7486235999968,183.7486235999968,184.23308320017532,315,45,184.23308320017532,184.23308320017532,184.23308320017532,184.23308320017532,184.23308320017532,184.23308320017532,184.23308320017532,184.23308320017532,184.23308320017532,184.59968570014462,184.59968570014462,184.59968570014462,184.59968570014462,184.59968570014462,184.59968570014462,184.59968570014462,184.59968570014462,184.59968570014462,20,3,"[0.017275899881497025, 0.05017109983600676, 0.11697430000640452]","[0.03364739986136556, 0.06703079980798066, 0.13372549996711314]",184.59968570014462,184.80154210003093,1000,184.80154210003093,1000,1000,1000,1000,1,num_2,0.21122870012186468,,33,15,2026-03-12_18h33.26.912,2026A_exp2,2022.2.4,59.850815876996954,
1,0,0.0,0.0,1,0,60,60,59,,,,,185.0333841999527,185.68394350004382,185.68394350004382,186.1852033000905,315,45,186.1852033000905,186.1852033000905,186.1852033000905,186.1852033000905,186.1852033000905,186.1852033000905,186.1852033000905,186.1852033000905,186.1852033000905,186.53489200002514,186.53489200002514,186.53489200002514,186.53489200002514,186.53489200002514,186.53489200002514,186.53489200002514,186.53489200002514,186.53489200002514,2,2,"[0.001209300011396408, 0.25046869996003807]","[0.233773099957034, 0.3506487999111414]",186.53489200002514,186.73503430001438,0.0,186.73503430001438,1,0.0,0,0,1000,num_4,0.588614699896425,,33,15,2026-03-12_18h33.26.912,2026A_exp2,2022.2.4,59.850815876996954,
1000,1,3.7,0.0,0,0,61,61,55,,,,,187.3522212000098,188.00307750003412,188.00307750003412,188.4875398001168,315,45,188.4875398001168,188.4875398001168,188.4875398001168,188.4875398001168,188.4875398001168,188.4875398001168,188.4875398001168,188.4875398001168,188.4875398001168,188.8538450000342,188.8538450000342,188.8538450000342,188.8538450000342,188.8538450000342,188.8538450000342,188.8538450000342,188.8538450000342,188.8538450000342,1,2,"[0.0014146999455988407, 0.1835274000186473]","[0.16670889989472926, 0.3669045998249203]",188.8538450000342,189.05589139997028,1000,189.05589139997028,1000,1000,1000,1000,0,num_3,0.30834370013326406,,33,15,2026-03-12_18h33.26.912,2026A_exp2,2022.2.4,59.850815876996954,
1,0,6.1,0.0,1,0,62,62,17,,,,,189.38771160016768,190.03849450009875,190.03849450009875,190.53940600017086,45,45,190.53940600017086,190.53940600017086,190.53940600017086,190.53940600017086,190.53940600017086,190.53940600017086,190.53940600017086,190.53940600017086,190.53940600017086,190.90591560001485,190.90591560001485,190.90591560001485,190.90591560001485,190.90591560001485,190.90591560001485,190.90591560001485,190.90591560001485,190.90591560001485,0,1,[0.0012105000205338001],[0.36722729983739555],190.90591560001485,191.1061386000365,0.0,191.1061386000365,0,0.0,0,1,1000,num_1,0.6505236998200417,,33,15,2026-03-12_18h33.26.912,2026A_exp2,2022.2.4,59.850815876996954,
1,0,3.7,0.0,0,0,63,63,3,,,,,191.77339540002868,192.42419799999334,192.42419799999334,192.9085721001029,315,45,192.9085721001029,192.9085721001029,192.9085721001029,192.9085721001029,192.9085721001029,192.9085721001029,192.9085721001029,192.9085721001029,192.9085721001029,193.27502020006068,193.27502020006068,193.27502020006068,193.27502020006068,193.27502020006068,193.27502020006068,193.27502020006068,193.27502020006068,193.27502020006068,13,3,"[0.13380510010756552, 0.2172624000813812, 0.2505876999348402]","[0.15044030011631548, 0.2337913999799639, 0.36737870005890727]",193.27502020006068,193.47534630005248,3.7,193.47534630005248,1,3.7,1,1,1000,num_4,0.6166097999084741,,33,15,2026-03-12_18h33.26.912,2026A_exp2,2022.2.4,59.850815876996954,
1,0,6.1,0.0,0,0,64,64,51,,,,,194.10899009997956,194.74291210016236,194.74291210016236,195.24426840012893,45,315,195.24426840012893,195.24426840012893,195.24426840012893,195.24426840012893,195.24426840012893,195.24426840012893,195.24426840012893,195.24426840012893,195.24426840012893,195.6105843000114,195.6105843000114,195.6105843000114,195.6105843000114,195.6105843000114,195.6105843000114,195.6105843000114,195.6105843000114,195.6105843000114,0,1,[0.0012064001057296991],[0.3671424000058323],195.6105843000114,195.8107561999932,6.1,195.8107561999932,1,6.1,1,1,1000,num_4,0.5533980999607593,,33,15,2026-03-12_18h33.26.912,2026A_exp2,2022.2.4,59.850815876996954,
1000,1,4.9,0.0,0,0,65,65,37,,,,,196.3947066999972,197.04537190007977,197.04537190007977,197.5298291000072,45,45,197.5298291000072,197.5298291000072,197.5298291000072,197.5298291000072,197.5298291000072,197.5298291000072,197.5298291000072,197.5298291000072,197.5298291000072,197.89632649999112,197.89632649999112,197.89632649999112,197.89632649999112,197.89632649999112,197.89632649999112,197.89632649999112,197.89632649999112,197.89632649999112,6,6,"[0.0007703998126089573, 0.06675719982013106, 0.13359949993900955, 0.16728739999234676, 0.25070839980617166, 0.3341224000323564]","[0.05010899994522333, 0.10020269989036024, 0.15055170003324747, 0.23409879999235272, 0.3175168999005109, 0.3673950999509543]",197.89632649999112,198.09840550017543,1000,198.09840550017543,1000,1000,1000,1000,0,num_3,0.5066051997710019,,33,15,2026-03-12_18h33.26.912,2026A_exp2,2022.2.4,59.850815876996954,
1,0,3.7,0.0,0,0,66,66,9,,,,,198.63021480012685,199.28105280012824,199.28105280012824,199.78215200011618,315,45,199.78215200011618,199.78215200011618,199.78215200011618,199.78215200011618,199.78215200011618,199.78215200011618,199.78215200011618,199.78215200011618,199.78215200011618,200.14849769999273,200.14849769999273,200.14849769999273,200.14849769999273,200.14849769999273,200.14849769999273,200.14849769999273,200.14849769999273,200.14849769999273,0,1,[0.0012205999810248613],[0.36715140007436275],200.14849769999273,200.34874150017276,3.7,200.34874150017276,1,3.7,1,1,1000,num_4,0.5122612998820841,,33,15,2026-03-12_18h33.26.912,2026A_exp2,2022.2.4,59.850815876996954,
0,0,6.1,6.1,1,0,67,67,48,,,,,200.88244480011053,201.53314860002138,201.53314860002138,202.03413260006346,45,315,202.03413260006346,202.03413260006346,202.03413260006346,202.03413260006346,202.03413260006346,202.03413260006346,202.03413260006346,202.03413260006346,202.03413260006346,202.40078220004216,202.40078220004216,202.40078220004216,202.40078220004216,202.40078220004216,202.40078220004216,202.40078220004216,202.40078220004216,202.40078220004216,0,1,[0.0012183000799268484],[0.3666006999555975],202.40078220004216,202.6008562000934,6.1,202.6008562000934,0,6.1,1,0,1000,num_1,0.6351577001623809,,33,15,2026-03-12_18h33.26.912,2026A_exp2,2022.2.4,59.850815876996954,
1,0,0.0,0.0,1,0,68,68,20,,,,,203.2515444001183,203.90228860010393,203.90228860010393,204.38668600004166,45,45,204.38668600004166,204.38668600004166,204.38668600004166,204.38668600004166,204.38668600004166,204.38668600004166,204.38668600004166,204.38668600004166,204.38668600004166,204.7532028001733,204.7532028001733,204.7532028001733,204.7532028001733,204.7532028001733,204.7532028001733,204.7532028001733,204.7532028001733,204.7532028001733,7,4,"[0.03346360009163618, 0.08364409999921918, 0.1670049000531435, 0.23339720000512898]","[0.06647850014269352, 0.15018630004487932, 0.1836111000739038, 0.36733980011194944]",204.7532028001733,204.95330730010755,0.0,204.95330730010755,0,0.0,0,1,1000,num_1,0.6904190999921411,,33,15,2026-03-12_18h33.26.912,2026A_exp2,2022.2.4,59.850815876996954,
1,0,0.0,4.9,1,0,69,69,41,,,,,205.6706004999578,206.3214439000003,206.3214439000003,206.80584409995936,45,315,206.80584409995936,206.80584409995936,206.80584409995936,206.80584409995936,206.80584409995936,206.80584409995936,206.80584409995936,206.80584409995936,206.80584409995936,207.17236460000277,207.17236460000277,207.17236460000277,207.17236460000277,207.17236460000277,207.17236460000277,207.17236460000277,207.17236460000277,207.17236460000277,16,3,"[0.0012495999690145254, 0.13383369985967875, 0.3004483999684453]","[0.050126299960538745, 0.16695429990068078, 0.33398929983377457]",207.17236460000277,207.37237030011602,4.9,207.37237030011602,0,4.9,1,0,1000,num_1,0.6246780999936163,,33,15,2026-03-12_18h33.26.912,2026A_exp2,2022.2.4,59.850815876996954,
1,0,3.7,3.7,0,0,70,70,60,,,,,208.0229933001101,208.67364570009522,208.67364570009522,209.1582174000796,315,45,209.1582174000796,209.1582174000796,209.1582174000796,209.1582174000796,209.1582174000796,209.1582174000796,209.1582174000796,209.1582174000796,209.1582174000796,209.5245974001009,209.5245974001009,209.5245974001009,209.5245974001009,209.5245974001009,209.5245974001009,209.5245974001009,209.5245974001009,209.5245974001009,10,5,"[0.0012133000418543816, 0.06681680004112422, 0.15019079996272922, 0.21696639992296696, 0.3670139000751078]","[0.03327029990032315, 0.1168770999647677, 0.18350699986331165, 0.30042009986937046, 0.36701849987730384]",209.5245974001009,209.7246094001457,3.7,209.74149579997174,1,3.7,1,1,1000,num_4,0.5100253999698907,,33,15,2026-03-12_18h33.26.912,2026A_exp2,2022.2.4,59.850815876996954,
0,0,0.0,4.9,1,0,71,71,0,,,,,210.2751565000508,210.92598680010997,210.92598680010997,211.4104375001043,45,45,211.4104375001043,211.4104375001043,211.4104375001043,211.4104375001043,211.4104375001043,211.4104375001043,211.4104375001043,211.4104375001043,211.4104375001043,211.77692420012318,211.77692420012318,211.77692420012318,211.77692420012318,211.77692420012318,211.77692420012318,211.77692420012318,211.77692420012318,211.77692420012318,4,3,"[0.0012990999966859818, 0.1834692000411451, 0.2836519000120461]","[0.16682899999432266, 0.23382469988428056, 0.3670301998499781]",211.77692420012318,211.97699630004354,0.0,211.97699630004354,0,0.0,0,1,1000,num_1,0.8116774000227451,,33,15,2026-03-12_18h33.26.912,2026A_exp2,2022.2.4,59.850815876996954,
0,0,0.0,4.9,1,0,72,72,33,,,,,212.8110938000027,213.44763489998877,213.44763489998877,213.9464857999701,315,315,213.9464857999701,213.9464857999701,213.9464857999701,213.9464857999701,213.9464857999701,213.9464857999701,213.9464857999701,213.9464857999701,213.9464857999701,214.31260720011778,214.31260720011778,214.31260720011778,214.31260720011778,214.31260720011778,214.31260720011778,214.31260720011778,214.31260720011778,214.31260720011778,0,1,[0.0012101000174880028],[0.3672768999822438],214.31260720011778,214.5129231000319,0.0,214.5129231000319,0,0.0,0,1,1000,num_1,0.5397353998851031,,33,15,2026-03-12_18h33.26.912,2026A_exp2,2022.2.4,59.850815876996954,
1000,1,6.1,0.0,0,0,73,73,69,,,,,215.0802251000423,215.73080829996616,215.73080829996616,216.21524800010957,45,315,216.21524800010957,216.21524800010957,216.21524800010957,216.21524800010957,216.21524800010957,216.21524800010957,216.21524800010957,216.21524800010957,216.21524800010957,216.5816939000506,216.5816939000506,216.5816939000506,216.5816939000506,216.5816939000506,216.5816939000506,216.5816939000506,216.5816939000506,216.5816939000506,3,2,"[0.0011885999701917171, 0.2504709998611361]","[0.20042479992844164, 0.367212199838832]",216.5816939000506,216.78389780013822,1000,216.78389780013822,1000,1000,1000,1000,0,num_3,0.4761830000206828,,33,15,2026-03-12_18h33.26.912,2026A_exp2,2022.2.4,59.850815876996954,
1000,1,0.0,0.0,0,0,74,74,2,,,,,217.28231679997407,217.93301210016944,217.93301210016944,218.43402060004883,315,45,218.43402060004883,218.43402060004883,218.43402060004883,218.43402060004883,218.43402060004883,218.43402060004883,218.43402060004883,218.43402060004883,218.43402060004883,218.8006637999788,218.8006637999788,218.8006637999788,218.8006637999788,218.8006637999788,218.8006637999788,218.8006637999788,218.8006637999788,218.8006637999788,8,4,"[0.0012159999459981918, 0.15028089983388782, 0.23363110003992915, 0.26688849995844066]","[0.05023940000683069, 0.21699089999310672, 0.2504059998318553, 0.3669992999639362]",218.8006637999788,219.00131430011243,1000,219.00131430011243,1000,1000,1000,1000,0,num_3,0.6988373000640422,,33,15,2026-03-12_18h33.26.912,2026A_exp2,2022.2.4,59.850815876996954,
1000,1,6.1,6.1,1,0,75,75,53,,,,,219.71817440004088,220.3687567000743,220.3687567000743,220.86989310011268,315,45,220.86989310011268,220.86989310011268,220.86989310011268,220.86989310011268,220.86989310011268,220.86989310011268,220.86989310011268,220.86989310011268,220.86989310011268,221.23625140008517,221.23625140008517,221.23625140008517,221.23625140008517,221.23625140008517,221.23625140008517,221.23625140008517,221.23625140008517,221.23625140008517,6,2,"[0.03339660004712641, 0.24992630002088845]","[0.2332280999980867, 0.3337383000180125]",221.23625140008517,221.43850140017457,1000,221.43850140017457,1000,1000,1000,1000,1,num_2,0.42176060006022453,,33,15,2026-03-12_18h33.26.912,2026A_exp2,2022.2.4,59.850815876996954,
1,0,3.7,6.1,1,0,76,76,75,,,,,221.88705070014112,222.53778970008716,222.53778970008716,223.03878209996037,45,315,223.03878209996037,223.03878209996037,223.03878209996037,223.03878209996037,223.03878209996037,223.03878209996037,223.03878209996037,223.03878209996037,223.03878209996037,223.38859240012243,223.38859240012243,223.38859240012243,223.38859240012243,223.38859240012243,223.38859240012243,223.38859240012243,223.38859240012243,223.38859240012243,2,1,[0.001218999968841672],[0.3351280000060797],223.38859240012243,223.58878890005872,6.1,223.60536770010367,1,6.1,1,1,1000,num_4,0.590255199931562,,33,15,2026-03-12_18h33.26.912,2026A_exp2,2022.2.4,59.850815876996954,
1000,1,0.0,0.0,1,0,77,77,34,,,,,224.22249830001965,224.8565994000528,224.8565994000528,225.37376190000214,315,315,225.37376190000214,225.37376190000214,225.37376190000214,225.37376190000214,225.37376190000214,225.37376190000214,225.37376190000214,225.37376190000214,225.37376190000214,225.72427730006166,225.72427730006166,225.72427730006166,225.72427730006166,225.72427730006166,225.72427730006166,225.72427730006166,225.72427730006166,225.72427730006166,2,2,"[0.0043045999482274055, 0.14869070006534457]","[0.11509540001861751, 0.3654523999430239]",225.72427730006166,225.94128610007465,1000,225.94128610007465,1000,1000,1000,1000,0,num_3,0.40769660007208586,,33,15,2026-03-12_18h33.26.912,2026A_exp2,2022.2.4,59.850815876996954,
0,0,0.0,6.1,1,0,78,78,46,,,,,226.374684400158,227.0252976999618,227.0252976999618,227.53166900016367,45,45,227.53166900016367,227.53166900016367,227.53166900016367,227.53166900016367,227.53166900016367,227.53166900016367,227.53166900016367,227.53166900016367,227.53166900016367,227.87644620006904,227.87644620006904,227.87644620006904,227.87644620006904,227.87644620006904,227.87644620006904,227.87644620006904,227.87644620006904,227.87644620006904,0,1,[0.002548400079831481],[0.3507376001216471],227.87644620006904,228.07634380017407,0.0,228.07634380017407,0,0.0,0,1,1000,num_1,0.5683284997940063,,33,15,2026-03-12_18h33.26.912,2026A_exp2,2022.2.4,59.850815876996954,
1,0,4.9,4.9,0,0,79,79,28,,,,,228.6604564001318,229.31099020014517,229.31099020014517,229.79551450000145,45,45,229.79551450000145,229.79551450000145,229.79551450000145,229.79551450000145,229.79551450000145,229.79551450000145,229.79551450000145,229.79551450000145,229.79551450000145,230.1619186999742,230.1619186999742,230.1619186999742,230.1619186999742,230.1619186999742,230.1619186999742,230.1619186999742,230.1619186999742,230.1619186999742,5,3,"[0.0012026999611407518, 0.3171556999441236, 0.3673314999323338]","[0.2505791001021862, 0.3506845000665635, 0.3673374999780208]",230.1619186999742,230.36214690003544,4.9,230.36214690003544,0,4.9,1,0,1000,num_1,0.882476800121367,,33,15,2026-03-12_18h33.26.912,2026A_exp2,2022.2.4,59.850815876996954,
1000,1,6.1,6.1,0,0,80,80,87,,,,,231.26302490010858,231.91356840007938,231.91356840007938,232.39792480017059,315,45,232.39792480017059,232.39792480017059,232.39792480017059,232.39792480017059,232.39792480017059,232.39792480017059,232.39792480017059,232.39792480017059,232.39792480017059,232.764323099982,232.764323099982,232.764323099982,232.764323099982,232.764323099982,232.764323099982,232.764323099982,232.764323099982,232.764323099982,2,2,"[0.0018714999314397573, 0.08359209983609617]","[0.05020989989861846, 0.36722829984501004]",232.764323099982,232.96677449997514,1000,232.96677449997514,1000,1000,1000,1000,0,num_3,0.5019031001720577,,33,15,2026-03-12_18h33.26.912,2026A_exp2,2022.2.4,59.850815876996954,
1,0,0.0,0.0,0,0,81,81,61,,,,,233.49869880010374,234.1519922001753,234.1519922001753,234.65038500004448,45,45,234.65038500004448,234.65038500004448,234.65038500004448,234.65038500004448,234.65038500004448,234.65038500004448,234.65038500004448,234.65038500004448,234.65038500004448,235.0167392999865,235.0167392999865,235.0167392999865,235.0167392999865,235.0167392999865,235.0167392999865,235.0167392999865,235.0167392999865,235.0167392999865,6,5,"[0.0012178001925349236, 0.04960000002756715, 0.20013690018095076, 0.266939900116995, 0.3002939000725746]","[0.033080900087952614, 0.150035000173375, 0.2500887999776751, 0.28347570006735623, 0.36696350015699863]",235.0167392999865,235.21695820009336,0.0,235.21695820009336,1,0.0,0,0,1000,num_4,0.7398022999987006,,33,15,2026-03-12_18h33.26.912,2026A_exp2,2022.2.4,59.850815876996954,
1000,1,0.0,4.9,0,0,82,82,23,,,,,235.98436510004103,236.63513000006787,236.63513000006787,237.11930480017327,315,45,237.11930480017327,237.11930480017327,237.11930480017327,237.11930480017327,237.11930480017327,237.11930480017327,237.11930480017327,237.11930480017327,237.11930480017327,237.4858218000736,237.4858218000736,237.4858218000736,237.4858218000736,237.4858218000736,237.4858218000736,237.4858218000736,237.4858218000736,237.4858218000736,3,3,"[0.0012522998731583357, 0.10029049986042082, 0.3171903998591006]","[0.06683059991337359, 0.30035649985074997, 0.3674172000028193]",237.4858218000736,237.68624039995484,1000,237.68624039995484,1000,1000,1000,1000,1,num_2,0.4697350999340415,,33,15,2026-03-12_18h33.26.912,2026A_exp2,2022.2.4,59.850815876996954,
1,0,0.0,0.0,1,0,83,83,58,,,,,238.18666080012918,238.83726310008205,238.83726310008205,239.33840560005046,315,45,239.33840560005046,239.33840560005046,239.33840560005046,239.33840560005046,239.33840560005046,239.33840560005046,239.33840560005046,239.33840560005046,239.33840560005046,239.70471470011398,239.70471470011398,239.70471470011398,239.70471470011398,239.70471470011398,239.70471470011398,239.70471470011398,239.70471470011398,239.70471470011398,3,3,"[0.0013216999359428883, 0.15012050000950694, 0.2168593998067081]","[0.13335169991478324, 0.18345939996652305, 0.3669409998692572]",239.70471470011398,239.90496840002015,0.0,239.90496840002015,0,0.0,0,1,1000,num_1,0.6593397001270205,,33,15,2026-03-12_18h33.26.912,2026A_exp2,2022.2.4,59.850815876996954,
1,0,4.9,6.1,1,0,84,84,36,,,,,240.5888543999754,241.23972379998304,241.23972379998304,241.72394419997,45,315,241.72394419997,241.72394419997,241.72394419997,241.72394419997,241.72394419997,241.72394419997,241.72394419997,241.72394419997,241.72394419997,242.0905439001508,242.0905439001508,242.0905439001508,242.0905439001508,242.0905439001508,242.0905439001508,242.0905439001508,242.0905439001508,242.0905439001508,0,1,[0.001205699983984232],[0.36729530012235045],242.0905439001508,242.29062960017473,6.1,242.29062960017473,1,6.1,1,1,1000,num_4,0.6656554997898638,,33,15,2026-03-12_18h33.26.912,2026A_exp2,2022.2.4,59.850815876996954,
0,0,0.0,4.9,0,0,85,85,65,,,,,242.9745455000084,243.62533880001865,243.62533880001865,244.10975880012847,45,45,244.10975880012847,244.10975880012847,244.10975880012847,244.10975880012847,244.10975880012847,244.10975880012847,244.10975880012847,244.10975880012847,244.10975880012847,244.4762122000102,244.4762122000102,244.4762122000102,244.4762122000102,244.4762122000102,244.4762122000102,244.4762122000102,244.4762122000102,244.4762122000102,0,1,[0.0012359998654574156],[0.3670836000237614],244.4762122000102,244.67646520002745,4.9,244.67646520002745,1,4.9,1,1,1000,num_4,0.5352062999736518,,33,15,2026-03-12_18h33.26.912,2026A_exp2,2022.2.4,59.850815876996954,
1,0,3.7,0.0,0,0,86,86,10,,,,,245.24362690001726,245.89432540000416,245.89432540000416,246.37868910003453,315,315,246.37868910003453,246.37868910003453,246.37868910003453,246.37868910003453,246.37868910003453,246.37868910003453,246.37868910003453,246.37868910003453,246.37868910003453,246.74502969998866,246.74502969998866,246.74502969998866,246.74502969998866,246.74502969998866,246.74502969998866,246.74502969998866,246.74502969998866,246.74502969998866,22,1,[0.1667816999834031],[0.18356329994276166],246.74502969998866,246.94519070000388,3.7,246.94519070000388,1,3.7,1,1,1000,num_4,0.46696630003862083,,33,15,2026-03-12_18h33.26.912,2026A_exp2,2022.2.4,59.850815876996954,
1000,1,3.7,4.9,0,0,87,87,25,,,,,247.42921500001103,248.07974790013395,248.07974790013395,248.5641332999803,45,45,248.5641332999803,248.5641332999803,248.5641332999803,248.5641332999803,248.5641332999803,248.5641332999803,248.5641332999803,248.5641332999803,248.5641332999803,248.9306702001486,248.9306702001486,248.9306702001486,248.9306702001486,248.9306702001486,248.9306702001486,248.9306702001486,248.9306702001486,248.9306702001486,4,2,"[0.0336795998737216, 0.08343099988996983]","[0.05014139995910227, 0.3671947999391705]",248.9306702001486,249.13262880011462,1000,249.13262880011462,1000,1000,1000,1000,1,num_2,0.4721989000681788,,33,15,2026-03-12_18h33.26.912,2026A_exp2,2022.2.4,59.850815876996954,
1000,1,0.0,6.1,0,0,88,88,27,,,,,249.6314338000957,250.28202460007742,250.28202460007742,250.78298919997178,45,45,250.78298919997178,250.78298919997178,250.78298919997178,250.78298919997178,250.78298919997178,250.78298919997178,250.78298919997178,250.78298919997178,250.78298919997178,251.14985050004907,251.14985050004907,251.14985050004907,251.14985050004907,251.14985050004907,251.14985050004907,251.14985050004907,251.14985050004907,251.14985050004907,23,0,,,251.14985050004907,251.35183030017652,1000,251.35183030017652,1000,1000,1000,1000,1,num_2,0.38034399994648993,,33,15,2026-03-12_18h33.26.912,2026A_exp2,2022.2.4,59.850815876996954,
1000,1,3.7,0.0,1,0,89,89,52,,,,,251.75025240005925,252.4007671000436,252.4007671000436,252.90184379997663,45,315,252.90184379997663,252.90184379997663,252.90184379997663,252.90184379997663,252.90184379997663,252.90184379997663,252.90184379997663,252.90184379997663,252.90184379997663,253.2684180000797,253.2684180000797,253.2684180000797,253.2684180000797,253.2684180000797,253.2684180000797,253.2684180000797,253.2684180000797,253.2684180000797,23,0,,,253.2684180000797,253.47067159996368,1000,253.47067159996368,1000,1000,1000,1000,0,num_3,0.3423122998792678,,33,15,2026-03-12_18h33.26.912,2026A_exp2,2022.2.4,59.850815876996954,
,,,,,,,,,,,,,,,,,,,,,,,,,,,,,,,,,,,,,,,,,,,,,,,,,,,,253.84571620007046,,,,,,,
