validity,detectorcomp,contrastCW,contrastCCW,precueCWorCCW,block_80trials.thisRepN,block_80trials.thisTrialN,block_80trials.thisN,block_80trials.thisIndex,etRecord.started,etRecord.stopped,text.started,text.stopped,text_4.started,text_4.stopped,text_6.started,text_6.stopped,oriCW,oriCCW,roi_2.started,grating_UR.started,grating_UL.started,grating_LR.started,grating_LL.started,noise_UR.started,noise_UL.started,noise_LR.started,noise_LL.started,roi_2.stopped,grating_UR.stopped,grating_UL.stopped,grating_LR.stopped,grating_LL.stopped,noise_UR.stopped,noise_UL.stopped,noise_LR.stopped,noise_LL.stopped,outframe,roi_2.numLooks,roi_2.timesOn,roi_2.timesOff,text_2.started,text_2.stopped,probedcontrast,key_resp.started,respdetect,relevantContrast,correctDetect,TorFdetect,respCWorCCW,key_resp.keys,key_resp.rt,feedback_display_.started,participantNo,blockNo,date,expName,psychopyVersion,frameRate,
1,0,0.0,0.0,1,0,0,0,31,0.00010980013757944107,0.00010980013757944107,48.53754359995946,50.54103409987874,50.54103409987874,51.17419299995527,51.17419299995527,51.6967368000187,315,45,51.6967368000187,51.6967368000187,51.6967368000187,51.6967368000187,51.6967368000187,51.6967368000187,51.6967368000187,51.6967368000187,51.6967368000187,52.041603500023484,52.041603500023484,52.041603500023484,52.041603500023484,52.041603500023484,52.041603500023484,52.041603500023484,52.041603500023484,52.041603500023484,0,1,[0.0011305001098662615],[0.3681016000919044],52.041603500023484,52.24188499990851,0.0,52.24188499990851,0,0.0,0,1,1000,num_1,0.8767889000009745,,34,5,2026-03-13_10h32.13.786,2026A_exp2,2022.2.4,59.95426689991321,
1,0,3.7,0.0,1,0,1,1,30,,,,,53.14271829999052,53.793743199901655,53.793743199901655,54.29434900009073,45,45,54.29434900009073,54.29434900009073,54.29434900009073,54.29434900009073,54.29434900009073,54.29434900009073,54.29434900009073,54.29434900009073,54.29434900009073,54.66057189996354,54.66057189996354,54.66057189996354,54.66057189996354,54.66057189996354,54.66057189996354,54.66057189996354,54.66057189996354,54.66057189996354,0,1,[0.0012067998759448528],[0.3670712998136878],54.66057189996354,54.8610072999727,0.0,54.8610072999727,0,0.0,0,1,1000,num_1,0.6340520998928696,,34,5,2026-03-13_10h32.13.786,2026A_exp2,2022.2.4,59.95426689991321,
1,0,0.0,4.9,0,0,2,2,70,,,,,55.51181930000894,56.16249049990438,56.16249049990438,56.64690289995633,315,45,56.64690289995633,56.64690289995633,56.64690289995633,56.64690289995633,56.64690289995633,56.64690289995633,56.64690289995633,56.64690289995633,56.64690289995633,57.01325990003534,57.01325990003534,57.01325990003534,57.01325990003534,57.01325990003534,57.01325990003534,57.01325990003534,57.01325990003534,57.01325990003534,0,1,[0.0012242000084370375],[0.36709670000709593],57.01325990003534,57.21352949994616,0.0,57.21352949994616,0,0.0,0,1,1000,num_1,0.4969971999526024,,34,5,2026-03-13_10h32.13.786,2026A_exp2,2022.2.4,59.95426689991321,
1000,1,0.0,3.7,0,0,3,3,63,,,,,57.73076510010287,58.38121969997883,58.38121969997883,58.86549900006503,315,45,58.86549900006503,58.86549900006503,58.86549900006503,58.86549900006503,58.86549900006503,58.86549900006503,58.86549900006503,58.86549900006503,58.86549900006503,59.23211569990963,59.23211569990963,59.23211569990963,59.23211569990963,59.23211569990963,59.23211569990963,59.23211569990963,59.23211569990963,59.23211569990963,0,1,[0.0012632999569177628],[0.36730699986219406],59.23211569990963,59.437619799980894,1000,59.437619799980894,1000,1000,1000,1000,1,num_2,0.5933972999919206,,34,5,2026-03-13_10h32.13.786,2026A_exp2,2022.2.4,59.95426689991321,
1,0,3.7,0.0,0,0,4,4,10,,,,,60.049671299988404,60.700277199968696,60.700277199968696,61.20132529991679,45,45,61.20132529991679,61.20132529991679,61.20132529991679,61.20132529991679,61.20132529991679,61.20132529991679,61.20132529991679,61.20132529991679,61.20132529991679,61.56764049991034,61.56764049991034,61.56764049991034,61.56764049991034,61.56764049991034,61.56764049991034,61.56764049991034,61.56764049991034,61.56764049991034,0,1,[0.0012338000815361738],[0.3671572001185268],61.56764049991034,61.768005799967796,3.7,61.768005799967796,1,3.7,1,1,1000,num_4,0.5906299999915063,,34,5,2026-03-13_10h32.13.786,2026A_exp2,2022.2.4,59.95426689991321,
1000,1,0.0,4.9,0,0,5,5,0,,,,,62.38507180009037,63.03592379996553,63.03592379996553,63.52043260005303,45,315,63.52043260005303,63.52043260005303,63.52043260005303,63.52043260005303,63.52043260005303,63.52043260005303,63.52043260005303,63.52043260005303,63.52043260005303,63.886765900067985,63.886765900067985,63.886765900067985,63.886765900067985,63.886765900067985,63.886765900067985,63.886765900067985,63.886765900067985,63.886765900067985,0,1,[0.0012940000742673874],[0.36717800004407763],63.886765900067985,64.08716370002367,1000,64.08716370002367,1000,1000,1000,1000,1,num_2,0.48824770003557205,,34,5,2026-03-13_10h32.13.786,2026A_exp2,2022.2.4,59.95426689991321,
1000,1,4.9,0.0,1,0,6,6,12,,,,,64.60414130007848,65.25482819997706,65.25482819997706,65.75601559993811,315,315,65.75601559993811,65.75601559993811,65.75601559993811,65.75601559993811,65.75601559993811,65.75601559993811,65.75601559993811,65.75601559993811,65.75601559993811,66.12236939999275,66.12236939999275,66.12236939999275,66.12236939999275,66.12236939999275,66.12236939999275,66.12236939999275,66.12236939999275,66.12236939999275,7,4,"[0.001273399917408824, 0.05013610003516078, 0.2671481999568641, 0.3499785999301821]","[0.01753040007315576, 0.2504902998916805, 0.3002213998697698, 0.3667409000918269]",66.12236939999275,66.34337570006028,1000,66.34337570006028,1000,1000,1000,1000,0,num_3,0.5523902999702841,,34,5,2026-03-13_10h32.13.786,2026A_exp2,2022.2.4,59.95426689991321,
1000,1,3.7,0.0,0,0,7,7,86,,,,,66.92330750008114,67.57387969992124,67.57387969992124,68.07493910007179,315,45,68.07493910007179,68.07493910007179,68.07493910007179,68.07493910007179,68.07493910007179,68.07493910007179,68.07493910007179,68.07493910007179,68.07493910007179,68.44136500009336,68.44136500009336,68.44136500009336,68.44136500009336,68.44136500009336,68.44136500009336,68.44136500009336,68.44136500009336,68.44136500009336,0,1,[0.00122710014693439],[0.36717250011861324],68.44136500009336,68.64383210008964,1000,68.64383210008964,1000,1000,1000,1000,1,num_2,0.8991664999630302,,34,5,2026-03-13_10h32.13.786,2026A_exp2,2022.2.4,59.95426689991321,
1000,1,6.1,3.7,1,0,8,8,11,,,,,69.55930100008845,70.20971479988657,70.20971479988657,70.71087269997224,45,45,70.71087269997224,70.71087269997224,70.71087269997224,70.71087269997224,70.71087269997224,70.71087269997224,70.71087269997224,70.71087269997224,70.71087269997224,71.07742380001582,71.07742380001582,71.07742380001582,71.07742380001582,71.07742380001582,71.07742380001582,71.07742380001582,71.07742380001582,71.07742380001582,0,1,[0.0012755000498145819],[0.36713679996319115],71.07742380001582,71.2790216000285,1000,71.2790216000285,1000,1000,1000,1000,0,num_3,0.5115451999008656,,34,5,2026-03-13_10h32.13.786,2026A_exp2,2022.2.4,59.95426689991321,
1000,1,0.0,6.1,0,0,9,9,61,,,,,71.8112584000919,72.46201619994827,72.46201619994827,72.96323610004038,45,45,72.96323610004038,72.96323610004038,72.96323610004038,72.96323610004038,72.96323610004038,72.96323610004038,72.96323610004038,72.96323610004038,72.96323610004038,73.32943139993586,73.32943139993586,73.32943139993586,73.32943139993586,73.32943139993586,73.32943139993586,73.32943139993586,73.32943139993586,73.32943139993586,0,1,[0.0012525999918580055],[0.3671053000725806],73.32943139993586,73.53175209998153,1000,73.53175209998153,1000,1000,1000,1000,1,num_2,0.5313773001544178,,34,5,2026-03-13_10h32.13.786,2026A_exp2,2022.2.4,59.95426689991321,
1000,1,3.7,4.9,1,0,10,10,71,,,,,74.08033200004138,74.73095540003851,74.73095540003851,75.21528599993326,45,45,75.21528599993326,75.21528599993326,75.21528599993326,75.21528599993326,75.21528599993326,75.21528599993326,75.21528599993326,75.21528599993326,75.21528599993326,75.58182980003767,75.58182980003767,75.58182980003767,75.58182980003767,75.58182980003767,75.58182980003767,75.58182980003767,75.58182980003767,75.58182980003767,0,1,[0.0012296999339014292],[0.36709759989753366],75.58182980003767,75.78422700008377,1000,75.78422700008377,1000,1000,1000,1000,1,num_2,0.4467406999319792,,34,5,2026-03-13_10h32.13.786,2026A_exp2,2022.2.4,59.95426689991321,
0,0,6.1,0.0,1,0,11,11,25,,,,,76.24908070010133,76.89980849996209,76.89980849996209,77.40088299987838,45,45,77.40088299987838,77.40088299987838,77.40088299987838,77.40088299987838,77.40088299987838,77.40088299987838,77.40088299987838,77.40088299987838,77.40088299987838,77.76736170006916,77.76736170006916,77.76736170006916,77.76736170006916,77.76736170006916,77.76736170006916,77.76736170006916,77.76736170006916,77.76736170006916,0,1,[0.0012512998655438423],[0.3670911998488009],77.76736170006916,77.96751639991999,6.1,77.96751639991999,1,6.1,1,1,1000,num_4,0.5589456998277456,,34,5,2026-03-13_10h32.13.786,2026A_exp2,2022.2.4,59.95426689991321,
1000,1,0.0,6.1,1,0,12,12,13,,,,,78.55132450000383,79.20207750005648,79.20207750005648,79.68655199999921,45,45,79.68655199999921,79.68655199999921,79.68655199999921,79.68655199999921,79.68655199999921,79.68655199999921,79.68655199999921,79.68655199999921,79.68655199999921,80.05299800005741,80.05299800005741,80.05299800005741,80.05299800005741,80.05299800005741,80.05299800005741,80.05299800005741,80.05299800005741,80.05299800005741,0,1,[0.0007465998642146587],[0.367690899875015],80.05299800005741,80.25500739994459,1000,80.25500739994459,1000,1000,1000,1000,1,num_2,0.5912176000420004,,34,5,2026-03-13_10h32.13.786,2026A_exp2,2022.2.4,59.95426689991321,
1000,1,0.0,0.0,1,0,13,13,29,,,,,80.87116630002856,81.52087379992008,81.52087379992008,82.02238780003972,315,315,82.02238780003972,82.02238780003972,82.02238780003972,82.02238780003972,82.02238780003972,82.02238780003972,82.02238780003972,82.02238780003972,82.02238780003972,82.37188240000978,82.37188240000978,82.37188240000978,82.37188240000978,82.37188240000978,82.37188240000978,82.37188240000978,82.37188240000978,82.37188240000978,22,0,,,82.37188240000978,82.5722598999273,1000,82.5722598999273,1000,1000,1000,1000,1,num_2,0.4908164998050779,,34,5,2026-03-13_10h32.13.786,2026A_exp2,2022.2.4,59.95426689991321,
1000,1,0.0,0.0,1,0,14,14,73,,,,,83.08957360009663,83.72455090004951,83.72455090004951,84.22437170008197,315,45,84.22437170008197,84.22437170008197,84.22437170008197,84.22437170008197,84.22437170008197,84.22437170008197,84.22437170008197,84.22437170008197,84.22437170008197,84.59053450007923,84.59053450007923,84.59053450007923,84.59053450007923,84.59053450007923,84.59053450007923,84.59053450007923,84.59053450007923,84.59053450007923,0,1,[0.0008058000821620226],[0.36669060005806386],84.59053450007923,84.79076569993049,1000,84.79076569993049,1000,1000,1000,1000,1,num_2,0.43168210005387664,,34,5,2026-03-13_10h32.13.786,2026A_exp2,2022.2.4,59.95426689991321,
1000,1,0.0,4.9,1,0,15,15,37,,,,,85.24117569997907,85.89173060003668,85.89173060003668,86.37630599993281,315,45,86.37630599993281,86.37630599993281,86.37630599993281,86.37630599993281,86.37630599993281,86.37630599993281,86.37630599993281,86.37630599993281,86.37630599993281,86.7433893000707,86.7433893000707,86.7433893000707,86.7433893000707,86.7433893000707,86.7433893000707,86.7433893000707,86.7433893000707,86.7433893000707,5,1,[0.08350680000148714],[0.3672568001784384],86.7433893000707,86.94515909999609,1000,86.94515909999609,1000,1000,1000,1000,0,num_3,0.4938301001675427,,34,5,2026-03-13_10h32.13.786,2026A_exp2,2022.2.4,59.95426689991321,
1000,1,0.0,0.0,0,0,16,16,64,,,,,87.46016740007326,88.11101319990121,88.11101319990121,88.61220759991556,45,45,88.61220759991556,88.61220759991556,88.61220759991556,88.61220759991556,88.61220759991556,88.61220759991556,88.61220759991556,88.61220759991556,88.61220759991556,88.97860769997351,88.97860769997351,88.97860769997351,88.97860769997351,88.97860769997351,88.97860769997351,88.97860769997351,88.97860769997351,88.97860769997351,18,1,[0.30046089994721115],[0.3672048000153154],88.97860769997351,89.18059420003556,1000,89.18059420003556,1000,1000,1000,1000,1,num_2,0.4824324001092464,,34,5,2026-03-13_10h32.13.786,2026A_exp2,2022.2.4,59.95426689991321,
0,0,4.9,0.0,0,0,17,17,84,,,,,89.67925180005841,90.3300034001004,90.3300034001004,90.83096070005558,45,45,90.83096070005558,90.83096070005558,90.83096070005558,90.83096070005558,90.83096070005558,90.83096070005558,90.83096070005558,90.83096070005558,90.83096070005558,91.19738509994932,91.19738509994932,91.19738509994932,91.19738509994932,91.19738509994932,91.19738509994932,91.19738509994932,91.19738509994932,91.19738509994932,2,2,"[0.0012529999949038029, 0.05026329983957112]","[0.017187600024044514, 0.36722709983587265]",91.19738509994932,91.39766220003366,0.0,91.39766220003366,0,0.0,0,1,1000,num_1,0.6333687000442296,,34,5,2026-03-13_10h32.13.786,2026A_exp2,2022.2.4,59.95426689991321,
1000,1,0.0,0.0,0,0,18,18,89,,,,,92.04833230003715,92.68219599989243,92.68219599989243,93.18343749991618,45,45,93.18343749991618,93.18343749991618,93.18343749991618,93.18343749991618,93.18343749991618,93.18343749991618,93.18343749991618,93.18343749991618,93.18343749991618,93.54980170005001,93.54980170005001,93.54980170005001,93.54980170005001,93.54980170005001,93.54980170005001,93.54980170005001,93.54980170005001,93.54980170005001,0,1,[0.001240599900484085],[0.367171399993822],93.54980170005001,93.75192370009609,1000,93.75192370009609,1000,1000,1000,1000,0,num_3,0.42336470005102456,,34,5,2026-03-13_10h32.13.786,2026A_exp2,2022.2.4,59.95426689991321,
1000,1,0.0,6.1,0,0,19,19,20,,,,,94.20047860010527,94.85100429994054,94.85100429994054,95.35227419994771,45,45,95.35227419994771,95.35227419994771,95.35227419994771,95.35227419994771,95.35227419994771,95.35227419994771,95.35227419994771,95.35227419994771,95.35227419994771,95.71869309991598,95.71869309991598,95.71869309991598,95.71869309991598,95.71869309991598,95.71869309991598,95.71869309991598,95.71869309991598,95.71869309991598,0,1,[0.0012157000601291656],[0.3672050000168383],95.71869309991598,95.9204788999632,1000,95.9204788999632,1000,1000,1000,1000,1,num_2,0.43902910011820495,,34,5,2026-03-13_10h32.13.786,2026A_exp2,2022.2.4,59.95426689991321,
1000,1,0.0,6.1,0,0,20,20,16,,,,,96.38594479998574,97.03653570008464,97.03653570008464,97.53762340010144,45,45,97.53762340010144,97.53762340010144,97.53762340010144,97.53762340010144,97.53762340010144,97.53762340010144,97.53762340010144,97.53762340010144,97.53762340010144,97.90417129988782,97.90417129988782,97.90417129988782,97.90417129988782,97.90417129988782,97.90417129988782,97.90417129988782,97.90417129988782,97.90417129988782,3,2,"[0.0012093998957425356, 0.26716509996913373]","[0.25038830004632473, 0.35053469985723495]",97.90417129988782,98.10612310003489,1000,98.10612310003489,1000,1000,1000,1000,1,num_2,0.4210812000092119,,34,5,2026-03-13_10h32.13.786,2026A_exp2,2022.2.4,59.95426689991321,
1,0,0.0,4.9,1,0,21,21,54,,,,,98.55654049990699,99.20550210005604,99.20550210005604,99.70648470008746,45,45,99.70648470008746,99.70648470008746,99.70648470008746,99.70648470008746,99.70648470008746,99.70648470008746,99.70648470008746,99.70648470008746,99.70648470008746,100.07300859992392,100.07300859992392,100.07300859992392,100.07300859992392,100.07300859992392,100.07300859992392,100.07300859992392,100.07300859992392,100.07300859992392,19,3,"[0.0012401000130921602, 0.11710160016082227, 0.20042330003343523]","[0.03370520006865263, 0.13344280002638698, 0.2172012000810355]",100.07300859992392,100.27309629996307,4.9,100.27309629996307,1,4.9,1,1,1000,num_4,0.8786253998987377,,34,5,2026-03-13_10h32.13.786,2026A_exp2,2022.2.4,59.95426689991321,
1000,1,0.0,0.0,1,0,22,22,2,,,,,101.17401339998469,101.8247195999138,101.8247195999138,102.30874829995446,315,45,102.30874829995446,102.30874829995446,102.30874829995446,102.30874829995446,102.30874829995446,102.30874829995446,102.30874829995446,102.30874829995446,102.30874829995446,102.67551440000534,102.67551440000534,102.67551440000534,102.67551440000534,102.67551440000534,102.67551440000534,102.67551440000534,102.67551440000534,102.67551440000534,23,0,,,102.67551440000534,102.87786959996447,1000,102.87786959996447,1000,1000,1000,1000,1,num_2,0.4811345001216978,,34,5,2026-03-13_10h32.13.786,2026A_exp2,2022.2.4,59.95426689991321,
1,0,0.0,4.9,0,0,23,23,14,,,,,103.37610869994387,104.02698479988612,104.02698479988612,104.54401360009797,45,45,104.54401360009797,104.54401360009797,104.54401360009797,104.54401360009797,104.54401360009797,104.54401360009797,104.54401360009797,104.54401360009797,104.54401360009797,104.89451909996569,104.89451909996569,104.89451909996569,104.89451909996569,104.89451909996569,104.89451909996569,104.89451909996569,104.89451909996569,104.89451909996569,0,1,[0.00421359995380044],[0.36429499997757375],104.89451909996569,105.09455660008825,0.0,105.09455660008825,0,0.0,0,1,1000,num_1,0.5770211999770254,,34,5,2026-03-13_10h32.13.786,2026A_exp2,2022.2.4,59.95426689991321,
0,0,6.1,0.0,1,0,24,24,52,,,,,105.69507819996215,106.3459131999407,106.3459131999407,106.83030320005491,45,45,106.83030320005491,106.83030320005491,106.83030320005491,106.83030320005491,106.83030320005491,106.83030320005491,106.83030320005491,106.83030320005491,106.83030320005491,107.19677020004019,107.19677020004019,107.19677020004019,107.19677020004019,107.19677020004019,107.19677020004019,107.19677020004019,107.19677020004019,107.19677020004019,2,2,"[0.00127399992197752, 0.36720369989052415]","[0.3502978999167681, 0.3672088999301195]",107.19677020004019,107.39709919993766,6.1,107.39709919993766,1,6.1,1,1,1000,num_4,0.5704443999566138,,34,5,2026-03-13_10h32.13.786,2026A_exp2,2022.2.4,59.95426689991321,
1,0,0.0,0.0,1,0,25,25,38,,,,,107.99742759997025,108.64816239988431,108.64816239988431,109.13272239989601,315,45,109.13272239989601,109.13272239989601,109.13272239989601,109.13272239989601,109.13272239989601,109.13272239989601,109.13272239989601,109.13272239989601,109.13272239989601,109.49912569997832,109.49912569997832,109.49912569997832,109.49912569997832,109.49912569997832,109.49912569997832,109.49912569997832,109.49912569997832,109.49912569997832,23,0,,,109.49912569997832,109.69922899990343,0.0,109.69922899990343,1,0.0,0,0,1000,num_4,0.8273976999334991,,34,5,2026-03-13_10h32.13.786,2026A_exp2,2022.2.4,59.95426689991321,
1000,1,3.7,6.1,0,0,26,26,60,,,,,110.55000489996746,111.20072049996816,111.20072049996816,111.68528390000574,45,315,111.68528390000574,111.68528390000574,111.68528390000574,111.68528390000574,111.68528390000574,111.68528390000574,111.68528390000574,111.68528390000574,111.68528390000574,112.05169069999829,112.05169069999829,112.05169069999829,112.05169069999829,112.05169069999829,112.05169069999829,112.05169069999829,112.05169069999829,112.05169069999829,23,0,,,112.05169069999829,112.25395200005732,1000,112.25395200005732,1000,1000,1000,1000,1,num_2,0.47260769992135465,,34,5,2026-03-13_10h32.13.786,2026A_exp2,2022.2.4,59.95426689991321,
1,0,0.0,0.0,0,0,27,27,87,,,,,112.75255060009658,113.40299970004708,113.40299970004708,113.88744860002771,45,45,113.88744860002771,113.88744860002771,113.88744860002771,113.88744860002771,113.88744860002771,113.88744860002771,113.88744860002771,113.88744860002771,113.88744860002771,,,,,,,,,,23,0,,,114.270458499901,114.47088079992682,0.0,114.47088079992682,1,0.0,0,0,1000,num_4,0.8084559999406338,,34,5,2026-03-13_10h32.13.786,2026A_exp2,2022.2.4,59.95426689991321,
1000,1,0.0,6.1,1,0,28,28,42,,,,,115.30522549990565,115.93887139996514,115.93887139996514,116.43986600008793,45,315,116.43986600008793,116.43986600008793,116.43986600008793,116.43986600008793,116.43986600008793,116.43986600008793,116.43986600008793,116.43986600008793,116.43986600008793,116.80611249990761,116.80611249990761,116.80611249990761,116.80611249990761,116.80611249990761,116.80611249990761,116.80611249990761,116.80611249990761,116.80611249990761,23,0,,,116.80611249990761,117.00885610003024,1000,117.00885610003024,1000,1000,1000,1000,1,num_2,0.46244140015915036,,34,5,2026-03-13_10h32.13.786,2026A_exp2,2022.2.4,59.95426689991321,
1000,1,0.0,3.7,1,0,29,29,4,,,,,117.4903661001008,118.14084529993124,118.14084529993124,118.64219029992819,45,315,118.64219029992819,118.64219029992819,118.64219029992819,118.64219029992819,118.64219029992819,118.64219029992819,118.64219029992819,118.64219029992819,118.64219029992819,119.00844849995337,119.00844849995337,119.00844849995337,119.00844849995337,119.00844849995337,119.00844849995337,119.00844849995337,119.00844849995337,119.00844849995337,13,1,[0.21703349985182285],[0.3670357000082731],119.00844849995337,119.21068149991333,1000,119.21068149991333,1000,1000,1000,1000,1,num_2,0.8609317999798805,,34,5,2026-03-13_10h32.13.786,2026A_exp2,2022.2.4,59.95426689991321,
1000,1,0.0,4.9,0,0,30,30,8,,,,,120.09293740009889,120.74916270002723,120.74916270002723,121.24470050004311,315,315,121.24470050004311,121.24470050004311,121.24470050004311,121.24470050004311,121.24470050004311,121.24470050004311,121.24470050004311,121.24470050004311,121.24470050004311,121.61113710002974,121.61113710002974,121.61113710002974,121.61113710002974,121.61113710002974,121.61113710002974,121.61113710002974,121.61113710002974,121.61113710002974,23,0,,,121.61113710002974,121.81327309994958,1000,121.81327309994958,1000,1000,1000,1000,1,num_2,0.5459324000403285,,34,5,2026-03-13_10h32.13.786,2026A_exp2,2022.2.4,59.95426689991321,
1000,1,0.0,6.1,1,0,31,31,74,,,,,122.37854119995609,123.0292762001045,123.0292762001045,123.53048580000177,45,45,123.53048580000177,123.53048580000177,123.53048580000177,123.53048580000177,123.53048580000177,123.53048580000177,123.53048580000177,123.53048580000177,123.53048580000177,123.88025830010884,123.88025830010884,123.88025830010884,123.88025830010884,123.88025830010884,123.88025830010884,123.88025830010884,123.88025830010884,123.88025830010884,22,0,,,123.88025830010884,124.08248630003072,1000,124.08248630003072,1000,1000,1000,1000,1,num_2,0.5573490001261234,,34,5,2026-03-13_10h32.13.786,2026A_exp2,2022.2.4,59.95426689991321,
1,0,6.1,0.0,1,0,32,32,17,,,,,124.66432860004716,125.32542279991321,125.32542279991321,125.8160655000247,315,45,125.8160655000247,125.8160655000247,125.8160655000247,125.8160655000247,125.8160655000247,125.8160655000247,125.8160655000247,125.8160655000247,125.8160655000247,126.16581750009209,126.16581750009209,126.16581750009209,126.16581750009209,126.16581750009209,126.16581750009209,126.16581750009209,126.16581750009209,126.16581750009209,22,0,,,126.16581750009209,126.3659159000963,0.0,126.3659159000963,0,0.0,0,1,1000,num_1,0.6168361001182348,,34,5,2026-03-13_10h32.13.786,2026A_exp2,2022.2.4,59.95426689991321,
1000,1,0.0,0.0,0,0,33,33,62,,,,,126.9997946000658,127.6506636000704,127.6506636000704,128.13494509994052,315,45,128.13494509994052,128.13494509994052,128.13494509994052,128.13494509994052,128.13494509994052,128.13494509994052,128.13494509994052,128.13494509994052,128.13494509994052,128.501447299961,128.501447299961,128.501447299961,128.501447299961,128.501447299961,128.501447299961,128.501447299961,128.501447299961,128.501447299961,14,3,"[0.0012473000679165125, 0.13347120000980794, 0.2169333000201732]","[0.0833715999033302, 0.16679989988915622, 0.2501323998440057]",128.501447299961,128.7037408000324,1000,128.7037408000324,1000,1000,1000,1000,0,num_3,0.5996585001703352,,34,5,2026-03-13_10h32.13.786,2026A_exp2,2022.2.4,59.95426689991321,
1000,1,0.0,3.7,0,0,34,34,76,,,,,129.31922840001062,129.9697120001074,129.9697120001074,130.45400419994257,45,315,130.45400419994257,130.45400419994257,130.45400419994257,130.45400419994257,130.45400419994257,130.45400419994257,130.45400419994257,130.45400419994257,130.45400419994257,130.8204592000693,130.8204592000693,130.8204592000693,130.8204592000693,130.8204592000693,130.8204592000693,130.8204592000693,130.8204592000693,130.8204592000693,23,0,,,130.8204592000693,131.02231079991907,1000,131.02231079991907,1000,1000,1000,1000,1,num_2,0.5530848999042064,,34,5,2026-03-13_10h32.13.786,2026A_exp2,2022.2.4,59.95426689991321,
1000,1,4.9,3.7,0,0,35,35,28,,,,,131.6045438000001,132.25516760000028,132.25516760000028,132.73949739988893,315,315,132.73949739988893,132.73949739988893,132.73949739988893,132.73949739988893,132.73949739988893,132.73949739988893,132.73949739988893,132.73949739988893,132.73949739988893,133.10609510005452,133.10609510005452,133.10609510005452,133.10609510005452,133.10609510005452,133.10609510005452,133.10609510005452,133.10609510005452,133.10609510005452,23,0,,,133.10609510005452,133.308187100105,1000,133.308187100105,1000,1000,1000,1000,1,num_2,0.53907909989357,,34,5,2026-03-13_10h32.13.786,2026A_exp2,2022.2.4,59.95426689991321,
1000,1,0.0,0.0,0,0,36,36,45,,,,,133.87336959992535,134.52380739990622,134.52380739990622,135.02530939993449,315,45,135.02530939993449,135.02530939993449,135.02530939993449,135.02530939993449,135.02530939993449,135.02530939993449,135.02530939993449,135.02530939993449,135.02530939993449,135.37492639990523,135.37492639990523,135.37492639990523,135.37492639990523,135.37492639990523,135.37492639990523,135.37492639990523,135.37492639990523,135.37492639990523,20,1,[0.00120449997484684],[0.033777100034058094],135.37492639990523,135.57683490007184,1000,135.59190519992262,1000,1000,1000,1000,1,num_2,0.9825480999425054,,34,5,2026-03-13_10h32.13.786,2026A_exp2,2022.2.4,59.95426689991321,
1,0,4.9,4.9,1,0,37,37,9,,,,,136.59263220010325,137.2435192000121,137.2435192000121,137.74454659991898,45,45,137.74454659991898,137.74454659991898,137.74454659991898,137.74454659991898,137.74454659991898,137.74454659991898,137.74454659991898,137.74454659991898,137.74454659991898,138.11102090007626,138.11102090007626,138.11102090007626,138.11102090007626,138.11102090007626,138.11102090007626,138.11102090007626,138.11102090007626,138.11102090007626,23,0,,,138.11102090007626,138.3113003000617,4.9,138.3113003000617,0,4.9,1,0,1000,num_1,0.5751773999072611,,34,5,2026-03-13_10h32.13.786,2026A_exp2,2022.2.4,59.95426689991321,
1000,1,0.0,0.0,0,0,38,38,57,,,,,138.9118212000467,139.56252799998038,139.56252799998038,140.04714570008218,45,315,140.04714570008218,140.04714570008218,140.04714570008218,140.04714570008218,140.04714570008218,140.04714570008218,140.04714570008218,140.04714570008218,140.04714570008218,140.4135443000123,140.4135443000123,140.4135443000123,140.4135443000123,140.4135443000123,140.4135443000123,140.4135443000123,140.4135443000123,140.4135443000123,23,0,,,140.4135443000123,140.61552820005454,1000,140.61552820005454,1000,1000,1000,1000,1,num_2,0.5351525999139994,,34,5,2026-03-13_10h32.13.786,2026A_exp2,2022.2.4,59.95426689991321,
1000,1,4.9,0.0,0,0,39,39,50,,,,,141.1806681000162,141.83152920007706,141.83152920007706,142.33249639999121,315,45,142.33249639999121,142.33249639999121,142.33249639999121,142.33249639999121,142.33249639999121,142.33249639999121,142.33249639999121,142.33249639999121,142.33249639999121,142.6988794999197,142.6988794999197,142.6988794999197,142.6988794999197,142.6988794999197,142.6988794999197,142.6988794999197,142.6988794999197,142.6988794999197,23,0,,,142.6988794999197,142.9009124999866,1000,142.9009124999866,1000,1000,1000,1000,0,num_3,0.6499359000008553,,34,5,2026-03-13_10h32.13.786,2026A_exp2,2022.2.4,59.95426689991321,
1000,1,4.9,0.0,1,0,40,40,67,,,,,143.56636489997618,144.21746479999274,144.21746479999274,144.71817080001347,315,45,144.71817080001347,144.71817080001347,144.71817080001347,144.71817080001347,144.71817080001347,144.71817080001347,144.71817080001347,144.71817080001347,144.71817080001347,145.08464720007032,145.08464720007032,145.08464720007032,145.08464720007032,145.08464720007032,145.08464720007032,145.08464720007032,145.08464720007032,145.08464720007032,0,1,[0.001232700189575553],[0.3674716001842171],145.08464720007032,145.28671939997002,1000,145.28671939997002,1000,1000,1000,1000,1,num_2,0.5599133998621255,,34,5,2026-03-13_10h32.13.786,2026A_exp2,2022.2.4,59.95426689991321,
1,0,0.0,4.9,0,0,41,41,32,,,,,145.8687982999254,146.50275560002774,146.50275560002774,147.00389140006155,45,45,147.00389140006155,147.00389140006155,147.00389140006155,147.00389140006155,147.00389140006155,147.00389140006155,147.00389140006155,147.00389140006155,147.00389140006155,147.37025870010257,147.37025870010257,147.37025870010257,147.37025870010257,147.37025870010257,147.37025870010257,147.37025870010257,147.37025870010257,147.37025870010257,3,1,[0.04999099997803569],[0.3670647998806089],147.37025870010257,147.57049759989604,0.0,147.57049759989604,0,0.0,0,1,1000,num_1,0.5163958000484854,,34,5,2026-03-13_10h32.13.786,2026A_exp2,2022.2.4,59.95426689991321,
1000,1,0.0,0.0,1,0,42,42,56,,,,,148.10422459989786,148.75488910009153,148.75488910009153,149.23936229990795,45,315,149.23936229990795,149.23936229990795,149.23936229990795,149.23936229990795,149.23936229990795,149.23936229990795,149.23936229990795,149.23936229990795,149.23936229990795,149.60584109998308,149.60584109998308,149.60584109998308,149.60584109998308,149.60584109998308,149.60584109998308,149.60584109998308,149.60584109998308,149.60584109998308,23,0,,,149.60584109998308,149.8080176000949,1000,149.8080176000949,1000,1000,1000,1000,1,num_2,0.47158199991099536,,34,5,2026-03-13_10h32.13.786,2026A_exp2,2022.2.4,59.95426689991321,
1000,1,0.0,3.7,0,0,43,43,21,,,,,150.30878999992274,150.9577486999333,150.9577486999333,151.46226650010794,45,315,151.46226650010794,151.46226650010794,151.46226650010794,151.46226650010794,151.46226650010794,151.46226650010794,151.46226650010794,151.46226650010794,151.46226650010794,151.82491440000013,151.82491440000013,151.82491440000013,151.82491440000013,151.82491440000013,151.82491440000013,151.82491440000013,151.82491440000013,151.82491440000013,0,1,[0.0024081000592559576],[0.3672132999636233],151.82491440000013,152.0248336000368,1000,152.0248336000368,1000,1000,1000,1000,1,num_2,0.47778409998863935,,34,5,2026-03-13_10h32.13.786,2026A_exp2,2022.2.4,59.95426689991321,
1000,1,3.7,6.1,1,0,44,44,75,,,,,152.52535480004735,153.17617130000144,153.17617130000144,153.67719090008177,45,45,153.67719090008177,153.67719090008177,153.67719090008177,153.67719090008177,153.67719090008177,153.67719090008177,153.67719090008177,153.67719090008177,153.67719090008177,154.04382169991732,154.04382169991732,154.04382169991732,154.04382169991732,154.04382169991732,154.04382169991732,154.04382169991732,154.04382169991732,154.04382169991732,23,0,,,154.04382169991732,154.24556609988213,1000,154.24556609988213,1000,1000,1000,1000,1,num_2,0.4176145999226719,,34,5,2026-03-13_10h32.13.786,2026A_exp2,2022.2.4,59.95426689991321,
1,0,0.0,0.0,1,0,45,45,83,,,,,154.6944440000225,155.34496879996732,155.34496879996732,155.84608589997515,45,315,155.84608589997515,155.84608589997515,155.84608589997515,155.84608589997515,155.84608589997515,155.84608589997515,155.84608589997515,155.84608589997515,155.84608589997515,156.21249389997683,156.21249389997683,156.21249389997683,156.21249389997683,156.21249389997683,156.21249389997683,156.21249389997683,156.21249389997683,156.21249389997683,0,1,[0.001206899993121624],[0.3671537998598069],156.21249389997683,156.41262730001472,0.0,156.41262730001472,1,0.0,0,0,1000,num_4,0.7231789000798017,,34,5,2026-03-13_10h32.13.786,2026A_exp2,2022.2.4,59.95426689991321,
1000,1,0.0,0.0,0,0,46,46,65,,,,,157.16347329993732,157.81392539991066,157.81392539991066,158.29861590010114,45,45,158.29861590010114,158.29861590010114,158.29861590010114,158.29861590010114,158.29861590010114,158.29861590010114,158.29861590010114,158.29861590010114,158.29861590010114,158.66485340008512,158.66485340008512,158.66485340008512,158.66485340008512,158.66485340008512,158.66485340008512,158.66485340008512,158.66485340008512,158.66485340008512,18,1,[0.0012459000572562218],[0.08345909998752177],158.66485340008512,158.86668500001542,1000,158.86668500001542,1000,1000,1000,1000,1,num_2,0.8681946001015604,,34,5,2026-03-13_10h32.13.786,2026A_exp2,2022.2.4,59.95426689991321,
1000,1,6.1,0.0,0,0,47,47,27,,,,,159.76616759994067,160.4167287000455,160.4167287000455,160.91782399988733,315,315,160.91782399988733,160.91782399988733,160.91782399988733,160.91782399988733,160.91782399988733,160.91782399988733,160.91782399988733,160.91782399988733,160.91782399988733,161.26755549991503,161.26755549991503,161.26755549991503,161.26755549991503,161.26755549991503,161.26755549991503,161.26755549991503,161.26755549991503,161.26755549991503,9,2,"[0.001191900111734867, 0.35070069995708764]","[0.20060779992491007, 0.3507069000042975]",161.26755549991503,161.4693597999867,1000,161.48437960003503,1000,1000,1000,1000,0,num_3,0.41112500010058284,,34,5,2026-03-13_10h32.13.786,2026A_exp2,2022.2.4,59.95426689991321,
1,0,0.0,0.0,1,0,48,48,6,,,,,161.918157099979,162.56888530007564,162.56888530007564,163.0699837000575,45,45,163.0699837000575,163.0699837000575,163.0699837000575,163.0699837000575,163.0699837000575,163.0699837000575,163.0699837000575,163.0699837000575,163.0699837000575,163.43640440003946,163.43640440003946,163.43640440003946,163.43640440003946,163.43640440003946,163.43640440003946,163.43640440003946,163.43640440003946,163.43640440003946,22,1,[0.3502646000124514],[0.36690929997712374],163.43640440003946,163.63656329992227,0.0,163.63656329992227,0,0.0,0,1,1000,num_1,0.6106213999446481,,34,5,2026-03-13_10h32.13.786,2026A_exp2,2022.2.4,59.95426689991321,
0,0,3.7,4.9,0,0,49,49,77,,,,,164.27054900000803,164.9211486999411,164.9211486999411,165.40563960000873,315,315,165.40563960000873,165.40563960000873,165.40563960000873,165.40563960000873,165.40563960000873,165.40563960000873,165.40563960000873,165.40563960000873,165.40563960000873,165.77200599992648,165.77200599992648,165.77200599992648,165.77200599992648,165.77200599992648,165.77200599992648,165.77200599992648,165.77200599992648,165.77200599992648,23,0,,,165.77200599992648,165.97221349994652,4.9,165.97221349994652,1,4.9,1,1,1000,num_4,0.6914656998123974,,34,5,2026-03-13_10h32.13.786,2026A_exp2,2022.2.4,59.95426689991321,
0,0,0.0,3.7,1,0,50,50,53,,,,,166.6895588999614,167.3401828999631,167.3401828999631,167.82477730000392,315,315,167.82477730000392,167.82477730000392,167.82477730000392,167.82477730000392,167.82477730000392,167.82477730000392,167.82477730000392,167.82477730000392,167.82477730000392,168.19075340009294,168.19075340009294,168.19075340009294,168.19075340009294,168.19075340009294,168.19075340009294,168.19075340009294,168.19075340009294,168.19075340009294,3,1,[0.0012268000282347202],[0.3327267998829484],168.19075340009294,168.39102360000834,0.0,168.39102360000834,0,0.0,0,1,1000,num_1,0.5441745000425726,,34,5,2026-03-13_10h32.13.786,2026A_exp2,2022.2.4,59.95426689991321,
1,0,0.0,6.1,1,0,51,51,19,,,,,168.95841279998422,169.60919249989092,169.60919249989092,170.09355630003847,45,45,170.09355630003847,170.09355630003847,170.09355630003847,170.09355630003847,170.09355630003847,170.09355630003847,170.09355630003847,170.09355630003847,170.09355630003847,170.4600567999296,170.4600567999296,170.4600567999296,170.4600567999296,170.4600567999296,170.4600567999296,170.4600567999296,170.4600567999296,170.4600567999296,23,0,,,170.4600567999296,170.66002389998175,6.1,170.6770057999529,1,6.1,1,1,1000,num_4,0.5064370001200587,,34,5,2026-03-13_10h32.13.786,2026A_exp2,2022.2.4,59.95426689991321,
1,0,3.7,0.0,0,0,52,52,26,,,,,171.21067030006088,171.8614487000741,171.8614487000741,172.34618210000917,315,45,172.34618210000917,172.34618210000917,172.34618210000917,172.34618210000917,172.34618210000917,172.34618210000917,172.34618210000917,172.34618210000917,172.34618210000917,172.7123503999319,172.7123503999319,172.7123503999319,172.7123503999319,172.7123503999319,172.7123503999319,172.7123503999319,172.7123503999319,172.7123503999319,23,0,,,172.7123503999319,172.9125055000186,3.7,172.9125055000186,0,3.7,1,0,1000,num_1,0.5271574000362307,,34,5,2026-03-13_10h32.13.786,2026A_exp2,2022.2.4,59.95426689991321,
1000,1,4.9,6.1,0,0,53,53,36,,,,,173.46303349989466,174.11414860002697,174.11414860002697,174.59800349990837,45,315,174.59800349990837,174.59800349990837,174.59800349990837,174.59800349990837,174.59800349990837,174.59800349990837,174.59800349990837,174.59800349990837,174.59800349990837,174.96465110010467,174.96465110010467,174.96465110010467,174.96465110010467,174.96465110010467,174.96465110010467,174.96465110010467,174.96465110010467,174.96465110010467,23,0,,,174.96465110010467,175.17603649990633,1000,175.17603649990633,1000,1000,1000,1000,1,num_2,0.6863532001152635,,34,5,2026-03-13_10h32.13.786,2026A_exp2,2022.2.4,59.95426689991321,
1,0,0.0,0.0,0,0,54,54,80,,,,,175.88215880002826,176.5328730000183,176.5328730000183,177.0337386999745,45,45,177.0337386999745,177.0337386999745,177.0337386999745,177.0337386999745,177.0337386999745,177.0337386999745,177.0337386999745,177.0337386999745,177.0337386999745,177.40028780000284,177.40028780000284,177.40028780000284,177.40028780000284,177.40028780000284,177.40028780000284,177.40028780000284,177.40028780000284,177.40028780000284,23,0,,,177.40028780000284,177.60049979994074,0.0,177.60049979994074,0,0.0,0,1,1000,num_1,0.6384207000955939,,34,5,2026-03-13_10h32.13.786,2026A_exp2,2022.2.4,59.95426689991321,
1000,1,0.0,3.7,0,0,55,55,23,,,,,178.26779980002902,178.91837300010957,178.91837300010957,179.4028175000567,45,45,179.4028175000567,179.4028175000567,179.4028175000567,179.4028175000567,179.4028175000567,179.4028175000567,179.4028175000567,179.4028175000567,179.4028175000567,179.76919770007953,179.76919770007953,179.76919770007953,179.76919770007953,179.76919770007953,179.76919770007953,179.76919770007953,179.76919770007953,179.76919770007953,23,0,,,179.76919770007953,179.97135680005886,1000,179.97135680005886,1000,1000,1000,1000,0,num_3,0.5393461000639945,,34,5,2026-03-13_10h32.13.786,2026A_exp2,2022.2.4,59.95426689991321,
1,0,4.9,0.0,0,0,56,56,66,,,,,180.53674730006605,181.18749239994213,181.18749239994213,181.6885714000091,315,315,181.6885714000091,181.6885714000091,181.6885714000091,181.6885714000091,181.6885714000091,181.6885714000091,181.6885714000091,181.6885714000091,181.6885714000091,182.05489480006509,182.05489480006509,182.05489480006509,182.05489480006509,182.05489480006509,182.05489480006509,182.05489480006509,182.05489480006509,182.05489480006509,23,0,,,182.05489480006509,182.2552022000309,4.9,182.2552022000309,0,4.9,1,0,1000,num_1,0.4874375001527369,,34,5,2026-03-13_10h32.13.786,2026A_exp2,2022.2.4,59.95426689991321,
1000,1,0.0,3.7,1,0,57,57,88,,,,,182.7722364999354,183.4230686998926,183.4230686998926,183.90749730006792,45,315,183.90749730006792,183.90749730006792,183.90749730006792,183.90749730006792,183.90749730006792,183.90749730006792,183.90749730006792,183.90749730006792,183.90749730006792,184.2738220000174,184.2738220000174,184.2738220000174,184.2738220000174,184.2738220000174,184.2738220000174,184.2738220000174,184.2738220000174,184.2738220000174,23,0,,,184.2738220000174,184.47599619999528,1000,184.47599619999528,1000,1000,1000,1000,1,num_2,0.5305534000508487,,34,5,2026-03-13_10h32.13.786,2026A_exp2,2022.2.4,59.95426689991321,
1000,1,0.0,0.0,0,0,58,58,7,,,,,185.02476259996183,185.67514599999413,185.67514599999413,186.15955249988474,315,45,186.15955249988474,186.15955249988474,186.15955249988474,186.15955249988474,186.15955249988474,186.15955249988474,186.15955249988474,186.15955249988474,186.15955249988474,186.52617279998958,186.52617279998958,186.52617279998958,186.52617279998958,186.52617279998958,186.52617279998958,186.52617279998958,186.52617279998958,186.52617279998958,23,0,,,186.52617279998958,186.7280401000753,1000,186.7280401000753,1000,1000,1000,1000,1,num_2,0.5430662001017481,,34,5,2026-03-13_10h32.13.786,2026A_exp2,2022.2.4,59.95426689991321,
1000,1,6.1,0.0,0,0,59,59,58,,,,,187.29355919989757,187.94424499990419,187.94424499990419,188.4284975999035,315,315,188.4284975999035,188.4284975999035,188.4284975999035,188.4284975999035,188.4284975999035,188.4284975999035,188.4284975999035,188.4284975999035,188.4284975999035,188.79507749993354,188.79507749993354,188.79507749993354,188.79507749993354,188.79507749993354,188.79507749993354,188.79507749993354,188.79507749993354,188.79507749993354,23,0,,,188.79507749993354,188.99704369995743,1000,188.99704369995743,1000,1000,1000,1000,0,num_3,0.45865090005099773,,34,5,2026-03-13_10h32.13.786,2026A_exp2,2022.2.4,59.95426689991321,
1000,1,0.0,0.0,0,0,60,60,72,,,,,189.4793231000658,190.12991979997605,190.12991979997605,190.63097229995765,315,45,190.63097229995765,190.63097229995765,190.63097229995765,190.63097229995765,190.63097229995765,190.63097229995765,190.63097229995765,190.63097229995765,190.63097229995765,190.98054810008034,190.98054810008034,190.98054810008034,190.98054810008034,190.98054810008034,190.98054810008034,190.98054810008034,190.98054810008034,190.98054810008034,22,0,,,190.98054810008034,191.18258169991896,1000,191.18258169991896,1000,1000,1000,1000,1,num_2,0.6482871000189334,,34,5,2026-03-13_10h32.13.786,2026A_exp2,2022.2.4,59.95426689991321,
1000,1,3.7,0.0,0,0,61,61,69,,,,,191.84802430006675,192.49873499991372,192.49873499991372,193.0013331999071,315,45,193.0013331999071,193.0013331999071,193.0013331999071,193.0013331999071,193.0013331999071,193.0013331999071,193.0013331999071,193.0013331999071,193.0013331999071,193.36631159996614,193.36631159996614,193.36631159996614,193.36631159996614,193.36631159996614,193.36631159996614,193.36631159996614,193.36631159996614,193.36631159996614,23,0,,,193.36631159996614,193.566571299918,1000,193.566571299918,1000,1000,1000,1000,0,num_3,0.3368132000323385,,34,5,2026-03-13_10h32.13.786,2026A_exp2,2022.2.4,59.95426689991321,
1,0,6.1,6.1,1,0,62,62,47,,,,,193.93347560008988,194.5842637999449,194.5842637999449,195.08526670001447,45,315,195.08526670001447,195.08526670001447,195.08526670001447,195.08526670001447,195.08526670001447,195.08526670001447,195.08526670001447,195.08526670001447,195.08526670001447,195.4349728000816,195.4349728000816,195.4349728000816,195.4349728000816,195.4349728000816,195.4349728000816,195.4349728000816,195.4349728000816,195.4349728000816,22,0,,,195.4349728000816,195.63520559994504,6.1,195.63520559994504,1,6.1,1,1,1000,num_4,0.907884200103581,,34,5,2026-03-13_10h32.13.786,2026A_exp2,2022.2.4,59.95426689991321,
1000,1,6.1,0.0,1,0,63,63,79,,,,,196.5693737999536,197.22017590003088,197.22017590003088,197.7044756000396,45,45,197.7044756000396,197.7044756000396,197.7044756000396,197.7044756000396,197.7044756000396,197.7044756000396,197.7044756000396,197.7044756000396,197.7044756000396,198.0710169998929,198.0710169998929,198.0710169998929,198.0710169998929,198.0710169998929,198.0710169998929,198.0710169998929,198.0710169998929,198.0710169998929,23,0,,,198.0710169998929,198.27290600002743,1000,198.27290600002743,1000,1000,1000,1000,0,num_3,0.38245399994775653,,34,5,2026-03-13_10h32.13.786,2026A_exp2,2022.2.4,59.95426689991321,
0,0,3.7,0.0,0,0,64,64,18,,,,,198.67157369991764,199.32226840010844,199.32226840010844,199.82343939994462,45,315,199.82343939994462,199.82343939994462,199.82343939994462,199.82343939994462,199.82343939994462,199.82343939994462,199.82343939994462,199.82343939994462,199.82343939994462,200.18984139990062,200.18984139990062,200.18984139990062,200.18984139990062,200.18984139990062,200.18984139990062,200.18984139990062,200.18984139990062,200.18984139990062,23,0,,,200.18984139990062,200.39006630005315,0.0,200.39006630005315,0,0.0,0,1,1000,num_1,0.5216447999700904,,34,5,2026-03-13_10h32.13.786,2026A_exp2,2022.2.4,59.95426689991321,
1000,1,0.0,0.0,1,0,65,65,55,,,,,200.94033839995973,201.591140500037,201.591140500037,202.07569309999235,45,315,202.07569309999235,202.07569309999235,202.07569309999235,202.07569309999235,202.07569309999235,202.07569309999235,202.07569309999235,202.07569309999235,202.07569309999235,202.44194249995053,202.44194249995053,202.44194249995053,202.44194249995053,202.44194249995053,202.44194249995053,202.44194249995053,202.44194249995053,202.44194249995053,23,0,,,202.44194249995053,202.64433840010315,1000,202.64433840010315,1000,1000,1000,1000,1,num_2,0.6431656000204384,,34,5,2026-03-13_10h32.13.786,2026A_exp2,2022.2.4,59.95426689991321,
1000,1,4.9,0.0,1,0,66,66,48,,,,,203.3094260999933,203.9602391999215,203.9602391999215,204.46125789987855,45,45,204.46125789987855,204.46125789987855,204.46125789987855,204.46125789987855,204.46125789987855,204.46125789987855,204.46125789987855,204.46125789987855,204.46125789987855,204.8110801000148,204.8110801000148,204.8110801000148,204.8110801000148,204.8110801000148,204.8110801000148,204.8110801000148,204.8110801000148,204.8110801000148,22,0,,,204.8110801000148,205.0132005000487,1000,205.02787579991855,1000,1000,1000,1000,0,num_3,0.4587502998765558,,34,5,2026-03-13_10h32.13.786,2026A_exp2,2022.2.4,59.95426689991321,
1,0,0.0,0.0,1,0,67,67,33,,,,,205.5117520999629,206.16252820007503,206.16252820007503,206.66369979991578,315,45,206.66369979991578,206.66369979991578,206.66369979991578,206.66369979991578,206.66369979991578,206.66369979991578,206.66369979991578,206.66369979991578,206.66369979991578,207.02995019988157,207.02995019988157,207.02995019988157,207.02995019988157,207.02995019988157,207.02995019988157,207.02995019988157,207.02995019988157,207.02995019988157,23,0,,,207.02995019988157,207.2301980999764,0.0,207.2301980999764,0,0.0,0,1,1000,num_1,0.4803226001095027,,34,5,2026-03-13_10h32.13.786,2026A_exp2,2022.2.4,59.95426689991321,
1000,1,6.1,4.9,0,0,68,68,51,,,,,207.73039219994098,208.38118209992535,208.38118209992535,208.86572230001912,315,315,208.86572230001912,208.86572230001912,208.86572230001912,208.86572230001912,208.86572230001912,208.86572230001912,208.86572230001912,208.86572230001912,208.86572230001912,209.23217429989018,209.23217429989018,209.23217429989018,209.23217429989018,209.23217429989018,209.23217429989018,209.23217429989018,209.23217429989018,209.23217429989018,23,0,,,209.23217429989018,209.43409470003098,1000,209.43409470003098,1000,1000,1000,1000,1,num_2,0.4687721999362111,,34,5,2026-03-13_10h32.13.786,2026A_exp2,2022.2.4,59.95426689991321,
1000,1,4.9,6.1,1,0,69,69,5,,,,,209.93291660002433,210.58342240005732,210.58342240005732,211.06787850009277,45,45,211.06787850009277,211.06787850009277,211.06787850009277,211.06787850009277,211.06787850009277,211.06787850009277,211.06787850009277,211.06787850009277,211.06787850009277,211.4510967999231,211.4510967999231,211.4510967999231,211.4510967999231,211.4510967999231,211.4510967999231,211.4510967999231,211.4510967999231,211.4510967999231,24,0,,,211.4510967999231,211.65315450006165,1000,211.65315450006165,1000,1000,1000,1000,1,num_2,0.43399059982039034,,34,5,2026-03-13_10h32.13.786,2026A_exp2,2022.2.4,59.95426689991321,
0,0,0.0,0.0,1,0,70,70,44,,,,,212.11840080004185,212.76901810010895,212.76901810010895,213.2535206999164,315,45,213.2535206999164,213.2535206999164,213.2535206999164,213.2535206999164,213.2535206999164,213.2535206999164,213.2535206999164,213.2535206999164,213.2535206999164,213.6199670000933,213.6199670000933,213.6199670000933,213.6199670000933,213.6199670000933,213.6199670000933,213.6199670000933,213.6199670000933,213.6199670000933,23,0,,,213.6199670000933,213.8200586999301,0.0,213.8200586999301,1,0.0,0,0,1000,num_4,0.8113734000362456,,34,5,2026-03-13_10h32.13.786,2026A_exp2,2022.2.4,59.95426689991321,
1000,1,0.0,3.7,0,0,71,71,43,,,,,214.6542318998836,215.30492489994504,215.30492489994504,215.78927739989012,315,315,215.78927739989012,215.78927739989012,215.78927739989012,215.78927739989012,215.78927739989012,215.78927739989012,215.78927739989012,215.78927739989012,215.78927739989012,216.15584879997186,216.15584879997186,216.15584879997186,216.15584879997186,216.15584879997186,216.15584879997186,216.15584879997186,216.15584879997186,216.15584879997186,23,0,,,216.15584879997186,216.3578057999257,1000,216.3578057999257,1000,1000,1000,1000,0,num_3,0.7851948998868465,,34,5,2026-03-13_10h32.13.786,2026A_exp2,2022.2.4,59.95426689991321,
1000,1,3.7,0.0,0,0,72,72,35,,,,,217.17339919996448,217.82407140010037,217.82407140010037,218.32503680000082,45,315,218.32503680000082,218.32503680000082,218.32503680000082,218.32503680000082,218.32503680000082,218.32503680000082,218.32503680000082,218.32503680000082,218.32503680000082,218.67492079990916,218.67492079990916,218.67492079990916,218.67492079990916,218.67492079990916,218.67492079990916,218.67492079990916,218.67492079990916,218.67492079990916,22,0,,,218.67492079990916,218.87708340003155,1000,218.87708340003155,1000,1000,1000,1000,0,num_3,0.5133698999416083,,34,5,2026-03-13_10h32.13.786,2026A_exp2,2022.2.4,59.95426689991321,
1,0,6.1,0.0,0,0,73,73,85,,,,,219.40889409999363,220.0596926000435,220.0596926000435,220.5607654999476,45,45,220.5607654999476,220.5607654999476,220.5607654999476,220.5607654999476,220.5607654999476,220.5607654999476,220.5607654999476,220.5607654999476,220.5607654999476,220.92717089992948,220.92717089992948,220.92717089992948,220.92717089992948,220.92717089992948,220.92717089992948,220.92717089992948,220.92717089992948,220.92717089992948,23,0,,,220.92717089992948,221.12732119997963,6.1,221.12732119997963,1,6.1,1,1,1000,num_4,0.511161700123921,,34,5,2026-03-13_10h32.13.786,2026A_exp2,2022.2.4,59.95426689991321,
1000,1,6.1,6.1,1,0,74,74,22,,,,,221.66128379991278,222.3119127000682,222.3119127000682,222.79630440007895,315,45,222.79630440007895,222.79630440007895,222.79630440007895,222.79630440007895,222.79630440007895,222.79630440007895,222.79630440007895,222.79630440007895,222.79630440007895,223.1628735999111,223.1628735999111,223.1628735999111,223.1628735999111,223.1628735999111,223.1628735999111,223.1628735999111,223.1628735999111,223.1628735999111,23,0,,,223.1628735999111,223.36470589996316,1000,223.36470589996316,1000,1000,1000,1000,0,num_3,0.5070879999548197,,34,5,2026-03-13_10h32.13.786,2026A_exp2,2022.2.4,59.95426689991321,
1000,1,4.9,3.7,1,0,75,75,78,,,,,223.89674509991892,224.54742469987832,224.54742469987832,225.04882639995776,45,45,225.04882639995776,225.04882639995776,225.04882639995776,225.04882639995776,225.04882639995776,225.04882639995776,225.04882639995776,225.04882639995776,225.04882639995776,225.41501870006323,225.41501870006323,225.41501870006323,225.41501870006323,225.41501870006323,225.41501870006323,225.41501870006323,225.41501870006323,225.41501870006323,23,0,,,225.41501870006323,225.61703870003112,1000,225.61703870003112,1000,1000,1000,1000,1,num_2,1.6772694000974298,,34,5,2026-03-13_10h32.13.786,2026A_exp2,2022.2.4,59.95426689991321,
1,0,0.0,6.1,0,0,76,76,24,,,,,227.31671379995532,227.96743110008538,227.96743110008538,228.46868010004982,315,315,228.46868010004982,228.46868010004982,228.46868010004982,228.46868010004982,228.46868010004982,228.46868010004982,228.46868010004982,228.46868010004982,228.46868010004982,228.81841750000603,228.81841750000603,228.81841750000603,228.81841750000603,228.81841750000603,228.81841750000603,228.81841750000603,228.81841750000603,228.81841750000603,22,0,,,228.81841750000603,229.0186085999012,0.0,229.03511380008422,0,0.0,0,1,1000,num_1,0.5564444998744875,,34,5,2026-03-13_10h32.13.786,2026A_exp2,2022.2.4,59.95426689991321,
1,0,3.7,6.1,1,0,77,77,68,,,,,229.61907789995894,230.2698423000984,230.2698423000984,230.75421219994314,45,315,230.75421219994314,230.75421219994314,230.75421219994314,230.75421219994314,230.75421219994314,230.75421219994314,230.75421219994314,230.75421219994314,230.75421219994314,231.12067579990253,231.12067579990253,231.12067579990253,231.12067579990253,231.12067579990253,231.12067579990253,231.12067579990253,231.12067579990253,231.12067579990253,23,0,,,231.12067579990253,231.32097569992766,6.1,231.32097569992766,1,6.1,1,1,1000,num_4,0.8947878999169916,,34,5,2026-03-13_10h32.13.786,2026A_exp2,2022.2.4,59.95426689991321,
0,0,4.9,0.0,0,0,78,78,40,,,,,232.2383814000059,232.88891989993863,232.88891989993863,233.37355099990964,315,45,233.37355099990964,233.37355099990964,233.37355099990964,233.37355099990964,233.37355099990964,233.37355099990964,233.37355099990964,233.37355099990964,233.37355099990964,233.7399977000896,233.7399977000896,233.7399977000896,233.7399977000896,233.7399977000896,233.7399977000896,233.7399977000896,233.7399977000896,233.7399977000896,23,0,,,233.7399977000896,233.93994900002144,0.0,233.93994900002144,0,0.0,0,1,1000,num_1,0.6272974999155849,,34,5,2026-03-13_10h32.13.786,2026A_exp2,2022.2.4,59.95426689991321,
1000,1,6.1,4.9,0,0,79,79,81,,,,,234.5907815999817,235.24173839995638,235.24173839995638,235.72604730003513,315,315,235.72604730003513,235.72604730003513,235.72604730003513,235.72604730003513,235.72604730003513,235.72604730003513,235.72604730003513,235.72604730003513,235.72604730003513,236.09230150002986,236.09230150002986,236.09230150002986,236.09230150002986,236.09230150002986,236.09230150002986,236.09230150002986,236.09230150002986,236.09230150002986,23,0,,,236.09230150002986,236.2943392000161,1000,236.2943392000161,1000,1000,1000,1000,0,num_3,0.5602370998822153,,34,5,2026-03-13_10h32.13.786,2026A_exp2,2022.2.4,59.95426689991321,
1000,1,3.7,3.7,0,0,80,80,59,,,,,236.87640669988468,237.52715629991144,237.52715629991144,238.0115340000484,45,45,238.0115340000484,238.0115340000484,238.0115340000484,238.0115340000484,238.0115340000484,238.0115340000484,238.0115340000484,238.0115340000484,238.0115340000484,238.37793390010484,238.37793390010484,238.37793390010484,238.37793390010484,238.37793390010484,238.37793390010484,238.37793390010484,238.37793390010484,238.37793390010484,23,0,,,238.37793390010484,238.57976939994842,1000,238.57976939994842,1000,1000,1000,1000,1,num_2,0.5389455000404269,,34,5,2026-03-13_10h32.13.786,2026A_exp2,2022.2.4,59.95426689991321,
0,0,3.7,0.0,1,0,81,81,1,,,,,239.1455461999867,239.77950579999015,239.77950579999015,240.28034220007248,315,315,240.28034220007248,240.28034220007248,240.28034220007248,240.28034220007248,240.28034220007248,240.28034220007248,240.28034220007248,240.28034220007248,240.28034220007248,240.6468378000427,240.6468378000427,240.6468378000427,240.6468378000427,240.6468378000427,240.6468378000427,240.6468378000427,240.6468378000427,240.6468378000427,23,0,,,240.6468378000427,240.8469710999634,3.7,240.8469710999634,0,3.7,1,0,1000,num_1,0.535603400086984,,34,5,2026-03-13_10h32.13.786,2026A_exp2,2022.2.4,59.95426689991321,
0,0,6.1,0.0,0,0,82,82,41,,,,,241.41422119992785,242.06502189999446,242.06502189999446,242.54936970002018,315,315,242.54936970002018,242.54936970002018,242.54936970002018,242.54936970002018,242.54936970002018,242.54936970002018,242.54936970002018,242.54936970002018,242.54936970002018,242.9156750999391,242.9156750999391,242.9156750999391,242.9156750999391,242.9156750999391,242.9156750999391,242.9156750999391,242.9156750999391,242.9156750999391,23,0,,,242.9156750999391,243.11609510006383,0.0,243.11609510006383,0,0.0,0,1,1000,num_1,0.6753469000104815,,34,5,2026-03-13_10h32.13.786,2026A_exp2,2022.2.4,59.95426689991321,
1000,1,0.0,0.0,1,0,83,83,3,,,,,243.8165963999927,244.4673383999616,244.4673383999616,244.95185730000958,315,315,244.95185730000958,244.95185730000958,244.95185730000958,244.95185730000958,244.95185730000958,244.95185730000958,244.95185730000958,244.95185730000958,244.95185730000958,245.31853460008278,245.31853460008278,245.31853460008278,245.31853460008278,245.31853460008278,245.31853460008278,245.31853460008278,245.31853460008278,245.31853460008278,23,0,,,245.31853460008278,245.52015509991907,1000,245.52015509991907,1000,1000,1000,1000,1,num_2,0.7026655999943614,,34,5,2026-03-13_10h32.13.786,2026A_exp2,2022.2.4,59.95426689991321,
0,0,6.1,3.7,0,0,84,84,49,,,,,246.2524349000305,246.90308819990605,246.90308819990605,247.40393480006605,315,45,247.40393480006605,247.40393480006605,247.40393480006605,247.40393480006605,247.40393480006605,247.40393480006605,247.40393480006605,247.40393480006605,247.40393480006605,247.75387859996408,247.75387859996408,247.75387859996408,247.75387859996408,247.75387859996408,247.75387859996408,247.75387859996408,247.75387859996408,247.75387859996408,22,0,,,247.75387859996408,247.9541726000607,3.7,247.9709365000017,0,3.7,1,0,1000,num_1,0.8205409999936819,,34,5,2026-03-13_10h32.13.786,2026A_exp2,2022.2.4,59.95426689991321,
1,0,4.9,6.1,0,0,85,85,82,,,,,248.82150639989413,249.4723382999655,249.4723382999655,249.95687330001965,315,45,249.95687330001965,249.95687330001965,249.95687330001965,249.95687330001965,249.95687330001965,249.95687330001965,249.95687330001965,249.95687330001965,249.95687330001965,250.32331659994088,250.32331659994088,250.32331659994088,250.32331659994088,250.32331659994088,250.32331659994088,250.32331659994088,250.32331659994088,250.32331659994088,23,0,,,250.32331659994088,250.52349180006422,4.9,250.52349180006422,1,4.9,1,1,1000,num_4,0.8271556999534369,,34,5,2026-03-13_10h32.13.786,2026A_exp2,2022.2.4,59.95426689991321,
1000,1,3.7,0.0,0,0,86,86,39,,,,,251.37413379992358,252.02493739989586,252.02493739989586,252.50934670004062,315,315,252.50934670004062,252.50934670004062,252.50934670004062,252.50934670004062,252.50934670004062,252.50934670004062,252.50934670004062,252.50934670004062,252.50934670004062,252.87570560001768,252.87570560001768,252.87570560001768,252.87570560001768,252.87570560001768,252.87570560001768,252.87570560001768,252.87570560001768,252.87570560001768,23,0,,,252.87570560001768,253.07799190003425,1000,253.07799190003425,1000,1000,1000,1000,0,num_3,0.43369740014895797,,34,5,2026-03-13_10h32.13.786,2026A_exp2,2022.2.4,59.95426689991321,
1,0,4.9,0.0,1,0,87,87,34,,,,,253.54314609989524,254.19380740006454,254.19380740006454,254.6948190999683,45,45,254.6948190999683,254.6948190999683,254.6948190999683,254.6948190999683,254.6948190999683,254.6948190999683,254.6948190999683,254.6948190999683,254.6948190999683,255.04469510004856,255.04469510004856,255.04469510004856,255.04469510004856,255.04469510004856,255.04469510004856,255.04469510004856,255.04469510004856,255.04469510004856,22,0,,,255.04469510004856,255.24475939990953,0.0,255.24475939990953,0,0.0,0,1,1000,num_1,0.6750628999434412,,34,5,2026-03-13_10h32.13.786,2026A_exp2,2022.2.4,59.95426689991321,
1,0,0.0,6.1,1,0,88,88,46,,,,,255.94546269997954,256.59615530003794,256.59615530003794,257.0970745999366,315,45,257.0970745999366,257.0970745999366,257.0970745999366,257.0970745999366,257.0970745999366,257.0970745999366,257.0970745999366,257.0970745999366,257.0970745999366,257.44704740005545,257.44704740005545,257.44704740005545,257.44704740005545,257.44704740005545,257.44704740005545,257.44704740005545,257.44704740005545,257.44704740005545,22,0,,,257.44704740005545,257.6472722000908,6.1,257.6472722000908,1,6.1,1,1,1000,num_4,0.8402923000976443,,34,5,2026-03-13_10h32.13.786,2026A_exp2,2022.2.4,59.95426689991321,
0,0,0.0,0.0,0,0,89,89,15,,,,,258.5144205999095,259.1758719999343,259.1758719999343,259.65516599989496,45,315,259.65516599989496,259.65516599989496,259.65516599989496,259.65516599989496,259.65516599989496,259.65516599989496,259.65516599989496,259.65516599989496,259.65516599989496,260.0163278998807,260.0163278998807,260.0163278998807,260.0163278998807,260.0163278998807,260.0163278998807,260.0163278998807,260.0163278998807,260.0163278998807,23,0,,,260.0163278998807,260.2173329000361,0.0,260.2173329000361,0,0.0,0,1,1000,num_1,0.4530468999873847,,34,5,2026-03-13_10h32.13.786,2026A_exp2,2022.2.4,59.95426689991321,
,,,,,,,,,,,,,,,,,,,,,,,,,,,,,,,,,,,,,,,,,,,,,,,,,,,,260.71450229990296,,,,,,,
