validity,detectorcomp,contrastCW,contrastCCW,precueCWorCCW,block_80trials.thisRepN,block_80trials.thisTrialN,block_80trials.thisN,block_80trials.thisIndex,etRecord.started,etRecord.stopped,text.started,text.stopped,text_4.started,text_4.stopped,text_6.started,text_6.stopped,oriCW,oriCCW,roi_2.started,grating_UR.started,grating_UL.started,grating_LR.started,grating_LL.started,noise_UR.started,noise_UL.started,noise_LR.started,noise_LL.started,roi_2.stopped,grating_UR.stopped,grating_UL.stopped,grating_LR.stopped,grating_LL.stopped,noise_UR.stopped,noise_UL.stopped,noise_LR.stopped,noise_LL.stopped,outframe,roi_2.numLooks,roi_2.timesOn,roi_2.timesOff,text_2.started,text_2.stopped,probedcontrast,key_resp.started,respdetect,relevantContrast,correctDetect,TorFdetect,respCWorCCW,key_resp.keys,key_resp.rt,feedback_display_.started,participantNo,blockNo,date,expName,psychopyVersion,frameRate,
1,0,6.1,0.0,1,0,0,0,29,8.019991219043732e-05,8.019991219043732e-05,48.42221729992889,50.426814100006595,50.426814100006595,51.075224000029266,51.075224000029266,51.58111539995298,45,315,51.58111539995298,51.58111539995298,51.58111539995298,51.58111539995298,51.58111539995298,51.58111539995298,51.58111539995298,51.58111539995298,51.58111539995298,51.92606500000693,51.92606500000693,51.92606500000693,51.92606500000693,51.92606500000693,51.92606500000693,51.92606500000693,51.92606500000693,51.92606500000693,0,1,[0.0009162998758256435],[0.3680251999758184],51.92606500000693,52.12643840000965,0.0,52.12643840000965,0,0.0,0,1,1000,num_1,0.6491207999642938,,33,6,2026-03-12_17h39.27.455,2026A_exp2,2022.2.4,60.022892723924265,
1000,1,3.7,0.0,1,0,1,1,54,,,,,52.793750500073656,53.44443339994177,53.44443339994177,53.92906489991583,45,45,53.92906489991583,53.92906489991583,53.92906489991583,53.92906489991583,53.92906489991583,53.92906489991583,53.92906489991583,53.92906489991583,53.92906489991583,54.29527039988898,54.29527039988898,54.29527039988898,54.29527039988898,54.29527039988898,54.29527039988898,54.29527039988898,54.29527039988898,54.29527039988898,0,1,[0.0012103000190109015],[0.36711640004068613],54.29527039988898,54.49976469995454,1000,54.49976469995454,1000,1000,1000,1000,0,num_3,0.7554462999105453,,33,6,2026-03-12_17h39.27.455,2026A_exp2,2022.2.4,60.022892723924265,
1,0,6.1,0.0,0,0,2,2,58,,,,,55.27958710002713,55.93006490007974,55.93006490007974,56.43137159990147,45,45,56.43137159990147,56.43137159990147,56.43137159990147,56.43137159990147,56.43137159990147,56.43137159990147,56.43137159990147,56.43137159990147,56.43137159990147,56.78102490003221,56.78102490003221,56.78102490003221,56.78102490003221,56.78102490003221,56.78102490003221,56.78102490003221,56.78102490003221,56.78102490003221,3,1,[0.04990930017083883],[0.35031970008276403],56.78102490003221,56.98116929992102,6.1,56.98116929992102,0,6.1,1,0,1000,num_1,0.5708566000685096,,33,6,2026-03-12_17h39.27.455,2026A_exp2,2022.2.4,60.022892723924265,
1,0,3.7,4.9,0,0,3,3,70,,,,,57.58176179998554,58.23237799992785,58.23237799992785,58.7167837000452,45,45,58.7167837000452,58.7167837000452,58.7167837000452,58.7167837000452,58.7167837000452,58.7167837000452,58.7167837000452,58.7167837000452,58.7167837000452,59.08338039997034,59.08338039997034,59.08338039997034,59.08338039997034,59.08338039997034,59.08338039997034,59.08338039997034,59.08338039997034,59.08338039997034,0,1,[0.0012884000316262245],[0.36688290000893176],59.08338039997034,59.28355409996584,3.7,59.28355409996584,0,3.7,1,0,1000,num_1,0.7156051998026669,,33,6,2026-03-12_17h39.27.455,2026A_exp2,2022.2.4,60.022892723924265,
1,0,4.9,3.7,0,0,4,4,89,,,,,60.01757159992121,60.66832590010017,60.66832590010017,61.15287119988352,45,45,61.15287119988352,61.15287119988352,61.15287119988352,61.15287119988352,61.15287119988352,61.15287119988352,61.15287119988352,61.15287119988352,61.15287119988352,61.51886299997568,61.51886299997568,61.51886299997568,61.51886299997568,61.51886299997568,61.51886299997568,61.51886299997568,61.51886299997568,61.51886299997568,23,0,,,61.51886299997568,61.71926939999685,4.9,61.71926939999685,1,4.9,1,1,1000,num_4,0.6084626000374556,,33,6,2026-03-12_17h39.27.455,2026A_exp2,2022.2.4,60.022892723924265,
1,0,6.1,0.0,1,0,5,5,53,,,,,62.353117499966174,63.00379220000468,63.00379220000468,63.50508960010484,315,315,63.50508960010484,63.50508960010484,63.50508960010484,63.50508960010484,63.50508960010484,63.50508960010484,63.50508960010484,63.50508960010484,63.50508960010484,63.854812500067055,63.854812500067055,63.854812500067055,63.854812500067055,63.854812500067055,63.854812500067055,63.854812500067055,63.854812500067055,63.854812500067055,3,2,"[0.0012909998185932636, 0.11708169989287853]","[0.08348619984462857, 0.35067719989456236]",63.854812500067055,64.05498940008692,0.0,64.05498940008692,0,0.0,0,1,1000,num_1,0.537078799912706,,33,6,2026-03-12_17h39.27.455,2026A_exp2,2022.2.4,60.022892723924265,
0,0,0.0,6.1,0,0,6,6,30,,,,,64.6220271999482,65.27290110010654,65.27290110010654,65.75728109991178,45,45,65.75728109991178,65.75728109991178,65.75728109991178,65.75728109991178,65.75728109991178,65.75728109991178,65.75728109991178,65.75728109991178,65.75728109991178,66.12344129988924,66.12344129988924,66.12344129988924,66.12344129988924,66.12344129988924,66.12344129988924,66.12344129988924,66.12344129988924,66.12344129988924,23,0,,,66.12344129988924,66.32483669999056,6.1,66.32483669999056,1,6.1,1,1,1000,num_4,0.5470513999462128,,33,6,2026-03-12_17h39.27.455,2026A_exp2,2022.2.4,60.022892723924265,
1,0,0.0,4.9,1,0,7,7,44,,,,,66.89094460010529,67.54177540005185,67.54177540005185,68.042902499903,315,45,68.042902499903,68.042902499903,68.042902499903,68.042902499903,68.042902499903,68.042902499903,68.042902499903,68.042902499903,68.042902499903,68.40927119995467,68.40927119995467,68.40927119995467,68.40927119995467,68.40927119995467,68.40927119995467,68.40927119995467,68.40927119995467,68.40927119995467,16,4,"[0.10028829984366894, 0.25037279981188476, 0.3004174998495728, 0.3337947998661548]","[0.11681929999031126, 0.2837183999363333, 0.3169945999979973, 0.36709989979863167]",68.40927119995467,68.60940539999865,4.9,68.60940539999865,0,4.9,1,0,1000,num_1,0.949601500062272,,33,6,2026-03-12_17h39.27.455,2026A_exp2,2022.2.4,60.022892723924265,
1,0,0.0,4.9,0,0,8,8,48,,,,,69.57697369996458,70.2278785998933,70.2278785998933,70.712192799896,315,45,70.712192799896,70.712192799896,70.712192799896,70.712192799896,70.712192799896,70.712192799896,70.712192799896,70.712192799896,70.712192799896,71.07870350009762,71.07870350009762,71.07870350009762,71.07870350009762,71.07870350009762,71.07870350009762,71.07870350009762,71.07870350009762,71.07870350009762,0,1,[0.0012206998653709888],[0.36745859985239804],71.07870350009762,71.27892869990319,0.0,71.27892869990319,0,0.0,0,1,1000,num_1,0.6170686001423746,,33,6,2026-03-12_17h39.27.455,2026A_exp2,2022.2.4,60.022892723924265,
1,0,6.1,0.0,0,0,9,9,22,,,,,71.9126293999143,72.56341579998843,72.56341579998843,73.04782580002211,45,45,73.04782580002211,73.04782580002211,73.04782580002211,73.04782580002211,73.04782580002211,73.04782580002211,73.04782580002211,73.04782580002211,73.04782580002211,73.41435549990274,73.41435549990274,73.41435549990274,73.41435549990274,73.41435549990274,73.41435549990274,73.41435549990274,73.41435549990274,73.41435549990274,12,4,"[0.08371999999508262, 0.1169006999116391, 0.25010079983621836, 0.2837423998862505]","[0.10019809985533357, 0.1670195998158306, 0.2672329999040812, 0.3672360999044031]",73.41435549990274,73.6145850000903,6.1,73.6145850000903,1,6.1,1,1,1000,num_4,0.6564950998872519,,33,6,2026-03-12_17h39.27.455,2026A_exp2,2022.2.4,60.022892723924265,
1,0,0.0,0.0,0,0,10,10,75,,,,,74.29838930000551,74.94900629995391,74.94900629995391,75.44998640008271,45,45,75.44998640008271,75.44998640008271,75.44998640008271,75.44998640008271,75.44998640008271,75.44998640008271,75.44998640008271,75.44998640008271,75.44998640008271,75.7996735998895,75.7996735998895,75.7996735998895,75.7996735998895,75.7996735998895,75.7996735998895,75.7996735998895,75.7996735998895,75.7996735998895,0,1,[0.0008638999424874783],[0.35047009983099997],75.7996735998895,75.99995160009712,0.0,76.01655629999004,0,0.0,0,1,1000,num_1,0.695045700063929,,33,6,2026-03-12_17h39.27.455,2026A_exp2,2022.2.4,60.022892723924265,
1,0,4.9,0.0,0,0,11,11,19,,,,,76.73388740001246,77.36819899990223,77.36819899990223,77.86912690009922,45,45,77.86912690009922,77.86912690009922,77.86912690009922,77.86912690009922,77.86912690009922,77.86912690009922,77.86912690009922,77.86912690009922,77.86912690009922,78.23553820000961,78.23553820000961,78.23553820000961,78.23553820000961,78.23553820000961,78.23553820000961,78.23553820000961,78.23553820000961,78.23553820000961,0,1,[0.0007974000182002783],[0.3672909000888467],78.23553820000961,78.43595080007799,4.9,78.43595080007799,1,4.9,1,1,1000,num_4,0.7955541999544948,,33,6,2026-03-12_17h39.27.455,2026A_exp2,2022.2.4,60.022892723924265,
1,0,0.0,6.1,1,0,12,12,17,,,,,79.25341159990057,79.88722970010713,79.88722970010713,80.38822360010818,45,45,80.38822360010818,80.38822360010818,80.38822360010818,80.38822360010818,80.38822360010818,80.38822360010818,80.38822360010818,80.38822360010818,80.38822360010818,80.7546924999915,80.7546924999915,80.7546924999915,80.7546924999915,80.7546924999915,80.7546924999915,80.7546924999915,80.7546924999915,80.7546924999915,0,1,[0.0007692000363022089],[0.36730369995348155],80.7546924999915,80.95496689993888,6.1,80.95496689993888,1,6.1,1,1,1000,num_4,1.1079571000300348,,33,6,2026-03-12_17h39.27.455,2026A_exp2,2022.2.4,60.022892723924265,
1,0,4.9,0.0,0,0,13,13,47,,,,,82.08981929998845,82.72476250003092,82.72476250003092,83.22548649995588,45,315,83.22548649995588,83.22548649995588,83.22548649995588,83.22548649995588,83.22548649995588,83.22548649995588,83.22548649995588,83.22548649995588,83.22548649995588,83.59231300000101,83.59231300000101,83.59231300000101,83.59231300000101,83.59231300000101,83.59231300000101,83.59231300000101,83.59231300000101,83.59231300000101,0,1,[0.0009923998732119799],[0.3677632000762969],83.59231300000101,83.79171729995869,4.9,83.79171729995869,1,4.9,1,1,1000,num_4,0.5836073998361826,,33,6,2026-03-12_17h39.27.455,2026A_exp2,2022.2.4,60.022892723924265,
1000,1,0.0,4.9,1,0,14,14,51,,,,,84.39302659989335,85.04246890009381,85.04246890009381,85.54400220001116,45,315,85.54400220001116,85.54400220001116,85.54400220001116,85.54400220001116,85.54400220001116,85.54400220001116,85.54400220001116,85.54400220001116,85.54400220001116,85.90992140001617,85.90992140001617,85.90992140001617,85.90992140001617,85.90992140001617,85.90992140001617,85.90992140001617,85.90992140001617,85.90992140001617,0,1,[0.0006768000312149525],[0.3672897999640554],85.90992140001617,86.11127080000006,1000,86.11127080000006,1000,1000,1000,1000,1,num_2,0.8158933001104742,,33,6,2026-03-12_17h39.27.455,2026A_exp2,2022.2.4,60.022892723924265,
1,0,0.0,0.0,1,0,15,15,60,,,,,86.94444129988551,87.59503720002249,87.59503720002249,88.08065550005995,315,45,88.08065550005995,88.08065550005995,88.08065550005995,88.08065550005995,88.08065550005995,88.08065550005995,88.08065550005995,88.08065550005995,88.08065550005995,88.44566219998524,88.44566219998524,88.44566219998524,88.44566219998524,88.44566219998524,88.44566219998524,88.44566219998524,88.44566219998524,88.44566219998524,0,1,[0.0007591000758111477],[0.36685870005749166],88.44566219998524,88.64574970002286,0.0,88.66259320010431,0,0.0,0,1,1000,num_1,0.5525293000973761,,33,6,2026-03-12_17h39.27.455,2026A_exp2,2022.2.4,60.022892723924265,
0,0,3.7,0.0,0,0,16,16,16,,,,,89.24640700011514,89.88046699995175,89.88046699995175,90.38228729995899,315,45,90.38228729995899,90.38228729995899,90.38228729995899,90.38228729995899,90.38228729995899,90.38228729995899,90.38228729995899,90.38228729995899,90.38228729995899,90.74837139993906,90.74837139993906,90.74837139993906,90.74837139993906,90.74837139993906,90.74837139993906,90.74837139993906,90.74837139993906,90.74837139993906,0,1,[0.0009118001908063889],[0.36673870007507503],90.74837139993906,90.94844860001467,0.0,90.94844860001467,0,0.0,0,1,1000,num_1,0.562873300164938,,33,6,2026-03-12_17h39.27.455,2026A_exp2,2022.2.4,60.022892723924265,
1000,1,0.0,4.9,0,0,17,17,50,,,,,91.53232509992085,92.18281819997355,92.18281819997355,92.66721290000714,315,315,92.66721290000714,92.66721290000714,92.66721290000714,92.66721290000714,92.66721290000714,92.66721290000714,92.66721290000714,92.66721290000714,92.66721290000714,93.03391789994203,93.03391789994203,93.03391789994203,93.03391789994203,93.03391789994203,93.03391789994203,93.03391789994203,93.03391789994203,93.03391789994203,0,1,[0.0007356998976320028],[0.3675691999960691],93.03391789994203,93.2341859000735,1000,93.2341859000735,1000,1000,1000,1000,1,num_2,0.4686026000417769,,33,6,2026-03-12_17h39.27.455,2026A_exp2,2022.2.4,60.022892723924265,
1000,1,4.9,0.0,0,0,18,18,82,,,,,93.73475750000216,94.38548829988576,94.38548829988576,94.86937079997733,315,315,94.86937079997733,94.86937079997733,94.86937079997733,94.86937079997733,94.86937079997733,94.86937079997733,94.86937079997733,94.86937079997733,94.86937079997733,95.23576340009458,95.23576340009458,95.23576340009458,95.23576340009458,95.23576340009458,95.23576340009458,95.23576340009458,95.23576340009458,95.23576340009458,0,1,[0.0008064000867307186],[0.3672663001343608],95.23576340009458,95.43607620010152,1000,95.43607620010152,1000,1000,1000,1000,0,num_3,0.4516243999823928,,33,6,2026-03-12_17h39.27.455,2026A_exp2,2022.2.4,60.022892723924265,
1,0,0.0,0.0,1,0,19,19,42,,,,,95.90328139998019,96.53714619996026,96.53714619996026,97.038309100084,315,315,97.038309100084,97.038309100084,97.038309100084,97.038309100084,97.038309100084,97.038309100084,97.038309100084,97.038309100084,97.038309100084,97.40456399996765,97.40456399996765,97.40456399996765,97.40456399996765,97.40456399996765,97.40456399996765,97.40456399996765,97.40456399996765,97.40456399996765,0,1,[0.0007823999039828777],[0.36730769998393953],97.40456399996765,97.60490350006148,0.0,97.60490350006148,0,0.0,0,1,1000,num_1,0.8582882999908179,,33,6,2026-03-12_17h39.27.455,2026A_exp2,2022.2.4,60.022892723924265,
1000,1,0.0,0.0,1,0,20,20,27,,,,,98.48903700010851,99.12325010006316,99.12325010006316,99.62420589989051,315,45,99.62420589989051,99.62420589989051,99.62420589989051,99.62420589989051,99.62420589989051,99.62420589989051,99.62420589989051,99.62420589989051,99.62420589989051,99.99058059998788,99.99058059998788,99.99058059998788,99.99058059998788,99.99058059998788,99.99058059998788,99.99058059998788,99.99058059998788,99.99058059998788,4,2,"[0.017560699954628944, 0.08381029986776412]","[0.03431399981491268, 0.3671134999021888]",99.99058059998788,100.19078149995767,1000,100.19078149995767,1000,1000,1000,1000,1,num_2,0.5360278999432921,,33,6,2026-03-12_17h39.27.455,2026A_exp2,2022.2.4,60.022892723924265,
1,0,0.0,6.1,0,0,21,21,3,,,,,100.74266749992967,101.39194780006073,101.39194780006073,101.89307220000774,45,45,101.89307220000774,101.89307220000774,101.89307220000774,101.89307220000774,101.89307220000774,101.89307220000774,101.89307220000774,101.89307220000774,101.89307220000774,102.25950290006585,102.25950290006585,102.25950290006585,102.25950290006585,102.25950290006585,102.25950290006585,102.25950290006585,102.25950290006585,102.25950290006585,0,1,[0.0008035998325794935],[0.36696709995158017],102.25950290006585,102.45967889996246,0.0,102.45967889996246,0,0.0,0,1,1000,num_1,1.251893499866128,,33,6,2026-03-12_17h39.27.455,2026A_exp2,2022.2.4,60.022892723924265,
1,0,4.9,0.0,0,0,22,22,14,,,,,103.72773179993965,104.36175879999064,104.36175879999064,104.86346050002612,45,315,104.86346050002612,104.86346050002612,104.86346050002612,104.86346050002612,104.86346050002612,104.86346050002612,104.86346050002612,104.86346050002612,104.86346050002612,105.22918020002544,105.22918020002544,105.22918020002544,105.22918020002544,105.22918020002544,105.22918020002544,105.22918020002544,105.22918020002544,105.22918020002544,0,1,[0.0007829999085515738],[0.36689029983244836],105.22918020002544,105.4295095000416,4.9,105.4295095000416,1,4.9,1,1,1000,num_4,0.698060299968347,,33,6,2026-03-12_17h39.27.455,2026A_exp2,2022.2.4,60.022892723924265,
1000,1,3.7,3.7,0,0,23,23,76,,,,,106.14698640001006,106.79742860002443,106.79742860002443,107.29847620008513,315,45,107.29847620008513,107.29847620008513,107.29847620008513,107.29847620008513,107.29847620008513,107.29847620008513,107.29847620008513,107.29847620008513,107.29847620008513,107.64866250008345,107.64866250008345,107.64866250008345,107.64866250008345,107.64866250008345,107.64866250008345,107.64866250008345,107.64866250008345,107.64866250008345,0,1,[0.0007160999812185764],[0.35042340005747974],107.64866250008345,107.8483569000382,1000,107.8483569000382,1000,1000,1000,1000,0,num_3,0.5424265000037849,,33,6,2026-03-12_17h39.27.455,2026A_exp2,2022.2.4,60.022892723924265,
1,0,6.1,3.7,1,0,24,24,45,,,,,108.41578059992753,109.06631739996374,109.06631739996374,109.55067020002753,45,315,109.55067020002753,109.55067020002753,109.55067020002753,109.55067020002753,109.55067020002753,109.55067020002753,109.55067020002753,109.55067020002753,109.55067020002753,109.91705429996364,109.91705429996364,109.91705429996364,109.91705429996364,109.91705429996364,109.91705429996364,109.91705429996364,109.91705429996364,109.91705429996364,0,1,[0.0007207000162452459],[0.3672088999301195],109.91705429996364,110.1175615999382,3.7,110.1175615999382,1,3.7,1,1,1000,num_4,0.9375654000323266,,33,6,2026-03-12_17h39.27.455,2026A_exp2,2022.2.4,60.022892723924265,
1,0,6.1,4.9,1,0,25,25,38,,,,,111.0850937999785,111.71922470000573,111.71922470000573,112.22008139989339,315,45,112.22008139989339,112.22008139989339,112.22008139989339,112.22008139989339,112.22008139989339,112.22008139989339,112.22008139989339,112.22008139989339,112.22008139989339,112.58669180003926,112.58669180003926,112.58669180003926,112.58669180003926,112.58669180003926,112.58669180003926,112.58669180003926,112.58669180003926,112.58669180003926,0,1,[0.0007742999587208033],[0.36751469993032515],112.58669180003926,112.78722830000333,4.9,112.78722830000333,0,4.9,1,0,1000,num_1,0.6519176999572664,,33,6,2026-03-12_17h39.27.455,2026A_exp2,2022.2.4,60.022892723924265,
1,0,0.0,4.9,1,0,26,26,2,,,,,113.4708753998857,114.10574509995058,114.10574509995058,114.60620389995165,45,315,114.60620389995165,114.60620389995165,114.60620389995165,114.60620389995165,114.60620389995165,114.60620389995165,114.60620389995165,114.60620389995165,114.60620389995165,114.97208880004473,114.97208880004473,114.97208880004473,114.97208880004473,114.97208880004473,114.97208880004473,114.97208880004473,114.97208880004473,114.97208880004473,0,1,[0.0009127000812441111],[0.36679580016061664],114.97208880004473,115.17241119989194,4.9,115.17241119989194,1,4.9,1,1,1000,num_4,0.45859289984218776,,33,6,2026-03-12_17h39.27.455,2026A_exp2,2022.2.4,60.022892723924265,
1000,1,4.9,3.7,1,0,27,27,46,,,,,115.65630419994704,116.30674410006031,116.30674410006031,116.7917305000592,315,45,116.7917305000592,116.7917305000592,116.7917305000592,116.7917305000592,116.7917305000592,116.7917305000592,116.7917305000592,116.7917305000592,116.7917305000592,117.1576131999027,117.1576131999027,117.1576131999027,117.1576131999027,117.1576131999027,117.1576131999027,117.1576131999027,117.1576131999027,117.1576131999027,0,1,[0.0007579000666737556],[0.36681889998726547],117.1576131999027,117.35796989989467,1000,117.35796989989467,1000,1000,1000,1000,0,num_3,0.44132299977354705,,33,6,2026-03-12_17h39.27.455,2026A_exp2,2022.2.4,60.022892723924265,
1000,1,0.0,3.7,1,0,28,28,81,,,,,117.82509639998898,118.45945439999923,118.45945439999923,118.96020899992436,45,45,118.96020899992436,118.96020899992436,118.96020899992436,118.96020899992436,118.96020899992436,118.96020899992436,118.96020899992436,118.96020899992436,118.96020899992436,119.32656849990599,119.32656849990599,119.32656849990599,119.32656849990599,119.32656849990599,119.32656849990599,119.32656849990599,119.32656849990599,119.32656849990599,0,1,[0.0008336000610142946],[0.3674403000622988],119.32656849990599,119.5270541999489,1000,119.5270541999489,1000,1000,1000,1000,1,num_2,0.28800929989665747,,33,6,2026-03-12_17h39.27.455,2026A_exp2,2022.2.4,60.022892723924265,
1,0,4.9,6.1,1,0,29,29,62,,,,,119.8440636000596,120.49460379988886,120.49460379988886,120.97883139993064,315,45,120.97883139993064,120.97883139993064,120.97883139993064,120.97883139993064,120.97883139993064,120.97883139993064,120.97883139993064,120.97883139993064,120.97883139993064,121.3452866000589,121.3452866000589,121.3452866000589,121.3452866000589,121.3452866000589,121.3452866000589,121.3452866000589,121.3452866000589,121.3452866000589,10,3,"[0.08343870006501675, 0.16694999998435378, 0.21994620002806187]","[0.11700229998677969, 0.18449500016868114, 0.36754680005833507]",121.3452866000589,121.54568469990045,6.1,121.54568469990045,1,6.1,1,1,1000,num_4,0.41353009990416467,,33,6,2026-03-12_17h39.27.455,2026A_exp2,2022.2.4,60.022892723924265,
1000,1,0.0,6.1,1,0,30,30,40,,,,,121.979263599962,122.62976470007561,122.62976470007561,123.13102980004624,315,45,123.13102980004624,123.13102980004624,123.13102980004624,123.13102980004624,123.13102980004624,123.13102980004624,123.13102980004624,123.13102980004624,123.13102980004624,123.49735930003226,123.49735930003226,123.49735930003226,123.49735930003226,123.49735930003226,123.49735930003226,123.49735930003226,123.49735930003226,123.49735930003226,0,1,[0.00090929982252419],[0.36734499991871417],123.49735930003226,123.69780800002627,1000,123.69780800002627,1000,1000,1000,1000,1,num_2,0.5415449999272823,,33,6,2026-03-12_17h39.27.455,2026A_exp2,2022.2.4,60.022892723924265,
1000,1,0.0,0.0,1,0,31,31,63,,,,,124.26493819989264,124.91546060005203,124.91546060005203,125.40008809999563,315,315,125.40008809999563,125.40008809999563,125.40008809999563,125.40008809999563,125.40008809999563,125.40008809999563,125.40008809999563,125.40008809999563,125.40008809999563,125.76620620000176,125.76620620000176,125.76620620000176,125.76620620000176,125.76620620000176,125.76620620000176,125.76620620000176,125.76620620000176,125.76620620000176,0,1,[0.0007717001717537642],[0.3669396999757737],125.76620620000176,125.96664069988765,1000,125.96664069988765,1000,1000,1000,1000,0,num_3,0.6081300999503583,,33,6,2026-03-12_17h39.27.455,2026A_exp2,2022.2.4,60.022892723924265,
1,0,3.7,0.0,1,0,32,32,55,,,,,126.60146609996445,127.25120649999008,127.25120649999008,127.75267529999837,315,45,127.75267529999837,127.75267529999837,127.75267529999837,127.75267529999837,127.75267529999837,127.75267529999837,127.75267529999837,127.75267529999837,127.75267529999837,128.11889269994572,128.11889269994572,128.11889269994572,128.11889269994572,128.11889269994572,128.11889269994572,128.11889269994572,128.11889269994572,128.11889269994572,0,1,[0.0008888000156730413],[0.3674097000621259],128.11889269994572,128.31927559990436,0.0,128.31927559990436,0,0.0,0,1,1000,num_1,0.7595714000053704,,33,6,2026-03-12_17h39.27.455,2026A_exp2,2022.2.4,60.022892723924265,
1000,1,4.9,4.9,0,0,33,33,36,,,,,129.1030697999522,129.7371338000521,129.7371338000521,130.23804460000247,315,45,130.23804460000247,130.23804460000247,130.23804460000247,130.23804460000247,130.23804460000247,130.23804460000247,130.23804460000247,130.23804460000247,130.23804460000247,130.60474990005605,130.60474990005605,130.60474990005605,130.60474990005605,130.60474990005605,130.60474990005605,130.60474990005605,130.60474990005605,130.60474990005605,0,1,[0.0008516998495906591],[0.3673844998702407],130.60474990005605,130.8050237998832,1000,130.8050237998832,1000,1000,1000,1000,1,num_2,0.4578922998625785,,33,6,2026-03-12_17h39.27.455,2026A_exp2,2022.2.4,60.022892723924265,
1000,1,4.9,3.7,0,0,34,34,26,,,,,131.28866000007838,131.93944879993796,131.93944879993796,132.42383320000954,315,315,132.42383320000954,132.42383320000954,132.42383320000954,132.42383320000954,132.42383320000954,132.42383320000954,132.42383320000954,132.42383320000954,132.42383320000954,132.78996969992295,132.78996969992295,132.78996969992295,132.78996969992295,132.78996969992295,132.78996969992295,132.78996969992295,132.78996969992295,132.78996969992295,10,2,"[0.15003230003640056, 0.18347999989055097]","[0.1668701998423785, 0.36690240004099905]",132.78996969992295,132.99039310007356,1000,132.99039310007356,1000,1000,1000,1000,0,num_3,0.44064739998430014,,33,6,2026-03-12_17h39.27.455,2026A_exp2,2022.2.4,60.022892723924265,
1000,1,3.7,3.7,1,0,35,35,25,,,,,133.45757899992168,134.10819509997964,134.10819509997964,134.5931478999555,45,45,134.5931478999555,134.5931478999555,134.5931478999555,134.5931478999555,134.5931478999555,134.5931478999555,134.5931478999555,134.5931478999555,134.5931478999555,134.95895110000856,134.95895110000856,134.95895110000856,134.95895110000856,134.95895110000856,134.95895110000856,134.95895110000856,134.95895110000856,134.95895110000856,0,1,[0.0007488999981433153],[0.3674118001945317],134.95895110000856,135.15903389989398,1000,135.15903389989398,1000,1000,1000,1000,1,num_2,0.31195029988884926,,33,6,2026-03-12_17h39.27.455,2026A_exp2,2022.2.4,60.022892723924265,
1000,1,4.9,6.1,0,0,36,36,59,,,,,135.49277639994398,136.14333610003814,136.14333610003814,136.62796570011415,315,315,136.62796570011415,136.62796570011415,136.62796570011415,136.62796570011415,136.62796570011415,136.62796570011415,136.62796570011415,136.62796570011415,136.62796570011415,136.99465249991044,136.99465249991044,136.99465249991044,136.99465249991044,136.99465249991044,136.99465249991044,136.99465249991044,136.99465249991044,136.99465249991044,0,1,[0.001159599982202053],[0.36694670002907515],136.99465249991044,137.1949203000404,1000,137.1949203000404,1000,1000,1000,1000,1,num_2,0.3887637001462281,,33,6,2026-03-12_17h39.27.455,2026A_exp2,2022.2.4,60.022892723924265,
1,0,0.0,0.0,1,0,37,37,77,,,,,137.61251839995384,138.2621265000198,138.2621265000198,138.74687879998237,315,45,138.74687879998237,138.74687879998237,138.74687879998237,138.74687879998237,138.74687879998237,138.74687879998237,138.74687879998237,138.74687879998237,138.74687879998237,139.11316350009292,139.11316350009292,139.11316350009292,139.11316350009292,139.11316350009292,139.11316350009292,139.11316350009292,139.11316350009292,139.11316350009292,0,1,[0.0008979998528957367],[0.36735369986854494],139.11316350009292,139.3132559999358,0.0,139.3132559999358,0,0.0,0,1,1000,num_1,0.7656307001598179,,33,6,2026-03-12_17h39.27.455,2026A_exp2,2022.2.4,60.022892723924265,
1,0,3.7,3.7,1,0,38,38,11,,,,,140.09735279995948,140.73137370008044,140.73137370008044,141.2325555998832,315,315,141.2325555998832,141.2325555998832,141.2325555998832,141.2325555998832,141.2325555998832,141.2325555998832,141.2325555998832,141.2325555998832,141.2325555998832,141.59900550008751,141.59900550008751,141.59900550008751,141.59900550008751,141.59900550008751,141.59900550008751,141.59900550008751,141.59900550008751,141.59900550008751,1,2,"[0.0007311999797821045, 0.050594500033184886]","[0.03379829996265471, 0.36746550002135336]",141.59900550008751,141.79915100010112,3.7,141.79915100010112,1,3.7,1,1,1000,num_4,0.6643808998633176,,33,6,2026-03-12_17h39.27.455,2026A_exp2,2022.2.4,60.022892723924265,
1000,1,0.0,0.0,0,0,39,39,33,,,,,142.4833500001114,143.13371560000814,143.13371560000814,143.61830270010978,315,45,143.61830270010978,143.61830270010978,143.61830270010978,143.61830270010978,143.61830270010978,143.61830270010978,143.61830270010978,143.61830270010978,143.61830270010978,143.98462089989334,143.98462089989334,143.98462089989334,143.98462089989334,143.98462089989334,143.98462089989334,143.98462089989334,143.98462089989334,143.98462089989334,0,1,[0.000725999940186739],[0.3673817999660969],143.98462089989334,144.18504230002873,1000,144.18504230002873,1000,1000,1000,1000,1,num_2,0.7184816000517458,,33,6,2026-03-12_17h39.27.455,2026A_exp2,2022.2.4,60.022892723924265,
1000,1,3.7,0.0,0,0,40,40,28,,,,,144.93549420009367,145.56960129993968,145.56960129993968,146.07097989995964,315,315,146.07097989995964,146.07097989995964,146.07097989995964,146.07097989995964,146.07097989995964,146.07097989995964,146.07097989995964,146.07097989995964,146.07097989995964,146.43781289993785,146.43781289993785,146.43781289993785,146.43781289993785,146.43781289993785,146.43781289993785,146.43781289993785,146.43781289993785,146.43781289993785,0,1,[0.0007036000024527311],[0.3674479001201689],146.43781289993785,146.63729019998573,1000,146.63729019998573,1000,1000,1000,1000,0,num_3,0.3457459998317063,,33,6,2026-03-12_17h39.27.455,2026A_exp2,2022.2.4,60.022892723924265,
1000,1,0.0,0.0,1,0,41,41,78,,,,,147.00467450008728,147.65475780004635,147.65475780004635,148.1560291000642,315,45,148.1560291000642,148.1560291000642,148.1560291000642,148.1560291000642,148.1560291000642,148.1560291000642,148.1560291000642,148.1560291000642,148.1560291000642,148.5224683000706,148.5224683000706,148.5224683000706,148.5224683000706,148.5224683000706,148.5224683000706,148.5224683000706,148.5224683000706,148.5224683000706,23,0,,,148.5224683000706,148.72260689991526,1000,148.72260689991526,1000,1000,1000,1000,0,num_3,2.484774899901822,,33,6,2026-03-12_17h39.27.455,2026A_exp2,2022.2.4,60.022892723924265,
0,0,3.7,0.0,1,0,42,42,0,,,,,151.225144200027,151.87575270002708,151.87575270002708,152.36057480005547,315,45,152.36057480005547,152.36057480005547,152.36057480005547,152.36057480005547,152.36057480005547,152.36057480005547,152.36057480005547,152.36057480005547,152.36057480005547,152.7268538000062,152.7268538000062,152.7268538000062,152.7268538000062,152.7268538000062,152.7268538000062,152.7268538000062,152.7268538000062,152.7268538000062,7,2,"[0.08341259998269379, 0.1496721999719739]","[0.11646400019526482, 0.36658730008639395]",152.7268538000062,152.92688730009831,3.7,152.92688730009831,1,3.7,1,1,1000,num_4,0.5764262999873608,,33,6,2026-03-12_17h39.27.455,2026A_exp2,2022.2.4,60.022892723924265,
1000,1,0.0,3.7,0,0,43,43,21,,,,,153.52752669993788,154.16161659988575,154.16161659988575,154.662697999971,45,45,154.662697999971,154.662697999971,154.662697999971,154.662697999971,154.662697999971,154.662697999971,154.662697999971,154.662697999971,154.662697999971,155.02897129999474,155.02897129999474,155.02897129999474,155.02897129999474,155.02897129999474,155.02897129999474,155.02897129999474,155.02897129999474,155.02897129999474,2,1,[0.03367269993759692],[0.36728619993664324],155.02897129999474,155.22930380003527,1000,155.22930380003527,1000,1000,1000,1000,1,num_2,0.3141697000246495,,33,6,2026-03-12_17h39.27.455,2026A_exp2,2022.2.4,60.022892723924265,
1,0,3.7,6.1,0,0,44,44,74,,,,,155.56287900009193,156.21350049995817,156.21350049995817,156.6977347000502,315,315,156.6977347000502,156.6977347000502,156.6977347000502,156.6977347000502,156.6977347000502,156.6977347000502,156.6977347000502,156.6977347000502,156.6977347000502,157.06426210002974,157.06426210002974,157.06426210002974,157.06426210002974,157.06426210002974,157.06426210002974,157.06426210002974,157.06426210002974,157.06426210002974,17,2,"[0.10107109998352826, 0.2836191998794675]","[0.13379029999487102, 0.3504397999495268]",157.06426210002974,157.26451979996637,3.7,157.26451979996637,0,3.7,1,0,1000,num_1,0.5588926000054926,,33,6,2026-03-12_17h39.27.455,2026A_exp2,2022.2.4,60.022892723924265,
1000,1,6.1,3.7,0,0,45,45,43,,,,,157.84842869988643,158.4991264999844,158.4991264999844,158.98354639997706,45,45,158.98354639997706,158.98354639997706,158.98354639997706,158.98354639997706,158.98354639997706,158.98354639997706,158.98354639997706,158.98354639997706,158.98354639997706,159.350064399885,159.350064399885,159.350064399885,159.350064399885,159.350064399885,159.350064399885,159.350064399885,159.350064399885,159.350064399885,17,1,[0.2840967997908592],[0.3674147999845445],159.350064399885,159.5501906001009,1000,159.5501906001009,1000,1000,1000,1000,0,num_3,0.5129049997776747,,33,6,2026-03-12_17h39.27.455,2026A_exp2,2022.2.4,60.022892723924265,
1,0,6.1,0.0,1,0,46,46,41,,,,,160.08440700010397,160.73479819996282,160.73479819996282,161.2360555001069,315,45,161.2360555001069,161.2360555001069,161.2360555001069,161.2360555001069,161.2360555001069,161.2360555001069,161.2360555001069,161.2360555001069,161.2360555001069,161.5856472000014,161.5856472000014,161.5856472000014,161.5856472000014,161.5856472000014,161.5856472000014,161.5856472000014,161.5856472000014,161.5856472000014,5,1,[0.08377590007148683],[0.3508331999182701],161.5856472000014,161.78579049999826,0.0,161.78579049999826,0,0.0,0,1,1000,num_1,0.5101727999281138,,33,6,2026-03-12_17h39.27.455,2026A_exp2,2022.2.4,60.022892723924265,
1000,1,4.9,4.9,1,0,47,47,67,,,,,162.32025419990532,162.97024270007387,162.97024270007387,163.4546823001001,315,45,163.4546823001001,163.4546823001001,163.4546823001001,163.4546823001001,163.4546823001001,163.4546823001001,163.4546823001001,163.4546823001001,163.4546823001001,163.8211028999649,163.8211028999649,163.8211028999649,163.8211028999649,163.8211028999649,163.8211028999649,163.8211028999649,163.8211028999649,163.8211028999649,0,1,[0.000905199907720089],[0.367181200068444],163.8211028999649,164.02136450004764,1000,164.02136450004764,1000,1000,1000,1000,1,num_2,0.42562390002422035,,33,6,2026-03-12_17h39.27.455,2026A_exp2,2022.2.4,60.022892723924265,
1,0,0.0,0.0,0,0,48,48,87,,,,,164.4721031000372,165.10596559988335,165.10596559988335,165.6068233998958,45,45,165.6068233998958,165.6068233998958,165.6068233998958,165.6068233998958,165.6068233998958,165.6068233998958,165.6068233998958,165.6068233998958,165.6068233998958,165.97329179989174,165.97329179989174,165.97329179989174,165.97329179989174,165.97329179989174,165.97329179989174,165.97329179989174,165.97329179989174,165.97329179989174,0,1,[0.0007203000131994486],[0.3673523000907153],165.97329179989174,166.17352510010824,0.0,166.17352510010824,0,0.0,0,1,1000,num_1,1.0253936999943107,,33,6,2026-03-12_17h39.27.455,2026A_exp2,2022.2.4,60.022892723924265,
0,0,4.9,3.7,1,0,49,49,13,,,,,167.2246061998885,167.8583732000552,167.8583732000552,168.35952110006474,45,45,168.35952110006474,168.35952110006474,168.35952110006474,168.35952110006474,168.35952110006474,168.35952110006474,168.35952110006474,168.35952110006474,168.35952110006474,168.72614490007982,168.72614490007982,168.72614490007982,168.72614490007982,168.72614490007982,168.72614490007982,168.72614490007982,168.72614490007982,168.72614490007982,15,1,[0.25036869989708066],[0.3668736999388784],168.72614490007982,168.92618780001067,4.9,168.92618780001067,1,4.9,1,1,1000,num_4,0.36093399999663234,,33,6,2026-03-12_17h39.27.455,2026A_exp2,2022.2.4,60.022892723924265,
1000,1,0.0,0.0,1,0,50,50,80,,,,,169.31097749993205,169.96056980011053,169.96056980011053,170.46271069999784,45,315,170.46271069999784,170.46271069999784,170.46271069999784,170.46271069999784,170.46271069999784,170.46271069999784,170.46271069999784,170.46271069999784,170.46271069999784,170.8279967000708,170.8279967000708,170.8279967000708,170.8279967000708,170.8279967000708,170.8279967000708,170.8279967000708,170.8279967000708,170.8279967000708,17,3,"[0.06710530002601445, 0.26708970009349287, 0.334070400102064]","[0.08414519997313619, 0.3006522001232952, 0.36707619996741414]",170.8279967000708,171.02850300003774,1000,171.02850300003774,1000,1000,1000,1000,1,num_2,0.9063758000265807,,33,6,2026-03-12_17h39.27.455,2026A_exp2,2022.2.4,60.022892723924265,
1,0,4.9,4.9,1,0,51,51,32,,,,,171.96299939998426,,172.6147193000652,173.09780459990725,45,45,173.09780459990725,173.09780459990725,173.09780459990725,173.09780459990725,173.09780459990725,173.09780459990725,173.09780459990725,173.09780459990725,173.09780459990725,173.46401440002955,173.46401440002955,173.46401440002955,173.46401440002955,173.46401440002955,173.46401440002955,173.46401440002955,173.46401440002955,173.46401440002955,7,1,[0.11673470004461706],[0.3670856000389904],173.46401440002955,173.66422310005873,4.9,173.66422310005873,0,4.9,1,0,1000,num_1,1.0465122000314295,,33,6,2026-03-12_17h39.27.455,2026A_exp2,2022.2.4,60.022892723924265,
1000,1,4.9,6.1,0,0,52,52,35,,,,,174.73199720005505,175.36646239995025,175.36646239995025,175.86710850009695,45,45,175.86710850009695,175.86710850009695,175.86710850009695,175.86710850009695,175.86710850009695,175.86710850009695,175.86710850009695,175.86710850009695,175.86710850009695,176.23395240004174,176.23395240004174,176.23395240004174,176.23395240004174,176.23395240004174,176.23395240004174,176.23395240004174,176.23395240004174,176.23395240004174,9,3,"[0.08352279989048839, 0.30054469988681376, 0.36741109983995557]","[0.2680319999344647, 0.3345371999312192, 0.3674139999784529]",176.23395240004174,176.43389340001158,1000,176.43389340001158,1000,1000,1000,1000,1,num_2,0.46918959985487163,,33,6,2026-03-12_17h39.27.455,2026A_exp2,2022.2.4,60.022892723924265,
0,0,0.0,0.0,0,0,53,53,10,,,,,176.93460269994102,177.58471999992616,177.58471999992616,178.06937619997188,45,315,178.06937619997188,178.06937619997188,178.06937619997188,178.06937619997188,178.06937619997188,178.06937619997188,178.06937619997188,178.06937619997188,178.06937619997188,178.4356611999683,178.4356611999683,178.4356611999683,178.4356611999683,178.4356611999683,178.4356611999683,178.4356611999683,178.4356611999683,178.4356611999683,2,3,"[0.0007553000468760729, 0.21723089995793998, 0.35113630001433194]","[0.20032970001921058, 0.3339744000695646, 0.36704770009964705]",178.4356611999683,178.63585170009173,0.0,178.63585170009173,1,0.0,0,0,1000,num_4,0.8190474999137223,,33,6,2026-03-12_17h39.27.455,2026A_exp2,2022.2.4,60.022892723924265,
1,0,0.0,0.0,1,0,54,54,56,,,,,179.48682780005038,180.1206044999417,180.1206044999417,180.62170440005139,45,45,180.62170440005139,180.62170440005139,180.62170440005139,180.62170440005139,180.62170440005139,180.62170440005139,180.62170440005139,180.62170440005139,180.62170440005139,180.98816949990578,180.98816949990578,180.98816949990578,180.98816949990578,180.98816949990578,180.98816949990578,180.98816949990578,180.98816949990578,180.98816949990578,6,1,[0.0007517999038100243],[0.2836738999467343],180.98816949990578,181.18943940009922,0.0,181.18943940009922,0,0.0,0,1,1000,num_1,0.5464072998147458,,33,6,2026-03-12_17h39.27.455,2026A_exp2,2022.2.4,60.022892723924265,
1000,1,0.0,6.1,0,0,55,55,85,,,,,181.75579850003123,182.38976819999516,182.38976819999516,182.89185429993086,315,45,182.89185429993086,182.89185429993086,182.89185429993086,182.89185429993086,182.89185429993086,182.89185429993086,182.89185429993086,182.89185429993086,182.89185429993086,183.25743829994462,183.25743829994462,183.25743829994462,183.25743829994462,183.25743829994462,183.25743829994462,183.25743829994462,183.25743829994462,183.25743829994462,0,1,[0.0009277998469769955],[0.3675895999185741],183.25743829994462,183.45991860004142,1000,183.45991860004142,1000,1000,1000,1000,1,num_2,0.6437708998564631,,33,6,2026-03-12_17h39.27.455,2026A_exp2,2022.2.4,60.022892723924265,
1000,1,0.0,0.0,1,0,56,56,72,,,,,184.12484119995497,184.77551710000262,184.77551710000262,185.27686049998738,315,45,185.27686049998738,185.27686049998738,185.27686049998738,185.27686049998738,185.27686049998738,185.27686049998738,185.27686049998738,185.27686049998738,185.27686049998738,185.6264086998999,185.6264086998999,185.6264086998999,185.6264086998999,185.6264086998999,185.6264086998999,185.6264086998999,185.6264086998999,185.6264086998999,0,1,[0.0012284000404179096],[0.3505418000277132],185.6264086998999,185.82676140009426,1000,185.82676140009426,1000,1000,1000,1000,0,num_3,0.7082631001248956,,33,6,2026-03-12_17h39.27.455,2026A_exp2,2022.2.4,60.022892723924265,
1,0,0.0,4.9,0,0,57,57,9,,,,,186.56070769997314,187.21152530005202,187.21152530005202,187.71263749990612,45,315,187.71263749990612,187.71263749990612,187.71263749990612,187.71263749990612,187.71263749990612,187.71263749990612,187.71263749990612,187.71263749990612,187.71263749990612,188.0623331000097,188.0623331000097,188.0623331000097,188.0623331000097,188.0623331000097,188.0623331000097,188.0623331000097,188.0623331000097,188.0623331000097,21,1,[0.1337123999837786],[0.15029309992678463],188.0623331000097,188.26246939995326,0.0,188.26246939995326,0,0.0,0,1,1000,num_1,0.6171456999145448,,33,6,2026-03-12_17h39.27.455,2026A_exp2,2022.2.4,60.022892723924265,
1000,1,0.0,0.0,1,0,58,58,37,,,,,188.896252800012,189.54714239994064,189.54714239994064,190.0315042999573,45,45,190.0315042999573,190.0315042999573,190.0315042999573,190.0315042999573,190.0315042999573,190.0315042999573,190.0315042999573,190.0315042999573,190.0315042999573,190.39802090008743,190.39802090008743,190.39802090008743,190.39802090008743,190.39802090008743,190.39802090008743,190.39802090008743,190.39802090008743,190.39802090008743,0,1,[0.0012307001743465662],[0.36698240018449724],190.39802090008743,190.59992769989185,1000,190.59992769989185,1000,1000,1000,1000,1,num_2,0.5119996999856085,,33,6,2026-03-12_17h39.27.455,2026A_exp2,2022.2.4,60.022892723924265,
1,0,0.0,0.0,0,0,59,59,31,,,,,191.1318785001058,191.7827413000632,191.7827413000632,192.2838628999889,315,45,192.2838628999889,192.2838628999889,192.2838628999889,192.2838628999889,192.2838628999889,192.2838628999889,192.2838628999889,192.2838628999889,192.2838628999889,192.65015930007212,192.65015930007212,192.65015930007212,192.65015930007212,192.65015930007212,192.65015930007212,192.65015930007212,192.65015930007212,192.65015930007212,0,1,[0.0012376001104712486],[0.367261600214988],192.65015930007212,192.85045060003176,0.0,192.85045060003176,0,0.0,0,1,1000,num_1,0.8128684000112116,,33,6,2026-03-12_17h39.27.455,2026A_exp2,2022.2.4,60.022892723924265,
1000,1,0.0,0.0,1,0,60,60,8,,,,,193.6843956001103,194.33516989997588,194.33516989997588,194.8193181999959,315,315,194.8193181999959,194.8193181999959,194.8193181999959,194.8193181999959,194.8193181999959,194.8193181999959,194.8193181999959,194.8193181999959,194.8193181999959,195.186093499884,195.186093499884,195.186093499884,195.186093499884,195.186093499884,195.186093499884,195.186093499884,195.186093499884,195.186093499884,0,1,[0.0008414001204073429],[0.3674330001231283],195.186093499884,195.38829010003246,1000,195.38829010003246,1000,1000,1000,1000,0,num_3,0.46650410001166165,,33,6,2026-03-12_17h39.27.455,2026A_exp2,2022.2.4,60.022892723924265,
1000,1,0.0,3.7,0,0,61,61,18,,,,,195.86998729989864,196.52071200008504,196.52071200008504,197.02183220000006,315,315,197.02183220000006,197.02183220000006,197.02183220000006,197.02183220000006,197.02183220000006,197.02183220000006,197.02183220000006,197.02183220000006,197.02183220000006,197.3880344000645,197.3880344000645,197.3880344000645,197.3880344000645,197.3880344000645,197.3880344000645,197.3880344000645,197.3880344000645,197.3880344000645,18,2,"[0.017236700048670173, 0.13281710003502667]","[0.04992130002938211, 0.1829159001354128]",197.3880344000645,197.59034020011313,1000,197.59034020011313,1000,1000,1000,1000,1,num_2,0.4404621999710798,,33,6,2026-03-12_17h39.27.455,2026A_exp2,2022.2.4,60.022892723924265,
1,0,3.7,0.0,1,0,62,62,73,,,,,198.05550880008377,198.70640520006418,198.70640520006418,199.20744480006397,315,315,199.20744480006397,199.20744480006397,199.20744480006397,199.20744480006397,199.20744480006397,199.20744480006397,199.20744480006397,199.20744480006397,199.20744480006397,199.55694429995492,199.55694429995492,199.55694429995492,199.55694429995492,199.55694429995492,199.55694429995492,199.55694429995492,199.55694429995492,199.55694429995492,0,1,[0.0012073998805135489],[0.3504401999525726],199.55694429995492,199.7572174000088,0.0,199.7572174000088,0,0.0,0,1,1000,num_1,0.5629437000025064,,33,6,2026-03-12_17h39.27.455,2026A_exp2,2022.2.4,60.022892723924265,
1000,1,6.1,0.0,1,0,63,63,71,,,,,200.34109589993022,200.99181580008008,200.99181580008008,201.4762784000486,315,45,201.4762784000486,201.4762784000486,201.4762784000486,201.4762784000486,201.4762784000486,201.4762784000486,201.4762784000486,201.4762784000486,201.4762784000486,201.84277840005234,201.84277840005234,201.84277840005234,201.84277840005234,201.84277840005234,201.84277840005234,201.84277840005234,201.84277840005234,201.84277840005234,20,2,"[0.3002768000587821, 0.3503743999172002]","[0.31693900004029274, 0.36705349991098046]",201.84277840005234,202.04463070002384,1000,202.04463070002384,1000,1000,1000,1000,0,num_3,0.562535900156945,,33,6,2026-03-12_17h39.27.455,2026A_exp2,2022.2.4,60.022892723924265,
1,0,0.0,3.7,0,0,64,64,34,,,,,202.62669589999132,203.27757490007207,203.27757490007207,203.77854870003648,45,315,203.77854870003648,203.77854870003648,203.77854870003648,203.77854870003648,203.77854870003648,203.77854870003648,203.77854870003648,203.77854870003648,203.77854870003648,204.12845010007732,204.12845010007732,204.12845010007732,204.12845010007732,204.12845010007732,204.12845010007732,204.12845010007732,204.12845010007732,204.12845010007732,5,5,"[0.0013190999161452055, 0.10018420009873807, 0.21686920011416078, 0.30020530009642243, 0.33359159994870424]","[0.0667850999161601, 0.20010489993728697, 0.2836362000089139, 0.31700209993869066, 0.3503316999413073]",204.12845010007732,204.32820950006135,0.0,204.34491260000505,0,0.0,0,1,1000,num_1,0.6390366000123322,,33,6,2026-03-12_17h39.27.455,2026A_exp2,2022.2.4,60.022892723924265,
1000,1,0.0,3.7,1,0,65,65,7,,,,,205.01267280010507,205.66300170007162,205.66300170007162,206.1519649999682,45,315,206.1519649999682,206.1519649999682,206.1519649999682,206.1519649999682,206.1519649999682,206.1519649999682,206.1519649999682,206.1519649999682,206.1519649999682,206.51424899999984,206.51424899999984,206.51424899999984,206.51424899999984,206.51424899999984,206.51424899999984,206.51424899999984,206.51424899999984,206.51424899999984,0,1,[0.002393200062215328],[0.365975399967283],206.51424899999984,206.71842979989015,1000,206.71842979989015,1000,1000,1000,1000,1,num_2,0.4248542001005262,,33,6,2026-03-12_17h39.27.455,2026A_exp2,2022.2.4,60.022892723924265,
1,0,0.0,3.7,1,0,66,66,83,,,,,207.16459499998018,207.79901119996794,207.79901119996794,208.29957080003805,315,45,208.29957080003805,208.29957080003805,208.29957080003805,208.29957080003805,208.29957080003805,208.29957080003805,208.29957080003805,208.29957080003805,208.29957080003805,208.66607860010117,208.66607860010117,208.66607860010117,208.66607860010117,208.66607860010117,208.66607860010117,208.66607860010117,208.66607860010117,208.66607860010117,6,2,"[0.0012022999580949545, 0.300450999988243]","[0.2668769999872893, 0.31726019992493093]",208.66607860010117,208.86644249991514,3.7,208.86644249991514,1,3.7,1,1,1000,num_4,0.7258725999854505,,33,6,2026-03-12_17h39.27.455,2026A_exp2,2022.2.4,60.022892723924265,
1000,1,6.1,0.0,1,0,67,67,61,,,,,209.61702640005387,210.26776820002124,210.26776820002124,210.75201909989119,315,315,210.75201909989119,210.75201909989119,210.75201909989119,210.75201909989119,210.75201909989119,210.75201909989119,210.75201909989119,210.75201909989119,210.75201909989119,211.11870809993707,211.11870809993707,211.11870809993707,211.11870809993707,211.11870809993707,211.11870809993707,211.11870809993707,211.11870809993707,211.11870809993707,0,1,[0.0012373998761177063],[0.36697639990597963],211.11870809993707,211.3205957999453,1000,211.3205957999453,1000,1000,1000,1000,0,num_3,0.4552815998904407,,33,6,2026-03-12_17h39.27.455,2026A_exp2,2022.2.4,60.022892723924265,
1,0,4.9,0.0,0,0,68,68,57,,,,,211.8025936000049,212.45327090006322,212.45327090006322,212.95442140009254,315,315,212.95442140009254,212.95442140009254,212.95442140009254,212.95442140009254,212.95442140009254,212.95442140009254,212.95442140009254,212.95442140009254,212.95442140009254,213.30404879990965,213.30404879990965,213.30404879990965,213.30404879990965,213.30404879990965,213.30404879990965,213.30404879990965,213.30404879990965,213.30404879990965,0,1,[0.0012969998642802238],[0.3505110000260174],213.30404879990965,213.5043355000671,4.9,213.52113589993678,1,4.9,1,1,1000,num_4,0.5416633000131696,,33,6,2026-03-12_17h39.27.455,2026A_exp2,2022.2.4,60.022892723924265,
1,0,6.1,3.7,0,0,69,69,79,,,,,214.08829850004986,214.73894160008058,214.73894160008058,215.22343120002188,315,315,215.22343120002188,215.22343120002188,215.22343120002188,215.22343120002188,215.22343120002188,215.22343120002188,215.22343120002188,215.22343120002188,215.22343120002188,215.58975880010985,215.58975880010985,215.58975880010985,215.58975880010985,215.58975880010985,215.58975880010985,215.58975880010985,215.58975880010985,215.58975880010985,8,2,"[0.0012181999627500772, 0.2502311000134796]","[0.2168835001066327, 0.266966599971056]",215.58975880010985,215.7900555001106,6.1,215.7900555001106,1,6.1,1,1,1000,num_4,0.3770077999215573,,33,6,2026-03-12_17h39.27.455,2026A_exp2,2022.2.4,60.022892723924265,
1000,1,0.0,6.1,0,0,70,70,5,,,,,216.19033099990338,216.84094720007852,216.84094720007852,217.32515799999237,315,45,217.32515799999237,217.32515799999237,217.32515799999237,217.32515799999237,217.32515799999237,217.32515799999237,217.32515799999237,217.32515799999237,217.32515799999237,217.69189379992895,217.69189379992895,217.69189379992895,217.69189379992895,217.69189379992895,217.69189379992895,217.69189379992895,217.69189379992895,217.69189379992895,3,1,[0.05026799999177456],[0.36761859990656376],217.69189379992895,217.89406420011073,1000,217.89406420011073,1000,1000,1000,1000,1,num_2,0.4655090000014752,,33,6,2026-03-12_17h39.27.455,2026A_exp2,2022.2.4,60.022892723924265,
0,0,4.9,6.1,0,0,71,71,1,,,,,218.37579949991778,219.02660920005292,219.02660920005292,219.5275254000444,45,45,219.5275254000444,219.5275254000444,219.5275254000444,219.5275254000444,219.5275254000444,219.5275254000444,219.5275254000444,219.5275254000444,219.5275254000444,219.89416319993325,219.89416319993325,219.89416319993325,219.89416319993325,219.89416319993325,219.89416319993325,219.89416319993325,219.89416319993325,219.89416319993325,0,1,[0.0012085000053048134],[0.3672450000885874],219.89416319993325,220.09435010002926,6.1,220.09435010002926,1,6.1,1,1,1000,num_4,0.6493101001251489,,33,6,2026-03-12_17h39.27.455,2026A_exp2,2022.2.4,60.022892723924265,
0,0,0.0,6.1,1,0,72,72,84,,,,,220.7615100000985,221.41220079991035,221.41220079991035,221.89664279995486,315,45,221.89664279995486,221.89664279995486,221.89664279995486,221.89664279995486,221.89664279995486,221.89664279995486,221.89664279995486,221.89664279995486,221.89664279995486,222.26317039993592,222.26317039993592,222.26317039993592,222.26317039993592,222.26317039993592,222.26317039993592,222.26317039993592,222.26317039993592,222.26317039993592,0,1,[0.0012387000024318695],[0.3670175999868661],222.26317039993592,222.46320939995348,0.0,222.46320939995348,0,0.0,0,1,1000,num_1,0.6563601999077946,,33,6,2026-03-12_17h39.27.455,2026A_exp2,2022.2.4,60.022892723924265,
1000,1,4.9,6.1,1,0,73,73,4,,,,,223.14717349992134,223.79798429994844,223.79798429994844,224.28238229989074,315,315,224.28238229989074,224.28238229989074,224.28238229989074,224.28238229989074,224.28238229989074,224.28238229989074,224.28238229989074,224.28238229989074,224.28238229989074,224.64894820004702,224.64894820004702,224.64894820004702,224.64894820004702,224.64894820004702,224.64894820004702,224.64894820004702,224.64894820004702,224.64894820004702,0,1,[0.001253599999472499],[0.36687680007889867],224.64894820004702,224.84888989990577,1000,224.84888989990577,1000,1000,1000,1000,1,num_2,0.4940035999752581,,33,6,2026-03-12_17h39.27.455,2026A_exp2,2022.2.4,60.022892723924265,
1000,1,0.0,3.7,1,0,74,74,86,,,,,225.36616960004903,226.01680899993517,226.01680899993517,226.51809650007635,45,315,226.51809650007635,226.51809650007635,226.51809650007635,226.51809650007635,226.51809650007635,226.51809650007635,226.51809650007635,226.51809650007635,226.51809650007635,226.88429259997793,226.88429259997793,226.88429259997793,226.88429259997793,226.88429259997793,226.88429259997793,226.88429259997793,226.88429259997793,226.88429259997793,0,1,[0.0008453000336885452],[0.36750960000790656],226.88429259997793,227.08625790011138,1000,227.08625790011138,1000,1000,1000,1000,1,num_2,0.426169500220567,,33,6,2026-03-12_17h39.27.455,2026A_exp2,2022.2.4,60.022892723924265,
0,0,4.9,4.9,0,0,75,75,88,,,,,227.53511029994115,228.1857517999597,228.1857517999597,228.6867438000627,315,45,228.6867438000627,228.6867438000627,228.6867438000627,228.6867438000627,228.6867438000627,228.6867438000627,228.6867438000627,228.6867438000627,228.6867438000627,229.05328850005753,229.05328850005753,229.05328850005753,229.05328850005753,229.05328850005753,229.05328850005753,229.05328850005753,229.05328850005753,229.05328850005753,0,1,[0.00124739995226264],[0.3672734999563545],229.05328850005753,229.2534707998857,4.9,229.2534707998857,0,4.9,1,0,1000,num_1,0.5699121002107859,,33,6,2026-03-12_17h39.27.455,2026A_exp2,2022.2.4,60.022892723924265,
1,0,6.1,0.0,1,0,76,76,23,,,,,229.85391779989004,230.5047615999356,230.5047615999356,230.98922910005786,315,45,230.98922910005786,230.98922910005786,230.98922910005786,230.98922910005786,230.98922910005786,230.98922910005786,230.98922910005786,230.98922910005786,230.98922910005786,231.35549159999937,231.35549159999937,231.35549159999937,231.35549159999937,231.35549159999937,231.35549159999937,231.35549159999937,231.35549159999937,231.35549159999937,11,1,[0.18382480018772185],[0.367288300069049],231.35549159999937,231.55565309990197,0.0,231.55565309990197,0,0.0,0,1,1000,num_1,0.49139540013857186,,33,6,2026-03-12_17h39.27.455,2026A_exp2,2022.2.4,60.022892723924265,
1,0,4.9,0.0,1,0,77,77,52,,,,,232.07294049998745,232.7235789000988,232.7235789000988,233.20795410010032,45,315,233.20795410010032,233.20795410010032,233.20795410010032,233.20795410010032,233.20795410010032,233.20795410010032,233.20795410010032,233.20795410010032,233.20795410010032,233.574532300001,233.574532300001,233.574532300001,233.574532300001,233.574532300001,233.574532300001,233.574532300001,233.574532300001,233.574532300001,0,1,[0.0012826002202928066],[0.36669990001246333],233.574532300001,233.77472630003467,0.0,233.77472630003467,0,0.0,0,1,1000,num_1,0.5771491001360118,,33,6,2026-03-12_17h39.27.455,2026A_exp2,2022.2.4,60.022892723924265,
0,0,0.0,6.1,0,0,78,78,12,,,,,234.3751256999094,235.02596860006452,235.02596860006452,235.5104286998976,45,315,235.5104286998976,235.5104286998976,235.5104286998976,235.5104286998976,235.5104286998976,235.5104286998976,235.5104286998976,235.5104286998976,235.5104286998976,235.87693389994092,235.87693389994092,235.87693389994092,235.87693389994092,235.87693389994092,235.87693389994092,235.87693389994092,235.87693389994092,235.87693389994092,0,1,[0.0012667998671531677],[0.36710489983670413],235.87693389994092,236.07720490009524,6.1,236.07720490009524,1,6.1,1,1,1000,num_4,0.6336880000308156,,33,6,2026-03-12_17h39.27.455,2026A_exp2,2022.2.4,60.022892723924265,
1,0,0.0,0.0,0,0,79,79,64,,,,,236.727477400098,237.3781751000788,237.3781751000788,237.862592499936,315,45,237.862592499936,237.862592499936,237.862592499936,237.862592499936,237.862592499936,237.862592499936,237.862592499936,237.862592499936,237.862592499936,238.22912469995208,238.22912469995208,238.22912469995208,238.22912469995208,238.22912469995208,238.22912469995208,238.22912469995208,238.22912469995208,238.22912469995208,16,6,"[0.01723140012472868, 0.05007520015351474, 0.08366730017587543, 0.11693190014921129, 0.167106700129807, 0.3169841000344604]","[0.03342039999552071, 0.06697929999791086, 0.100243000080809, 0.1505588002037257, 0.18369560013525188, 0.3338011000305414]",238.22912469995208,238.42937440006062,0.0,238.42937440006062,0,0.0,0,1,1000,num_1,1.1304236999712884,,33,6,2026-03-12_17h39.27.455,2026A_exp2,2022.2.4,60.022892723924265,
1,0,0.0,0.0,1,0,80,80,66,,,,,239.58036080002785,240.2323686000891,240.2323686000891,240.71550850011408,315,315,240.71550850011408,240.71550850011408,240.71550850011408,240.71550850011408,240.71550850011408,240.71550850011408,240.71550850011408,240.71550850011408,240.71550850011408,241.08201120002195,241.08201120002195,241.08201120002195,241.08201120002195,241.08201120002195,241.08201120002195,241.08201120002195,241.08201120002195,241.08201120002195,9,2,"[0.050358499865978956, 0.16710209986194968]","[0.0669873000588268, 0.3671488999389112]",241.08201120002195,241.28193440008909,0.0,241.28193440008909,0,0.0,0,1,1000,num_1,1.0697629998903722,,33,6,2026-03-12_17h39.27.455,2026A_exp2,2022.2.4,60.022892723924265,
0,0,6.1,0.0,0,0,81,81,65,,,,,242.38311400008388,243.03382840007544,243.03382840007544,243.5183931000065,315,315,243.5183931000065,243.5183931000065,243.5183931000065,243.5183931000065,243.5183931000065,243.5183931000065,243.5183931000065,243.5183931000065,243.5183931000065,243.88466709991917,243.88466709991917,243.88466709991917,243.88466709991917,243.88466709991917,243.88466709991917,243.88466709991917,243.88466709991917,243.88466709991917,2,1,[0.03369769989512861],[0.36722559994086623],243.88466709991917,244.08485520002432,0.0,244.08485520002432,0,0.0,0,1,1000,num_1,0.6114586000330746,,33,6,2026-03-12_17h39.27.455,2026A_exp2,2022.2.4,60.022892723924265,
1,0,3.7,0.0,0,0,82,82,15,,,,,244.71872420003638,245.36956709995866,245.36956709995866,245.8542116000317,315,45,245.8542116000317,245.8542116000317,245.8542116000317,245.8542116000317,245.8542116000317,245.8542116000317,245.8542116000317,245.8542116000317,245.8542116000317,246.22050609998405,246.22050609998405,246.22050609998405,246.22050609998405,246.22050609998405,246.22050609998405,246.22050609998405,246.22050609998405,246.22050609998405,21,1,[0.3343088000547141],[0.3674369000364095],246.22050609998405,246.42071520001628,3.7,246.42071520001628,1,3.7,1,1,1000,num_4,1.418456300161779,,33,6,2026-03-12_17h39.27.455,2026A_exp2,2022.2.4,60.022892723924265,
1000,1,4.9,6.1,0,0,83,83,49,,,,,247.8554620000068,248.48942569992505,248.48942569992505,248.99046900006942,45,45,248.99046900006942,248.99046900006942,248.99046900006942,248.99046900006942,248.99046900006942,248.99046900006942,248.99046900006942,248.99046900006942,248.99046900006942,249.35675349994563,249.35675349994563,249.35675349994563,249.35675349994563,249.35675349994563,249.35675349994563,249.35675349994563,249.35675349994563,249.35675349994563,13,3,"[0.0015863000880926847, 0.04993640002794564, 0.18322170013561845]","[0.03368850005790591, 0.16678940015845, 0.20010120002552867]",249.35675349994563,249.5657518999651,1000,249.5657518999651,1000,1000,1000,1000,0,num_3,0.6826112999115139,,33,6,2026-03-12_17h39.27.455,2026A_exp2,2022.2.4,60.022892723924265,
1,0,0.0,0.0,1,0,84,84,68,,,,,250.27464219997637,250.92516579991207,250.92516579991207,251.42622820008546,315,45,251.42622820008546,251.42622820008546,251.42622820008546,251.42622820008546,251.42622820008546,251.42622820008546,251.42622820008546,251.42622820008546,251.42622820008546,251.79264630004764,251.79264630004764,251.79264630004764,251.79264630004764,251.79264630004764,251.79264630004764,251.79264630004764,251.79264630004764,251.79264630004764,23,0,,,251.79264630004764,251.9927962999791,0.0,251.9927962999791,0,0.0,0,1,1000,num_1,1.1270574999507517,,33,6,2026-03-12_17h39.27.455,2026A_exp2,2022.2.4,60.022892723924265,
1000,1,4.9,4.9,0,0,85,85,6,,,,,253.14397579990327,253.79472219990566,253.79472219990566,254.29582710005343,45,315,254.29582710005343,254.29582710005343,254.29582710005343,254.29582710005343,254.29582710005343,254.29582710005343,254.29582710005343,254.29582710005343,254.29582710005343,254.6453342998866,254.6453342998866,254.6453342998866,254.6453342998866,254.6453342998866,254.6453342998866,254.6453342998866,254.6453342998866,254.6453342998866,22,0,,,254.6453342998866,254.84564559999853,1000,254.84564559999853,1000,1000,1000,1000,0,num_3,0.4893634000327438,,33,6,2026-03-12_17h39.27.455,2026A_exp2,2022.2.4,60.022892723924265,
1,0,0.0,6.1,1,0,86,86,39,,,,,255.36303219990805,256.01355660008267,256.01355660008267,256.51456869998947,45,315,256.51456869998947,256.51456869998947,256.51456869998947,256.51456869998947,256.51456869998947,256.51456869998947,256.51456869998947,256.51456869998947,256.51456869998947,256.8810809000861,256.8810809000861,256.8810809000861,256.8810809000861,256.8810809000861,256.8810809000861,256.8810809000861,256.8810809000861,256.8810809000861,20,2,"[0.28361270017921925, 0.33372700004838407]","[0.31723619997501373, 0.35046530002728105]",256.8810809000861,257.0812381999567,6.1,257.0812381999567,1,6.1,1,1,1000,num_4,0.6304335999302566,,33,6,2026-03-12_17h39.27.455,2026A_exp2,2022.2.4,60.022892723924265,
1,0,0.0,0.0,1,0,87,87,24,,,,,257.73199880006723,258.3675454000477,258.3675454000477,258.8670522000175,315,315,258.8670522000175,258.8670522000175,258.8670522000175,258.8670522000175,258.8670522000175,258.8670522000175,258.8670522000175,258.8670522000175,258.8670522000175,259.2335037998855,259.2335037998855,259.2335037998855,259.2335037998855,259.2335037998855,259.2335037998855,259.2335037998855,259.2335037998855,259.2335037998855,10,6,"[0.0012378001119941473, 0.05013080011121929, 0.11682390002533793, 0.16690600011497736, 0.2169357999227941, 0.30035210005007684]","[0.03353330004028976, 0.08358289999887347, 0.13365640002302825, 0.20021130004897714, 0.2837116001173854, 0.3337377000134438]",259.2335037998855,259.4337557000108,0.0,259.4337557000108,0,0.0,0,1,1000,num_1,1.2537824001628906,,33,6,2026-03-12_17h39.27.455,2026A_exp2,2022.2.4,60.022892723924265,
1,0,3.7,3.7,0,0,88,88,69,,,,,260.71844310010783,261.36894689989276,261.36894689989276,261.8699380001053,315,45,261.8699380001053,261.8699380001053,261.8699380001053,261.8699380001053,261.8699380001053,261.8699380001053,261.8699380001053,261.8699380001053,261.8699380001053,262.236486800015,262.236486800015,262.236486800015,262.236486800015,262.236486800015,262.236486800015,262.236486800015,262.236486800015,262.236486800015,23,0,,,262.236486800015,262.4365020999685,3.7,262.4365020999685,1,3.7,1,1,1000,num_4,1.3625606999266893,,33,6,2026-03-12_17h39.27.455,2026A_exp2,2022.2.4,60.022892723924265,
0,0,0.0,0.0,0,0,89,89,20,,,,,263.8217225999106,264.4553944999352,264.4553944999352,264.9565024001058,45,315,264.9565024001058,264.9565024001058,264.9565024001058,264.9565024001058,264.9565024001058,264.9565024001058,264.9565024001058,264.9565024001058,264.9565024001058,265.3229173000436,265.3229173000436,265.3229173000436,265.3229173000436,265.3229173000436,265.3229173000436,265.3229173000436,265.3229173000436,265.3229173000436,18,4,"[0.01735270000062883, 0.23381759994663298, 0.267087500076741, 0.3170950999483466]","[0.03361180005595088, 0.25044950004667044, 0.2837692000903189, 0.36720119998790324]",265.3229173000436,265.52313910005614,0.0,265.52313910005614,0,0.0,0,1,1000,num_1,0.9247371999081224,,33,6,2026-03-12_17h39.27.455,2026A_exp2,2022.2.4,60.022892723924265,
,,,,,,,,,,,,,,,,,,,,,,,,,,,,,,,,,,,,,,,,,,,,,,,,,,,,266.4823549001012,,,,,,,
