validity,detectorcomp,contrastCW,contrastCCW,precueCWorCCW,block_80trials.thisRepN,block_80trials.thisTrialN,block_80trials.thisN,block_80trials.thisIndex,etRecord.started,etRecord.stopped,text.started,text.stopped,text_4.started,text_4.stopped,text_6.started,text_6.stopped,oriCW,oriCCW,roi_2.started,grating_UR.started,grating_UL.started,grating_LR.started,grating_LL.started,noise_UR.started,noise_UL.started,noise_LR.started,noise_LL.started,roi_2.stopped,grating_UR.stopped,grating_UL.stopped,grating_LR.stopped,grating_LL.stopped,noise_UR.stopped,noise_UL.stopped,noise_LR.stopped,noise_LL.stopped,outframe,roi_2.numLooks,roi_2.timesOn,roi_2.timesOff,text_2.started,text_2.stopped,probedcontrast,key_resp.started,respdetect,relevantContrast,correctDetect,TorFdetect,respCWorCCW,key_resp.keys,key_resp.rt,feedback_display_.started,participantNo,blockNo,date,expName,psychopyVersion,frameRate,
1,0,3.7,0.0,0,0,0,0,26,3.3599964808672667e-05,3.3599964808672667e-05,51.789133800019044,53.792500699986704,53.792500699986704,54.42621250002412,54.42621250002412,54.944524899998214,45,315,54.944524899998214,54.944524899998214,54.944524899998214,54.944524899998214,54.944524899998214,54.944524899998214,54.944524899998214,54.944524899998214,54.944524899998214,55.29368920001434,55.29368920001434,55.29368920001434,55.29368920001434,55.29368920001434,55.29368920001434,55.29368920001434,55.29368920001434,55.29368920001434,0,1,[0.0009151999838650227],[0.3678682000027038],55.29368920001434,55.494034499977715,3.7,55.494034499977715,0,3.7,1,0,1000,num_1,2.22644279996166,,23,5,2026-03-04_13h39.41.158,2026A_exp2,2022.2.4,59.94650373748186,
1,0,3.7,0.0,0,0,1,1,10,,,,,57.74627160001546,58.396927100024186,58.396927100024186,58.88138630002504,45,45,58.88138630002504,58.88138630002504,58.88138630002504,58.88138630002504,58.88138630002504,58.88138630002504,58.88138630002504,58.88138630002504,58.88138630002504,59.24786200001836,59.24786200001836,59.24786200001836,59.24786200001836,59.24786200001836,59.24786200001836,59.24786200001836,59.24786200001836,59.24786200001836,23,0,,,59.24786200001836,59.448017599992454,3.7,59.448017599992454,1,3.7,1,1,1000,num_4,0.7527319999644533,,23,5,2026-03-04_13h39.41.158,2026A_exp2,2022.2.4,59.94650373748186,
0,0,0.0,0.0,0,0,2,2,15,,,,,60.23205120000057,60.88274969998747,60.88274969998747,61.367203300003894,45,45,61.367203300003894,61.367203300003894,61.367203300003894,61.367203300003894,61.367203300003894,61.367203300003894,61.367203300003894,61.367203300003894,61.367203300003894,61.73350779997418,61.73350779997418,61.73350779997418,61.73350779997418,61.73350779997418,61.73350779997418,61.73350779997418,61.73350779997418,61.73350779997418,23,0,,,61.73350779997418,61.93382640002528,0.0,61.93382640002528,1,0.0,0,0,1000,num_4,1.5477478000102565,,23,5,2026-03-04_13h39.41.158,2026A_exp2,2022.2.4,59.94650373748186,
1,0,0.0,6.1,1,0,3,3,46,,,,,63.50206829997478,64.15269169997191,64.15269169997191,64.63698529999238,315,315,64.63698529999238,64.63698529999238,64.63698529999238,64.63698529999238,64.63698529999238,64.63698529999238,64.63698529999238,64.63698529999238,64.63698529999238,65.00360719999298,65.00360719999298,65.00360719999298,65.00360719999298,65.00360719999298,65.00360719999298,65.00360719999298,65.00360719999298,65.00360719999298,0,1,[0.0011978999827988446],[0.36682629998540506],65.00360719999298,65.20370140002342,6.1,65.20370140002342,1,6.1,1,1,1000,num_4,0.5970654999837279,,23,5,2026-03-04_13h39.41.158,2026A_exp2,2022.2.4,59.94650373748186,
1,0,0.0,0.0,1,0,4,4,6,,,,,65.8210156999994,66.47168539999984,66.47168539999984,66.95618239999749,45,315,66.95618239999749,66.95618239999749,66.95618239999749,66.95618239999749,66.95618239999749,66.95618239999749,66.95618239999749,66.95618239999749,66.95618239999749,67.32233499997528,67.32233499997528,67.32233499997528,67.32233499997528,67.32233499997528,67.32233499997528,67.32233499997528,67.32233499997528,67.32233499997528,23,0,,,67.32233499997528,67.5227594000171,0.0,67.5227594000171,1,0.0,0,0,1000,num_4,0.654357000021264,,23,5,2026-03-04_13h39.41.158,2026A_exp2,2022.2.4,59.94650373748186,
1000,1,0.0,3.7,1,0,5,5,88,,,,,68.20682030002354,68.8574643000029,68.8574643000029,69.34164599998621,45,45,69.34164599998621,69.34164599998621,69.34164599998621,69.34164599998621,69.34164599998621,69.34164599998621,69.34164599998621,69.34164599998621,69.34164599998621,69.70818189997226,69.70818189997226,69.70818189997226,69.70818189997226,69.70818189997226,69.70818189997226,69.70818189997226,69.70818189997226,69.70818189997226,2,2,"[0.001227000029757619, 0.09988320001866668]","[0.0662921000039205, 0.3671709999907762]",69.70818189997226,69.91334540001117,1000,69.91334540001117,1000,1000,1000,1000,1,num_2,0.6561394999735057,,23,5,2026-03-04_13h39.41.158,2026A_exp2,2022.2.4,59.94650373748186,
1000,1,3.7,0.0,0,0,6,6,69,,,,,70.59236730000703,71.24313760001678,71.24313760001678,71.74412970000412,315,45,71.74412970000412,71.74412970000412,71.74412970000412,71.74412970000412,71.74412970000412,71.74412970000412,71.74412970000412,71.74412970000412,71.74412970000412,72.0939505000133,72.0939505000133,72.0939505000133,72.0939505000133,72.0939505000133,72.0939505000133,72.0939505000133,72.0939505000133,72.0939505000133,22,0,,,72.0939505000133,72.29640970000764,1000,72.29640970000764,1000,1000,1000,1000,1,num_2,0.6568871999625117,,23,5,2026-03-04_13h39.41.158,2026A_exp2,2022.2.4,59.94650373748186,
1000,1,0.0,0.0,0,0,7,7,72,,,,,72.97809759998927,73.62873539997963,73.62873539997963,74.12996539997403,315,315,74.12996539997403,74.12996539997403,74.12996539997403,74.12996539997403,74.12996539997403,74.12996539997403,74.12996539997403,74.12996539997403,74.12996539997403,74.47971589997178,74.47971589997178,74.47971589997178,74.47971589997178,74.47971589997178,74.47971589997178,74.47971589997178,74.47971589997178,74.47971589997178,22,0,,,74.47971589997178,74.68187849997776,1000,74.69658719998552,1000,1000,1000,1000,0,num_3,0.4721285999985412,,23,5,2026-03-04_13h39.41.158,2026A_exp2,2022.2.4,59.94650373748186,
0,0,6.1,0.0,0,0,8,8,41,,,,,75.19699450000189,75.84737199998926,75.84737199998926,76.34884400002193,45,315,76.34884400002193,76.34884400002193,76.34884400002193,76.34884400002193,76.34884400002193,76.34884400002193,76.34884400002193,76.34884400002193,76.34884400002193,76.71512649999931,76.71512649999931,76.71512649999931,76.71512649999931,76.71512649999931,76.71512649999931,76.71512649999931,76.71512649999931,76.71512649999931,0,1,[0.0012239000061526895],[0.36718889995245263],76.71512649999931,76.91547289997106,0.0,76.91547289997106,1,0.0,0,0,1000,num_4,1.733836799976416,,23,5,2026-03-04_13h39.41.158,2026A_exp2,2022.2.4,59.94650373748186,
1000,1,4.9,3.7,0,0,9,9,28,,,,,78.66720000002533,79.31785699998727,79.31785699998727,79.8023247999954,45,315,79.8023247999954,79.8023247999954,79.8023247999954,79.8023247999954,79.8023247999954,79.8023247999954,79.8023247999954,79.8023247999954,79.8023247999954,80.16875299997628,80.16875299997628,80.16875299997628,80.16875299997628,80.16875299997628,80.16875299997628,80.16875299997628,80.16875299997628,80.16875299997628,2,2,"[0.0010198000236414373, 0.2843733999761753]","[0.25060129998018965, 0.3677050999831408]",80.16875299997628,80.37100899999496,1000,80.37100899999496,1000,1000,1000,1000,0,num_3,0.6699930999893695,,23,5,2026-03-04_13h39.41.158,2026A_exp2,2022.2.4,59.94650373748186,
1,0,6.1,6.1,1,0,10,10,47,,,,,81.06944529997418,81.72025640000356,81.72025640000356,82.22142189997248,315,45,82.22142189997248,82.22142189997248,82.22142189997248,82.22142189997248,82.22142189997248,82.22142189997248,82.22142189997248,82.22142189997248,82.22142189997248,82.57098209997639,82.57098209997639,82.57098209997639,82.57098209997639,82.57098209997639,82.57098209997639,82.57098209997639,82.57098209997639,82.57098209997639,17,1,[0.2838094999897294],[0.3503822999773547],82.57098209997639,82.7713187999907,6.1,82.7713187999907,1,6.1,1,1,1000,num_4,1.5821334999636747,,23,5,2026-03-04_13h39.41.158,2026A_exp2,2022.2.4,59.94650373748186,
1000,1,3.7,6.1,1,0,11,11,75,,,,,84.3728134999983,85.02357830002438,85.02357830002438,85.50791410001693,315,315,85.50791410001693,85.50791410001693,85.50791410001693,85.50791410001693,85.50791410001693,85.50791410001693,85.50791410001693,85.50791410001693,85.50791410001693,85.87444460002007,85.87444460002007,85.87444460002007,85.87444460002007,85.87444460002007,85.87444460002007,85.87444460002007,85.87444460002007,85.87444460002007,5,1,[0.0012024000170640647],[0.300565599987749],85.87444460002007,86.07629040000029,1000,86.07629040000029,1000,1000,1000,1000,1,num_2,0.6280142999603413,,23,5,2026-03-04_13h39.41.158,2026A_exp2,2022.2.4,59.94650373748186,
1000,1,0.0,6.1,1,0,12,12,42,,,,,86.72518439998385,87.37589339999249,87.37589339999249,87.87699489999795,315,45,87.87699489999795,87.87699489999795,87.87699489999795,87.87699489999795,87.87699489999795,87.87699489999795,87.87699489999795,87.87699489999795,87.87699489999795,88.2267365999869,88.2267365999869,88.2267365999869,88.2267365999869,88.2267365999869,88.2267365999869,88.2267365999869,88.2267365999869,88.2267365999869,6,3,"[0.0012045999756082892, 0.15020939998794347, 0.23359269998036325]","[0.13375759997870773, 0.1835236999904737, 0.35067249997518957]",88.2267365999869,88.42872059997171,1000,88.42872059997171,1000,1000,1000,1000,0,num_3,0.7083472000085749,,23,5,2026-03-04_13h39.41.158,2026A_exp2,2022.2.4,59.94650373748186,
1000,1,3.7,0.0,0,0,13,13,35,,,,,89.16096880001714,89.81169659999432,89.81169659999432,90.31272970000282,315,315,90.31272970000282,90.31272970000282,90.31272970000282,90.31272970000282,90.31272970000282,90.31272970000282,90.31272970000282,90.31272970000282,90.31272970000282,90.67932320002001,90.67932320002001,90.67932320002001,90.67932320002001,90.67932320002001,90.67932320002001,90.67932320002001,90.67932320002001,90.67932320002001,0,1,[0.0012315000058151782],[0.3670568999950774],90.67932320002001,90.8811281999806,1000,90.8811281999806,1000,1000,1000,1000,1,num_2,0.6159494000021368,,23,5,2026-03-04_13h39.41.158,2026A_exp2,2022.2.4,59.94650373748186,
1000,1,6.1,0.0,1,0,14,14,79,,,,,91.51329199998872,92.16388459998416,92.16388459998416,92.66505030001281,315,45,92.66505030001281,92.66505030001281,92.66505030001281,92.66505030001281,92.66505030001281,92.66505030001281,92.66505030001281,92.66505030001281,92.66505030001281,93.03159199998481,93.03159199998481,93.03159199998481,93.03159199998481,93.03159199998481,93.03159199998481,93.03159199998481,93.03159199998481,93.03159199998481,19,1,[0.08365799998864532],[0.15025920001789927],93.03159199998481,93.23366269998951,1000,93.23366269998951,1000,1000,1000,1000,0,num_3,0.5034881999599747,,23,5,2026-03-04_13h39.41.158,2026A_exp2,2022.2.4,59.94650373748186,
1,0,6.1,0.0,0,0,15,15,85,,,,,93.76561190001667,94.4163762999815,94.4163762999815,94.91735000000335,45,315,94.91735000000335,94.91735000000335,94.91735000000335,94.91735000000335,94.91735000000335,94.91735000000335,94.91735000000335,94.91735000000335,94.91735000000335,95.2671326000127,95.2671326000127,95.2671326000127,95.2671326000127,95.2671326000127,95.2671326000127,95.2671326000127,95.2671326000127,95.2671326000127,22,0,,,95.2671326000127,95.46737399999984,6.1,95.4838785000029,1,6.1,1,1,1000,num_4,0.5573378999833949,,23,5,2026-03-04_13h39.41.158,2026A_exp2,2022.2.4,59.94650373748186,
1000,1,6.1,3.7,1,0,16,16,11,,,,,96.0677907000063,96.71843509998871,96.71843509998871,97.20293480000691,45,45,97.20293480000691,97.20293480000691,97.20293480000691,97.20293480000691,97.20293480000691,97.20293480000691,97.20293480000691,97.20293480000691,97.20293480000691,97.56948860001285,97.56948860001285,97.56948860001285,97.56948860001285,97.56948860001285,97.56948860001285,97.56948860001285,97.56948860001285,97.56948860001285,0,1,[0.0011941000120714307],[0.36703100003069267],97.56948860001285,97.77130079997005,1000,97.77130079997005,1000,1000,1000,1000,1,num_2,0.5012861000141129,,23,5,2026-03-04_13h39.41.158,2026A_exp2,2022.2.4,59.94650373748186,
1000,1,0.0,0.0,0,0,17,17,89,,,,,98.30344779998995,98.95413660001941,98.95413660001941,99.4551309000235,45,315,99.4551309000235,99.4551309000235,99.4551309000235,99.4551309000235,99.4551309000235,99.4551309000235,99.4551309000235,99.4551309000235,99.4551309000235,99.82155559997773,99.82155559997773,99.82155559997773,99.82155559997773,99.82155559997773,99.82155559997773,99.82155559997773,99.82155559997773,99.82155559997773,4,2,"[0.0333787000272423, 0.10018460004357621]","[0.06681690004188567, 0.3670144000207074]",99.82155559997773,100.02367859997321,1000,100.02367859997321,1000,1000,1000,1000,1,num_2,0.6490110000013374,,23,5,2026-03-04_13h39.41.158,2026A_exp2,2022.2.4,59.94650373748186,
1000,1,0.0,0.0,0,0,18,18,62,,,,,100.68917979998514,101.33993040001951,101.33993040001951,101.84074329998111,45,315,101.84074329998111,101.84074329998111,101.84074329998111,101.84074329998111,101.84074329998111,101.84074329998111,101.84074329998111,101.84074329998111,101.84074329998111,102.20737790002022,102.20737790002022,102.20737790002022,102.20737790002022,102.20737790002022,102.20737790002022,102.20737790002022,102.20737790002022,102.20737790002022,0,1,[0.0012186000240035355],[0.36719999997876585],102.20737790002022,102.4093611999997,1000,102.4093611999997,1000,1000,1000,1000,1,num_2,0.6797936999937519,,23,5,2026-03-04_13h39.41.158,2026A_exp2,2022.2.4,59.94650373748186,
1,0,0.0,0.0,1,0,19,19,38,,,,,103.10827339999378,103.7589552999707,103.7589552999707,104.25997929996811,315,45,104.25997929996811,104.25997929996811,104.25997929996811,104.25997929996811,104.25997929996811,104.25997929996811,104.25997929996811,104.25997929996811,104.25997929996811,104.62629169999855,104.62629169999855,104.62629169999855,104.62629169999855,104.62629169999855,104.62629169999855,104.62629169999855,104.62629169999855,104.62629169999855,1,2,"[0.0012113999691791832, 0.16686569998273626]","[0.13353389996336773, 0.36726299999281764]",104.62629169999855,104.82669810001971,0.0,104.82669810001971,1,0.0,0,0,1000,num_4,0.6221707999939099,,23,5,2026-03-04_13h39.41.158,2026A_exp2,2022.2.4,59.94650373748186,
1000,1,0.0,0.0,0,0,20,20,57,,,,,105.47738659998868,106.1279636999825,106.1279636999825,106.61249149998184,45,45,106.61249149998184,106.61249149998184,106.61249149998184,106.61249149998184,106.61249149998184,106.61249149998184,106.61249149998184,106.61249149998184,106.61249149998184,106.9788392999908,106.9788392999908,106.9788392999908,106.9788392999908,106.9788392999908,106.9788392999908,106.9788392999908,106.9788392999908,106.9788392999908,13,4,"[0.03330070001538843, 0.06652230001054704, 0.1837352000293322, 0.31704370002262294]","[0.049771100049838424, 0.11664600000949576, 0.2003645000513643, 0.36736600002041087]",106.9788392999908,107.18112949997885,1000,107.18112949997885,1000,1000,1000,1000,1,num_2,0.587287699978333,,23,5,2026-03-04_13h39.41.158,2026A_exp2,2022.2.4,59.94650373748186,
1000,1,0.0,3.7,0,0,21,21,21,,,,,107.79622469999595,108.4469567000051,108.4469567000051,108.94814310001675,45,315,108.94814310001675,108.94814310001675,108.94814310001675,108.94814310001675,108.94814310001675,108.94814310001675,108.94814310001675,108.94814310001675,108.94814310001675,109.31450530001894,109.31450530001894,109.31450530001894,109.31450530001894,109.31450530001894,109.31450530001894,109.31450530001894,109.31450530001894,109.31450530001894,12,1,[0.0012129000388085842],[0.18375880003441125],109.31450530001894,109.51690450002206,1000,109.51690450002206,1000,1000,1000,1000,1,num_2,0.5804332999978215,,23,5,2026-03-04_13h39.41.158,2026A_exp2,2022.2.4,59.94650373748186,
1,0,3.7,6.1,1,0,22,22,68,,,,,110.11523190001026,110.76597220002441,110.76597220002441,111.26699259999441,45,45,111.26699259999441,111.26699259999441,111.26699259999441,111.26699259999441,111.26699259999441,111.26699259999441,111.26699259999441,111.26699259999441,111.26699259999441,111.63340190000599,111.63340190000599,111.63340190000599,111.63340190000599,111.63340190000599,111.63340190000599,111.63340190000599,111.63340190000599,111.63340190000599,22,1,[0.28374710003845394],[0.30040280002867803],111.63340190000599,111.83362509997096,6.1,111.83362509997096,1,6.1,1,1,1000,num_4,0.7272708999807946,,23,5,2026-03-04_13h39.41.158,2026A_exp2,2022.2.4,59.94650373748186,
1000,1,0.0,0.0,1,0,23,23,56,,,,,112.58452480001142,113.23512329999357,113.23512329999357,113.71940609999001,45,45,113.71940609999001,113.71940609999001,113.71940609999001,113.71940609999001,113.71940609999001,113.71940609999001,113.71940609999001,113.71940609999001,113.71940609999001,114.08553679997567,114.08553679997567,114.08553679997567,114.08553679997567,114.08553679997567,114.08553679997567,114.08553679997567,114.08553679997567,114.08553679997567,23,0,,,114.08553679997567,114.28817159996834,1000,114.28817159996834,1000,1000,1000,1000,1,num_2,0.9366872999817133,,23,5,2026-03-04_13h39.41.158,2026A_exp2,2022.2.4,59.94650373748186,
1,0,6.1,0.0,1,0,24,24,17,,,,,115.25421659997664,115.90453599998727,115.90453599998727,116.40559530002065,45,315,116.40559530002065,116.40559530002065,116.40559530002065,116.40559530002065,116.40559530002065,116.40559530002065,116.40559530002065,116.40559530002065,116.40559530002065,116.7719391999999,116.7719391999999,116.7719391999999,116.7719391999999,116.7719391999999,116.7719391999999,116.7719391999999,116.7719391999999,116.7719391999999,0,1,[0.001194800017401576],[0.3670146000222303],116.7719391999999,116.97222719999263,0.0,116.97222719999263,0,0.0,0,1,1000,num_1,1.0134192999685183,,23,5,2026-03-04_13h39.41.158,2026A_exp2,2022.2.4,59.94650373748186,
1,0,0.0,0.0,0,0,25,25,80,,,,,118.0065212000045,118.65718689997448,118.65718689997448,119.14159459999064,45,45,119.14159459999064,119.14159459999064,119.14159459999064,119.14159459999064,119.14159459999064,119.14159459999064,119.14159459999064,119.14159459999064,119.14159459999064,119.50808070000494,119.50808070000494,119.50808070000494,119.50808070000494,119.50808070000494,119.50808070000494,119.50808070000494,119.50808070000494,119.50808070000494,18,1,[0.3006877999869175],[0.36733750003622845],119.50808070000494,119.70831670000916,0.0,119.70831670000916,1,0.0,0,0,1000,num_4,1.4442687000264414,,23,5,2026-03-04_13h39.41.158,2026A_exp2,2022.2.4,59.94650373748186,
1000,1,0.0,0.0,1,0,26,26,55,,,,,121.17641239997465,121.81036020000465,121.81036020000465,122.31139869999606,45,45,122.31139869999606,122.31139869999606,122.31139869999606,122.31139869999606,122.31139869999606,122.31139869999606,122.31139869999606,122.31139869999606,122.31139869999606,122.67792490002466,122.67792490002466,122.67792490002466,122.67792490002466,122.67792490002466,122.67792490002466,122.67792490002466,122.67792490002466,122.67792490002466,0,1,[0.0011873000185005367],[0.36733830004232004],122.67792490002466,122.88022629998159,1000,122.88022629998159,1000,1000,1000,1000,1,num_2,0.6571135999984108,,23,5,2026-03-04_13h39.41.158,2026A_exp2,2022.2.4,59.94650373748186,
1,0,0.0,0.0,0,0,27,27,87,,,,,123.56201110000256,124.21277609997196,124.21277609997196,124.71360740001546,315,45,124.71360740001546,124.71360740001546,124.71360740001546,124.71360740001546,124.71360740001546,124.71360740001546,124.71360740001546,124.71360740001546,124.71360740001546,125.08027739997488,125.08027739997488,125.08027739997488,125.08027739997488,125.08027739997488,125.08027739997488,125.08027739997488,125.08027739997488,125.08027739997488,8,2,"[0.0007322000456042588, 0.20113950001541525]","[0.06732940004440024, 0.3679843000136316]",125.08027739997488,125.28038279997418,0.0,125.28038279997418,0,0.0,0,1,1000,num_1,1.5764550000312738,,23,5,2026-03-04_13h39.41.158,2026A_exp2,2022.2.4,59.94650373748186,
1,0,0.0,4.9,1,0,28,28,54,,,,,126.88187119999202,127.53276019997429,127.53276019997429,128.01706569996895,315,315,128.01706569996895,128.01706569996895,128.01706569996895,128.01706569996895,128.01706569996895,128.01706569996895,128.01706569996895,128.01706569996895,128.01706569996895,128.38361929997336,128.38361929997336,128.38361929997336,128.38361929997336,128.38361929997336,128.38361929997336,128.38361929997336,128.38361929997336,128.38361929997336,0,1,[0.0012301999959163368],[0.3672317999880761],128.38361929997336,128.58368310000515,4.9,128.58368310000515,1,4.9,1,1,1000,num_4,0.7059085000073537,,23,5,2026-03-04_13h39.41.158,2026A_exp2,2022.2.4,59.94650373748186,
0,0,4.9,0.0,0,0,29,29,40,,,,,129.31781560002128,129.9685279999976,129.9685279999976,130.4528577000019,45,45,130.4528577000019,130.4528577000019,130.4528577000019,130.4528577000019,130.4528577000019,130.4528577000019,130.4528577000019,130.4528577000019,130.4528577000019,130.81937649997417,130.81937649997417,130.81937649997417,130.81937649997417,130.81937649997417,130.81937649997417,130.81937649997417,130.81937649997417,130.81937649997417,11,1,[0.10002269997494295],[0.3003157000057399],130.81937649997417,131.01961309998296,0.0,131.01961309998296,0,0.0,0,1,1000,num_1,0.6695760999573395,,23,5,2026-03-04_13h39.41.158,2026A_exp2,2022.2.4,59.94650373748186,
0,0,3.7,0.0,0,0,30,30,18,,,,,131.72007979999762,132.37094210000942,132.37094210000942,132.8718856999767,315,315,132.8718856999767,132.8718856999767,132.8718856999767,132.8718856999767,132.8718856999767,132.8718856999767,132.8718856999767,132.8718856999767,132.8718856999767,133.23838719999185,133.23838719999185,133.23838719999185,133.23838719999185,133.23838719999185,133.23838719999185,133.23838719999185,133.23838719999185,133.23838719999185,4,1,[0.06678450002800673],[0.36692570004379377],133.23838719999185,133.4385294999811,0.0,133.4385294999811,0,0.0,0,1,1000,num_1,0.6505337000126019,,23,5,2026-03-04_13h39.41.158,2026A_exp2,2022.2.4,59.94650373748186,
1000,1,0.0,0.0,1,0,31,31,3,,,,,134.10595429997193,134.75627479999093,134.75627479999093,135.24108080001315,45,45,135.24108080001315,135.24108080001315,135.24108080001315,135.24108080001315,135.24108080001315,135.24108080001315,135.24108080001315,135.24108080001315,135.24108080001315,135.60722579999128,135.60722579999128,135.60722579999128,135.60722579999128,135.60722579999128,135.60722579999128,135.60722579999128,135.60722579999128,135.60722579999128,0,1,[0.0012156000011600554],[0.3663656000280753],135.60722579999128,135.80780160002178,1000,135.80780160002178,1000,1000,1000,1000,1,num_2,1.809909500007052,,23,5,2026-03-04_13h39.41.158,2026A_exp2,2022.2.4,59.94650373748186,
1000,1,0.0,3.7,0,0,32,32,43,,,,,137.6427150000236,138.29351809999207,138.29351809999207,138.77782259997912,45,315,138.77782259997912,138.77782259997912,138.77782259997912,138.77782259997912,138.77782259997912,138.77782259997912,138.77782259997912,138.77782259997912,138.77782259997912,139.1608811999904,139.1608811999904,139.1608811999904,139.1608811999904,139.1608811999904,139.1608811999904,139.1608811999904,139.1608811999904,139.1608811999904,24,0,,,139.1608811999904,139.36331759998575,1000,139.36331759998575,1000,1000,1000,1000,1,num_2,0.47702920000301674,,23,5,2026-03-04_13h39.41.158,2026A_exp2,2022.2.4,59.94650373748186,
1,0,0.0,4.9,0,0,33,33,32,,,,,139.86176010000054,140.51243150001392,140.51243150001392,140.9968098999816,45,45,140.9968098999816,140.9968098999816,140.9968098999816,140.9968098999816,140.9968098999816,140.9968098999816,140.9968098999816,140.9968098999816,140.9968098999816,141.3632418999914,141.3632418999914,141.3632418999914,141.3632418999914,141.3632418999914,141.3632418999914,141.3632418999914,141.3632418999914,141.3632418999914,19,1,[0.001201000006403774],[0.06689900002675131],141.3632418999914,141.56346679996932,0.0,141.56346679996932,0,0.0,0,1,1000,num_1,2.0374247999861836,,23,5,2026-03-04_13h39.41.158,2026A_exp2,2022.2.4,59.94650373748186,
1000,1,0.0,0.0,0,0,34,34,64,,,,,143.63215159997344,144.28280310000991,144.28280310000991,144.767178900016,45,45,144.767178900016,144.767178900016,144.767178900016,144.767178900016,144.767178900016,144.767178900016,144.767178900016,144.767178900016,144.767178900016,145.1337104999693,145.1337104999693,145.1337104999693,145.1337104999693,145.1337104999693,145.1337104999693,145.1337104999693,145.1337104999693,145.1337104999693,15,5,"[0.06688699999358505, 0.11687540001003072, 0.21687820000806823, 0.25044619996333495, 0.33375759999034926]","[0.10035409999545664, 0.1331793999997899, 0.23368229996412992, 0.2668069999781437, 0.3671254999935627]",145.1337104999693,145.3355542999925,1000,145.3355542999925,1000,1000,1000,1000,1,num_2,0.6733143999590538,,23,5,2026-03-04_13h39.41.158,2026A_exp2,2022.2.4,59.94650373748186,
1000,1,0.0,4.9,0,0,35,35,8,,,,,146.03467209998053,146.6852368999971,146.6852368999971,147.16964410000946,315,45,147.16964410000946,147.16964410000946,147.16964410000946,147.16964410000946,147.16964410000946,147.16964410000946,147.16964410000946,147.16964410000946,147.16964410000946,147.5360630999785,147.5360630999785,147.5360630999785,147.5360630999785,147.5360630999785,147.5360630999785,147.5360630999785,147.5360630999785,147.5360630999785,2,2,"[0.0012301000533625484, 0.1664973000297323]","[0.14971910003805533, 0.3669254000415094]",147.5360630999785,147.7380400999682,1000,147.7380400999682,1000,1000,1000,1000,1,num_2,0.5514711000141688,,23,5,2026-03-04_13h39.41.158,2026A_exp2,2022.2.4,59.94650373748186,
1000,1,0.0,0.0,1,0,36,36,29,,,,,148.30690249998588,148.95415489998413,148.95415489998413,149.45516549999593,45,315,149.45516549999593,149.45516549999593,149.45516549999593,149.45516549999593,149.45516549999593,149.45516549999593,149.45516549999593,149.45516549999593,149.45516549999593,149.82160139997723,149.82160139997723,149.82160139997723,149.82160139997723,149.82160139997723,149.82160139997723,149.82160139997723,149.82160139997723,149.82160139997723,23,0,,,149.82160139997723,150.0239746000152,1000,150.0239746000152,1000,1000,1000,1000,1,num_2,0.464728599996306,,23,5,2026-03-04_13h39.41.158,2026A_exp2,2022.2.4,59.94650373748186,
1,0,0.0,6.1,1,0,37,37,19,,,,,150.50571519997902,151.15649229998235,151.15649229998235,151.65753650001716,315,45,151.65753650001716,151.65753650001716,151.65753650001716,151.65753650001716,151.65753650001716,151.65753650001716,151.65753650001716,151.65753650001716,151.65753650001716,152.02389190002577,152.02389190002577,152.02389190002577,152.02389190002577,152.02389190002577,152.02389190002577,152.02389190002577,152.02389190002577,152.02389190002577,23,0,,,152.02389190002577,152.22437130002072,6.1,152.22437130002072,1,6.1,1,1,1000,num_4,0.5280542999971658,,23,5,2026-03-04_13h39.41.158,2026A_exp2,2022.2.4,59.94650373748186,
0,0,0.0,3.7,1,0,38,38,53,,,,,152.7745295999921,153.4252601999906,153.4252601999906,153.90971269999864,45,45,153.90971269999864,153.90971269999864,153.90971269999864,153.90971269999864,153.90971269999864,153.90971269999864,153.90971269999864,153.90971269999864,153.90971269999864,154.27581409999402,154.27581409999402,154.27581409999402,154.27581409999402,154.27581409999402,154.27581409999402,154.27581409999402,154.27581409999402,154.27581409999402,0,1,[0.001250100031029433],[0.3672155999811366],154.27581409999402,154.47634410002502,0.0,154.47634410002502,0,0.0,0,1,1000,num_1,1.3889733999967575,,23,5,2026-03-04_13h39.41.158,2026A_exp2,2022.2.4,59.94650373748186,
1000,1,4.9,0.0,0,0,39,39,50,,,,,155.89429049997125,156.5450285000261,156.5450285000261,157.02957150002476,45,45,157.02957150002476,157.02957150002476,157.02957150002476,157.02957150002476,157.02957150002476,157.02957150002476,157.02957150002476,157.02957150002476,157.02957150002476,157.39597790001426,157.39597790001426,157.39597790001426,157.39597790001426,157.39597790001426,157.39597790001426,157.39597790001426,157.39597790001426,157.39597790001426,9,5,"[0.0010810000239871442, 0.10025449999375269, 0.15041540004312992, 0.25044239999260753, 0.3505342000280507]","[0.08366190001834184, 0.13375290000112727, 0.23373269999865443, 0.26717720000306144, 0.367151600017678]",157.39597790001426,157.59777539997594,1000,157.59777539997594,1000,1000,1000,1000,0,num_3,0.491623800015077,,23,5,2026-03-04_13h39.41.158,2026A_exp2,2022.2.4,59.94650373748186,
1000,1,0.0,6.1,1,0,40,40,74,,,,,158.11320429999614,158.76389270002255,158.76389270002255,159.26510999997845,315,315,159.26510999997845,159.26510999997845,159.26510999997845,159.26510999997845,159.26510999997845,159.26510999997845,159.26510999997845,159.26510999997845,159.26510999997845,159.6313010000158,159.6313010000158,159.6313010000158,159.6313010000158,159.6313010000158,159.6313010000158,159.6313010000158,159.6313010000158,159.6313010000158,0,1,[0.001201300008688122],[0.3667833000072278],159.6313010000158,159.83671750000212,1000,159.83671750000212,1000,1000,1000,1000,1,num_2,0.6363342999829911,,23,5,2026-03-04_13h39.41.158,2026A_exp2,2022.2.4,59.94650373748186,
1000,1,4.9,3.7,1,0,41,41,78,,,,,160.4990439999965,161.14963709999574,161.14963709999574,161.6508221999975,315,45,161.6508221999975,161.6508221999975,161.6508221999975,161.6508221999975,161.6508221999975,161.6508221999975,161.6508221999975,161.6508221999975,161.6508221999975,162.00044739997247,162.00044739997247,162.00044739997247,162.00044739997247,162.00044739997247,162.00044739997247,162.00044739997247,162.00044739997247,162.00044739997247,21,1,[0.05023420002544299],[0.06691770005272701],162.00044739997247,162.2026579999947,1000,162.21720379998442,1000,1000,1000,1000,1,num_2,1.2161524000111967,,23,5,2026-03-04_13h39.41.158,2026A_exp2,2022.2.4,59.94650373748186,
1000,1,3.7,0.0,0,0,42,42,86,,,,,163.4518390999874,164.1026574000134,164.1026574000134,164.60367330000736,45,315,164.60367330000736,164.60367330000736,164.60367330000736,164.60367330000736,164.60367330000736,164.60367330000736,164.60367330000736,164.60367330000736,164.60367330000736,164.9699906000169,164.9699906000169,164.9699906000169,164.9699906000169,164.9699906000169,164.9699906000169,164.9699906000169,164.9699906000169,164.9699906000169,8,1,[0.0011985000455752015],[0.25031050003599375],164.9699906000169,165.17193339997903,1000,165.17193339997903,1000,1000,1000,1000,0,num_3,0.9897665999596938,,23,5,2026-03-04_13h39.41.158,2026A_exp2,2022.2.4,59.94650373748186,
1000,1,0.0,3.7,0,0,43,43,76,,,,,166.1879276999971,166.83878559997538,166.83878559997538,167.33981869998388,315,315,167.33981869998388,167.33981869998388,167.33981869998388,167.33981869998388,167.33981869998388,167.33981869998388,167.33981869998388,167.33981869998388,167.33981869998388,167.70623349997913,167.70623349997913,167.70623349997913,167.70623349997913,167.70623349997913,167.70623349997913,167.70623349997913,167.70623349997913,167.70623349997913,23,0,,,167.70623349997913,167.90860969998175,1000,167.90860969998175,1000,1000,1000,1000,1,num_2,0.34811289998469874,,23,5,2026-03-04_13h39.41.158,2026A_exp2,2022.2.4,59.94650373748186,
1000,1,4.9,0.0,1,0,44,44,48,,,,,168.27349890000187,168.9241600999958,168.9241600999958,169.42518889997154,315,45,169.42518889997154,169.42518889997154,169.42518889997154,169.42518889997154,169.42518889997154,169.42518889997154,169.42518889997154,169.42518889997154,169.42518889997154,169.7916477000108,169.7916477000108,169.7916477000108,169.7916477000108,169.7916477000108,169.7916477000108,169.7916477000108,169.7916477000108,169.7916477000108,23,0,,,169.7916477000108,169.9937998999958,1000,169.9937998999958,1000,1000,1000,1000,1,num_2,0.527139600017108,,23,5,2026-03-04_13h39.41.158,2026A_exp2,2022.2.4,59.94650373748186,
1000,1,0.0,0.0,0,0,45,45,45,,,,,170.54232810001122,171.19314480002504,171.19314480002504,171.69419289997313,315,315,171.69419289997313,171.69419289997313,171.69419289997313,171.69419289997313,171.69419289997313,171.69419289997313,171.69419289997313,171.69419289997313,171.69419289997313,172.04369999998016,172.04369999998016,172.04369999998016,172.04369999998016,172.04369999998016,172.04369999998016,172.04369999998016,172.04369999998016,172.04369999998016,0,1,[0.001252200047019869],[0.3504582000314258],172.04369999998016,172.2460838999832,1000,172.2460838999832,1000,1000,1000,1000,1,num_2,0.5709502000245266,,23,5,2026-03-04_13h39.41.158,2026A_exp2,2022.2.4,59.94650373748186,
1000,1,0.0,0.0,1,0,46,46,2,,,,,172.84466300002532,173.4954334999784,173.4954334999784,173.99646729999222,315,315,173.99646729999222,173.99646729999222,173.99646729999222,173.99646729999222,173.99646729999222,173.99646729999222,173.99646729999222,173.99646729999222,173.99646729999222,174.36289019999094,174.36289019999094,174.36289019999094,174.36289019999094,174.36289019999094,174.36289019999094,174.36289019999094,174.36289019999094,174.36289019999094,7,1,[0.0011989999911747873],[0.2670450999867171],174.36289019999094,174.56484629999613,1000,174.56484629999613,1000,1000,1000,1000,0,num_3,1.3885685999994166,,23,5,2026-03-04_13h39.41.158,2026A_exp2,2022.2.4,59.94650373748186,
1,0,4.9,0.0,1,0,47,47,34,,,,,175.98110139998607,176.6317965000053,176.6317965000053,177.13297049998073,315,45,177.13297049998073,177.13297049998073,177.13297049998073,177.13297049998073,177.13297049998073,177.13297049998073,177.13297049998073,177.13297049998073,177.13297049998073,177.4828593999846,177.4828593999846,177.4828593999846,177.4828593999846,177.4828593999846,177.4828593999846,177.4828593999846,177.4828593999846,177.4828593999846,10,5,"[0.017296499980147928, 0.08777759998338297, 0.13382410001941025, 0.2186694000265561, 0.2854594999807887]","[0.07232069998281077, 0.10148740001022816, 0.15071720001287758, 0.26878350001061335, 0.3524260999984108]",177.4828593999846,177.68599099997664,0.0,177.69975149998209,0,0.0,0,1,1000,num_1,0.9247361000161618,,23,5,2026-03-04_13h39.41.158,2026A_exp2,2022.2.4,59.94650373748186,
0,0,3.7,0.0,1,0,48,48,1,,,,,178.6505047000246,179.30129309999757,179.30129309999757,179.80225880001672,315,45,179.80225880001672,179.80225880001672,179.80225880001672,179.80225880001672,179.80225880001672,179.80225880001672,179.80225880001672,179.80225880001672,179.80225880001672,180.16874230001122,180.16874230001122,180.16874230001122,180.16874230001122,180.16874230001122,180.16874230001122,180.16874230001122,180.16874230001122,180.16874230001122,4,1,[0.0007461000350303948],[0.31778020004276186],180.16874230001122,180.36883059999673,3.7,180.36883059999673,1,3.7,1,1,1000,num_4,1.2243330999626778,,23,5,2026-03-04_13h39.41.158,2026A_exp2,2022.2.4,59.94650373748186,
1,0,0.0,6.1,0,0,49,49,24,,,,,181.61996069998713,182.27084940002533,182.27084940002533,182.77183169999626,45,45,182.77183169999626,182.77183169999626,182.77183169999626,182.77183169999626,182.77183169999626,182.77183169999626,182.77183169999626,182.77183169999626,182.77183169999626,183.13835480000125,183.13835480000125,183.13835480000125,183.13835480000125,183.13835480000125,183.13835480000125,183.13835480000125,183.13835480000125,183.13835480000125,4,1,[0.06665689998771995],[0.3669125000014901],183.13835480000125,183.3385615000152,0.0,183.3385615000152,0,0.0,0,1,1000,num_1,0.9021703999605961,,23,5,2026-03-04_13h39.41.158,2026A_exp2,2022.2.4,59.94650373748186,
1,0,0.0,0.0,1,0,50,50,33,,,,,184.27288469998166,184.92345429997658,184.92345429997658,185.40770229999907,45,315,185.40770229999907,185.40770229999907,185.40770229999907,185.40770229999907,185.40770229999907,185.40770229999907,185.40770229999907,185.40770229999907,185.40770229999907,185.7743147999863,185.7743147999863,185.7743147999863,185.7743147999863,185.7743147999863,185.7743147999863,185.7743147999863,185.7743147999863,185.7743147999863,0,1,[0.0012067999923601747],[0.36739500000840053],185.7743147999863,185.9745170000242,0.0,185.9745170000242,1,0.0,0,0,1000,num_4,0.8663984999875538,,23,5,2026-03-04_13h39.41.158,2026A_exp2,2022.2.4,59.94650373748186,
0,0,6.1,0.0,1,0,51,51,52,,,,,186.85851310001453,187.509384999983,187.509384999983,187.99383340001805,315,45,187.99383340001805,187.99383340001805,187.99383340001805,187.99383340001805,187.99383340001805,187.99383340001805,187.99383340001805,187.99383340001805,187.99383340001805,188.36025779997,188.36025779997,188.36025779997,188.36025779997,188.36025779997,188.36025779997,188.36025779997,188.36025779997,188.36025779997,0,1,[0.0012521000462584198],[0.3670734000043012],188.36025779997,188.56044759997167,6.1,188.56044759997167,1,6.1,1,1,1000,num_4,0.7037976999999955,,23,5,2026-03-04_13h39.41.158,2026A_exp2,2022.2.4,59.94650373748186,
1,0,4.9,0.0,0,0,52,52,66,,,,,189.29434590000892,189.9451989000081,189.9451989000081,190.42947799997637,45,45,190.42947799997637,190.42947799997637,190.42947799997637,190.42947799997637,190.42947799997637,190.42947799997637,190.42947799997637,190.42947799997637,190.42947799997637,190.79599810001673,190.79599810001673,190.79599810001673,190.79599810001673,190.79599810001673,190.79599810001673,190.79599810001673,190.79599810001673,190.79599810001673,23,0,,,190.79599810001673,190.99605580000207,4.9,190.99605580000207,1,4.9,1,1,1000,num_4,0.6531612999970093,,23,5,2026-03-04_13h39.41.158,2026A_exp2,2022.2.4,59.94650373748186,
1000,1,0.0,6.1,0,0,53,53,20,,,,,191.68015209998703,192.31447340000886,192.31447340000886,192.81566129997373,315,315,192.81566129997373,192.81566129997373,192.81566129997373,192.81566129997373,192.81566129997373,192.81566129997373,192.81566129997373,192.81566129997373,192.81566129997373,193.18172230001073,193.18172230001073,193.18172230001073,193.18172230001073,193.18172230001073,193.18172230001073,193.18172230001073,193.18172230001073,193.18172230001073,16,1,[0.03339389996835962],[0.15024659998016432],193.18172230001073,193.38404450000962,1000,193.38404450000962,1000,1000,1000,1000,0,num_3,0.8650077999918722,,23,5,2026-03-04_13h39.41.158,2026A_exp2,2022.2.4,59.94650373748186,
0,0,6.1,3.7,0,0,54,54,49,,,,,194.26612500002375,194.91868449997855,194.91868449997855,195.41772470000433,315,45,195.41772470000433,195.41772470000433,195.41772470000433,195.41772470000433,195.41772470000433,195.41772470000433,195.41772470000433,195.41772470000433,195.41772470000433,195.78402969997842,195.78402969997842,195.78402969997842,195.78402969997842,195.78402969997842,195.78402969997842,195.78402969997842,195.78402969997842,195.78402969997842,2,3,"[0.0012897999840788543, 0.24967990000732243, 0.36656150000635535]","[0.23298279999289662, 0.35036480001872405, 0.3665642000269145]",195.78402969997842,195.9844454000122,3.7,195.9844454000122,0,3.7,1,0,1000,num_1,1.3293356000212952,,23,5,2026-03-04_13h39.41.158,2026A_exp2,2022.2.4,59.94650373748186,
0,0,3.7,4.9,0,0,55,55,77,,,,,197.33591949997935,197.98636580002494,197.98636580002494,198.47098390001338,315,45,198.47098390001338,198.47098390001338,198.47098390001338,198.47098390001338,198.47098390001338,198.47098390001338,198.47098390001338,198.47098390001338,198.47098390001338,198.8374151000171,198.8374151000171,198.8374151000171,198.8374151000171,198.8374151000171,198.8374151000171,198.8374151000171,198.8374151000171,198.8374151000171,18,1,[0.16697870002826676],[0.2504125999985263],198.8374151000171,199.03749139996944,4.9,199.03749139996944,1,4.9,1,1,1000,num_4,0.6350939000258222,,23,5,2026-03-04_13h39.41.158,2026A_exp2,2022.2.4,59.94650373748186,
1,0,0.0,4.9,0,0,56,56,14,,,,,199.68812669999897,200.33876419998705,200.33876419998705,200.83996180002578,315,45,200.83996180002578,200.83996180002578,200.83996180002578,200.83996180002578,200.83996180002578,200.83996180002578,200.83996180002578,200.83996180002578,200.83996180002578,201.1898062999826,201.1898062999826,201.1898062999826,201.1898062999826,201.1898062999826,201.1898062999826,201.1898062999826,201.1898062999826,201.1898062999826,8,2,"[0.0011955999652855098, 0.2004486999940127]","[0.18363739998312667, 0.2670899999793619]",201.1898062999826,201.39000469999155,0.0,201.39000469999155,0,0.0,0,1,1000,num_1,1.179662599985022,,23,5,2026-03-04_13h39.41.158,2026A_exp2,2022.2.4,59.94650373748186,
1000,1,0.0,3.7,1,0,57,57,4,,,,,202.59175119997235,203.2504110999871,203.2504110999871,203.74278159998357,315,45,203.74278159998357,203.74278159998357,203.74278159998357,203.74278159998357,203.74278159998357,203.74278159998357,203.74278159998357,203.74278159998357,203.74278159998357,204.1091521999915,204.1091521999915,204.1091521999915,204.1091521999915,204.1091521999915,204.1091521999915,204.1091521999915,204.1091521999915,204.1091521999915,18,2,"[0.0014347000396810472, 0.06617760000517592]","[0.04986980004468933, 0.0996766000171192]",204.1091521999915,204.31195649999427,1000,204.31195649999427,1000,1000,1000,1000,1,num_2,0.6485137999989092,,23,5,2026-03-04_13h39.41.158,2026A_exp2,2022.2.4,59.94650373748186,
1000,1,0.0,6.1,1,0,58,58,13,,,,,204.97678309999174,205.62733490002574,205.62733490002574,206.1285059999791,45,315,206.1285059999791,206.1285059999791,206.1285059999791,206.1285059999791,206.1285059999791,206.1285059999791,206.1285059999791,206.1285059999791,206.1285059999791,206.49491389998002,206.49491389998002,206.49491389998002,206.49491389998002,206.49491389998002,206.49491389998002,206.49491389998002,206.49491389998002,206.49491389998002,0,1,[0.001223200000822544],[0.36761409998871386],206.49491389998002,206.69714409997687,1000,206.69714409997687,1000,1000,1000,1000,1,num_2,0.5352455000393093,,23,5,2026-03-04_13h39.41.158,2026A_exp2,2022.2.4,59.94650373748186,
1000,1,4.9,0.0,1,0,59,59,67,,,,,207.26251680002315,207.9131024000235,207.9131024000235,208.41422789997887,315,315,208.41422789997887,208.41422789997887,208.41422789997887,208.41422789997887,208.41422789997887,208.41422789997887,208.41422789997887,208.41422789997887,208.41422789997887,208.78062450001016,208.78062450001016,208.78062450001016,208.78062450001016,208.78062450001016,208.78062450001016,208.78062450001016,208.78062450001016,208.78062450001016,21,1,[0.1504488000064157],[0.18364840000867844],208.78062450001016,208.98297549999552,1000,208.98297549999552,1000,1000,1000,1000,1,num_2,0.47345160000259057,,23,5,2026-03-04_13h39.41.158,2026A_exp2,2022.2.4,59.94650373748186,
1,0,0.0,0.0,1,0,60,60,31,,,,,209.48127920000115,210.13170969998464,210.13170969998464,210.63460809999378,45,45,210.63460809999378,210.63460809999378,210.63460809999378,210.63460809999378,210.63460809999378,210.63460809999378,210.63460809999378,210.63460809999378,210.63460809999378,210.99954119999893,210.99954119999893,210.99954119999893,210.99954119999893,210.99954119999893,210.99954119999893,210.99954119999893,210.99954119999893,210.99954119999893,23,0,,,210.99954119999893,211.20007780002197,0.0,211.20007780002197,1,0.0,0,0,1000,num_4,0.984625999990385,,23,5,2026-03-04_13h39.41.158,2026A_exp2,2022.2.4,59.94650373748186,
1000,1,0.0,3.7,0,0,61,61,23,,,,,212.20056009996915,212.85136520001106,212.85136520001106,213.33585979999043,315,315,213.33585979999043,213.33585979999043,213.33585979999043,213.33585979999043,213.33585979999043,213.33585979999043,213.33585979999043,213.33585979999043,213.33585979999043,213.70223070000065,213.70223070000065,213.70223070000065,213.70223070000065,213.70223070000065,213.70223070000065,213.70223070000065,213.70223070000065,213.70223070000065,14,3,"[0.20032080000964925, 0.23369000002276152, 0.26698830001987517]","[0.2169807000318542, 0.2501435000449419, 0.3671310000354424]",213.70223070000065,213.9045723999734,1000,213.9045723999734,1000,1000,1000,1000,1,num_2,0.49613919999683276,,23,5,2026-03-04_13h39.41.158,2026A_exp2,2022.2.4,59.94650373748186,
1,0,4.9,4.9,1,0,62,62,9,,,,,214.41960139997536,215.07023599999957,215.07023599999957,215.57166730001336,45,45,215.57166730001336,215.57166730001336,215.57166730001336,215.57166730001336,215.57166730001336,215.57166730001336,215.57166730001336,215.57166730001336,215.57166730001336,215.93784339999547,215.93784339999547,215.93784339999547,215.93784339999547,215.93784339999547,215.93784339999547,215.93784339999547,215.93784339999547,215.93784339999547,23,0,,,215.93784339999547,216.13814039999852,4.9,216.13814039999852,1,4.9,1,1,1000,num_4,0.6227492000325583,,23,5,2026-03-04_13h39.41.158,2026A_exp2,2022.2.4,59.94650373748186,
1000,1,4.9,6.1,0,0,63,63,36,,,,,216.79045199998654,217.43929110001773,217.43929110001773,217.94025579997106,315,45,217.94025579997106,217.94025579997106,217.94025579997106,217.94025579997106,217.94025579997106,217.94025579997106,217.94025579997106,217.94025579997106,217.94025579997106,218.30682220001472,218.30682220001472,218.30682220001472,218.30682220001472,218.30682220001472,218.30682220001472,218.30682220001472,218.30682220001472,218.30682220001472,6,2,"[0.017175599990878254, 0.10005599999567494]","[0.06621729995822534, 0.333640499971807]",218.30682220001472,218.50868839997565,1000,218.50868839997565,1000,1000,1000,1000,1,num_2,0.6526812000083737,,23,5,2026-03-04_13h39.41.158,2026A_exp2,2022.2.4,59.94650373748186,
1000,1,6.1,6.1,1,0,64,64,22,,,,,219.1909509000252,219.84155770001234,219.84155770001234,220.34272559999954,45,315,220.34272559999954,220.34272559999954,220.34272559999954,220.34272559999954,220.34272559999954,220.34272559999954,220.34272559999954,220.34272559999954,220.34272559999954,220.70913839997957,220.70913839997957,220.70913839997957,220.70913839997957,220.70913839997957,220.70913839997957,220.70913839997957,220.70913839997957,220.70913839997957,5,2,"[0.0012083000037819147, 0.15043730003526434]","[0.06696730002295226, 0.3667707000277005]",220.70913839997957,220.91144759999588,1000,220.91144759999588,1000,1000,1000,1000,1,num_2,0.7209708000300452,,23,5,2026-03-04_13h39.41.158,2026A_exp2,2022.2.4,59.94650373748186,
1000,1,0.0,0.0,0,0,65,65,7,,,,,221.6599792999914,222.31087849999312,222.31087849999312,222.81189389998326,45,315,222.81189389998326,222.81189389998326,222.81189389998326,222.81189389998326,222.81189389998326,222.81189389998326,222.81189389998326,222.81189389998326,222.81189389998326,223.17837510001846,223.17837510001846,223.17837510001846,223.17837510001846,223.17837510001846,223.17837510001846,223.17837510001846,223.17837510001846,223.17837510001846,12,2,"[0.05011420004302636, 0.2669426000211388]","[0.1335681999917142, 0.36702669999795035]",223.17837510001846,223.3785509999725,1000,223.3785509999725,1000,1000,1000,1000,1,num_2,0.6937725999741815,,23,5,2026-03-04_13h39.41.158,2026A_exp2,2022.2.4,59.94650373748186,
0,0,4.9,0.0,0,0,66,66,84,,,,,224.09699460002594,224.746675900009,224.746675900009,225.24765590002062,315,45,225.24765590002062,225.24765590002062,225.24765590002062,225.24765590002062,225.24765590002062,225.24765590002062,225.24765590002062,225.24765590002062,225.24765590002062,225.59744139999384,225.59744139999384,225.59744139999384,225.59744139999384,225.59744139999384,225.59744139999384,225.59744139999384,225.59744139999384,225.59744139999384,22,0,,,225.59744139999384,225.7975362999714,0.0,225.81435880000936,1,0.0,0,0,1000,num_4,1.5144704999984242,,23,5,2026-03-04_13h39.41.158,2026A_exp2,2022.2.4,59.94650373748186,
1000,1,0.0,0.0,1,0,67,67,73,,,,,227.34908239997458,227.99991110002156,227.99991110002156,228.4854124999838,315,45,228.4854124999838,228.4854124999838,228.4854124999838,228.4854124999838,228.4854124999838,228.4854124999838,228.4854124999838,228.4854124999838,228.4854124999838,228.8505839999998,228.8505839999998,228.8505839999998,228.8505839999998,228.8505839999998,228.8505839999998,228.8505839999998,228.8505839999998,228.8505839999998,10,2,"[0.0009445999749004841, 0.0482213000068441]","[0.03132269997149706, 0.23195769998710603]",228.8505839999998,229.05104960000608,1000,229.05104960000608,1000,1000,1000,1000,1,num_2,0.5014743999927305,,23,5,2026-03-04_13h39.41.158,2026A_exp2,2022.2.4,59.94650373748186,
1000,1,6.1,4.9,0,0,68,68,81,,,,,229.56805629999144,230.2186172999791,230.2186172999791,230.7197416999843,45,45,230.7197416999843,230.7197416999843,230.7197416999843,230.7197416999843,230.7197416999843,230.7197416999843,230.7197416999843,230.7197416999843,230.7197416999843,231.06962959998054,231.06962959998054,231.06962959998054,231.06962959998054,231.06962959998054,231.06962959998054,231.06962959998054,231.06962959998054,231.06962959998054,7,2,"[0.001201300008688122, 0.15029620000859722]","[0.03348129999358207, 0.35062300000572577]",231.06962959998054,231.27165700000478,1000,231.28646560001653,1000,1000,1000,1000,0,num_3,0.33865450002485886,,23,5,2026-03-04_13h39.41.158,2026A_exp2,2022.2.4,59.94650373748186,
1000,1,6.1,4.9,0,0,69,69,51,,,,,231.65348490001634,232.30432459997246,232.30432459997246,232.80520629999228,45,45,232.80520629999228,232.80520629999228,232.80520629999228,232.80520629999228,232.80520629999228,232.80520629999228,232.80520629999228,232.80520629999228,232.80520629999228,233.1550235999748,233.1550235999748,233.1550235999748,233.1550235999748,233.1550235999748,233.1550235999748,233.1550235999748,233.1550235999748,233.1550235999748,22,0,,,233.1550235999748,233.35693820001325,1000,233.37206429999787,1000,1000,1000,1000,0,num_3,0.4603505000122823,,23,5,2026-03-04_13h39.41.158,2026A_exp2,2022.2.4,59.94650373748186,
1000,1,3.7,4.9,1,0,70,70,71,,,,,233.8556923000142,234.5064427999896,234.5064427999896,235.00757750001503,315,45,235.00757750001503,235.00757750001503,235.00757750001503,235.00757750001503,235.00757750001503,235.00757750001503,235.00757750001503,235.00757750001503,235.00757750001503,235.37390319997212,235.37390319997212,235.37390319997212,235.37390319997212,235.37390319997212,235.37390319997212,235.37390319997212,235.37390319997212,235.37390319997212,15,1,[0.0011955999652855098],[0.13360129995271564],235.37390319997212,235.5740149000194,1000,235.5740149000194,1000,1000,1000,1000,1,num_2,1.85037540004123,,23,5,2026-03-04_13h39.41.158,2026A_exp2,2022.2.4,59.94650373748186,
1000,1,0.0,4.9,0,0,71,71,0,,,,,237.4425342999748,238.09328859997913,238.09328859997913,238.59443539998028,315,45,238.59443539998028,238.59443539998028,238.59443539998028,238.59443539998028,238.59443539998028,238.59443539998028,238.59443539998028,238.59443539998028,238.59443539998028,238.94415819999995,238.94415819999995,238.94415819999995,238.94415819999995,238.94415819999995,238.94415819999995,238.94415819999995,238.94415819999995,238.94415819999995,22,0,,,238.94415819999995,239.14597630000208,1000,239.161038500024,1000,1000,1000,1000,1,num_2,0.5519213000079617,,23,5,2026-03-04_13h39.41.158,2026A_exp2,2022.2.4,59.94650373748186,
1000,1,3.7,0.0,0,0,72,72,39,,,,,239.73223289998714,240.37881419999758,240.37881419999758,240.8801003000117,45,45,240.8801003000117,240.8801003000117,240.8801003000117,240.8801003000117,240.8801003000117,240.8801003000117,240.8801003000117,240.8801003000117,240.8801003000117,241.24645490001421,241.24645490001421,241.24645490001421,241.24645490001421,241.24645490001421,241.24645490001421,241.24645490001421,241.24645490001421,241.24645490001421,23,0,,,241.24645490001421,241.44651929999236,1000,241.44651929999236,1000,1000,1000,1000,0,num_3,0.8263939999742433,,23,5,2026-03-04_13h39.41.158,2026A_exp2,2022.2.4,59.94650373748186,
1000,1,4.9,6.1,1,0,73,73,5,,,,,242.2996677000192,242.94810949999373,242.94810949999373,243.44902050000383,315,315,243.44902050000383,243.44902050000383,243.44902050000383,243.44902050000383,243.44902050000383,243.44902050000383,243.44902050000383,243.44902050000383,243.44902050000383,243.8155447000172,243.8155447000172,243.8155447000172,243.8155447000172,243.8155447000172,243.8155447000172,243.8155447000172,243.8155447000172,243.8155447000172,0,1,[0.0012129999813623726],[0.36723069997970015],243.8155447000172,244.01792279997608,1000,244.01792279997608,1000,1000,1000,1000,1,num_2,0.3918748000287451,,23,5,2026-03-04_13h39.41.158,2026A_exp2,2022.2.4,59.94650373748186,
1000,1,0.0,3.7,0,0,74,74,63,,,,,244.43293210002594,245.08360100002028,245.08360100002028,245.58528330002446,315,315,245.58528330002446,245.58528330002446,245.58528330002446,245.58528330002446,245.58528330002446,245.58528330002446,245.58528330002446,245.58528330002446,245.58528330002446,245.951131800015,245.951131800015,245.951131800015,245.951131800015,245.951131800015,245.951131800015,245.951131800015,245.951131800015,245.951131800015,17,1,[0.19980729999952018],[0.2998304999782704],245.951131800015,246.15117750002537,1000,246.15117750002537,1000,1000,1000,1000,1,num_2,1.457358399988152,,23,5,2026-03-04_13h39.41.158,2026A_exp2,2022.2.4,59.94650373748186,
1000,1,3.7,3.7,0,0,75,75,59,,,,,247.63595720002195,248.28678720002063,248.28678720002063,248.7712753000087,315,45,248.7712753000087,248.7712753000087,248.7712753000087,248.7712753000087,248.7712753000087,248.7712753000087,248.7712753000087,248.7712753000087,248.7712753000087,249.1376881999895,249.1376881999895,249.1376881999895,249.1376881999895,249.1376881999895,249.1376881999895,249.1376881999895,249.1376881999895,249.1376881999895,20,3,"[0.10020260000601411, 0.26695809996454045, 0.3502837999840267]","[0.11672389996238053, 0.28361599997151643, 0.3671852999832481]",249.1376881999895,249.33976750000147,1000,249.33976750000147,1000,1000,1000,1000,1,num_2,2.2131176000111736,,23,5,2026-03-04_13h39.41.158,2026A_exp2,2022.2.4,59.94650373748186,
1000,1,4.9,0.0,1,0,76,76,12,,,,,251.57333889999427,252.22402949997922,252.22402949997922,252.7250219999696,45,315,252.7250219999696,252.7250219999696,252.7250219999696,252.7250219999696,252.7250219999696,252.7250219999696,252.7250219999696,252.7250219999696,252.7250219999696,253.07494399999268,253.07494399999268,253.07494399999268,253.07494399999268,253.07494399999268,253.07494399999268,253.07494399999268,253.07494399999268,253.07494399999268,22,0,,,253.07494399999268,253.2749826000072,1000,253.2749826000072,1000,1000,1000,1000,1,num_2,0.590002299984917,,23,5,2026-03-04_13h39.41.158,2026A_exp2,2022.2.4,59.94650373748186,
1000,1,0.0,6.1,0,0,77,77,61,,,,,253.89234919997398,254.54304570000386,254.54304570000386,255.0442166000139,45,315,255.0442166000139,255.0442166000139,255.0442166000139,255.0442166000139,255.0442166000139,255.0442166000139,255.0442166000139,255.0442166000139,255.0442166000139,255.3939359000069,255.3939359000069,255.3939359000069,255.3939359000069,255.3939359000069,255.3939359000069,255.3939359000069,255.3939359000069,255.3939359000069,5,2,"[0.001205099979415536, 0.23368120001396164]","[0.15020869998261333, 0.35057300003245473]",255.3939359000069,255.59384220000356,1000,255.61043820000486,1000,1000,1000,1000,1,num_2,0.3586896000197157,,23,5,2026-03-04_13h39.41.158,2026A_exp2,2022.2.4,59.94650373748186,
1,0,0.0,0.0,1,0,78,78,83,,,,,255.99444530002074,256.6448449000018,256.6448449000018,257.14629230002174,45,45,257.14629230002174,257.14629230002174,257.14629230002174,257.14629230002174,257.14629230002174,257.14629230002174,257.14629230002174,257.14629230002174,257.14629230002174,257.51273179997224,257.51273179997224,257.51273179997224,257.51273179997224,257.51273179997224,257.51273179997224,257.51273179997224,257.51273179997224,257.51273179997224,0,1,[0.0012437999830581248],[0.3672686999780126],257.51273179997224,257.71293709997553,0.0,257.71293709997553,1,0.0,0,0,1000,num_4,0.8157331999973394,,23,5,2026-03-04_13h39.41.158,2026A_exp2,2022.2.4,59.94650373748186,
1000,1,6.1,0.0,0,0,79,79,27,,,,,258.5468897999963,259.19759639998665,259.19759639998665,259.68204699998023,45,315,259.68204699998023,259.68204699998023,259.68204699998023,259.68204699998023,259.68204699998023,259.68204699998023,259.68204699998023,259.68204699998023,259.68204699998023,260.0483903000131,260.0483903000131,260.0483903000131,260.0483903000131,260.0483903000131,260.0483903000131,260.0483903000131,260.0483903000131,260.0483903000131,23,0,,,260.0483903000131,260.25092919997405,1000,260.25092919997405,1000,1000,1000,1000,0,num_3,0.4458693999913521,,23,5,2026-03-04_13h39.41.158,2026A_exp2,2022.2.4,59.94650373748186,
1000,1,0.0,0.0,0,0,80,80,65,,,,,260.71573519997764,261.36990789999254,261.36990789999254,261.87205369997537,315,315,261.87205369997537,261.87205369997537,261.87205369997537,261.87205369997537,261.87205369997537,261.87205369997537,261.87205369997537,261.87205369997537,261.87205369997537,262.2170280999853,262.2170280999853,262.2170280999853,262.2170280999853,262.2170280999853,262.2170280999853,262.2170280999853,262.2170280999853,262.2170280999853,22,0,,,262.2170280999853,262.4192849000101,1000,262.434409199981,1000,1000,1000,1000,1,num_2,0.49514060001820326,,23,5,2026-03-04_13h39.41.158,2026A_exp2,2022.2.4,59.94650373748186,
1,0,3.7,0.0,1,0,81,81,30,,,,,262.95139499998186,263.60217239998747,263.60217239998747,264.10327849996975,45,315,264.10327849996975,264.10327849996975,264.10327849996975,264.10327849996975,264.10327849996975,264.10327849996975,264.10327849996975,264.10327849996975,264.10327849996975,264.46966840000823,264.46966840000823,264.46966840000823,264.46966840000823,264.46966840000823,264.46966840000823,264.46966840000823,264.46966840000823,264.46966840000823,23,0,,,264.46966840000823,264.6698530999711,0.0,264.6698530999711,1,0.0,0,0,1000,num_4,1.011659800016787,,23,5,2026-03-04_13h39.41.158,2026A_exp2,2022.2.4,59.94650373748186,
0,0,6.1,0.0,1,0,82,82,25,,,,,265.70452739996836,266.35499259998323,266.35499259998323,266.8559183999896,45,315,266.8559183999896,266.8559183999896,266.8559183999896,266.8559183999896,266.8559183999896,266.8559183999896,266.8559183999896,266.8559183999896,266.8559183999896,267.2056157999905,267.2056157999905,267.2056157999905,267.2056157999905,267.2056157999905,267.2056157999905,267.2056157999905,267.2056157999905,267.2056157999905,22,0,,,267.2056157999905,267.4058574999799,6.1,267.4058574999799,1,6.1,1,1,1000,num_4,0.8830524000222795,,23,5,2026-03-04_13h39.41.158,2026A_exp2,2022.2.4,59.94650373748186,
1,0,0.0,4.9,0,0,83,83,70,,,,,268.3066649999819,268.9574112999835,268.9574112999835,269.4418261999963,45,45,269.4418261999963,269.4418261999963,269.4418261999963,269.4418261999963,269.4418261999963,269.4418261999963,269.4418261999963,269.4418261999963,269.4418261999963,269.80827360000694,269.80827360000694,269.80827360000694,269.80827360000694,269.80827360000694,269.80827360000694,269.80827360000694,269.80827360000694,269.80827360000694,23,0,,,269.80827360000694,270.0084950000164,0.0,270.0084950000164,0,0.0,0,1,1000,num_1,1.1286396000068635,,23,5,2026-03-04_13h39.41.158,2026A_exp2,2022.2.4,59.94650373748186,
1,0,4.9,6.1,0,0,84,84,82,,,,,271.1596589999972,271.81037209997885,271.81037209997885,272.2946778999758,315,315,272.2946778999758,272.2946778999758,272.2946778999758,272.2946778999758,272.2946778999758,272.2946778999758,272.2946778999758,272.2946778999758,272.2946778999758,272.66105049999896,272.66105049999896,272.66105049999896,272.66105049999896,272.66105049999896,272.66105049999896,272.66105049999896,272.66105049999896,272.66105049999896,14,2,"[0.05013479996705428, 0.2836540999705903]","[0.15021419996628538, 0.33368629997130483]",272.66105049999896,272.8613609999884,4.9,272.8613609999884,0,4.9,1,0,1000,num_1,0.9715191000141203,,23,5,2026-03-04_13h39.41.158,2026A_exp2,2022.2.4,59.94650373748186,
1000,1,0.0,4.9,1,0,85,85,37,,,,,273.862270099984,274.51306610001484,274.51306610001484,274.9976119999774,315,45,274.9976119999774,274.9976119999774,274.9976119999774,274.9976119999774,274.9976119999774,274.9976119999774,274.9976119999774,274.9976119999774,274.9976119999774,275.3639190000249,275.3639190000249,275.3639190000249,275.3639190000249,275.3639190000249,275.3639190000249,275.3639190000249,275.3639190000249,275.3639190000249,23,0,,,275.3639190000249,275.566092699999,1000,275.566092699999,1000,1000,1000,1000,1,num_2,0.7702246999833733,,23,5,2026-03-04_13h39.41.158,2026A_exp2,2022.2.4,59.94650373748186,
1000,1,3.7,6.1,0,0,86,86,60,,,,,276.3647099999944,277.0155339000048,277.0155339000048,277.5165486999904,315,315,277.5165486999904,277.5165486999904,277.5165486999904,277.5165486999904,277.5165486999904,277.5165486999904,277.5165486999904,277.5165486999904,277.5165486999904,277.8664325000136,277.8664325000136,277.8664325000136,277.8664325000136,277.8664325000136,277.8664325000136,277.8664325000136,277.8664325000136,277.8664325000136,22,0,,,277.8664325000136,278.0684725000174,1000,278.0684725000174,1000,1000,1000,1000,1,num_2,0.5087476000189781,,23,5,2026-03-04_13h39.41.158,2026A_exp2,2022.2.4,59.94650373748186,
1000,1,0.0,6.1,0,0,87,87,16,,,,,278.60037900001043,279.2510038000182,279.2510038000182,279.75203269999474,315,315,279.75203269999474,279.75203269999474,279.75203269999474,279.75203269999474,279.75203269999474,279.75203269999474,279.75203269999474,279.75203269999474,279.75203269999474,280.1186022000038,280.1186022000038,280.1186022000038,280.1186022000038,280.1186022000038,280.1186022000038,280.1186022000038,280.1186022000038,280.1186022000038,23,0,,,280.1186022000038,280.32066680002026,1000,280.32066680002026,1000,1000,1000,1000,1,num_2,0.6878360999980941,,23,5,2026-03-04_13h39.41.158,2026A_exp2,2022.2.4,59.94650373748186,
1000,1,6.1,0.0,0,0,88,88,58,,,,,281.0360897000064,281.6869375000242,281.6869375000242,282.18792749999557,45,315,282.18792749999557,282.18792749999557,282.18792749999557,282.18792749999557,282.18792749999557,282.18792749999557,282.18792749999557,282.18792749999557,282.18792749999557,282.5544703999767,282.5544703999767,282.5544703999767,282.5544703999767,282.5544703999767,282.5544703999767,282.5544703999767,282.5544703999767,282.5544703999767,23,0,,,282.5544703999767,282.75636950001353,1000,282.75636950001353,1000,1000,1000,1000,0,num_3,0.3485285000060685,,23,5,2026-03-04_13h39.41.158,2026A_exp2,2022.2.4,59.94650373748186,
0,0,0.0,0.0,1,0,89,89,44,,,,,283.12202479998814,283.77233549999073,283.77233549999073,284.27341919997707,315,45,284.27341919997707,284.27341919997707,284.27341919997707,284.27341919997707,284.27341919997707,284.27341919997707,284.27341919997707,284.27341919997707,284.27341919997707,284.6397536000004,284.6397536000004,284.6397536000004,284.6397536000004,284.6397536000004,284.6397536000004,284.6397536000004,284.6397536000004,284.6397536000004,16,2,"[0.0012565000215545297, 0.06675519997952506]","[0.033386000024620444, 0.13369009998859838]",284.6397536000004,284.8400373000186,0.0,284.8400373000186,1,0.0,0,0,1000,num_4,1.1212510000332259,,23,5,2026-03-04_13h39.41.158,2026A_exp2,2022.2.4,59.94650373748186,
,,,,,,,,,,,,,,,,,,,,,,,,,,,,,,,,,,,,,,,,,,,,,,,,,,,,285.99766950000776,,,,,,,
