validity,detectorcomp,contrastCW,contrastCCW,precueCWorCCW,block_80trials.thisRepN,block_80trials.thisTrialN,block_80trials.thisN,block_80trials.thisIndex,etRecord.started,etRecord.stopped,text.started,text.stopped,text_4.started,text_4.stopped,text_6.started,text_6.stopped,oriCW,oriCCW,roi_2.started,grating_UR.started,grating_UL.started,grating_LR.started,grating_LL.started,noise_UR.started,noise_UL.started,noise_LR.started,noise_LL.started,roi_2.stopped,grating_UR.stopped,grating_UL.stopped,grating_LR.stopped,grating_LL.stopped,noise_UR.stopped,noise_UL.stopped,noise_LR.stopped,noise_LL.stopped,outframe,roi_2.numLooks,roi_2.timesOn,roi_2.timesOff,text_2.started,text_2.stopped,probedcontrast,key_resp.started,respdetect,relevantContrast,correctDetect,TorFdetect,respCWorCCW,key_resp.keys,key_resp.rt,feedback_display_.started,participantNo,blockNo,date,expName,psychopyVersion,frameRate,
1000,1,0.0,3.7,0,0,0,0,44,3.700004890561104e-05,3.700004890561104e-05,63.684365399880335,65.68891380005516,65.68891380005516,66.32087869988754,66.32087869988754,66.84189859987237,315,45,66.84189859987237,66.84189859987237,66.84189859987237,66.84189859987237,66.84189859987237,66.84189859987237,66.84189859987237,66.84189859987237,66.84189859987237,67.18830380006693,67.18830380006693,67.18830380006693,67.18830380006693,67.18830380006693,67.18830380006693,67.18830380006693,67.18830380006693,67.18830380006693,4,2,"[0.0011879000812768936, 0.3496606000699103]","[0.28289139992557466, 0.36594290006905794]",67.18830380006693,67.42614930006675,1000,67.42614930006675,1000,1000,1000,1000,0,num_3,0.8144650000613183,,35,11,2026-03-13_14h18.08.262,2026A_exp2,2022.2.4,59.897276128383744,
1000,1,6.1,3.7,1,0,1,1,24,,,,,68.25634309998713,68.90680529992096,68.90680529992096,69.40812460007146,45,315,69.40812460007146,69.40812460007146,69.40812460007146,69.40812460007146,69.40812460007146,69.40812460007146,69.40812460007146,69.40812460007146,69.40812460007146,69.77431789995171,69.77431789995171,69.77431789995171,69.77431789995171,69.77431789995171,69.77431789995171,69.77431789995171,69.77431789995171,69.77431789995171,14,3,"[0.001243300037458539, 0.11663750000298023, 0.20019200001843274]","[0.06668530008755624, 0.18349110009148717, 0.21698149992153049]",69.77431789995171,69.97648259997368,1000,69.97648259997368,1000,1000,1000,1000,0,num_3,0.5206133001483977,,35,11,2026-03-13_14h18.08.262,2026A_exp2,2022.2.4,59.897276128383744,
0,0,0.0,4.9,0,0,2,2,54,,,,,70.5252314999234,71.17580129997805,71.17580129997805,71.67685090005398,315,315,71.67685090005398,71.67685090005398,71.67685090005398,71.67685090005398,71.67685090005398,71.67685090005398,71.67685090005398,71.67685090005398,71.67685090005398,72.04341789986938,72.04341789986938,72.04341789986938,72.04341789986938,72.04341789986938,72.04341789986938,72.04341789986938,72.04341789986938,72.04341789986938,17,5,"[0.001236999873071909, 0.033729600021615624, 0.11697699991054833, 0.25061949994415045, 0.31745069986209273]","[0.01749040000140667, 0.05054569989442825, 0.13380539999343455, 0.28396109980531037, 0.3340356999542564]",72.04341789986938,72.24365839990787,4.9,72.24365839990787,0,4.9,1,0,1000,num_1,0.7092180999461561,,35,11,2026-03-13_14h18.08.262,2026A_exp2,2022.2.4,59.897276128383744,
1,0,0.0,0.0,0,0,3,3,59,,,,,72.97751190001145,73.62828979990445,73.62828979990445,74.11280089989305,45,315,74.11280089989305,74.11280089989305,74.11280089989305,74.11280089989305,74.11280089989305,74.11280089989305,74.11280089989305,74.11280089989305,74.11280089989305,74.47920330008492,74.47920330008492,74.47920330008492,74.47920330008492,74.47920330008492,74.47920330008492,74.47920330008492,74.47920330008492,74.47920330008492,22,1,[0.05005630012601614],[0.06684669991955161],74.47920330008492,74.6792407000903,0.0,74.6792407000903,0,0.0,0,1,1000,num_1,0.6657974000554532,,35,11,2026-03-13_14h18.08.262,2026A_exp2,2022.2.4,59.897276128383744,
1,0,4.9,0.0,1,0,4,4,84,,,,,75.36340899998322,76.01399379991926,76.01399379991926,76.4983973999042,45,315,76.4983973999042,76.4983973999042,76.4983973999042,76.4983973999042,76.4983973999042,76.4983973999042,76.4983973999042,76.4983973999042,76.4983973999042,76.86481019994244,76.86481019994244,76.86481019994244,76.86481019994244,76.86481019994244,76.86481019994244,76.86481019994244,76.86481019994244,76.86481019994244,17,5,"[0.03355240006931126, 0.0669289999641478, 0.11702180001884699, 0.16702740010805428, 0.2004120999481529]","[0.05021020001731813, 0.08362370007671416, 0.13350980007089674, 0.18351930007338524, 0.23371280007995665]",76.86481019994244,77.06511830003001,0.0,77.06511830003001,0,0.0,0,1,1000,num_1,0.4877361999824643,,35,11,2026-03-13_14h18.08.262,2026A_exp2,2022.2.4,59.897276128383744,
1000,1,4.9,0.0,0,0,5,5,58,,,,,77.58212470007129,78.23295179987326,78.23295179987326,78.71726990002207,45,45,78.71726990002207,78.71726990002207,78.71726990002207,78.71726990002207,78.71726990002207,78.71726990002207,78.71726990002207,78.71726990002207,78.71726990002207,79.08360280003399,79.08360280003399,79.08360280003399,79.08360280003399,79.08360280003399,79.08360280003399,79.08360280003399,79.08360280003399,79.08360280003399,8,5,"[0.033505799947306514, 0.10015949979424477, 0.18367209983989596, 0.21706399996764958, 0.2670967997983098]","[0.05017609987407923, 0.16708029992878437, 0.20041689998470247, 0.2505002999678254, 0.36727259983308613]",79.08360280003399,79.28559229988605,1000,79.28559229988605,1000,1000,1000,1000,0,num_3,0.45862310007214546,,35,11,2026-03-13_14h18.08.262,2026A_exp2,2022.2.4,59.897276128383744,
1,0,4.9,0.0,0,0,6,6,48,,,,,79.76785820000805,80.41845019999892,80.41845019999892,80.9027360000182,45,315,80.9027360000182,80.9027360000182,80.9027360000182,80.9027360000182,80.9027360000182,80.9027360000182,80.9027360000182,80.9027360000182,80.9027360000182,81.26931770006195,81.26931770006195,81.26931770006195,81.26931770006195,81.26931770006195,81.26931770006195,81.26931770006195,81.26931770006195,81.26931770006195,5,6,"[0.0013007998932152987, 0.050176299875602126, 0.08366669993847609, 0.13392989989370108, 0.2672428998630494, 0.3005280999932438]","[0.03347859997302294, 0.06692679994739592, 0.11707090004347265, 0.25034759985283017, 0.2838896999601275, 0.36736749997362494]",81.26931770006195,81.46928209997714,4.9,81.46928209997714,1,4.9,1,1,1000,num_4,2.0270066999364644,,35,11,2026-03-13_14h18.08.262,2026A_exp2,2022.2.4,59.897276128383744,
1,0,6.1,3.7,0,0,7,7,26,,,,,83.52135919989087,84.1722027999349,84.1722027999349,84.67324949987233,45,315,84.67324949987233,84.67324949987233,84.67324949987233,84.67324949987233,84.67324949987233,84.67324949987233,84.67324949987233,84.67324949987233,84.67324949987233,85.02305960003287,85.02305960003287,85.02305960003287,85.02305960003287,85.02305960003287,85.02305960003287,85.02305960003287,85.02305960003287,85.02305960003287,12,3,"[0.15066060004755855, 0.20110849989578128, 0.28452449990436435]","[0.16743570007383823, 0.2676464000251144, 0.3513124999590218]",85.02305960003287,85.22327740001492,6.1,85.22327740001492,1,6.1,1,1,1000,num_4,0.3937546999659389,,35,11,2026-03-13_14h18.08.262,2026A_exp2,2022.2.4,59.897276128383744,
1,0,4.9,6.1,1,0,8,8,46,,,,,85.64018670003861,86.29088340001181,86.29088340001181,86.77548539987765,315,45,86.77548539987765,86.77548539987765,86.77548539987765,86.77548539987765,86.77548539987765,86.77548539987765,86.77548539987765,86.77548539987765,86.77548539987765,87.1418528999202,87.1418528999202,87.1418528999202,87.1418528999202,87.1418528999202,87.1418528999202,87.1418528999202,87.1418528999202,87.1418528999202,22,1,[0.36707399995066226],[0.3670803001150489],87.1418528999202,87.3420684998855,6.1,87.3420684998855,0,6.1,1,0,1000,num_1,0.6103401000145823,,35,11,2026-03-13_14h18.08.262,2026A_exp2,2022.2.4,59.897276128383744,
1,0,0.0,0.0,0,0,9,9,38,,,,,87.97583279991522,88.6266512000002,88.6266512000002,89.11078059999272,315,315,89.11078059999272,89.11078059999272,89.11078059999272,89.11078059999272,89.11078059999272,89.11078059999272,89.11078059999272,89.11078059999272,89.11078059999272,89.47751759993844,89.47751759993844,89.47751759993844,89.47751759993844,89.47751759993844,89.47751759993844,89.47751759993844,89.47751759993844,89.47751759993844,23,0,,,89.47751759993844,89.67774539999664,0.0,89.67774539999664,1,0.0,0,0,1000,num_4,0.9785689001437277,,35,11,2026-03-13_14h18.08.262,2026A_exp2,2022.2.4,59.897276128383744,
0,0,0.0,6.1,1,0,10,10,76,,,,,90.67849570000544,91.32918259990402,91.32918259990402,91.81334790005349,315,315,91.81334790005349,91.81334790005349,91.81334790005349,91.81334790005349,91.81334790005349,91.81334790005349,91.81334790005349,91.81334790005349,91.81334790005349,92.18030110001564,92.18030110001564,92.18030110001564,92.18030110001564,92.18030110001564,92.18030110001564,92.18030110001564,92.18030110001564,92.18030110001564,23,0,,,92.18030110001564,92.38048699987121,0.0,92.38048699987121,0,0.0,0,1,1000,num_1,0.531821700045839,,35,11,2026-03-13_14h18.08.262,2026A_exp2,2022.2.4,59.897276128383744,
1000,1,3.7,0.0,1,0,11,11,55,,,,,92.93079570005648,93.5816293999087,93.5816293999087,94.06590799987316,315,315,94.06590799987316,94.06590799987316,94.06590799987316,94.06590799987316,94.06590799987316,94.06590799987316,94.06590799987316,94.06590799987316,94.06590799987316,94.43247699993663,94.43247699993663,94.43247699993663,94.43247699993663,94.43247699993663,94.43247699993663,94.43247699993663,94.43247699993663,94.43247699993663,6,4,"[0.001245599938556552, 0.16688790009357035, 0.21690530003979802, 0.3504127999767661]","[0.1507093000691384, 0.1835137999150902, 0.3004316999576986, 0.3671901000197977]",94.43247699993663,94.63250990002416,1000,94.63250990002416,1000,1000,1000,1000,0,num_3,0.5124991999473423,,35,11,2026-03-13_14h18.08.262,2026A_exp2,2022.2.4,59.897276128383744,
1,0,3.7,4.9,1,0,12,12,39,,,,,95.1663979999721,95.81738590006717,95.81738590006717,96.31820659991354,45,45,96.31820659991354,96.31820659991354,96.31820659991354,96.31820659991354,96.31820659991354,96.31820659991354,96.31820659991354,96.31820659991354,96.31820659991354,96.684712999966,96.684712999966,96.684712999966,96.684712999966,96.684712999966,96.684712999966,96.684712999966,96.684712999966,96.684712999966,23,0,,,96.684712999966,96.88494360004552,4.9,96.88494360004552,0,4.9,1,0,1000,num_1,0.603776799980551,,35,11,2026-03-13_14h18.08.262,2026A_exp2,2022.2.4,59.897276128383744,
1000,1,4.9,0.0,0,0,13,13,36,,,,,97.518812000053,98.16956549999304,98.16956549999304,98.65388750005513,315,45,98.65388750005513,98.65388750005513,98.65388750005513,98.65388750005513,98.65388750005513,98.65388750005513,98.65388750005513,98.65388750005513,98.65388750005513,99.02030840003863,99.02030840003863,99.02030840003863,99.02030840003863,99.02030840003863,99.02030840003863,99.02030840003863,99.02030840003863,99.02030840003863,23,0,,,99.02030840003863,99.22219950007275,1000,99.22219950007275,1000,1000,1000,1000,0,num_3,0.46621309989131987,,35,11,2026-03-13_14h18.08.262,2026A_exp2,2022.2.4,59.897276128383744,
1,0,4.9,6.1,0,0,14,14,15,,,,,99.70429549994878,100.35495220008306,100.35495220008306,100.85601420002058,315,315,100.85601420002058,100.85601420002058,100.85601420002058,100.85601420002058,100.85601420002058,100.85601420002058,100.85601420002058,100.85601420002058,100.85601420002058,101.2225891998969,101.2225891998969,101.2225891998969,101.2225891998969,101.2225891998969,101.2225891998969,101.2225891998969,101.2225891998969,101.2225891998969,8,5,"[0.03337060008198023, 0.08352939994074404, 0.2002636999823153, 0.2669172000605613, 0.3169811998959631]","[0.06675180001184344, 0.15026329993270338, 0.23358889995142817, 0.30037979991175234, 0.36713270004838705]",101.2225891998969,101.422597900033,4.9,101.422597900033,0,4.9,1,0,1000,num_1,0.41793240001425147,,35,11,2026-03-13_14h18.08.262,2026A_exp2,2022.2.4,59.897276128383744,
1000,1,0.0,0.0,0,0,15,15,75,,,,,101.85643110005185,102.50719440006651,102.50719440006651,102.99151209997945,315,315,102.99151209997945,102.99151209997945,102.99151209997945,102.99151209997945,102.99151209997945,102.99151209997945,102.99151209997945,102.99151209997945,102.99151209997945,103.35793499997817,103.35793499997817,103.35793499997817,103.35793499997817,103.35793499997817,103.35793499997817,103.35793499997817,103.35793499997817,103.35793499997817,23,0,,,103.35793499997817,103.55986879998818,1000,103.55986879998818,1000,1000,1000,1000,0,num_3,0.27226790017448366,,35,11,2026-03-13_14h18.08.262,2026A_exp2,2022.2.4,59.897276128383744,
1000,1,0.0,6.1,0,0,16,16,34,,,,,103.85840540006757,104.50916110002436,104.50916110002436,105.01034100004472,45,315,105.01034100004472,105.01034100004472,105.01034100004472,105.01034100004472,105.01034100004472,105.01034100004472,105.01034100004472,105.01034100004472,105.01034100004472,105.37675729999319,105.37675729999319,105.37675729999319,105.37675729999319,105.37675729999319,105.37675729999319,105.37675729999319,105.37675729999319,105.37675729999319,23,0,,,105.37675729999319,105.57902029994875,1000,105.57902029994875,1000,1000,1000,1000,1,num_2,0.6696152999065816,,35,11,2026-03-13_14h18.08.262,2026A_exp2,2022.2.4,59.897276128383744,
1,0,6.1,4.9,1,0,17,17,35,,,,,106.27752960007638,106.92831830005161,106.92831830005161,107.42939940001816,315,45,107.42939940001816,107.42939940001816,107.42939940001816,107.42939940001816,107.42939940001816,107.42939940001816,107.42939940001816,107.42939940001816,107.42939940001816,107.79584669996984,107.79584669996984,107.79584669996984,107.79584669996984,107.79584669996984,107.79584669996984,107.79584669996984,107.79584669996984,107.79584669996984,6,2,"[0.10022999998182058, 0.2504006000235677]","[0.23379869991913438, 0.367335099959746]",107.79584669996984,107.99606959987432,4.9,107.99606959987432,0,4.9,1,0,1000,num_1,0.5165702998638153,,35,11,2026-03-13_14h18.08.262,2026A_exp2,2022.2.4,59.897276128383744,
1,0,0.0,3.7,1,0,18,18,57,,,,,108.52979770000093,109.18048129999079,109.18048129999079,109.66498270002194,45,45,109.66498270002194,109.66498270002194,109.66498270002194,109.66498270002194,109.66498270002194,109.66498270002194,109.66498270002194,109.66498270002194,109.66498270002194,110.03125420003198,110.03125420003198,110.03125420003198,110.03125420003198,110.03125420003198,110.03125420003198,110.03125420003198,110.03125420003198,110.03125420003198,23,0,,,110.03125420003198,110.231611300027,3.7,110.231611300027,0,3.7,1,0,1000,num_1,0.5606252998113632,,35,11,2026-03-13_14h18.08.262,2026A_exp2,2022.2.4,59.897276128383744,
1000,1,3.7,0.0,1,0,19,19,79,,,,,110.81547440006398,111.44937639986165,111.44937639986165,111.95061709987931,45,45,111.95061709987931,111.95061709987931,111.95061709987931,111.95061709987931,111.95061709987931,111.95061709987931,111.95061709987931,111.95061709987931,111.95061709987931,112.31698130001314,112.31698130001314,112.31698130001314,112.31698130001314,112.31698130001314,112.31698130001314,112.31698130001314,112.31698130001314,112.31698130001314,23,0,,,112.31698130001314,112.51906750001945,1000,112.51906750001945,1000,1000,1000,1000,0,num_3,0.4017807999625802,,35,11,2026-03-13_14h18.08.262,2026A_exp2,2022.2.4,59.897276128383744,
1,0,0.0,0.0,1,0,20,20,66,,,,,112.95090689999051,113.60166439996101,113.60166439996101,114.08604869991541,45,45,114.08604869991541,114.08604869991541,114.08604869991541,114.08604869991541,114.08604869991541,114.08604869991541,114.08604869991541,114.08604869991541,114.08604869991541,114.4525055999402,114.4525055999402,114.4525055999402,114.4525055999402,114.4525055999402,114.4525055999402,114.4525055999402,114.4525055999402,114.4525055999402,23,0,,,114.4525055999402,114.65252640005201,0.0,114.65252640005201,0,0.0,0,1,1000,num_1,0.4286341997794807,,35,11,2026-03-13_14h18.08.262,2026A_exp2,2022.2.4,59.897276128383744,
1000,1,0.0,0.0,0,0,21,21,69,,,,,115.1029115000274,115.75377109996043,115.75377109996043,116.25483240000904,315,315,116.25483240000904,116.25483240000904,116.25483240000904,116.25483240000904,116.25483240000904,116.25483240000904,116.25483240000904,116.25483240000904,116.25483240000904,116.6046676998958,116.6046676998958,116.6046676998958,116.6046676998958,116.6046676998958,116.6046676998958,116.6046676998958,116.6046676998958,116.6046676998958,22,0,,,116.6046676998958,116.80667610000819,1000,116.80667610000819,1000,1000,1000,1000,0,num_3,0.2815821000840515,,35,11,2026-03-13_14h18.08.262,2026A_exp2,2022.2.4,59.897276128383744,
1000,1,6.1,0.0,1,0,22,22,60,,,,,117.10516520007513,117.75579139986075,117.75579139986075,118.25680209998973,45,315,118.25680209998973,118.25680209998973,118.25680209998973,118.25680209998973,118.25680209998973,118.25680209998973,118.25680209998973,118.25680209998973,118.25680209998973,118.62339049996808,118.62339049996808,118.62339049996808,118.62339049996808,118.62339049996808,118.62339049996808,118.62339049996808,118.62339049996808,118.62339049996808,23,0,,,118.62339049996808,118.82525220001116,1000,118.82525220001116,1000,1000,1000,1000,0,num_3,0.4241500999778509,,35,11,2026-03-13_14h18.08.262,2026A_exp2,2022.2.4,59.897276128383744,
0,0,0.0,0.0,1,0,23,23,62,,,,,119.27463130000979,119.92459980002604,119.92459980002604,120.42579609993845,45,315,120.42579609993845,120.42579609993845,120.42579609993845,120.42579609993845,120.42579609993845,120.42579609993845,120.42579609993845,120.42579609993845,120.42579609993845,120.79208889999427,120.79208889999427,120.79208889999427,120.79208889999427,120.79208889999427,120.79208889999427,120.79208889999427,120.79208889999427,120.79208889999427,23,0,,,120.79208889999427,120.99230589997023,0.0,120.99230589997023,0,0.0,0,1,1000,num_1,0.591834899969399,,35,11,2026-03-13_14h18.08.262,2026A_exp2,2022.2.4,59.897276128383744,
0,0,0.0,4.9,1,0,24,24,56,,,,,121.60952569986694,122.26024649990723,122.26024649990723,122.76129629998468,45,45,122.76129629998468,122.76129629998468,122.76129629998468,122.76129629998468,122.76129629998468,122.76129629998468,122.76129629998468,122.76129629998468,122.76129629998468,123.11099090008065,123.11099090008065,123.11099090008065,123.11099090008065,123.11099090008065,123.11099090008065,123.11099090008065,123.11099090008065,123.11099090008065,20,1,[0.1169588000047952],[0.15028920001350343],123.11099090008065,123.31127119995654,0.0,123.31127119995654,0,0.0,0,1,1000,num_1,0.7527936000842601,,35,11,2026-03-13_14h18.08.262,2026A_exp2,2022.2.4,59.897276128383744,
1,0,6.1,0.0,1,0,25,25,13,,,,,124.09530419996008,124.74601059989072,124.74601059989072,125.23028649995103,315,315,125.23028649995103,125.23028649995103,125.23028649995103,125.23028649995103,125.23028649995103,125.23028649995103,125.23028649995103,125.23028649995103,125.23028649995103,125.59696949995123,125.59696949995123,125.59696949995123,125.59696949995123,125.59696949995123,125.59696949995123,125.59696949995123,125.59696949995123,125.59696949995123,23,0,,,125.59696949995123,125.79704490001313,0.0,125.79704490001313,0,0.0,0,1,1000,num_1,0.9799077999778092,,35,11,2026-03-13_14h18.08.262,2026A_exp2,2022.2.4,59.897276128383744,
1000,1,4.9,4.9,0,0,26,26,31,,,,,126.79797889990732,127.4487916000653,127.4487916000653,127.93310780008323,315,315,127.93310780008323,127.93310780008323,127.93310780008323,127.93310780008323,127.93310780008323,127.93310780008323,127.93310780008323,127.93310780008323,127.93310780008323,128.2995957999956,128.2995957999956,128.2995957999956,128.2995957999956,128.2995957999956,128.2995957999956,128.2995957999956,128.2995957999956,128.2995957999956,23,0,,,128.2995957999956,128.5016737000551,1000,128.5016737000551,1000,1000,1000,1000,0,num_3,0.3150251000188291,,35,11,2026-03-13_14h18.08.262,2026A_exp2,2022.2.4,59.897276128383744,
1,0,4.9,6.1,1,0,27,27,86,,,,,128.8334411000833,129.48415610007942,129.48415610007942,129.98529240000062,45,45,129.98529240000062,129.98529240000062,129.98529240000062,129.98529240000062,129.98529240000062,129.98529240000062,129.98529240000062,129.98529240000062,129.98529240000062,130.35165679990314,130.35165679990314,130.35165679990314,130.35165679990314,130.35165679990314,130.35165679990314,130.35165679990314,130.35165679990314,130.35165679990314,23,0,,,130.35165679990314,130.55191210005432,6.1,130.55191210005432,0,6.1,1,0,1000,num_1,0.4010528000071645,,35,11,2026-03-13_14h18.08.262,2026A_exp2,2022.2.4,59.897276128383744,
1000,1,4.9,3.7,1,0,28,28,32,,,,,130.9688544999808,131.61969559988938,131.61969559988938,132.10394240007736,45,315,132.10394240007736,132.10394240007736,132.10394240007736,132.10394240007736,132.10394240007736,132.10394240007736,132.10394240007736,132.10394240007736,132.10394240007736,132.4704694999382,132.4704694999382,132.4704694999382,132.4704694999382,132.4704694999382,132.4704694999382,132.4704694999382,132.4704694999382,132.4704694999382,19,4,"[0.0999397998675704, 0.14974229992367327, 0.21616369998082519, 0.29991689999587834]","[0.11667330004274845, 0.1662794000003487, 0.23316280008293688, 0.3166076000779867]",132.4704694999382,132.67259149998426,1000,132.67259149998426,1000,1000,1000,1000,0,num_3,0.4406060001347214,,35,11,2026-03-13_14h18.08.262,2026A_exp2,2022.2.4,59.897276128383744,
1,0,0.0,4.9,0,0,29,29,71,,,,,133.13769349991344,133.78853509994224,133.78853509994224,134.28951360005885,315,315,134.28951360005885,134.28951360005885,134.28951360005885,134.28951360005885,134.28951360005885,134.28951360005885,134.28951360005885,134.28951360005885,134.28951360005885,134.6559846000746,134.6559846000746,134.6559846000746,134.6559846000746,134.6559846000746,134.6559846000746,134.6559846000746,134.6559846000746,134.6559846000746,0,1,[0.0012461000587791204],[0.3669663001783192],134.6559846000746,134.856048299931,0.0,134.856048299931,0,0.0,0,1,1000,num_1,0.5291965000797063,,35,11,2026-03-13_14h18.08.262,2026A_exp2,2022.2.4,59.897276128383744,
1000,1,0.0,3.7,1,0,30,30,80,,,,,135.40667549986392,136.0574151999317,136.0574151999317,136.5585868000053,315,45,136.5585868000053,136.5585868000053,136.5585868000053,136.5585868000053,136.5585868000053,136.5585868000053,136.5585868000053,136.5585868000053,136.5585868000053,136.90826980001293,136.90826980001293,136.90826980001293,136.90826980001293,136.90826980001293,136.90826980001293,136.90826980001293,136.90826980001293,136.90826980001293,22,0,,,136.90826980001293,137.11074690008536,1000,137.11074690008536,1000,1000,1000,1000,1,num_2,0.35385289997793734,,35,11,2026-03-13_14h18.08.262,2026A_exp2,2022.2.4,59.897276128383744,
1,0,4.9,0.0,1,0,31,31,4,,,,,137.49204799998552,138.14277680008672,138.14277680008672,138.6440125000663,315,45,138.6440125000663,138.6440125000663,138.6440125000663,138.6440125000663,138.6440125000663,138.6440125000663,138.6440125000663,138.6440125000663,138.6440125000663,139.01032699993812,139.01032699993812,139.01032699993812,139.01032699993812,139.01032699993812,139.01032699993812,139.01032699993812,139.01032699993812,139.01032699993812,1,1,[0.001209900015965104],[0.3670171999838203],139.01032699993812,139.2105511999689,0.0,139.2105511999689,0,0.0,0,1,1000,num_1,0.5822493000887334,,35,11,2026-03-13_14h18.08.262,2026A_exp2,2022.2.4,59.897276128383744,
1000,1,0.0,0.0,0,0,32,32,20,,,,,139.8109152999241,140.46183899999596,140.46183899999596,140.94627409987152,315,45,140.94627409987152,140.94627409987152,140.94627409987152,140.94627409987152,140.94627409987152,140.94627409987152,140.94627409987152,140.94627409987152,140.94627409987152,141.3124825998675,141.3124825998675,141.3124825998675,141.3124825998675,141.3124825998675,141.3124825998675,141.3124825998675,141.3124825998675,141.3124825998675,23,0,,,141.3124825998675,141.51480489992537,1000,141.51480489992537,1000,1000,1000,1000,1,num_2,0.46235339995473623,,35,11,2026-03-13_14h18.08.262,2026A_exp2,2022.2.4,59.897276128383744,
1,0,0.0,3.7,0,0,33,33,78,,,,,141.99664029991254,142.64741969993338,142.64741969993338,143.14847510005347,315,315,143.14847510005347,143.14847510005347,143.14847510005347,143.14847510005347,143.14847510005347,143.14847510005347,143.14847510005347,143.14847510005347,143.14847510005347,143.51496340008453,143.51496340008453,143.51496340008453,143.51496340008453,143.51496340008453,143.51496340008453,143.51496340008453,143.51496340008453,143.51496340008453,12,2,"[0.18379150005057454, 0.25048269983381033]","[0.23612149991095066, 0.3671728998888284]",143.51496340008453,143.71504650008865,0.0,143.71504650008865,0,0.0,0,1,1000,num_1,0.813501900061965,,35,11,2026-03-13_14h18.08.262,2026A_exp2,2022.2.4,59.897276128383744,
1,0,0.0,0.0,0,0,34,34,49,,,,,144.54916039993986,145.1998427999206,145.1998427999206,145.68427049997263,315,315,145.68427049997263,145.68427049997263,145.68427049997263,145.68427049997263,145.68427049997263,145.68427049997263,145.68427049997263,145.68427049997263,145.68427049997263,146.0504872999154,146.0504872999154,146.0504872999154,146.0504872999154,146.0504872999154,146.0504872999154,146.0504872999154,146.0504872999154,146.0504872999154,0,1,[0.00119750015437603],[0.3664922001771629],146.0504872999154,146.25097259995528,0.0,146.25097259995528,0,0.0,0,1,1000,num_1,0.35006430000066757,,35,11,2026-03-13_14h18.08.262,2026A_exp2,2022.2.4,59.897276128383744,
1000,1,0.0,0.0,1,0,35,35,7,,,,,146.61783530004323,147.26854750001803,147.26854750001803,147.75307249999605,315,315,147.75307249999605,147.75307249999605,147.75307249999605,147.75307249999605,147.75307249999605,147.75307249999605,147.75307249999605,147.75307249999605,147.75307249999605,148.11918110004626,148.11918110004626,148.11918110004626,148.11918110004626,148.11918110004626,148.11918110004626,148.11918110004626,148.11918110004626,148.11918110004626,20,3,"[0.0012382999993860722, 0.06686190003529191, 0.11649960000067949]","[0.01742690009996295, 0.08365340018644929, 0.1336006000638008]",148.11918110004626,148.32178679993376,1000,148.32178679993376,1000,1000,1000,1000,1,num_2,0.6390557999256998,,35,11,2026-03-13_14h18.08.262,2026A_exp2,2022.2.4,59.897276128383744,
1,0,0.0,4.9,0,0,36,36,85,,,,,148.9868594999425,149.63774939998984,149.63774939998984,150.13866519997828,45,45,150.13866519997828,150.13866519997828,150.13866519997828,150.13866519997828,150.13866519997828,150.13866519997828,150.13866519997828,150.13866519997828,150.13866519997828,150.50518169999123,150.50518169999123,150.50518169999123,150.50518169999123,150.50518169999123,150.50518169999123,150.50518169999123,150.50518169999123,150.50518169999123,22,1,[0.09953049989417195],[0.11655809986405075],150.50518169999123,150.70531879994087,0.0,150.70531879994087,0,0.0,0,1,1000,num_1,0.9427785999141634,,35,11,2026-03-13_14h18.08.262,2026A_exp2,2022.2.4,59.897276128383744,
1,0,0.0,3.7,0,0,37,37,12,,,,,151.67308099986985,152.32384900003672,152.32384900003672,152.80814390000887,315,45,152.80814390000887,152.80814390000887,152.80814390000887,152.80814390000887,152.80814390000887,152.80814390000887,152.80814390000887,152.80814390000887,152.80814390000887,153.1744915000163,153.1744915000163,153.1744915000163,153.1744915000163,153.1744915000163,153.1744915000163,153.1744915000163,153.1744915000163,153.1744915000163,23,0,,,153.1744915000163,153.3745699999854,0.0,153.3745699999854,0,0.0,0,1,1000,num_1,0.49050870002247393,,35,11,2026-03-13_14h18.08.262,2026A_exp2,2022.2.4,59.897276128383744,
1,0,0.0,0.0,1,0,38,38,41,,,,,153.8918008999899,154.55439479998313,154.55439479998313,155.0291744999122,315,45,155.0291744999122,155.0291744999122,155.0291744999122,155.0291744999122,155.0291744999122,155.0291744999122,155.0291744999122,155.0291744999122,155.0291744999122,155.3932916999329,155.3932916999329,155.3932916999329,155.3932916999329,155.3932916999329,155.3932916999329,155.3932916999329,155.3932916999329,155.3932916999329,23,0,,,155.3932916999329,155.59352370002307,0.0,155.59352370002307,0,0.0,0,1,1000,num_1,0.8067900999449193,,35,11,2026-03-13_14h18.08.262,2026A_exp2,2022.2.4,59.897276128383744,
1000,1,0.0,4.9,1,0,39,39,51,,,,,156.42769209994003,157.078254400054,157.078254400054,157.5628492999822,45,45,157.5628492999822,157.5628492999822,157.5628492999822,157.5628492999822,157.5628492999822,157.5628492999822,157.5628492999822,157.5628492999822,157.5628492999822,157.92922789999284,157.92922789999284,157.92922789999284,157.92922789999284,157.92922789999284,157.92922789999284,157.92922789999284,157.92922789999284,157.92922789999284,22,1,[0.08328819996677339],[0.10015870002098382],157.92922789999284,158.1312118000351,1000,158.1312118000351,1000,1000,1000,1000,0,num_3,0.4859384000301361,,35,11,2026-03-13_14h18.08.262,2026A_exp2,2022.2.4,59.897276128383744,
1,0,0.0,4.9,1,0,40,40,45,,,,,158.6465391998645,159.2973714999389,159.2973714999389,159.79836119990796,45,45,159.79836119990796,159.79836119990796,159.79836119990796,159.79836119990796,159.79836119990796,159.79836119990796,159.79836119990796,159.79836119990796,159.79836119990796,160.16484549990855,160.16484549990855,160.16484549990855,160.16484549990855,160.16484549990855,160.16484549990855,160.16484549990855,160.16484549990855,160.16484549990855,23,0,,,160.16484549990855,160.36499939998612,4.9,160.36499939998612,0,4.9,1,0,1000,num_1,0.43547340016812086,,35,11,2026-03-13_14h18.08.262,2026A_exp2,2022.2.4,59.897276128383744,
0,0,4.9,0.0,0,0,41,41,30,,,,,160.83206219994463,161.48276180005632,161.48276180005632,161.96725909993984,45,45,161.96725909993984,161.96725909993984,161.96725909993984,161.96725909993984,161.96725909993984,161.96725909993984,161.96725909993984,161.96725909993984,161.96725909993984,162.33356789988466,162.33356789988466,162.33356789988466,162.33356789988466,162.33356789988466,162.33356789988466,162.33356789988466,162.33356789988466,162.33356789988466,23,0,,,162.33356789988466,162.53397529991344,0.0,162.53397529991344,0,0.0,0,1,1000,num_1,0.49852470005862415,,35,11,2026-03-13_14h18.08.262,2026A_exp2,2022.2.4,59.897276128383744,
1,0,0.0,4.9,0,0,42,42,17,,,,,163.05094649991952,163.7013363998849,163.7013363998849,164.18616640008986,45,45,164.18616640008986,164.18616640008986,164.18616640008986,164.18616640008986,164.18616640008986,164.18616640008986,164.18616640008986,164.18616640008986,164.18616640008986,164.55248950002715,164.55248950002715,164.55248950002715,164.55248950002715,164.55248950002715,164.55248950002715,164.55248950002715,164.55248950002715,164.55248950002715,23,0,,,164.55248950002715,164.7526288998779,0.0,164.7526288998779,0,0.0,0,1,1000,num_1,0.5114517000038177,,35,11,2026-03-13_14h18.08.262,2026A_exp2,2022.2.4,59.897276128383744,
1000,1,3.7,3.7,1,0,43,43,40,,,,,165.2868411000818,165.9205956000369,165.9205956000369,166.42172980005853,315,315,166.42172980005853,166.42172980005853,166.42172980005853,166.42172980005853,166.42172980005853,166.42172980005853,166.42172980005853,166.42172980005853,166.42172980005853,166.78798560006544,166.78798560006544,166.78798560006544,166.78798560006544,166.78798560006544,166.78798560006544,166.78798560006544,166.78798560006544,166.78798560006544,20,2,"[0.06681460002437234, 0.28361320006661117]","[0.10019340016879141, 0.29982360010035336]",166.78798560006544,167.0120890000835,1000,167.0120890000835,1000,1000,1000,1000,0,num_3,0.3649275000207126,,35,11,2026-03-13_14h18.08.262,2026A_exp2,2022.2.4,59.897276128383744,
1000,1,0.0,4.9,0,0,44,44,11,,,,,167.40540169994347,168.05600890005007,168.05600890005007,168.55705940001644,45,45,168.55705940001644,168.55705940001644,168.55705940001644,168.55705940001644,168.55705940001644,168.55705940001644,168.55705940001644,168.55705940001644,168.55705940001644,168.92359409993514,168.92359409993514,168.92359409993514,168.92359409993514,168.92359409993514,168.92359409993514,168.92359409993514,168.92359409993514,168.92359409993514,17,2,"[0.1504426000174135, 0.2668896000832319]","[0.21681150002405047, 0.3002585000358522]",168.92359409993514,169.12558380002156,1000,169.12558380002156,1000,1000,1000,1000,1,num_2,0.8909918998833746,,35,11,2026-03-13_14h18.08.262,2026A_exp2,2022.2.4,59.897276128383744,
1,0,4.9,4.9,1,0,45,45,89,,,,,170.04118359996937,170.69198030000553,170.69198030000553,171.19314290001057,45,45,171.19314290001057,171.19314290001057,171.19314290001057,171.19314290001057,171.19314290001057,171.19314290001057,171.19314290001057,171.19314290001057,171.19314290001057,171.55953929992393,171.55953929992393,171.55953929992393,171.55953929992393,171.55953929992393,171.55953929992393,171.55953929992393,171.55953929992393,171.55953929992393,7,1,[0.001202999847009778],[0.26710339984856546],171.55953929992393,171.75972249987535,4.9,171.75972249987535,0,4.9,1,0,1000,num_1,0.5616827001795173,,35,11,2026-03-13_14h18.08.262,2026A_exp2,2022.2.4,59.897276128383744,
1,0,3.7,0.0,1,0,46,46,74,,,,,172.34369940008037,172.99430319992825,172.99430319992825,173.47879249998368,315,45,173.47879249998368,173.47879249998368,173.47879249998368,173.47879249998368,173.47879249998368,173.47879249998368,173.47879249998368,173.47879249998368,173.47879249998368,173.84519969997928,173.84519969997928,173.84519969997928,173.84519969997928,173.84519969997928,173.84519969997928,173.84519969997928,173.84519969997928,173.84519969997928,1,2,"[0.0011595000978559256, 0.23387419991195202]","[0.21710869995877147, 0.3674234999343753]",173.84519969997928,174.04535929998383,0.0,174.04535929998383,0,0.0,0,1,1000,num_1,0.6120422000531107,,35,11,2026-03-13_14h18.08.262,2026A_exp2,2022.2.4,59.897276128383744,
1,0,0.0,0.0,1,0,47,47,18,,,,,174.6792637000326,175.33074799994938,175.33074799994938,175.81446789996698,45,45,175.81446789996698,175.81446789996698,175.81446789996698,175.81446789996698,175.81446789996698,175.81446789996698,175.81446789996698,175.81446789996698,175.81446789996698,176.1808567000553,176.1808567000553,176.1808567000553,176.1808567000553,176.1808567000553,176.1808567000553,176.1808567000553,176.1808567000553,176.1808567000553,5,6,"[0.0012238000053912401, 0.06696159997954965, 0.18367090006358922, 0.23374369996599853, 0.2837143000215292, 0.3172562001273036]","[0.05025430000387132, 0.166854000184685, 0.21699220011942089, 0.2671236000023782, 0.30059770005755126, 0.3671679999679327]",176.1808567000553,176.38112009991892,0.0,176.38112009991892,0,0.0,0,1,1000,num_1,0.45973380003124475,,35,11,2026-03-13_14h18.08.262,2026A_exp2,2022.2.4,59.897276128383744,
1000,1,4.9,6.1,1,0,48,48,1,,,,,176.8646793998778,177.51552350004204,177.51552350004204,178.0164977000095,315,315,178.0164977000095,178.0164977000095,178.0164977000095,178.0164977000095,178.0164977000095,178.0164977000095,178.0164977000095,178.0164977000095,178.0164977000095,178.36639719991945,178.36639719991945,178.36639719991945,178.36639719991945,178.36639719991945,178.36639719991945,178.36639719991945,178.36639719991945,178.36639719991945,0,1,[0.0013001000043004751],[0.35088689997792244],178.36639719991945,178.5682423999533,1000,178.5682423999533,1000,1000,1000,1000,0,num_3,0.376529699889943,,35,11,2026-03-13_14h18.08.262,2026A_exp2,2022.2.4,59.897276128383744,
1,0,0.0,0.0,1,0,49,49,70,,,,,178.9668544998858,179.6193550999742,179.6193550999742,180.1186518999748,315,315,180.1186518999748,180.1186518999748,180.1186518999748,180.1186518999748,180.1186518999748,180.1186518999748,180.1186518999748,180.1186518999748,180.1186518999748,180.48521899990737,180.48521899990737,180.48521899990737,180.48521899990737,180.48521899990737,180.48521899990737,180.48521899990737,180.48521899990737,180.48521899990737,0,1,[0.0013121000956743956],[0.3676861999556422],180.48521899990737,180.68525779992342,0.0,180.68525779992342,0,0.0,0,1,1000,num_1,0.37072360003367066,,35,11,2026-03-13_14h18.08.262,2026A_exp2,2022.2.4,59.897276128383744,
1000,1,6.1,4.9,1,0,50,50,16,,,,,181.08555780001916,181.7364403998945,181.7364403998945,182.23739290004596,315,315,182.23739290004596,182.23739290004596,182.23739290004596,182.23739290004596,182.23739290004596,182.23739290004596,182.23739290004596,182.23739290004596,182.23739290004596,182.60363909997977,182.60363909997977,182.60363909997977,182.60363909997977,182.60363909997977,182.60363909997977,182.60363909997977,182.60363909997977,182.60363909997977,1,2,"[0.0012186001986265182, 0.33370050019584596]","[0.31721770018339157, 0.36700810003094375]",182.60363909997977,182.8058964998927,1000,182.8058964998927,1000,1000,1000,1000,1,num_2,0.5387144000269473,,35,11,2026-03-13_14h18.08.262,2026A_exp2,2022.2.4,59.897276128383744,
0,0,3.7,4.9,1,0,51,51,3,,,,,183.37141859997064,184.02204680000432,184.02204680000432,184.52305509988219,315,315,184.52305509988219,184.52305509988219,184.52305509988219,184.52305509988219,184.52305509988219,184.52305509988219,184.52305509988219,184.52305509988219,184.52305509988219,184.88939699996263,184.88939699996263,184.88939699996263,184.88939699996263,184.88939699996263,184.88939699996263,184.88939699996263,184.88939699996263,184.88939699996263,0,1,[0.0012028999626636505],[0.36726749991066754],184.88939699996263,185.0896139999386,3.7,185.0896139999386,0,3.7,1,0,1000,num_1,0.5596465999260545,,35,11,2026-03-13_14h18.08.262,2026A_exp2,2022.2.4,59.897276128383744,
1000,1,6.1,3.7,1,0,52,52,10,,,,,185.67368360003456,186.3243658998981,186.3243658998981,186.8087086000014,45,45,186.8087086000014,186.8087086000014,186.8087086000014,186.8087086000014,186.8087086000014,186.8087086000014,186.8087086000014,186.8087086000014,186.8087086000014,187.17511969991028,187.17511969991028,187.17511969991028,187.17511969991028,187.17511969991028,187.17511969991028,187.17511969991028,187.17511969991028,187.17511969991028,0,1,[0.0012425999157130718],[0.3672084999270737],187.17511969991028,187.37709890003316,1000,187.37709890003316,1000,1000,1000,1000,0,num_3,0.3992691000457853,,35,11,2026-03-13_14h18.08.262,2026A_exp2,2022.2.4,59.897276128383744,
1,0,4.9,4.9,0,0,53,53,63,,,,,187.7923993000295,188.44313240004703,188.44313240004703,188.94414649996907,45,45,188.94414649996907,188.94414649996907,188.94414649996907,188.94414649996907,188.94414649996907,188.94414649996907,188.94414649996907,188.94414649996907,188.94414649996907,189.31068070000038,189.31068070000038,189.31068070000038,189.31068070000038,189.31068070000038,189.31068070000038,189.31068070000038,189.31068070000038,189.31068070000038,8,4,"[0.0012957998551428318, 0.1834072999190539, 0.2502959000412375, 0.3170954999513924]","[0.16694199992343783, 0.2171912998892367, 0.283793400041759, 0.3337534999009222]",189.31068070000038,189.51079500000924,4.9,189.51079500000924,0,4.9,1,0,1000,num_1,1.2655307000968605,,35,11,2026-03-13_14h18.08.262,2026A_exp2,2022.2.4,59.897276128383744,
0,0,0.0,0.0,1,0,54,54,8,,,,,190.7954947000835,191.4461228,191.4461228,191.93057089997455,45,315,191.93057089997455,191.93057089997455,191.93057089997455,191.93057089997455,191.93057089997455,191.93057089997455,191.93057089997455,191.93057089997455,191.93057089997455,192.29699820000678,192.29699820000678,192.29699820000678,192.29699820000678,192.29699820000678,192.29699820000678,192.29699820000678,192.29699820000678,192.29699820000678,4,5,"[0.0012353998608887196, 0.050262799952179193, 0.13357289996929467, 0.2838315998669714, 0.3171099000610411]","[0.033525099977850914, 0.11701609985902905, 0.26716619986109436, 0.300511899869889, 0.367211899952963]",192.29699820000678,192.4971421000082,0.0,192.4971421000082,1,0.0,0,0,1000,num_4,0.7911563999950886,,35,11,2026-03-13_14h18.08.262,2026A_exp2,2022.2.4,59.897276128383744,
1000,1,6.1,4.9,1,0,55,55,53,,,,,193.31452489993535,193.96518020005897,193.96518020005897,194.4497656999156,45,315,194.4497656999156,194.4497656999156,194.4497656999156,194.4497656999156,194.4497656999156,194.4497656999156,194.4497656999156,194.4497656999156,194.4497656999156,194.8161808999721,194.8161808999721,194.8161808999721,194.8161808999721,194.8161808999721,194.8161808999721,194.8161808999721,194.8161808999721,194.8161808999721,2,3,"[0.001053099986165762, 0.05006489995867014, 0.23376689990982413]","[0.03344390005804598, 0.21708249999210238, 0.36736469995230436]",194.8161808999721,195.0183612999972,1000,195.0183612999972,1000,1000,1000,1000,0,num_3,0.5339897000230849,,35,11,2026-03-13_14h18.08.262,2026A_exp2,2022.2.4,59.897276128383744,
1000,1,6.1,3.7,1,0,56,56,0,,,,,195.5835249000229,196.21753489994444,196.21753489994444,196.71870939992368,45,45,196.71870939992368,196.71870939992368,196.71870939992368,196.71870939992368,196.71870939992368,196.71870939992368,196.71870939992368,196.71870939992368,196.71870939992368,197.0850825998932,197.0850825998932,197.0850825998932,197.0850825998932,197.0850825998932,197.0850825998932,197.0850825998932,197.0850825998932,197.0850825998932,1,2,"[0.0013400001917034388, 0.23379950015805662]","[0.21712699998170137, 0.3671985000837594]",197.0850825998932,197.28726359992288,1000,197.28726359992288,1000,1000,1000,1000,0,num_3,0.43276050011627376,,35,11,2026-03-13_14h18.08.262,2026A_exp2,2022.2.4,59.897276128383744,
1,0,0.0,6.1,0,0,57,57,68,,,,,197.7356887999922,198.38638719986193,198.38638719986193,198.88751289993525,315,315,198.88751289993525,198.88751289993525,198.88751289993525,198.88751289993525,198.88751289993525,198.88751289993525,198.88751289993525,198.88751289993525,198.88751289993525,199.25379269989207,199.25379269989207,199.25379269989207,199.25379269989207,199.25379269989207,199.25379269989207,199.25379269989207,199.25379269989207,199.25379269989207,0,1,[0.0012215999886393547],[0.36696420004591346],199.25379269989207,199.4541964000091,0.0,199.4541964000091,0,0.0,0,1,1000,num_1,0.5703686999622732,,35,11,2026-03-13_14h18.08.262,2026A_exp2,2022.2.4,59.897276128383744,
1000,1,0.0,4.9,1,0,58,58,27,,,,,200.05482840002514,200.6887010000646,200.6887010000646,201.1898232998792,315,45,201.1898232998792,201.1898232998792,201.1898232998792,201.1898232998792,201.1898232998792,201.1898232998792,201.1898232998792,201.1898232998792,201.1898232998792,201.55613899999298,201.55613899999298,201.55613899999298,201.55613899999298,201.55613899999298,201.55613899999298,201.55613899999298,201.55613899999298,201.55613899999298,13,4,"[0.0012314999476075172, 0.10012469999492168, 0.2169554999563843, 0.2503762999549508]","[0.05037979991175234, 0.1501978999003768, 0.2335846999194473, 0.3002522001042962]",201.55613899999298,201.75812890008092,1000,201.75812890008092,1000,1000,1000,1000,0,num_3,0.3232988000381738,,35,11,2026-03-13_14h18.08.262,2026A_exp2,2022.2.4,59.897276128383744,
1000,1,0.0,4.9,0,0,59,59,77,,,,,202.10696089989506,202.75733039993793,202.75733039993793,203.25858929986134,45,45,203.25858929986134,203.25858929986134,203.25858929986134,203.25858929986134,203.25858929986134,203.25858929986134,203.25858929986134,203.25858929986134,203.25858929986134,203.60823330003768,203.60823330003768,203.60823330003768,203.60823330003768,203.60823330003768,203.60823330003768,203.60823330003768,203.60823330003768,203.60823330003768,22,0,,,203.60823330003768,203.81192680005915,1000,203.81192680005915,1000,1000,1000,1000,1,num_2,0.5089231000747532,,35,11,2026-03-13_14h18.08.262,2026A_exp2,2022.2.4,59.897276128383744,
1000,1,0.0,0.0,1,0,60,60,29,,,,,204.34229409997351,204.9929792000912,204.9929792000912,205.49414959992282,315,45,205.49414959992282,205.49414959992282,205.49414959992282,205.49414959992282,205.49414959992282,205.49414959992282,205.49414959992282,205.49414959992282,205.49414959992282,205.86057280004025,205.86057280004025,205.86057280004025,205.86057280004025,205.86057280004025,205.86057280004025,205.86057280004025,205.86057280004025,205.86057280004025,16,4,"[0.00128729990683496, 0.11641020001843572, 0.1669325998518616, 0.2835189998149872]","[0.03347209980711341, 0.14955600001849234, 0.18354799994267523, 0.3170224998611957]",205.86057280004025,206.06246499996632,1000,206.06246499996632,1000,1000,1000,1000,1,num_2,0.6268875000532717,,35,11,2026-03-13_14h18.08.262,2026A_exp2,2022.2.4,59.897276128383744,
1000,1,4.9,4.9,0,0,61,61,42,,,,,206.7113485999871,207.36206539999694,207.36206539999694,207.8630955000408,315,315,207.8630955000408,207.8630955000408,207.8630955000408,207.8630955000408,207.8630955000408,207.8630955000408,207.8630955000408,207.8630955000408,207.8630955000408,208.22934619989246,208.22934619989246,208.22934619989246,208.22934619989246,208.22934619989246,208.22934619989246,208.22934619989246,208.22934619989246,208.22934619989246,12,5,"[0.0012107999064028263, 0.033556299982592463, 0.15026820008642972, 0.2003663000650704, 0.3504162998870015]","[0.017292100004851818, 0.13372289994731545, 0.18369359988719225, 0.21715219994075596, 0.36702949996106327]",208.22934619989246,208.43199549987912,1000,208.43199549987912,1000,1000,1000,1000,0,num_3,0.4163967000786215,,35,11,2026-03-13_14h18.08.262,2026A_exp2,2022.2.4,59.897276128383744,
1,0,6.1,0.0,0,0,62,62,50,,,,,208.86347489990294,209.51413529994898,209.51413529994898,210.01533719990402,315,45,210.01533719990402,210.01533719990402,210.01533719990402,210.01533719990402,210.01533719990402,210.01533719990402,210.01533719990402,210.01533719990402,210.01533719990402,210.3816825998947,210.3816825998947,210.3816825998947,210.3816825998947,210.3816825998947,210.3816825998947,210.3816825998947,210.3816825998947,210.3816825998947,10,6,"[0.0011970000341534615, 0.06706560007296503, 0.10037419991567731, 0.1672382999677211, 0.28388980007730424, 0.35038119996897876]","[0.01753630000166595, 0.08366569993086159, 0.11713350005447865, 0.2672931000124663, 0.33381260000169277, 0.3671637000516057]",210.3816825998947,210.58174100006,6.1,210.58174100006,1,6.1,1,1,1000,num_4,0.8508705000858754,,35,11,2026-03-13_14h18.08.262,2026A_exp2,2022.2.4,59.897276128383744,
1,0,0.0,0.0,0,0,63,63,81,,,,,211.44944190001115,212.1000923998654,212.1000923998654,212.6010378000792,45,315,212.6010378000792,212.6010378000792,212.6010378000792,212.6010378000792,212.6010378000792,212.6010378000792,212.6010378000792,212.6010378000792,212.6010378000792,212.96772289997898,212.96772289997898,212.96772289997898,212.96772289997898,212.96772289997898,212.96772289997898,212.96772289997898,212.96772289997898,212.96772289997898,23,0,,,212.96772289997898,213.16771920002066,0.0,213.16771920002066,0,0.0,0,1,1000,num_1,0.6012754000257701,,35,11,2026-03-13_14h18.08.262,2026A_exp2,2022.2.4,59.897276128383744,
1000,1,6.1,0.0,0,0,64,64,19,,,,,213.78503929986618,214.43572579999454,214.43572579999454,214.92013940005563,45,315,214.92013940005563,214.92013940005563,214.92013940005563,214.92013940005563,214.92013940005563,214.92013940005563,214.92013940005563,214.92013940005563,214.92013940005563,215.28656519996002,215.28656519996002,215.28656519996002,215.28656519996002,215.28656519996002,215.28656519996002,215.28656519996002,215.28656519996002,215.28656519996002,23,0,,,215.28656519996002,215.4888047000859,1000,215.4888047000859,1000,1000,1000,1000,0,num_3,0.3990507998969406,,35,11,2026-03-13_14h18.08.262,2026A_exp2,2022.2.4,59.897276128383744,
1,0,0.0,0.0,0,0,65,65,2,,,,,215.90416739997454,216.5543968998827,216.5543968998827,217.05571019998752,315,45,217.05571019998752,217.05571019998752,217.05571019998752,217.05571019998752,217.05571019998752,217.05571019998752,217.05571019998752,217.05571019998752,217.05571019998752,217.4219869999215,217.4219869999215,217.4219869999215,217.4219869999215,217.4219869999215,217.4219869999215,217.4219869999215,217.4219869999215,217.4219869999215,23,0,,,217.4219869999215,217.62232399987988,0.0,217.62232399987988,0,0.0,0,1,1000,num_1,0.593808899866417,,35,11,2026-03-13_14h18.08.262,2026A_exp2,2022.2.4,59.897276128383744,
1000,1,0.0,6.1,1,0,66,66,88,,,,,218.23951829993166,218.8902594000101,218.8902594000101,219.37468519993126,45,315,219.37468519993126,219.37468519993126,219.37468519993126,219.37468519993126,219.37468519993126,219.37468519993126,219.37468519993126,219.37468519993126,219.37468519993126,219.74107369990088,219.74107369990088,219.74107369990088,219.74107369990088,219.74107369990088,219.74107369990088,219.74107369990088,219.74107369990088,219.74107369990088,23,0,,,219.74107369990088,219.94321589986794,1000,219.94321589986794,1000,1000,1000,1000,1,num_2,0.5455430001020432,,35,11,2026-03-13_14h18.08.262,2026A_exp2,2022.2.4,59.897276128383744,
1000,1,4.9,3.7,1,0,67,67,67,,,,,220.50838369992562,221.15915889991447,221.15915889991447,221.6602938999422,45,315,221.6602938999422,221.6602938999422,221.6602938999422,221.6602938999422,221.6602938999422,221.6602938999422,221.6602938999422,221.6602938999422,221.6602938999422,222.0266867999453,222.0266867999453,222.0266867999453,222.0266867999453,222.0266867999453,222.0266867999453,222.0266867999453,222.0266867999453,222.0266867999453,22,1,[0.05012779985554516],[0.06683019991032779],222.0266867999453,222.229233100079,1000,222.229233100079,1000,1000,1000,1000,0,num_3,0.33962989994324744,,35,11,2026-03-13_14h18.08.262,2026A_exp2,2022.2.4,59.897276128383744,
1,0,4.9,0.0,1,0,68,68,6,,,,,222.59388209995814,223.24451719992794,223.24451719992794,223.7455883999355,45,45,223.7455883999355,223.7455883999355,223.7455883999355,223.7455883999355,223.7455883999355,223.7455883999355,223.7455883999355,223.7455883999355,223.7455883999355,224.09545730007812,224.09545730007812,224.09545730007812,224.09545730007812,224.09545730007812,224.09545730007812,224.09545730007812,224.09545730007812,224.09545730007812,22,0,,,224.09545730007812,224.29566669999622,0.0,224.31237789988518,0,0.0,0,1,1000,num_1,0.5114894001744688,,35,11,2026-03-13_14h18.08.262,2026A_exp2,2022.2.4,59.897276128383744,
1000,1,0.0,0.0,1,0,69,69,14,,,,,224.8461056998931,225.4966927000787,225.4966927000787,225.98133430001326,45,45,225.98133430001326,225.98133430001326,225.98133430001326,225.98133430001326,225.98133430001326,225.98133430001326,225.98133430001326,225.98133430001326,225.98133430001326,226.34760700003244,226.34760700003244,226.34760700003244,226.34760700003244,226.34760700003244,226.34760700003244,226.34760700003244,226.34760700003244,226.34760700003244,16,5,"[0.001001299824565649, 0.03347089979797602, 0.10028969985432923, 0.13367189979180694, 0.18380289990454912]","[0.017323799896985292, 0.08359169983305037, 0.11701759998686612, 0.1503434998448938, 0.20043460000306368]",226.34760700003244,226.54996039997786,1000,226.54996039997786,1000,1000,1000,1000,0,num_3,0.41101600020192564,,35,11,2026-03-13_14h18.08.262,2026A_exp2,2022.2.4,59.897276128383744,
1,0,0.0,0.0,1,0,70,70,43,,,,,226.98156980006024,227.6322916999925,227.6322916999925,228.13327939994633,45,45,228.13327939994633,228.13327939994633,228.13327939994633,228.13327939994633,228.13327939994633,228.13327939994633,228.13327939994633,228.13327939994633,228.13327939994633,228.49985740007833,228.49985740007833,228.49985740007833,228.49985740007833,228.49985740007833,228.49985740007833,228.49985740007833,228.49985740007833,228.49985740007833,7,5,"[0.05023719999007881, 0.16689859982579947, 0.3004761999472976, 0.3338248999789357, 0.36728310002945364]","[0.15048579988069832, 0.2838586999569088, 0.31709309993311763, 0.35049029998481274, 0.3672887999564409]",228.49985740007833,228.69998029991984,0.0,228.69998029991984,0,0.0,0,1,1000,num_1,0.8129597001243383,,35,11,2026-03-13_14h18.08.262,2026A_exp2,2022.2.4,59.897276128383744,
1000,1,0.0,0.0,0,0,71,71,65,,,,,229.53405659995042,230.18477130006067,230.18477130006067,230.66923759994097,45,45,230.66923759994097,230.66923759994097,230.66923759994097,230.66923759994097,230.66923759994097,230.66923759994097,230.66923759994097,230.66923759994097,230.66923759994097,231.03550340002403,231.03550340002403,231.03550340002403,231.03550340002403,231.03550340002403,231.03550340002403,231.03550340002403,231.03550340002403,231.03550340002403,12,4,"[0.10023260000161827, 0.18355519999749959, 0.23357499996200204, 0.3334941000211984]","[0.13369849999435246, 0.21707149990834296, 0.31662729987874627, 0.35039239982143044]",231.03550340002403,231.23768560006283,1000,231.23768560006283,1000,1000,1000,1000,0,num_3,0.3557062998879701,,35,11,2026-03-13_14h18.08.262,2026A_exp2,2022.2.4,59.897276128383744,
1,0,0.0,0.0,1,0,72,72,73,,,,,231.61950109992176,232.27022509998642,232.27022509998642,232.7714571999386,315,315,232.7714571999386,232.7714571999386,232.7714571999386,232.7714571999386,232.7714571999386,232.7714571999386,232.7714571999386,232.7714571999386,232.7714571999386,233.12215720000677,233.12215720000677,233.12215720000677,233.12215720000677,233.12215720000677,233.12215720000677,233.12215720000677,233.12215720000677,233.12215720000677,3,3,"[0.0012147000525146723, 0.26671530003659427, 0.29999929992482066]","[0.23357199993915856, 0.2833149000070989, 0.3521300998982042]",233.12215720000677,233.33784210006706,0.0,233.33784210006706,0,0.0,0,1,1000,num_1,0.5593006999697536,,35,11,2026-03-13_14h18.08.262,2026A_exp2,2022.2.4,59.897276128383744,
1000,1,0.0,3.7,0,0,73,73,52,,,,,233.9218234999571,234.57253369991668,234.57253369991668,235.05712169990875,315,45,235.05712169990875,235.05712169990875,235.05712169990875,235.05712169990875,235.05712169990875,235.05712169990875,235.05712169990875,235.05712169990875,235.05712169990875,235.42332040006295,235.42332040006295,235.42332040006295,235.42332040006295,235.42332040006295,235.42332040006295,235.42332040006295,235.42332040006295,235.42332040006295,23,0,,,235.42332040006295,235.62561249989085,1000,235.62561249989085,1000,1000,1000,1000,0,num_3,0.5507360000628978,,35,11,2026-03-13_14h18.08.262,2026A_exp2,2022.2.4,59.897276128383744,
1000,1,3.7,6.1,0,0,74,74,28,,,,,236.2074663999956,236.85808639996685,236.85808639996685,237.35929950000718,315,45,237.35929950000718,237.35929950000718,237.35929950000718,237.35929950000718,237.35929950000718,237.35929950000718,237.35929950000718,237.35929950000718,237.35929950000718,237.72561199986376,237.72561199986376,237.72561199986376,237.72561199986376,237.72561199986376,237.72561199986376,237.72561199986376,237.72561199986376,237.72561199986376,23,0,,,237.72561199986376,237.92762789991684,1000,237.92762789991684,1000,1000,1000,1000,1,num_2,0.7527932000812143,,35,11,2026-03-13_14h18.08.262,2026A_exp2,2022.2.4,59.897276128383744,
1000,1,6.1,3.7,0,0,75,75,87,,,,,238.70996770006604,239.36045129993,239.36045129993,239.86178519995883,315,45,239.86178519995883,239.86178519995883,239.86178519995883,239.86178519995883,239.86178519995883,239.86178519995883,239.86178519995883,239.86178519995883,239.86178519995883,240.2281943000853,240.2281943000853,240.2281943000853,240.2281943000853,240.2281943000853,240.2281943000853,240.2281943000853,240.2281943000853,240.2281943000853,14,1,[0.06693750014528632],[0.2330685001797974],240.2281943000853,240.43040130008012,1000,240.43040130008012,1000,1000,1000,1000,0,num_3,0.41028149984776974,,35,11,2026-03-13_14h18.08.262,2026A_exp2,2022.2.4,59.897276128383744,
0,0,0.0,3.7,1,0,76,76,21,,,,,240.86207469995134,241.5128549998626,241.5128549998626,242.01398020004854,45,45,242.01398020004854,242.01398020004854,242.01398020004854,242.01398020004854,242.01398020004854,242.01398020004854,242.01398020004854,242.01398020004854,242.01398020004854,242.38043030002154,242.38043030002154,242.38043030002154,242.38043030002154,242.38043030002154,242.38043030002154,242.38043030002154,242.38043030002154,242.38043030002154,23,0,,,242.38043030002154,242.58051440003328,0.0,242.58051440003328,0,0.0,0,1,1000,num_1,0.38821449992246926,,35,11,2026-03-13_14h18.08.262,2026A_exp2,2022.2.4,59.897276128383744,
0,0,3.7,0.0,1,0,77,77,83,,,,,242.99753910000436,243.64818849996664,243.64818849996664,244.1327833000105,45,315,244.1327833000105,244.1327833000105,244.1327833000105,244.1327833000105,244.1327833000105,244.1327833000105,244.1327833000105,244.1327833000105,244.1327833000105,244.49918020004407,244.49918020004407,244.49918020004407,244.49918020004407,244.49918020004407,244.49918020004407,244.49918020004407,244.49918020004407,244.49918020004407,23,0,,,244.49918020004407,244.69924789993092,3.7,244.69924789993092,0,3.7,1,0,1000,num_1,0.2051963999401778,,35,11,2026-03-13_14h18.08.262,2026A_exp2,2022.2.4,59.897276128383744,
1,0,0.0,0.0,0,0,78,78,9,,,,,244.932813399937,245.58385589998215,245.58385589998215,246.0680545999203,45,45,246.0680545999203,246.0680545999203,246.0680545999203,246.0680545999203,246.0680545999203,246.0680545999203,246.0680545999203,246.0680545999203,246.0680545999203,246.43447109987028,246.43447109987028,246.43447109987028,246.43447109987028,246.43447109987028,246.43447109987028,246.43447109987028,246.43447109987028,246.43447109987028,21,2,"[0.11652450007386506, 0.35011429991573095]","[0.13328350009396672, 0.36688049999065697]",246.43447109987028,246.6346750999801,0.0,246.6346750999801,0,0.0,0,1,1000,num_1,0.038057500030845404,,35,11,2026-03-13_14h18.08.262,2026A_exp2,2022.2.4,59.897276128383744,
1,0,0.0,0.0,0,0,79,79,64,,,,,246.70124830002896,247.35185729991645,247.35185729991645,247.83636859990656,315,315,247.83636859990656,247.83636859990656,247.83636859990656,247.83636859990656,247.83636859990656,247.83636859990656,247.83636859990656,247.83636859990656,247.83636859990656,248.20285689993761,248.20285689993761,248.20285689993761,248.20285689993761,248.20285689993761,248.20285689993761,248.20285689993761,248.20285689993761,248.20285689993761,23,0,,,248.20285689993761,248.40311899990775,0.0,248.40311899990775,0,0.0,0,1,1000,num_1,0.8060328999999911,,35,11,2026-03-13_14h18.08.262,2026A_exp2,2022.2.4,59.897276128383744,
1000,1,0.0,0.0,1,0,80,80,23,,,,,249.2372198998928,249.8878438998945,249.8878438998945,250.37220710003749,45,315,250.37220710003749,250.37220710003749,250.37220710003749,250.37220710003749,250.37220710003749,250.37220710003749,250.37220710003749,250.37220710003749,250.37220710003749,250.73877190006897,250.73877190006897,250.73877190006897,250.73877190006897,250.73877190006897,250.73877190006897,250.73877190006897,250.73877190006897,250.73877190006897,23,0,,,250.73877190006897,250.9406596000772,1000,250.9406596000772,1000,1000,1000,1000,0,num_3,0.6678114999085665,,35,11,2026-03-13_14h18.08.262,2026A_exp2,2022.2.4,59.897276128383744,
1000,1,4.9,0.0,0,0,81,81,22,,,,,251.63961900002323,252.2901860999409,252.2901860999409,252.7913031000644,315,45,252.7913031000644,252.7913031000644,252.7913031000644,252.7913031000644,252.7913031000644,252.7913031000644,252.7913031000644,252.7913031000644,252.7913031000644,253.157688499894,253.157688499894,253.157688499894,253.157688499894,253.157688499894,253.157688499894,253.157688499894,253.157688499894,253.157688499894,23,0,,,253.157688499894,253.3581467999611,1000,253.3581467999611,1000,1000,1000,1000,1,num_2,0.690920399967581,,35,11,2026-03-13_14h18.08.262,2026A_exp2,2022.2.4,59.897276128383744,
1,0,0.0,6.1,0,0,82,82,5,,,,,254.0754581000656,254.72603480005637,254.72603480005637,255.2271048000548,45,315,255.2271048000548,255.2271048000548,255.2271048000548,255.2271048000548,255.2271048000548,255.2271048000548,255.2271048000548,255.2271048000548,255.2271048000548,255.5767610000912,255.5767610000912,255.5767610000912,255.5767610000912,255.5767610000912,255.5767610000912,255.5767610000912,255.5767610000912,255.5767610000912,22,0,,,255.5767610000912,255.77708959998563,0.0,255.77708959998563,0,0.0,0,1,1000,num_1,0.62408860004507,,35,11,2026-03-13_14h18.08.262,2026A_exp2,2022.2.4,59.897276128383744,
1000,1,6.1,0.0,0,0,83,83,33,,,,,256.4277329000179,257.07832299987786,257.07832299987786,257.5628889000509,315,315,257.5628889000509,257.5628889000509,257.5628889000509,257.5628889000509,257.5628889000509,257.5628889000509,257.5628889000509,257.5628889000509,257.5628889000509,257.9293001999613,257.9293001999613,257.9293001999613,257.9293001999613,257.9293001999613,257.9293001999613,257.9293001999613,257.9293001999613,257.9293001999613,23,0,,,257.9293001999613,258.13024109997787,1000,258.13024109997787,1000,1000,1000,1000,0,num_3,0.5106953999493271,,35,11,2026-03-13_14h18.08.262,2026A_exp2,2022.2.4,59.897276128383744,
1000,1,0.0,0.0,1,0,84,84,47,,,,,258.66341349994764,259.31389910005964,259.31389910005964,259.81515370006673,315,315,259.81515370006673,259.81515370006673,259.81515370006673,259.81515370006673,259.81515370006673,259.81515370006673,259.81515370006673,259.81515370006673,259.81515370006673,260.18135269987397,260.18135269987397,260.18135269987397,260.18135269987397,260.18135269987397,260.18135269987397,260.18135269987397,260.18135269987397,260.18135269987397,23,0,,,260.18135269987397,260.38395490008406,1000,260.38395490008406,1000,1000,1000,1000,1,num_2,0.7769212999846786,,35,11,2026-03-13_14h18.08.262,2026A_exp2,2022.2.4,59.897276128383744,
1,0,4.9,0.0,1,0,85,85,82,,,,,261.18256279989146,261.83320049988106,261.83320049988106,262.3341200998984,315,315,262.3341200998984,262.3341200998984,262.3341200998984,262.3341200998984,262.3341200998984,262.3341200998984,262.3341200998984,262.3341200998984,262.3341200998984,262.7007081999909,262.7007081999909,262.7007081999909,262.7007081999909,262.7007081999909,262.7007081999909,262.7007081999909,262.7007081999909,262.7007081999909,16,3,"[0.21683970000594854, 0.2503364000003785, 0.30031879991292953]","[0.23366299993358552, 0.28329279995523393, 0.3670236999168992]",262.7007081999909,262.9009656000417,0.0,262.9009656000417,0,0.0,0,1,1000,num_1,0.6360365999862552,,35,11,2026-03-13_14h18.08.262,2026A_exp2,2022.2.4,59.897276128383744,
1000,1,0.0,0.0,0,0,86,86,61,,,,,263.5683567998931,264.2186076999642,264.2186076999642,264.70334040001035,315,315,264.70334040001035,264.70334040001035,264.70334040001035,264.70334040001035,264.70334040001035,264.70334040001035,264.70334040001035,264.70334040001035,264.70334040001035,265.0697661000304,265.0697661000304,265.0697661000304,265.0697661000304,265.0697661000304,265.0697661000304,265.0697661000304,265.0697661000304,265.0697661000304,22,1,[0.3003782001323998],[0.3170450001489371],265.0697661000304,265.27185079990886,1000,265.27185079990886,1000,1000,1000,1000,0,num_3,0.5042784998659045,,35,11,2026-03-13_14h18.08.262,2026A_exp2,2022.2.4,59.897276128383744,
1,0,0.0,0.0,1,0,87,87,37,,,,,265.80381800001487,266.4544977999758,266.4544977999758,266.9554546000436,45,45,266.9554546000436,266.9554546000436,266.9554546000436,266.9554546000436,266.9554546000436,266.9554546000436,266.9554546000436,266.9554546000436,266.9554546000436,267.3220088998787,267.3220088998787,267.3220088998787,267.3220088998787,267.3220088998787,267.3220088998787,267.3220088998787,267.3220088998787,267.3220088998787,16,3,"[0.0012079000007361174, 0.11705710017122328, 0.23356409999541938]","[0.03343080007471144, 0.1335010000038892, 0.3004030000884086]",267.3220088998787,267.5221172000747,0.0,267.5221172000747,0,0.0,0,1,1000,num_1,0.5349014000967145,,35,11,2026-03-13_14h18.08.262,2026A_exp2,2022.2.4,59.897276128383744,
1000,1,4.9,0.0,1,0,88,88,72,,,,,268.07280130009167,268.7233941000886,268.7233941000886,269.2245646000374,45,45,269.2245646000374,269.2245646000374,269.2245646000374,269.2245646000374,269.2245646000374,269.2245646000374,269.2245646000374,269.2245646000374,269.2245646000374,269.5741383000277,269.5741383000277,269.5741383000277,269.5741383000277,269.5741383000277,269.5741383000277,269.5741383000277,269.5741383000277,269.5741383000277,22,0,,,269.5741383000277,269.78282790002413,1000,269.78282790002413,1000,1000,1000,1000,0,num_3,0.665701299905777,,35,11,2026-03-13_14h18.08.262,2026A_exp2,2022.2.4,59.897276128383744,
1000,1,4.9,0.0,1,0,89,89,25,,,,,270.4752159998752,271.1089961999096,271.1089961999096,271.61027439986356,315,45,271.61027439986356,271.61027439986356,271.61027439986356,271.61027439986356,271.61027439986356,271.61027439986356,271.61027439986356,271.61027439986356,271.61027439986356,271.9766750000417,271.9766750000417,271.9766750000417,271.9766750000417,271.9766750000417,271.9766750000417,271.9766750000417,271.9766750000417,271.9766750000417,23,0,,,271.9766750000417,272.1787018000614,1000,272.1787018000614,1000,1000,1000,1000,1,num_2,0.8139547999016941,,35,11,2026-03-13_14h18.08.262,2026A_exp2,2022.2.4,59.897276128383744,
,,,,,,,,,,,,,,,,,,,,,,,,,,,,,,,,,,,,,,,,,,,,,,,,,,,,273.0209260000847,,,,,,,
