validity,detectorcomp,contrastCW,contrastCCW,precueCWorCCW,block_80trials.thisRepN,block_80trials.thisTrialN,block_80trials.thisN,block_80trials.thisIndex,etRecord.started,etRecord.stopped,text.started,text.stopped,text_4.started,text_4.stopped,text_6.started,text_6.stopped,oriCW,oriCCW,roi_2.started,grating_UR.started,grating_UL.started,grating_LR.started,grating_LL.started,noise_UR.started,noise_UL.started,noise_LR.started,noise_LL.started,roi_2.stopped,grating_UR.stopped,grating_UL.stopped,grating_LR.stopped,grating_LL.stopped,noise_UR.stopped,noise_UL.stopped,noise_LR.stopped,noise_LL.stopped,outframe,roi_2.numLooks,roi_2.timesOn,roi_2.timesOff,text_2.started,text_2.stopped,probedcontrast,key_resp.started,respdetect,relevantContrast,correctDetect,TorFdetect,respCWorCCW,key_resp.keys,key_resp.rt,feedback_display_.started,participantNo,blockNo,date,expName,psychopyVersion,frameRate,
1000,1,0.0,3.7,0,0,0,0,76,6.890000076964498e-05,6.890000076964498e-05,59.74059599998873,61.74388579998049,61.74388579998049,62.37783240000135,62.37783240000135,62.89889939999557,315,315,62.89889939999557,62.89889939999557,62.89889939999557,62.89889939999557,62.89889939999557,62.89889939999557,62.89889939999557,62.89889939999557,62.89889939999557,63.24531850000494,63.24531850000494,63.24531850000494,63.24531850000494,63.24531850000494,63.24531850000494,63.24531850000494,63.24531850000494,63.24531850000494,0,1,[0.0009184000082314014],[0.36811730000772513],63.24531850000494,63.45089770000777,1000,63.45089770000777,1000,1000,1000,1000,1,num_2,0.7897878999938257,,21,5,2026-03-02_17h39.36.539,2026A_exp2,2022.2.4,59.95225402426044,
0,0,6.1,0.0,0,0,1,1,41,,,,,64.26317659998313,64.91378169998643,64.91378169998643,65.4282758999907,315,45,65.4282758999907,65.4282758999907,65.4282758999907,65.4282758999907,65.4282758999907,65.4282758999907,65.4282758999907,65.4282758999907,65.4282758999907,65.78145839998615,65.78145839998615,65.78145839998615,65.78145839998615,65.78145839998615,65.78145839998615,65.78145839998615,65.78145839998615,65.78145839998615,0,1,[0.003991899982793257],[0.36405169998761266],65.78145839998615,65.9815554000088,0.0,65.9815554000088,0,0.0,0,1,1000,num_1,0.9794427999877371,,21,5,2026-03-02_17h39.36.539,2026A_exp2,2022.2.4,59.95225402426044,
1,0,3.7,0.0,0,0,2,2,26,,,,,66.98248069998226,67.6164390000049,67.6164390000049,68.11762619999354,45,315,68.11762619999354,68.11762619999354,68.11762619999354,68.11762619999354,68.11762619999354,68.11762619999354,68.11762619999354,68.11762619999354,68.11762619999354,68.48399939999217,68.48399939999217,68.48399939999217,68.48399939999217,68.48399939999217,68.48399939999217,68.48399939999217,68.48399939999217,68.48399939999217,3,4,"[0.0006676000193692744, 0.033581299998331815, 0.10062250000191852, 0.13384640001459047]","[0.017419800016796216, 0.08381480001844466, 0.11718510001082905, 0.3677293000218924]",68.48399939999217,68.68424189998768,3.7,68.68424189998768,1,3.7,1,1,1000,num_4,0.46850659998017363,,21,5,2026-03-02_17h39.36.539,2026A_exp2,2022.2.4,59.95225402426044,
0,0,4.9,0.0,0,0,3,3,84,,,,,69.18471400000271,69.83534150000196,69.83534150000196,70.3197952999908,315,45,70.3197952999908,70.3197952999908,70.3197952999908,70.3197952999908,70.3197952999908,70.3197952999908,70.3197952999908,70.3197952999908,70.3197952999908,70.6861113999912,70.6861113999912,70.6861113999912,70.6861113999912,70.6861113999912,70.6861113999912,70.6861113999912,70.6861113999912,70.6861113999912,8,3,"[0.0012503000034485012, 0.16701479998300783, 0.26710619998630136]","[0.15029439999489114, 0.2505077999958303, 0.2837099999887869]",70.6861113999912,70.88640499999747,0.0,70.88640499999747,0,0.0,0,1,1000,num_1,0.6743949000083376,,21,5,2026-03-02_17h39.36.539,2026A_exp2,2022.2.4,59.95225402426044,
0,0,6.1,0.0,1,0,4,4,25,,,,,71.58699369998067,72.23776519999956,72.23776519999956,72.72207640000852,45,45,72.72207640000852,72.72207640000852,72.72207640000852,72.72207640000852,72.72207640000852,72.72207640000852,72.72207640000852,72.72207640000852,72.72207640000852,73.08860449999338,73.08860449999338,73.08860449999338,73.08860449999338,73.08860449999338,73.08860449999338,73.08860449999338,73.08860449999338,73.08860449999338,23,0,,,73.08860449999338,73.28870099998312,6.1,73.28870099998312,1,6.1,1,1,1000,num_4,0.7523013000027277,,21,5,2026-03-02_17h39.36.539,2026A_exp2,2022.2.4,59.95225402426044,
1000,1,0.0,3.7,0,0,5,5,23,,,,,74.05709689998184,74.71550029999344,74.71550029999344,75.20803219999652,315,315,75.20803219999652,75.20803219999652,75.20803219999652,75.20803219999652,75.20803219999652,75.20803219999652,75.20803219999652,75.20803219999652,75.20803219999652,75.5744560000021,75.5744560000021,75.5744560000021,75.5744560000021,75.5744560000021,75.5744560000021,75.5744560000021,75.5744560000021,75.5744560000021,23,0,,,75.5744560000021,75.774325699982,1000,75.774325699982,1000,1000,1000,1000,1,num_2,0.6511000999889802,,21,5,2026-03-02_17h39.36.539,2026A_exp2,2022.2.4,59.95225402426044,
1,0,3.7,6.1,1,0,6,6,68,,,,,76.44180919998325,77.09250790000078,77.09250790000078,77.59379149999586,45,45,77.59379149999586,77.59379149999586,77.59379149999586,77.59379149999586,77.59379149999586,77.59379149999586,77.59379149999586,77.59379149999586,77.59379149999586,77.96013540000422,77.96013540000422,77.96013540000422,77.96013540000422,77.96013540000422,77.96013540000422,77.96013540000422,77.96013540000422,77.96013540000422,5,3,"[0.0010944999812636524, 0.15016879999893717, 0.3173528999905102]","[0.08364679999067448, 0.28399419999914244, 0.36752299999352545]",77.96013540000422,78.16034060000675,6.1,78.16034060000675,1,6.1,1,1,1000,num_4,0.7053221999958623,,21,5,2026-03-02_17h39.36.539,2026A_exp2,2022.2.4,59.95225402426044,
1000,1,0.0,3.7,0,0,7,7,21,,,,,78.89432560000569,79.54497280000942,79.54497280000942,80.02939409998362,315,45,80.02939409998362,80.02939409998362,80.02939409998362,80.02939409998362,80.02939409998362,80.02939409998362,80.02939409998362,80.02939409998362,80.02939409998362,80.39598040000419,80.39598040000419,80.39598040000419,80.39598040000419,80.39598040000419,80.39598040000419,80.39598040000419,80.39598040000419,80.39598040000419,22,1,[0.2839736999885645],[0.3006421999889426],80.39598040000419,80.59693110000808,1000,80.59693110000808,1000,1000,1000,1000,1,num_2,0.8764973999932408,,21,5,2026-03-02_17h39.36.539,2026A_exp2,2022.2.4,59.95225402426044,
1000,1,3.7,6.1,1,0,8,8,75,,,,,81.49698409999837,82.14769109999179,82.14769109999179,82.64883600000758,45,45,82.64883600000758,82.64883600000758,82.64883600000758,82.64883600000758,82.64883600000758,82.64883600000758,82.64883600000758,82.64883600000758,82.64883600000758,82.99857170000905,82.99857170000905,82.99857170000905,82.99857170000905,82.99857170000905,82.99857170000905,82.99857170000905,82.99857170000905,82.99857170000905,22,0,,,82.99857170000905,83.20050059998175,1000,83.20050059998175,1000,1000,1000,1000,1,num_2,0.7692805000115186,,21,5,2026-03-02_17h39.36.539,2026A_exp2,2022.2.4,59.95225402426044,
0,0,0.0,0.0,1,0,9,9,44,,,,,83.99936640000669,84.65018060000148,84.65018060000148,85.15129270000034,315,45,85.15129270000034,85.15129270000034,85.15129270000034,85.15129270000034,85.15129270000034,85.15129270000034,85.15129270000034,85.15129270000034,85.15129270000034,85.50103129999479,85.50103129999479,85.50103129999479,85.50103129999479,85.50103129999479,85.50103129999479,85.50103129999479,85.50103129999479,85.50103129999479,22,0,,,85.50103129999479,85.70118279999588,0.0,85.7179243999999,0,0.0,0,1,1000,num_1,0.4598318000207655,,21,5,2026-03-02_17h39.36.539,2026A_exp2,2022.2.4,59.95225402426044,
1000,1,0.0,0.0,0,0,10,10,62,,,,,86.20157699999982,86.85234270000365,86.85234270000365,87.33683479999308,45,315,87.33683479999308,87.33683479999308,87.33683479999308,87.33683479999308,87.33683479999308,87.33683479999308,87.33683479999308,87.33683479999308,87.33683479999308,87.70313290000195,87.70313290000195,87.70313290000195,87.70313290000195,87.70313290000195,87.70313290000195,87.70313290000195,87.70313290000195,87.70313290000195,23,0,,,87.70313290000195,87.90548089999356,1000,87.90548089999356,1000,1000,1000,1000,1,num_2,0.9435184999892954,,21,5,2026-03-02_17h39.36.539,2026A_exp2,2022.2.4,59.95225402426044,
1000,1,6.1,0.0,1,0,11,11,79,,,,,88.87099170000874,89.52161510000587,89.52161510000587,90.02269019998494,45,45,90.02269019998494,90.02269019998494,90.02269019998494,90.02269019998494,90.02269019998494,90.02269019998494,90.02269019998494,90.02269019998494,90.02269019998494,90.38926550000906,90.38926550000906,90.38926550000906,90.38926550000906,90.38926550000906,90.38926550000906,90.38926550000906,90.38926550000906,90.38926550000906,23,0,,,90.38926550000906,90.617900799989,1000,90.617900799989,1000,1000,1000,1000,0,num_3,0.6320638999750372,,21,5,2026-03-02_17h39.36.539,2026A_exp2,2022.2.4,59.95225402426044,
1000,1,0.0,4.9,0,0,12,12,8,,,,,91.27337559999432,91.92408929998055,91.92408929998055,92.42516939999769,45,45,92.42516939999769,92.42516939999769,92.42516939999769,92.42516939999769,92.42516939999769,92.42516939999769,92.42516939999769,92.42516939999769,92.42516939999769,92.79159609999624,92.79159609999624,92.79159609999624,92.79159609999624,92.79159609999624,92.79159609999624,92.79159609999624,92.79159609999624,92.79159609999624,23,0,,,92.79159609999624,92.99373170000035,1000,92.99373170000035,1000,1000,1000,1000,1,num_2,0.40822169999592006,,21,5,2026-03-02_17h39.36.539,2026A_exp2,2022.2.4,59.95225402426044,
1000,1,0.0,3.7,0,0,13,13,63,,,,,93.42549649998546,94.07634899998084,94.07634899998084,94.57731049999711,315,315,94.57731049999711,94.57731049999711,94.57731049999711,94.57731049999711,94.57731049999711,94.57731049999711,94.57731049999711,94.57731049999711,94.57731049999711,94.94380649999948,94.94380649999948,94.94380649999948,94.94380649999948,94.94380649999948,94.94380649999948,94.94380649999948,94.94380649999948,94.94380649999948,0,1,[0.0012143999920226634],[0.3672159999841824],94.94380649999948,95.14600459998474,1000,95.14600459998474,1000,1000,1000,1000,1,num_2,0.49477849999675527,,21,5,2026-03-02_17h39.36.539,2026A_exp2,2022.2.4,59.95225402426044,
1,0,0.0,4.9,0,0,14,14,70,,,,,95.6611292999878,96.31176459998824,96.31176459998824,96.81296539999312,45,45,96.81296539999312,96.81296539999312,96.81296539999312,96.81296539999312,96.81296539999312,96.81296539999312,96.81296539999312,96.81296539999312,96.81296539999312,97.17937009999878,97.17937009999878,97.17937009999878,97.17937009999878,97.17937009999878,97.17937009999878,97.17937009999878,97.17937009999878,97.17937009999878,2,2,"[0.001201000006403774, 0.23388980000163428]","[0.20041640000999905, 0.36719540000194684]",97.17937009999878,97.37954629998421,0.0,97.37954629998421,0,0.0,0,1,1000,num_1,0.8222430000023451,,21,5,2026-03-02_17h39.36.539,2026A_exp2,2022.2.4,59.95225402426044,
1000,1,0.0,6.1,0,0,15,15,61,,,,,98.23028139999951,98.88091069998336,98.88091069998336,99.36544480000157,315,315,99.36544480000157,99.36544480000157,99.36544480000157,99.36544480000157,99.36544480000157,99.36544480000157,99.36544480000157,99.36544480000157,99.36544480000157,99.73183499998413,99.73183499998413,99.73183499998413,99.73183499998413,99.73183499998413,99.73183499998413,99.73183499998413,99.73183499998413,99.73183499998413,18,2,"[0.23373149998951703, 0.31709029999910854]","[0.25047209998592734, 0.36756749998312443]",99.73183499998413,99.93434010000783,1000,99.93434010000783,1000,1000,1000,1000,1,num_2,0.5549378999858163,,21,5,2026-03-02_17h39.36.539,2026A_exp2,2022.2.4,59.95225402426044,
1000,1,3.7,0.0,0,0,16,16,69,,,,,100.51587939998717,101.16666819999227,101.16666819999227,101.66769599998952,315,315,101.66769599998952,101.66769599998952,101.66769599998952,101.66769599998952,101.66769599998952,101.66769599998952,101.66769599998952,101.66769599998952,101.66769599998952,102.03426349998335,102.03426349998335,102.03426349998335,102.03426349998335,102.03426349998335,102.03426349998335,102.03426349998335,102.03426349998335,102.03426349998335,23,0,,,102.03426349998335,102.23604519999935,1000,102.23604519999935,1000,1000,1000,1000,0,num_3,0.7013933999987785,,21,5,2026-03-02_17h39.36.539,2026A_exp2,2022.2.4,59.95225402426044,
1,0,0.0,4.9,0,0,17,17,14,,,,,102.96832709998125,103.61919460000354,103.61919460000354,104.1201141999918,315,315,104.1201141999918,104.1201141999918,104.1201141999918,104.1201141999918,104.1201141999918,104.1201141999918,104.1201141999918,104.1201141999918,104.1201141999918,104.4865809000039,104.4865809000039,104.4865809000039,104.4865809000039,104.4865809000039,104.4865809000039,104.4865809000039,104.4865809000039,104.4865809000039,4,4,"[0.01725010000518523, 0.06698800000594929, 0.25045680001494475, 0.36720940002123825]","[0.05035200002021156, 0.2338896000001114, 0.3505877999996301, 0.36721460000262596]",104.4865809000039,104.6870149000024,0.0,104.6870149000024,0,0.0,0,1,1000,num_1,0.7783004000084475,,21,5,2026-03-02_17h39.36.539,2026A_exp2,2022.2.4,59.95225402426044,
1000,1,0.0,6.1,1,0,18,18,74,,,,,105.48765999998432,106.13825899999938,106.13825899999938,106.62255420000292,315,45,106.62255420000292,106.62255420000292,106.62255420000292,106.62255420000292,106.62255420000292,106.62255420000292,106.62255420000292,106.62255420000292,106.62255420000292,106.98917950000032,106.98917950000032,106.98917950000032,106.98917950000032,106.98917950000032,106.98917950000032,106.98917950000032,106.98917950000032,106.98917950000032,23,0,,,106.98917950000032,107.19100689998595,1000,107.19100689998595,1000,1000,1000,1000,1,num_2,0.5860823999973945,,21,5,2026-03-02_17h39.36.539,2026A_exp2,2022.2.4,59.95225402426044,
1000,1,0.0,0.0,0,0,19,19,89,,,,,107.80667930000345,108.45738509998773,108.45738509998773,108.9585090999899,315,315,108.9585090999899,108.9585090999899,108.9585090999899,108.9585090999899,108.9585090999899,108.9585090999899,108.9585090999899,108.9585090999899,108.9585090999899,109.30820830000448,109.30820830000448,109.30820830000448,109.30820830000448,109.30820830000448,109.30820830000448,109.30820830000448,109.30820830000448,109.30820830000448,22,0,,,109.30820830000448,109.510074299993,1000,109.510074299993,1000,1000,1000,1000,1,num_2,1.1553098000003956,,21,5,2026-03-02_17h39.36.539,2026A_exp2,2022.2.4,59.95225402426044,
1,0,0.0,4.9,1,0,20,20,54,,,,,110.69306379999034,111.3433887999854,111.3433887999854,111.84467140000197,45,315,111.84467140000197,111.84467140000197,111.84467140000197,111.84467140000197,111.84467140000197,111.84467140000197,111.84467140000197,111.84467140000197,111.84467140000197,112.21098979999078,112.21098979999078,112.21098979999078,112.21098979999078,112.21098979999078,112.21098979999078,112.21098979999078,112.21098979999078,112.21098979999078,21,1,[0.15015129998209886],[0.18359840000630356],112.21098979999078,112.41112919998704,4.9,112.41112919998704,1,4.9,1,1,1000,num_4,0.8697121000150219,,21,5,2026-03-02_17h39.36.539,2026A_exp2,2022.2.4,59.95225402426044,
1000,1,0.0,0.0,0,0,21,21,45,,,,,113.31199630000629,113.9628442999965,113.9628442999965,114.44720239998423,45,315,114.44720239998423,114.44720239998423,114.44720239998423,114.44720239998423,114.44720239998423,114.44720239998423,114.44720239998423,114.44720239998423,114.44720239998423,114.81335899999249,114.81335899999249,114.81335899999249,114.81335899999249,114.81335899999249,114.81335899999249,114.81335899999249,114.81335899999249,114.81335899999249,23,0,,,114.81335899999249,115.01389169998583,1000,115.01389169998583,1000,1000,1000,1000,1,num_2,2.4043079999973997,,21,5,2026-03-02_17h39.36.539,2026A_exp2,2022.2.4,59.95225402426044,
1,0,0.0,0.0,1,0,22,22,38,,,,,117.44968429999426,118.10032599998522,118.10032599998522,118.58465559998876,315,315,118.58465559998876,118.58465559998876,118.58465559998876,118.58465559998876,118.58465559998876,118.58465559998876,118.58465559998876,118.58465559998876,118.58465559998876,118.95107499998994,118.95107499998994,118.95107499998994,118.95107499998994,118.95107499998994,118.95107499998994,118.95107499998994,118.95107499998994,118.95107499998994,23,0,,,118.95107499998994,119.15135189998546,0.0,119.15135189998546,0,0.0,0,1,1000,num_1,0.610597399994731,,21,5,2026-03-02_17h39.36.539,2026A_exp2,2022.2.4,59.95225402426044,
1,0,3.7,0.0,1,0,23,23,30,,,,,119.7851679000014,120.43582389998483,120.43582389998483,120.92039320000913,315,45,120.92039320000913,120.92039320000913,120.92039320000913,120.92039320000913,120.92039320000913,120.92039320000913,120.92039320000913,120.92039320000913,120.92039320000913,121.28673839999828,121.28673839999828,121.28673839999828,121.28673839999828,121.28673839999828,121.28673839999828,121.28673839999828,121.28673839999828,121.28673839999828,23,0,,,121.28673839999828,121.48701650000294,0.0,121.48701650000294,0,0.0,0,1,1000,num_1,0.8748876999889035,,21,5,2026-03-02_17h39.36.539,2026A_exp2,2022.2.4,59.95225402426044,
1,0,6.1,0.0,1,0,24,24,17,,,,,122.3879952999996,123.0382513999939,123.0382513999939,123.5393100999936,45,45,123.5393100999936,123.5393100999936,123.5393100999936,123.5393100999936,123.5393100999936,123.5393100999936,123.5393100999936,123.5393100999936,123.5393100999936,123.88956949999556,123.88956949999556,123.88956949999556,123.88956949999556,123.88956949999556,123.88956949999556,123.88956949999556,123.88956949999556,123.88956949999556,23,0,,,123.88956949999556,124.09485619998304,0.0,124.09485619998304,0,0.0,0,1,1000,num_1,0.6430655000149272,,21,5,2026-03-02_17h39.36.539,2026A_exp2,2022.2.4,59.95225402426044,
1,0,4.9,6.1,0,0,25,25,82,,,,,124.75695119999,125.41766710000229,125.41766710000229,125.91291749998345,45,45,125.91291749998345,125.91291749998345,125.91291749998345,125.91291749998345,125.91291749998345,125.91291749998345,125.91291749998345,125.91291749998345,125.91291749998345,126.27515480000875,126.27515480000875,126.27515480000875,126.27515480000875,126.27515480000875,126.27515480000875,126.27515480000875,126.27515480000875,126.27515480000875,23,0,,,126.27515480000875,126.47527510000509,4.9,126.47527510000509,1,4.9,1,1,1000,num_4,0.6224121999985073,,21,5,2026-03-02_17h39.36.539,2026A_exp2,2022.2.4,59.95225402426044,
1000,1,3.7,6.1,0,0,26,26,60,,,,,127.12607080000453,127.77653979999013,127.77653979999013,128.2611122999806,45,45,128.2611122999806,128.2611122999806,128.2611122999806,128.2611122999806,128.2611122999806,128.2611122999806,128.2611122999806,128.2611122999806,128.2611122999806,128.627470300009,128.627470300009,128.627470300009,128.627470300009,128.627470300009,128.627470300009,128.627470300009,128.627470300009,128.627470300009,23,0,,,128.627470300009,128.8294201999961,1000,128.8294201999961,1000,1000,1000,1000,1,num_2,0.8677599999937229,,21,5,2026-03-02_17h39.36.539,2026A_exp2,2022.2.4,59.95225402426044,
1000,1,3.7,4.9,1,0,27,27,71,,,,,129.7285911999934,130.37922869998147,130.37922869998147,130.86355589999584,315,315,130.86355589999584,130.86355589999584,130.86355589999584,130.86355589999584,130.86355589999584,130.86355589999584,130.86355589999584,130.86355589999584,130.86355589999584,131.2300350999867,131.2300350999867,131.2300350999867,131.2300350999867,131.2300350999867,131.2300350999867,131.2300350999867,131.2300350999867,131.2300350999867,18,1,[0.08348849997855723],[0.16691449997597374],131.2300350999867,131.43227920000209,1000,131.43227920000209,1000,1000,1000,1000,1,num_2,0.6407306999899447,,21,5,2026-03-02_17h39.36.539,2026A_exp2,2022.2.4,59.95225402426044,
0,0,0.0,3.7,1,0,28,28,53,,,,,132.09742949999054,132.74829379998846,132.74829379998846,133.2491599000059,315,315,133.2491599000059,133.2491599000059,133.2491599000059,133.2491599000059,133.2491599000059,133.2491599000059,133.2491599000059,133.2491599000059,133.2491599000059,133.5990525999805,133.5990525999805,133.5990525999805,133.5990525999805,133.5990525999805,133.5990525999805,133.5990525999805,133.5990525999805,133.5990525999805,9,3,"[0.0011968000035267323, 0.05030200001783669, 0.2838075000036042]","[0.03355069999815896, 0.18380440000328235, 0.31708450001315214]",133.5990525999805,133.79931279999437,0.0,133.81604979999247,0,0.0,0,1,1000,num_1,0.8170617999858223,,21,5,2026-03-02_17h39.36.539,2026A_exp2,2022.2.4,59.95225402426044,
1000,1,0.0,6.1,1,0,29,29,13,,,,,134.6501384000003,135.3006883999915,135.3006883999915,135.78529249998974,315,45,135.78529249998974,135.78529249998974,135.78529249998974,135.78529249998974,135.78529249998974,135.78529249998974,135.78529249998974,135.78529249998974,135.78529249998974,136.15167580000707,136.15167580000707,136.15167580000707,136.15167580000707,136.15167580000707,136.15167580000707,136.15167580000707,136.15167580000707,136.15167580000707,23,0,,,136.15167580000707,136.35406579999835,1000,136.35406579999835,1000,1000,1000,1000,1,num_2,0.6068601000006311,,21,5,2026-03-02_17h39.36.539,2026A_exp2,2022.2.4,59.95225402426044,
0,0,3.7,0.0,0,0,30,30,18,,,,,136.9857389999961,137.63650619998225,137.63650619998225,138.1375035000092,45,315,138.1375035000092,138.1375035000092,138.1375035000092,138.1375035000092,138.1375035000092,138.1375035000092,138.1375035000092,138.1375035000092,138.1375035000092,138.5039923999866,138.5039923999866,138.5039923999866,138.5039923999866,138.5039923999866,138.5039923999866,138.5039923999866,138.5039923999866,138.5039923999866,23,0,,,138.5039923999866,138.7042920999811,0.0,138.7042920999811,0,0.0,0,1,1000,num_1,3.825131599995075,,21,5,2026-03-02_17h39.36.539,2026A_exp2,2022.2.4,59.95225402426044,
1,0,4.9,0.0,0,0,31,31,66,,,,,142.55782539999927,143.20873949999805,143.20873949999805,143.6931845000072,315,45,143.6931845000072,143.6931845000072,143.6931845000072,143.6931845000072,143.6931845000072,143.6931845000072,143.6931845000072,143.6931845000072,143.6931845000072,144.0595093999873,144.0595093999873,144.0595093999873,144.0595093999873,144.0595093999873,144.0595093999873,144.0595093999873,144.0595093999873,144.0595093999873,23,0,,,144.0595093999873,144.2598633999878,4.9,144.2598633999878,1,4.9,1,1,1000,num_4,0.6942967999784742,,21,5,2026-03-02_17h39.36.539,2026A_exp2,2022.2.4,59.95225402426044,
1000,1,6.1,0.0,0,0,32,32,58,,,,,144.9772851000016,145.61100869998336,145.61100869998336,146.112111800001,45,45,146.112111800001,146.112111800001,146.112111800001,146.112111800001,146.112111800001,146.112111800001,146.112111800001,146.112111800001,146.112111800001,146.47863070000312,146.47863070000312,146.47863070000312,146.47863070000312,146.47863070000312,146.47863070000312,146.47863070000312,146.47863070000312,146.47863070000312,23,0,,,146.47863070000312,146.6804892999935,1000,146.6804892999935,1000,1000,1000,1000,0,num_3,0.5927472999901511,,21,5,2026-03-02_17h39.36.539,2026A_exp2,2022.2.4,59.95225402426044,
1000,1,4.9,6.1,1,0,33,33,5,,,,,147.2959656000021,147.95743969999603,147.95743969999603,148.4479408999905,45,315,148.4479408999905,148.4479408999905,148.4479408999905,148.4479408999905,148.4479408999905,148.4479408999905,148.4479408999905,148.4479408999905,148.4479408999905,148.81415779999224,148.81415779999224,148.81415779999224,148.81415779999224,148.81415779999224,148.81415779999224,148.81415779999224,148.81415779999224,148.81415779999224,23,0,,,148.81415779999224,149.01650100000552,1000,149.01650100000552,1000,1000,1000,1000,1,num_2,0.896380299993325,,21,5,2026-03-02_17h39.36.539,2026A_exp2,2022.2.4,59.95225402426044,
1,0,0.0,0.0,1,0,34,34,31,,,,,149.93199139999342,150.58265419999952,150.58265419999952,151.08381029998418,45,315,151.08381029998418,151.08381029998418,151.08381029998418,151.08381029998418,151.08381029998418,151.08381029998418,151.08381029998418,151.08381029998418,151.08381029998418,151.4503221999912,151.4503221999912,151.4503221999912,151.4503221999912,151.4503221999912,151.4503221999912,151.4503221999912,151.4503221999912,151.4503221999912,23,0,,,151.4503221999912,151.6505596000061,0.0,151.6505596000061,0,0.0,0,1,1000,num_1,6.190961899992544,,21,5,2026-03-02_17h39.36.539,2026A_exp2,2022.2.4,59.95225402426044,
1000,1,0.0,0.0,1,0,35,35,2,,,,,157.87344510000548,158.52396829999634,158.52396829999634,159.00840409999364,315,45,159.00840409999364,159.00840409999364,159.00840409999364,159.00840409999364,159.00840409999364,159.00840409999364,159.00840409999364,159.00840409999364,159.00840409999364,159.37491270000464,159.37491270000464,159.37491270000464,159.37491270000464,159.37491270000464,159.37491270000464,159.37491270000464,159.37491270000464,159.37491270000464,14,3,"[0.0012160000042058527, 0.1835731999890413, 0.2670796999882441]","[0.06674749997910112, 0.23359220000565983, 0.3003454999998212]",159.37491270000464,159.57694009999977,1000,159.57694009999977,1000,1000,1000,1000,1,num_2,1.1519603000197094,,21,5,2026-03-02_17h39.36.539,2026A_exp2,2022.2.4,59.95225402426044,
1000,1,4.9,0.0,1,0,36,36,48,,,,,160.75953350000782,161.41026010000496,161.41026010000496,161.91148439998506,315,45,161.91148439998506,161.91148439998506,161.91148439998506,161.91148439998506,161.91148439998506,161.91148439998506,161.91148439998506,161.91148439998506,161.91148439998506,162.27773869998055,162.27773869998055,162.27773869998055,162.27773869998055,162.27773869998055,162.27773869998055,162.27773869998055,162.27773869998055,162.27773869998055,23,0,,,162.27773869998055,162.47968620000756,1000,162.47968620000756,1000,1000,1000,1000,0,num_3,0.5620692000084091,,21,5,2026-03-02_17h39.36.539,2026A_exp2,2022.2.4,59.95225402426044,
1000,1,0.0,0.0,1,0,37,37,73,,,,,163.06180409999797,163.71256419998826,163.71256419998826,164.21383900000365,45,45,164.21383900000365,164.21383900000365,164.21383900000365,164.21383900000365,164.21383900000365,164.21383900000365,164.21383900000365,164.21383900000365,164.21383900000365,164.58013200000278,164.58013200000278,164.58013200000278,164.58013200000278,164.58013200000278,164.58013200000278,164.58013200000278,164.58013200000278,164.58013200000278,23,0,,,164.58013200000278,164.78047810000135,1000,164.78047810000135,1000,1000,1000,1000,0,num_3,1.6687585999898147,,21,5,2026-03-02_17h39.36.539,2026A_exp2,2022.2.4,59.95225402426044,
1000,1,6.1,6.1,1,0,38,38,22,,,,,166.46521609998308,167.11569509998662,167.11569509998662,167.61711890000151,315,45,167.61711890000151,167.61711890000151,167.61711890000151,167.61711890000151,167.61711890000151,167.61711890000151,167.61711890000151,167.61711890000151,167.61711890000151,167.98350119998213,167.98350119998213,167.98350119998213,167.98350119998213,167.98350119998213,167.98350119998213,167.98350119998213,167.98350119998213,167.98350119998213,21,1,[0.26711000001523644],[0.30054170000948943],167.98350119998213,168.18590579999727,1000,168.18590579999727,1000,1000,1000,1000,0,num_3,1.6242985000135377,,21,5,2026-03-02_17h39.36.539,2026A_exp2,2022.2.4,59.95225402426044,
1000,1,0.0,3.7,1,0,39,39,88,,,,,169.8351543000026,170.485957900004,170.485957900004,170.98725939998985,45,45,170.98725939998985,170.98725939998985,170.98725939998985,170.98725939998985,170.98725939998985,170.98725939998985,170.98725939998985,170.98725939998985,170.98725939998985,171.35352740000235,171.35352740000235,171.35352740000235,171.35352740000235,171.35352740000235,171.35352740000235,171.35352740000235,171.35352740000235,171.35352740000235,0,1,[0.0007204000139608979],[0.3672375000023749],171.35352740000235,171.5547491000034,1000,171.5547491000034,1000,1000,1000,1000,1,num_2,0.6148137999989558,,21,5,2026-03-02_17h39.36.539,2026A_exp2,2022.2.4,59.95225402426044,
1000,1,0.0,3.7,1,0,40,40,4,,,,,172.18756489999942,172.83839250000892,172.83839250000892,173.33951890000026,315,45,173.33951890000026,173.33951890000026,173.33951890000026,173.33951890000026,173.33951890000026,173.33951890000026,173.33951890000026,173.33951890000026,173.33951890000026,173.70579199999338,173.70579199999338,173.70579199999338,173.70579199999338,173.70579199999338,173.70579199999338,173.70579199999338,173.70579199999338,173.70579199999338,23,0,,,173.70579199999338,173.9077355999907,1000,173.9077355999907,1000,1000,1000,1000,1,num_2,0.5332429000118282,,21,5,2026-03-02_17h39.36.539,2026A_exp2,2022.2.4,59.95225402426044,
1000,1,0.0,0.0,1,0,41,41,55,,,,,174.4564762999944,175.1069964999915,175.1069964999915,175.608353299991,315,315,175.608353299991,175.608353299991,175.608353299991,175.608353299991,175.608353299991,175.608353299991,175.608353299991,175.608353299991,175.608353299991,175.97485120000783,175.97485120000783,175.97485120000783,175.97485120000783,175.97485120000783,175.97485120000783,175.97485120000783,175.97485120000783,175.97485120000783,5,2,"[0.0012135000142734498, 0.15039210001123138]","[0.1333761000132654, 0.3170311000139918]",175.97485120000783,176.17693039998994,1000,176.17693039998994,1000,1000,1000,1000,1,num_2,1.5205181000055745,,21,5,2026-03-02_17h39.36.539,2026A_exp2,2022.2.4,59.95225402426044,
1,0,6.1,0.0,0,0,42,42,85,,,,,177.7263915000076,178.37713959999382,178.37713959999382,178.87791569999536,315,315,178.87791569999536,178.87791569999536,178.87791569999536,178.87791569999536,178.87791569999536,178.87791569999536,178.87791569999536,178.87791569999536,178.87791569999536,179.24498289998155,179.24498289998155,179.24498289998155,179.24498289998155,179.24498289998155,179.24498289998155,179.24498289998155,179.24498289998155,179.24498289998155,23,0,,,179.24498289998155,179.4447901000094,6.1,179.4447901000094,1,6.1,1,1,1000,num_4,0.8200401999929454,,21,5,2026-03-02_17h39.36.539,2026A_exp2,2022.2.4,59.95225402426044,
0,0,0.0,0.0,0,0,43,43,15,,,,,180.2956600000034,180.9464253000042,180.9464253000042,181.4309218999988,45,315,181.4309218999988,181.4309218999988,181.4309218999988,181.4309218999988,181.4309218999988,181.4309218999988,181.4309218999988,181.4309218999988,181.4309218999988,181.79721620000782,181.79721620000782,181.79721620000782,181.79721620000782,181.79721620000782,181.79721620000782,181.79721620000782,181.79721620000782,181.79721620000782,23,0,,,181.79721620000782,181.99751889999607,0.0,181.99751889999607,0,0.0,0,1,1000,num_1,0.6442618000146467,,21,5,2026-03-02_17h39.36.539,2026A_exp2,2022.2.4,59.95225402426044,
1000,1,3.7,0.0,0,0,44,44,39,,,,,182.66475450000144,183.31512779998593,183.31512779998593,183.79982310000923,45,315,183.79982310000923,183.79982310000923,183.79982310000923,183.79982310000923,183.79982310000923,183.79982310000923,183.79982310000923,183.79982310000923,183.79982310000923,184.1663627999951,184.1663627999951,184.1663627999951,184.1663627999951,184.1663627999951,184.1663627999951,184.1663627999951,184.1663627999951,184.1663627999951,23,0,,,184.1663627999951,184.36717969999881,1000,184.36717969999881,1000,1000,1000,1000,0,num_3,1.0256206000049133,,21,5,2026-03-02_17h39.36.539,2026A_exp2,2022.2.4,59.95225402426044,
1000,1,0.0,6.1,0,0,45,45,20,,,,,185.41745149999042,186.06804650000413,186.06804650000413,186.55257209998672,315,315,186.55257209998672,186.55257209998672,186.55257209998672,186.55257209998672,186.55257209998672,186.55257209998672,186.55257209998672,186.55257209998672,186.55257209998672,186.91924359998666,186.91924359998666,186.91924359998666,186.91924359998666,186.91924359998666,186.91924359998666,186.91924359998666,186.91924359998666,186.91924359998666,11,4,"[0.017224299983354285, 0.050111399992601946, 0.10015529999509454, 0.18313920000218786]","[0.033461199986049905, 0.06681170000229031, 0.13353739999001846, 0.3171087999944575]",186.91924359998666,187.12093479998293,1000,187.12093479998293,1000,1000,1000,1000,1,num_2,1.1125165999983437,,21,5,2026-03-02_17h39.36.539,2026A_exp2,2022.2.4,59.95225402426044,
1000,1,0.0,3.7,0,0,46,46,43,,,,,188.25366270000814,188.9043177999847,188.9043177999847,189.4054593000037,45,45,189.4054593000037,189.4054593000037,189.4054593000037,189.4054593000037,189.4054593000037,189.4054593000037,189.4054593000037,189.4054593000037,189.4054593000037,189.77192949998425,189.77192949998425,189.77192949998425,189.77192949998425,189.77192949998425,189.77192949998425,189.77192949998425,189.77192949998425,189.77192949998425,0,1,[0.0012332999904174358],[0.36710439997841604],189.77192949998425,189.97410739999032,1000,189.97410739999032,1000,1000,1000,1000,1,num_2,0.5875641999882646,,21,5,2026-03-02_17h39.36.539,2026A_exp2,2022.2.4,59.95225402426044,
1000,1,4.9,0.0,1,0,47,47,67,,,,,190.58927269998821,191.24007249998976,191.24007249998976,191.75158559999545,45,45,191.75158559999545,191.75158559999545,191.75158559999545,191.75158559999545,191.75158559999545,191.75158559999545,191.75158559999545,191.75158559999545,191.75158559999545,192.10765489999903,192.10765489999903,192.10765489999903,192.10765489999903,192.10765489999903,192.10765489999903,192.10765489999903,192.10765489999903,192.10765489999903,23,0,,,192.10765489999903,192.3096552999923,1000,192.3096552999923,1000,1000,1000,1000,0,num_3,0.5633798999770079,,21,5,2026-03-02_17h39.36.539,2026A_exp2,2022.2.4,59.95225402426044,
0,0,6.1,3.7,0,0,48,48,49,,,,,192.89159919999656,193.54242320000776,193.54242320000776,194.04353969998192,315,315,194.04353969998192,194.04353969998192,194.04353969998192,194.04353969998192,194.04353969998192,194.04353969998192,194.04353969998192,194.04353969998192,194.04353969998192,194.40981529999408,194.40981529999408,194.40981529999408,194.40981529999408,194.40981529999408,194.40981529999408,194.40981529999408,194.40981529999408,194.40981529999408,23,0,,,194.40981529999408,194.61008589999983,3.7,194.61008589999983,0,3.7,1,0,1000,num_1,2.4470400999998674,,21,5,2026-03-02_17h39.36.539,2026A_exp2,2022.2.4,59.95225402426044,
1000,1,4.9,0.0,0,0,49,49,50,,,,,197.08186609999393,197.72994230000768,197.72994230000768,198.23090140000568,315,315,198.23090140000568,198.23090140000568,198.23090140000568,198.23090140000568,198.23090140000568,198.23090140000568,198.23090140000568,198.23090140000568,198.23090140000568,198.59740900000907,198.59740900000907,198.59740900000907,198.59740900000907,198.59740900000907,198.59740900000907,198.59740900000907,198.59740900000907,198.59740900000907,21,2,"[0.2836657000007108, 0.3504295999882743]","[0.30027729997527786, 0.3670853999792598]",198.59740900000907,198.79991569998674,1000,198.79991569998674,1000,1000,1000,1000,0,num_3,0.6169547000026796,,21,5,2026-03-02_17h39.36.539,2026A_exp2,2022.2.4,59.95225402426044,
1000,1,0.0,0.0,0,0,50,50,57,,,,,199.448413599981,200.09897619998083,200.09897619998083,200.6000875000027,45,45,200.6000875000027,200.6000875000027,200.6000875000027,200.6000875000027,200.6000875000027,200.6000875000027,200.6000875000027,200.6000875000027,200.6000875000027,200.9497612999985,200.9497612999985,200.9497612999985,200.9497612999985,200.9497612999985,200.9497612999985,200.9497612999985,200.9497612999985,200.9497612999985,22,0,,,200.9497612999985,201.15164659998845,1000,201.15164659998845,1000,1000,1000,1000,1,num_2,1.5854869000031613,,21,5,2026-03-02_17h39.36.539,2026A_exp2,2022.2.4,59.95225402426044,
1,0,0.0,0.0,0,0,51,51,80,,,,,202.75152379999054,203.40219389999402,203.40219389999402,203.9034249999968,315,45,203.9034249999968,203.9034249999968,203.9034249999968,203.9034249999968,203.9034249999968,203.9034249999968,203.9034249999968,203.9034249999968,203.9034249999968,204.26982039998984,204.26982039998984,204.26982039998984,204.26982039998984,204.26982039998984,204.26982039998984,204.26982039998984,204.26982039998984,204.26982039998984,18,1,[0.30051309999544173],[0.36725969999679364],204.26982039998984,204.47002799998154,0.0,204.47002799998154,0,0.0,0,1,1000,num_1,0.6515313999843784,,21,5,2026-03-02_17h39.36.539,2026A_exp2,2022.2.4,59.95225402426044,
1000,1,3.7,0.0,0,0,52,52,35,,,,,205.13720729999477,205.788040799991,205.788040799991,206.27236400000402,45,315,206.27236400000402,206.27236400000402,206.27236400000402,206.27236400000402,206.27236400000402,206.27236400000402,206.27236400000402,206.27236400000402,206.27236400000402,206.63888749998296,206.63888749998296,206.63888749998296,206.63888749998296,206.63888749998296,206.63888749998296,206.63888749998296,206.63888749998296,206.63888749998296,0,1,[0.0009964000200852752],[0.367278100020485],206.63888749998296,206.8405655999959,1000,206.8405655999959,1000,1000,1000,1000,0,num_3,0.5527289999881759,,21,5,2026-03-02_17h39.36.539,2026A_exp2,2022.2.4,59.95225402426044,
1000,1,0.0,6.1,1,0,53,53,42,,,,,207.42275289999088,208.07359819998965,208.07359819998965,208.5747136999853,45,45,208.5747136999853,208.5747136999853,208.5747136999853,208.5747136999853,208.5747136999853,208.5747136999853,208.5747136999853,208.5747136999853,208.5747136999853,208.94108419999247,208.94108419999247,208.94108419999247,208.94108419999247,208.94108419999247,208.94108419999247,208.94108419999247,208.94108419999247,208.94108419999247,3,3,"[0.001193000003695488, 0.200422099995194, 0.317097899998771]","[0.1838096000137739, 0.3004320999898482, 0.367165700008627]",208.94108419999247,209.1420448999852,1000,209.1420448999852,1000,1000,1000,1000,1,num_2,0.642830299999332,,21,5,2026-03-02_17h39.36.539,2026A_exp2,2022.2.4,59.95225402426044,
1000,1,0.0,0.0,0,0,54,54,65,,,,,209.8086389999953,210.4592987000069,210.4592987000069,210.96042329998454,315,45,210.96042329998454,210.96042329998454,210.96042329998454,210.96042329998454,210.96042329998454,210.96042329998454,210.96042329998454,210.96042329998454,210.96042329998454,211.3268587999919,211.3268587999919,211.3268587999919,211.3268587999919,211.3268587999919,211.3268587999919,211.3268587999919,211.3268587999919,211.3268587999919,15,3,"[0.017511799989733845, 0.15042310001445003, 0.31735669999034144]","[0.03383060000487603, 0.2003848000022117, 0.36713339999550954]",211.3268587999919,211.52944959999877,1000,211.52944959999877,1000,1000,1000,1000,1,num_2,2.1274245999811683,,21,5,2026-03-02_17h39.36.539,2026A_exp2,2022.2.4,59.95225402426044,
1000,1,0.0,6.1,0,0,55,55,16,,,,,213.67913780000526,214.32970020000357,214.32970020000357,214.8309129999834,315,315,214.8309129999834,214.8309129999834,214.8309129999834,214.8309129999834,214.8309129999834,214.8309129999834,214.8309129999834,214.8309129999834,214.8309129999834,215.19742589999805,215.19742589999805,215.19742589999805,215.19742589999805,215.19742589999805,215.19742589999805,215.19742589999805,215.19742589999805,215.19742589999805,20,2,"[0.20014030000311323, 0.26714879999053665]","[0.23367049999069422, 0.2836626000062097]",215.19742589999805,215.3993072999874,1000,215.3993072999874,1000,1000,1000,1000,1,num_2,0.6821265000035055,,21,5,2026-03-02_17h39.36.539,2026A_exp2,2022.2.4,59.95225402426044,
0,0,3.7,4.9,0,0,56,56,77,,,,,216.0981208999874,216.74888269999065,216.74888269999065,217.25009089999367,45,45,217.25009089999367,217.25009089999367,217.25009089999367,217.25009089999367,217.25009089999367,217.25009089999367,217.25009089999367,217.25009089999367,217.25009089999367,217.61636600000202,217.61636600000202,217.61636600000202,217.61636600000202,217.61636600000202,217.61636600000202,217.61636600000202,217.61636600000202,217.61636600000202,23,0,,,217.61636600000202,217.8166712000093,4.9,217.8166712000093,1,4.9,1,1,1000,num_4,1.3602430000028107,,21,5,2026-03-02_17h39.36.539,2026A_exp2,2022.2.4,59.95225402426044,
1,0,0.0,0.0,1,0,57,57,6,,,,,219.20135109999683,219.8354141000018,219.8354141000018,220.33637999999337,315,315,220.33637999999337,220.33637999999337,220.33637999999337,220.33637999999337,220.33637999999337,220.33637999999337,220.33637999999337,220.33637999999337,220.33637999999337,220.7028413999942,220.7028413999942,220.7028413999942,220.7028413999942,220.7028413999942,220.7028413999942,220.7028413999942,220.7028413999942,220.7028413999942,23,0,,,220.7028413999942,220.90311260000453,0.0,220.90311260000453,0,0.0,0,1,1000,num_1,0.859061399998609,,21,5,2026-03-02_17h39.36.539,2026A_exp2,2022.2.4,59.95225402426044,
1000,1,3.7,3.7,0,0,58,58,59,,,,,221.78713039998547,222.4378061000025,222.4378061000025,222.92238969999016,45,315,222.92238969999016,222.92238969999016,222.92238969999016,222.92238969999016,222.92238969999016,222.92238969999016,222.92238969999016,222.92238969999016,222.92238969999016,223.28879439999582,223.28879439999582,223.28879439999582,223.28879439999582,223.28879439999582,223.28879439999582,223.28879439999582,223.28879439999582,223.28879439999582,10,5,"[0.06666989999939688, 0.16675730000133626, 0.2334518000134267, 0.2668063000019174, 0.3002108000218868]","[0.15012550001847558, 0.2167994000192266, 0.2500536000006832, 0.28345050002099015, 0.3502151000138838]",223.28879439999582,223.4908037999994,1000,223.4908037999994,1000,1000,1000,1000,0,num_3,0.7907339000084903,,21,5,2026-03-02_17h39.36.539,2026A_exp2,2022.2.4,59.95225402426044,
1,0,4.9,0.0,1,0,59,59,34,,,,,224.30645919998642,224.95718939998187,224.95718939998187,225.45818640000653,315,315,225.45818640000653,225.45818640000653,225.45818640000653,225.45818640000653,225.45818640000653,225.45818640000653,225.45818640000653,225.45818640000653,225.45818640000653,225.82466099999147,225.82466099999147,225.82466099999147,225.82466099999147,225.82466099999147,225.82466099999147,225.82466099999147,225.82466099999147,225.82466099999147,23,0,,,225.82466099999147,226.0247499999823,0.0,226.0247499999823,0,0.0,0,1,1000,num_1,0.9125245999894105,,21,5,2026-03-02_17h39.36.539,2026A_exp2,2022.2.4,59.95225402426044,
1000,1,4.9,0.0,1,0,60,60,12,,,,,226.959123299981,227.60978520000936,227.60978520000936,228.09410379998735,315,315,228.09410379998735,228.09410379998735,228.09410379998735,228.09410379998735,228.09410379998735,228.09410379998735,228.09410379998735,228.09410379998735,228.09410379998735,228.46047479999834,228.46047479999834,228.46047479999834,228.46047479999834,228.46047479999834,228.46047479999834,228.46047479999834,228.46047479999834,228.46047479999834,1,2,"[0.001209999987622723, 0.166226099972846]","[0.15022640000097454, 0.3670462000009138]",228.46047479999834,228.66286039998522,1000,228.66286039998522,1000,1000,1000,1000,0,num_3,0.6497945000010077,,21,5,2026-03-02_17h39.36.539,2026A_exp2,2022.2.4,59.95225402426044,
0,0,4.9,0.0,0,0,61,61,40,,,,,229.32830259998445,229.9788530000078,229.9788530000078,230.463078700006,45,315,230.463078700006,230.463078700006,230.463078700006,230.463078700006,230.463078700006,230.463078700006,230.463078700006,230.463078700006,230.463078700006,230.82960470000398,230.82960470000398,230.82960470000398,230.82960470000398,230.82960470000398,230.82960470000398,230.82960470000398,230.82960470000398,230.82960470000398,13,6,"[0.001282200013520196, 0.05013200000394136, 0.15026140000554733, 0.21697509998921305, 0.26688730000751093, 0.3672384000092279]","[0.017191699997056276, 0.10016050000558607, 0.1835817999963183, 0.25030290000722744, 0.2836195999989286, 0.3672429999860469]",230.82960470000398,231.02972259998205,0.0,231.02972259998205,0,0.0,0,1,1000,num_1,0.8030202999943867,,21,5,2026-03-02_17h39.36.539,2026A_exp2,2022.2.4,59.95225402426044,
1000,1,0.0,0.0,1,0,62,62,29,,,,,231.86389750000671,232.51466919999802,232.51466919999802,232.9990884999861,45,45,232.9990884999861,232.9990884999861,232.9990884999861,232.9990884999861,232.9990884999861,232.9990884999861,232.9990884999861,232.9990884999861,232.9990884999861,233.36557910000556,233.36557910000556,233.36557910000556,233.36557910000556,233.36557910000556,233.36557910000556,233.36557910000556,233.36557910000556,233.36557910000556,22,1,[0.31709999998565763],[0.3338705000060145],233.36557910000556,233.567811099987,1000,233.567811099987,1000,1000,1000,1000,1,num_2,1.0099192000052426,,21,5,2026-03-02_17h39.36.539,2026A_exp2,2022.2.4,59.95225402426044,
1,0,0.0,6.1,1,0,63,63,19,,,,,234.59997320000548,235.2506211999862,235.2506211999862,235.75183299998753,45,45,235.75183299998753,235.75183299998753,235.75183299998753,235.75183299998753,235.75183299998753,235.75183299998753,235.75183299998753,235.75183299998753,235.75183299998753,236.11829670000589,236.11829670000589,236.11829670000589,236.11829670000589,236.11829670000589,236.11829670000589,236.11829670000589,236.11829670000589,236.11829670000589,10,9,"[0.017336699995212257, 0.08367779999389313, 0.1169889000011608, 0.1836491999856662, 0.21695139998337254, 0.25032849999843165, 0.283678499981761, 0.3169536999776028, 0.35044270000071265]","[0.06687149999197572, 0.10033859999384731, 0.16710130000137724, 0.20041959997615777, 0.23373139998875558, 0.2670241000014357, 0.3005459999840241, 0.33380659998510964, 0.3670972999825608]",236.11829670000589,236.31840970000485,6.1,236.31840970000485,1,6.1,1,1,1000,num_4,0.8993484000093304,,21,5,2026-03-02_17h39.36.539,2026A_exp2,2022.2.4,59.95225402426044,
1,0,0.0,6.1,0,0,64,64,24,,,,,237.23589569999604,237.88678080000682,237.88678080000682,238.38770349998958,315,315,238.38770349998958,238.38770349998958,238.38770349998958,238.38770349998958,238.38770349998958,238.38770349998958,238.38770349998958,238.38770349998958,238.38770349998958,238.75428910000483,238.75428910000483,238.75428910000483,238.75428910000483,238.75428910000483,238.75428910000483,238.75428910000483,238.75428910000483,238.75428910000483,20,3,"[0.18375310002011247, 0.21708900001249276, 0.3504642000189051]","[0.20052600000053644, 0.23370969999814406, 0.36709220000193454]",238.75428910000483,238.9542923999834,0.0,238.9542923999834,0,0.0,0,1,1000,num_1,0.8959567999991123,,21,5,2026-03-02_17h39.36.539,2026A_exp2,2022.2.4,59.95225402426044,
1,0,6.1,6.1,1,0,65,65,47,,,,,239.87198900000658,240.5061141999904,240.5061141999904,241.00694170000497,315,45,241.00694170000497,241.00694170000497,241.00694170000497,241.00694170000497,241.00694170000497,241.00694170000497,241.00694170000497,241.00694170000497,241.00694170000497,241.3732427000068,241.3732427000068,241.3732427000068,241.3732427000068,241.3732427000068,241.3732427000068,241.3732427000068,241.3732427000068,241.3732427000068,23,0,,,241.3732427000068,241.57370189999347,6.1,241.57370189999347,1,6.1,1,1,1000,num_4,1.044420899997931,,21,5,2026-03-02_17h39.36.539,2026A_exp2,2022.2.4,59.95225402426044,
1000,1,6.1,4.9,0,0,66,66,51,,,,,242.64137689999188,243.29189110000152,243.29189110000152,243.77647199999774,45,45,243.77647199999774,243.77647199999774,243.77647199999774,243.77647199999774,243.77647199999774,243.77647199999774,243.77647199999774,243.77647199999774,243.77647199999774,244.14298760000383,244.14298760000383,244.14298760000383,244.14298760000383,244.14298760000383,244.14298760000383,244.14298760000383,244.14298760000383,244.14298760000383,6,4,"[0.0013044000079389662, 0.1838213999872096, 0.2671235000016168, 0.3171421999868471]","[0.15028739999979734, 0.23370780001278035, 0.28378759999759495, 0.3672428999852855]",244.14298760000383,244.3449442999845,1000,244.3449442999845,1000,1000,1000,1000,0,num_3,0.6724604000046384,,21,5,2026-03-02_17h39.36.539,2026A_exp2,2022.2.4,59.95225402426044,
1000,1,0.0,0.0,0,0,67,67,64,,,,,245.04372180000064,245.69458360000863,245.69458360000863,246.19557049998548,315,45,246.19557049998548,246.19557049998548,246.19557049998548,246.19557049998548,246.19557049998548,246.19557049998548,246.19557049998548,246.19557049998548,246.19557049998548,246.56188799999654,246.56188799999654,246.56188799999654,246.56188799999654,246.56188799999654,246.56188799999654,246.56188799999654,246.56188799999654,246.56188799999654,0,1,[0.0012372999917715788],[0.3668457999883685],246.56188799999654,246.76423159998376,1000,246.76423159998376,1000,1000,1000,1000,0,num_3,1.204748699994525,,21,5,2026-03-02_17h39.36.539,2026A_exp2,2022.2.4,59.95225402426044,
1000,1,4.9,3.7,0,0,68,68,28,,,,,247.99682349999784,248.64750059999642,248.64750059999642,249.14859520000755,315,45,249.14859520000755,249.14859520000755,249.14859520000755,249.14859520000755,249.14859520000755,249.14859520000755,249.14859520000755,249.14859520000755,249.14859520000755,249.5150953999837,249.5150953999837,249.5150953999837,249.5150953999837,249.5150953999837,249.5150953999837,249.5150953999837,249.5150953999837,249.5150953999837,10,11,"[0.017350400012219325, 0.05033019999973476, 0.08365320001030341, 0.11702299999888055, 0.15047039999626577, 0.1837527999887243, 0.21715010001207702, 0.24996400001691654, 0.28313389999675564, 0.31677740000304766, 0.3502259000088088]","[0.033687899995129555, 0.0669775000133086, 0.10016629999154247, 0.13359030001447536, 0.16707170000881888, 0.20035790000110865, 0.23413110000547022, 0.26637810000102036, 0.299776900006691, 0.33363820001250133, 0.36687610001536086]",249.5150953999837,249.7152669999923,1000,249.7152669999923,1000,1000,1000,1000,0,num_3,0.5503132000158075,,21,5,2026-03-02_17h39.36.539,2026A_exp2,2022.2.4,59.95225402426044,
1000,1,6.1,3.7,1,0,69,69,11,,,,,250.28229000000283,250.9332155000011,250.9332155000011,251.43423650000477,45,45,251.43423650000477,251.43423650000477,251.43423650000477,251.43423650000477,251.43423650000477,251.43423650000477,251.43423650000477,251.43423650000477,251.43423650000477,251.80063749998226,251.80063749998226,251.80063749998226,251.80063749998226,251.80063749998226,251.80063749998226,251.80063749998226,251.80063749998226,251.80063749998226,11,10,"[0.0012453999952413142, 0.03352279998944141, 0.06686329998774454, 0.1001537999836728, 0.13359879999188706, 0.20034280000254512, 0.23376609999104403, 0.26714489998994395, 0.3334235999791417, 0.36693210000521503]","[0.017345999978715554, 0.050200500001665205, 0.08339429998886772, 0.11678359998040833, 0.1835674000030849, 0.21698470000410452, 0.2502849999873433, 0.2835778000007849, 0.34985929998219945, 0.3669359000050463]",251.80063749998226,252.01841960000456,1000,252.01841960000456,1000,1000,1000,1000,0,num_3,0.6068761999777053,,21,5,2026-03-02_17h39.36.539,2026A_exp2,2022.2.4,59.95225402426044,
1,0,0.0,0.0,0,0,70,70,87,,,,,252.65138460000162,253.3018303999852,253.3018303999852,253.8031622999988,315,45,253.8031622999988,253.8031622999988,253.8031622999988,253.8031622999988,253.8031622999988,253.8031622999988,253.8031622999988,253.8031622999988,253.8031622999988,254.16966499999398,254.16966499999398,254.16966499999398,254.16966499999398,254.16966499999398,254.16966499999398,254.16966499999398,254.16966499999398,254.16966499999398,19,2,"[0.0012812000059057027, 0.03336090000811964]","[0.01745470002060756, 0.08362170000327751]",254.16966499999398,254.3698083999916,0.0,254.3698083999916,0,0.0,0,1,1000,num_1,1.0317215000104625,,21,5,2026-03-02_17h39.36.539,2026A_exp2,2022.2.4,59.95225402426044,
1000,1,0.0,0.0,0,0,71,71,72,,,,,255.42076750000706,256.07161039998755,256.07161039998755,256.57273529999657,315,45,256.57273529999657,256.57273529999657,256.57273529999657,256.57273529999657,256.57273529999657,256.57273529999657,256.57273529999657,256.57273529999657,256.57273529999657,256.9390460999857,256.9390460999857,256.9390460999857,256.9390460999857,256.9390460999857,256.9390460999857,256.9390460999857,256.9390460999857,256.9390460999857,23,0,,,256.9390460999857,257.140903099993,1000,257.140903099993,1000,1000,1000,1000,0,num_3,0.924390800006222,,21,5,2026-03-02_17h39.36.539,2026A_exp2,2022.2.4,59.95225402426044,
1,0,0.0,6.1,1,0,72,72,46,,,,,258.0901438999863,258.74086109999917,258.74086109999917,259.2420357000083,315,315,259.2420357000083,259.2420357000083,259.2420357000083,259.2420357000083,259.2420357000083,259.2420357000083,259.2420357000083,259.2420357000083,259.2420357000083,259.5916028000065,259.5916028000065,259.5916028000065,259.5916028000065,259.5916028000065,259.5916028000065,259.5916028000065,259.5916028000065,259.5916028000065,17,3,"[0.01749900000868365, 0.20033439999679103, 0.3167607999930624]","[0.050172899995232, 0.21761890000198036, 0.35021050000796095]",259.5916028000065,259.7919195999857,6.1,259.7919195999857,1,6.1,1,1,1000,num_4,1.5782996999914758,,21,5,2026-03-02_17h39.36.539,2026A_exp2,2022.2.4,59.95225402426044,
0,0,3.7,0.0,1,0,73,73,1,,,,,261.393516799988,262.0441565999936,262.0441565999936,262.5286577999941,45,315,262.5286577999941,262.5286577999941,262.5286577999941,262.5286577999941,262.5286577999941,262.5286577999941,262.5286577999941,262.5286577999941,262.5286577999941,262.89497979998123,262.89497979998123,262.89497979998123,262.89497979998123,262.89497979998123,262.89497979998123,262.89497979998123,262.89497979998123,262.89497979998123,6,5,"[0.017364800005452707, 0.06692369998199865, 0.11691479998989962, 0.15029960000538267, 0.35050969998701476]","[0.033351699996273965, 0.10026929999003187, 0.13348150000092573, 0.3336225999810267, 0.3671297999972012]",262.89497979998123,263.095155899995,3.7,263.095155899995,1,3.7,1,1,1000,num_4,0.906986300018616,,21,5,2026-03-02_17h39.36.539,2026A_exp2,2022.2.4,59.95225402426044,
1000,1,0.0,0.0,1,0,74,74,56,,,,,264.0294072999968,264.6801904999884,264.6801904999884,265.1645307999861,315,45,265.1645307999861,265.1645307999861,265.1645307999861,265.1645307999861,265.1645307999861,265.1645307999861,265.1645307999861,265.1645307999861,265.1645307999861,265.5308734999853,265.5308734999853,265.5308734999853,265.5308734999853,265.5308734999853,265.5308734999853,265.5308734999853,265.5308734999853,265.5308734999853,19,5,"[0.2170378000009805, 0.25057259999448434, 0.2838259999989532, 0.3171167999971658, 0.3506446999963373]","[0.23372990000643767, 0.26707750000059605, 0.3005010999913793, 0.3338184999884106, 0.3672182000009343]",265.5308734999853,265.7331398999959,1000,265.7331398999959,1000,1000,1000,1000,1,num_2,1.4360471999971196,,21,5,2026-03-02_17h39.36.539,2026A_exp2,2022.2.4,59.95225402426044,
1000,1,0.0,4.9,0,0,75,75,0,,,,,267.1996253999823,267.8500691000081,267.8500691000081,268.3512936999905,315,45,268.3512936999905,268.3512936999905,268.3512936999905,268.3512936999905,268.3512936999905,268.3512936999905,268.3512936999905,268.3512936999905,268.3512936999905,268.70090759999584,268.70090759999584,268.70090759999584,268.70090759999584,268.70090759999584,268.70090759999584,268.70090759999584,268.70090759999584,268.70090759999584,0,1,[0.000826600007712841],[0.35076659999322146],268.70090759999584,268.90320359999896,1000,268.91770890000043,1000,1000,1000,1000,1,num_2,0.587220499990508,,21,5,2026-03-02_17h39.36.539,2026A_exp2,2022.2.4,59.95225402426044,
1,0,0.0,0.0,1,0,76,76,33,,,,,269.53485080000246,270.1689972000022,270.1689972000022,270.6739308999968,45,45,270.6739308999968,270.6739308999968,270.6739308999968,270.6739308999968,270.6739308999968,270.6739308999968,270.6739308999968,270.6739308999968,270.6739308999968,271.0365753000078,271.0365753000078,271.0365753000078,271.0365753000078,271.0365753000078,271.0365753000078,271.0365753000078,271.0365753000078,271.0365753000078,23,0,,,271.0365753000078,271.23671319999266,0.0,271.23671319999266,0,0.0,0,1,1000,num_1,1.4363226999994367,,21,5,2026-03-02_17h39.36.539,2026A_exp2,2022.2.4,59.95225402426044,
1000,1,4.9,6.1,0,0,77,77,36,,,,,272.70498479998787,273.3554198000056,273.3554198000056,273.8399119999958,45,315,273.8399119999958,273.8399119999958,273.8399119999958,273.8399119999958,273.8399119999958,273.8399119999958,273.8399119999958,273.8399119999958,273.8399119999958,274.20642979998956,274.20642979998956,274.20642979998956,274.20642979998956,274.20642979998956,274.20642979998956,274.20642979998956,274.20642979998956,274.20642979998956,23,0,,,274.20642979998956,274.4084931999969,1000,274.4084931999969,1000,1000,1000,1000,1,num_2,0.7131449999869801,,21,5,2026-03-02_17h39.36.539,2026A_exp2,2022.2.4,59.95225402426044,
1000,1,4.9,3.7,1,0,78,78,78,,,,,275.14053969999077,275.7912263000035,275.7912263000035,276.2924233000085,45,45,276.2924233000085,276.2924233000085,276.2924233000085,276.2924233000085,276.2924233000085,276.2924233000085,276.2924233000085,276.2924233000085,276.2924233000085,276.6589064,276.6589064,276.6589064,276.6589064,276.6589064,276.6589064,276.6589064,276.6589064,276.6589064,23,0,,,276.6589064,276.8613938000053,1000,276.8613938000053,1000,1000,1000,1000,0,num_3,0.6996157999965362,,21,5,2026-03-02_17h39.36.539,2026A_exp2,2022.2.4,59.95225402426044,
1000,1,0.0,0.0,1,0,79,79,3,,,,,277.57634870000766,278.22694890000275,278.22694890000275,278.72806299998774,315,45,278.72806299998774,278.72806299998774,278.72806299998774,278.72806299998774,278.72806299998774,278.72806299998774,278.72806299998774,278.72806299998774,278.72806299998774,279.0946291,279.0946291,279.0946291,279.0946291,279.0946291,279.0946291,279.0946291,279.0946291,279.0946291,23,0,,,279.0946291,279.2968472999928,1000,279.2968472999928,1000,1000,1000,1000,1,num_2,1.6719798000121955,,21,5,2026-03-02_17h39.36.539,2026A_exp2,2022.2.4,59.95225402426044,
1000,1,6.1,0.0,0,0,80,80,27,,,,,280.9967118999921,281.6471662999829,281.6471662999829,282.1483165999816,315,45,282.1483165999816,282.1483165999816,282.1483165999816,282.1483165999816,282.1483165999816,282.1483165999816,282.1483165999816,282.1483165999816,282.1483165999816,282.4980476000055,282.4980476000055,282.4980476000055,282.4980476000055,282.4980476000055,282.4980476000055,282.4980476000055,282.4980476000055,282.4980476000055,20,2,"[0.01748889998998493, 0.11695440000039525]","[0.033504199993330985, 0.1336373999947682]",282.4980476000055,282.69997459999286,1000,282.69997459999286,1000,1000,1000,1000,0,num_3,0.5413935999968089,,21,5,2026-03-02_17h39.36.539,2026A_exp2,2022.2.4,59.95225402426044,
1000,1,6.1,4.9,0,0,81,81,81,,,,,283.2656238999916,283.9161064999935,283.9161064999935,284.40043399998103,45,315,284.40043399998103,284.40043399998103,284.40043399998103,284.40043399998103,284.40043399998103,284.40043399998103,284.40043399998103,284.40043399998103,284.40043399998103,284.76681840000674,284.76681840000674,284.76681840000674,284.76681840000674,284.76681840000674,284.76681840000674,284.76681840000674,284.76681840000674,284.76681840000674,9,7,"[0.0012402999855112284, 0.08338229998480529, 0.11658829997759312, 0.15039019999676384, 0.18377619999228045, 0.2837707999860868, 0.3505171999859158]","[0.03350749998935498, 0.09994909999659285, 0.13358809999772348, 0.167010199977085, 0.2671466000028886, 0.3338822999794502, 0.36712849998730235]",284.76681840000674,284.9671398999926,1000,284.9671398999926,1000,1000,1000,1000,0,num_3,0.5224359999992885,,21,5,2026-03-02_17h39.36.539,2026A_exp2,2022.2.4,59.95225402426044,
1,0,0.0,4.9,0,0,82,82,32,,,,,285.51776919999975,286.16820919999736,286.16820919999736,286.6694882999873,45,45,286.6694882999873,286.6694882999873,286.6694882999873,286.6694882999873,286.6694882999873,286.6694882999873,286.6694882999873,286.6694882999873,286.6694882999873,287.0193400999997,287.0193400999997,287.0193400999997,287.0193400999997,287.0193400999997,287.0193400999997,287.0193400999997,287.0193400999997,287.0193400999997,8,6,"[0.050289199978578836, 0.11708069997257553, 0.1503340999770444, 0.18368839999311604, 0.2504486999823712, 0.350115499983076]","[0.10028489999240264, 0.13371599998208694, 0.16720069997245446, 0.23376919998554513, 0.333768999989843, 0.35011849997681566]",287.0193400999997,287.21943029999966,0.0,287.21943029999966,0,0.0,0,1,1000,num_1,1.182148199994117,,21,5,2026-03-02_17h39.36.539,2026A_exp2,2022.2.4,59.95225402426044,
1000,1,0.0,4.9,1,0,83,83,37,,,,,288.4204313000082,289.0710705000092,289.0710705000092,289.5555552000005,315,45,289.5555552000005,289.5555552000005,289.5555552000005,289.5555552000005,289.5555552000005,289.5555552000005,289.5555552000005,289.5555552000005,289.5555552000005,289.92213980000815,289.92213980000815,289.92213980000815,289.92213980000815,289.92213980000815,289.92213980000815,289.92213980000815,289.92213980000815,289.92213980000815,23,0,,,289.92213980000815,290.12388090000604,1000,290.12388090000604,1000,1000,1000,1000,1,num_2,1.005309700005455,,21,5,2026-03-02_17h39.36.539,2026A_exp2,2022.2.4,59.95225402426044,
1,0,3.7,0.0,0,0,84,84,10,,,,,291.15687569999136,291.80718539998634,291.80718539998634,292.29165400000056,315,45,292.29165400000056,292.29165400000056,292.29165400000056,292.29165400000056,292.29165400000056,292.29165400000056,292.29165400000056,292.29165400000056,292.29165400000056,292.65812609999557,292.65812609999557,292.65812609999557,292.65812609999557,292.65812609999557,292.65812609999557,292.65812609999557,292.65812609999557,292.65812609999557,18,2,"[0.20037879998562858, 0.36709469999186695]","[0.2670102999836672, 0.36710000000311993]",292.65812609999557,292.85821030000807,3.7,292.85821030000807,1,3.7,1,1,1000,num_4,0.9186151000030804,,21,5,2026-03-02_17h39.36.539,2026A_exp2,2022.2.4,59.95225402426044,
1000,1,3.7,0.0,0,0,85,85,86,,,,,293.7923444999906,294.4431821999897,294.4431821999897,294.9276362999808,315,315,294.9276362999808,294.9276362999808,294.9276362999808,294.9276362999808,294.9276362999808,294.9276362999808,294.9276362999808,294.9276362999808,294.9276362999808,295.29422759998124,295.29422759998124,295.29422759998124,295.29422759998124,295.29422759998124,295.29422759998124,295.29422759998124,295.29422759998124,295.29422759998124,0,2,"[0.0012404999870341271, 0.1502528999990318]","[0.13366530000348575, 0.366983199986862]",295.29422759998124,295.4960725999845,1000,295.4960725999845,1000,1000,1000,1000,0,num_3,0.7380740999942645,,21,5,2026-03-02_17h39.36.539,2026A_exp2,2022.2.4,59.95225402426044,
0,0,6.1,0.0,1,0,86,86,52,,,,,296.2616483999882,296.91244169999845,296.91244169999845,297.41350920000696,315,45,297.41350920000696,297.41350920000696,297.41350920000696,297.41350920000696,297.41350920000696,297.41350920000696,297.41350920000696,297.41350920000696,297.41350920000696,297.779652600002,297.779652600002,297.779652600002,297.779652600002,297.779652600002,297.779652600002,297.779652600002,297.779652600002,297.779652600002,0,1,[0.00119570002425462],[0.3668601000099443],297.779652600002,297.98012009999366,6.1,297.98012009999366,1,6.1,1,1,1000,num_4,2.916945399978431,,21,5,2026-03-02_17h39.36.539,2026A_exp2,2022.2.4,59.95225402426044,
1,0,4.9,4.9,1,0,87,87,9,,,,,300.91624530000263,301.5670964999881,301.5670964999881,302.05155010000453,45,315,302.05155010000453,302.05155010000453,302.05155010000453,302.05155010000453,302.05155010000453,302.05155010000453,302.05155010000453,302.05155010000453,302.05155010000453,302.41791899999953,302.41791899999953,302.41791899999953,302.41791899999953,302.41791899999953,302.41791899999953,302.41791899999953,302.41791899999953,302.41791899999953,8,3,"[0.0012608999968506396, 0.25017149999621324, 0.3669223999895621]","[0.2168457999941893, 0.26677380001638085, 0.36692719999700785]",302.41791899999953,302.6180102000071,4.9,302.6180102000071,1,4.9,1,1,1000,num_4,3.575455599988345,,21,5,2026-03-02_17h39.36.539,2026A_exp2,2022.2.4,59.95225402426044,
1000,1,0.0,0.0,0,0,88,88,7,,,,,306.2215209999995,306.8723660999967,306.8723660999967,307.37345419998746,45,315,307.37345419998746,307.37345419998746,307.37345419998746,307.37345419998746,307.37345419998746,307.37345419998746,307.37345419998746,307.37345419998746,307.37345419998746,307.7398620999884,307.7398620999884,307.7398620999884,307.7398620999884,307.7398620999884,307.7398620999884,307.7398620999884,307.7398620999884,307.7398620999884,23,0,,,307.7398620999884,307.9399863999861,1000,307.9399863999861,1000,1000,1000,1000,0,num_3,1.1579564999847207,,21,5,2026-03-02_17h39.36.539,2026A_exp2,2022.2.4,59.95225402426044,
1,0,0.0,0.0,1,0,89,89,83,,,,,309.12456619998557,309.7753606000042,309.7753606000042,310.2763885000022,315,45,310.2763885000022,310.2763885000022,310.2763885000022,310.2763885000022,310.2763885000022,310.2763885000022,310.2763885000022,310.2763885000022,310.2763885000022,310.6428451999964,310.6428451999964,310.6428451999964,310.6428451999964,310.6428451999964,310.6428451999964,310.6428451999964,310.6428451999964,310.6428451999964,18,1,[0.283709400013322],[0.3671325000177603],310.6428451999964,310.84289549998357,0.0,310.84289549998357,0,0.0,0,1,1000,num_1,0.7419965000008233,,21,5,2026-03-02_17h39.36.539,2026A_exp2,2022.2.4,59.95225402426044,
,,,,,,,,,,,,,,,,,,,,,,,,,,,,,,,,,,,,,,,,,,,,,,,,,,,,311.61980079999194,,,,,,,
