validity,detectorcomp,contrastCW,contrastCCW,precueCWorCCW,block_80trials.thisRepN,block_80trials.thisTrialN,block_80trials.thisN,block_80trials.thisIndex,etRecord.started,etRecord.stopped,text.started,text.stopped,text_4.started,text_4.stopped,text_6.started,text_6.stopped,oriCW,oriCCW,roi_2.started,grating_UR.started,grating_UL.started,grating_LR.started,grating_LL.started,noise_UR.started,noise_UL.started,noise_LR.started,noise_LL.started,roi_2.stopped,grating_UR.stopped,grating_UL.stopped,grating_LR.stopped,grating_LL.stopped,noise_UR.stopped,noise_UL.stopped,noise_LR.stopped,noise_LL.stopped,outframe,roi_2.numLooks,roi_2.timesOn,roi_2.timesOff,text_2.started,text_2.stopped,probedcontrast,key_resp.started,respdetect,relevantContrast,correctDetect,TorFdetect,respCWorCCW,key_resp.keys,key_resp.rt,feedback_display_.started,participantNo,blockNo,date,expName,psychopyVersion,frameRate,
1,0,0.0,0.0,0,0,0,0,64,3.42000275850296e-05,3.42000275850296e-05,53.84884669998428,55.85325789998751,55.85325789998751,56.48513799998909,56.48513799998909,57.00371979997726,315,45,57.00371979997726,57.00371979997726,57.00371979997726,57.00371979997726,57.00371979997726,57.00371979997726,57.00371979997726,57.00371979997726,57.00371979997726,57.352871700015385,57.352871700015385,57.352871700015385,57.352871700015385,57.352871700015385,57.352871700015385,57.352871700015385,57.352871700015385,57.352871700015385,0,1,[0.0009281999664381146],[0.3678024999680929],57.352871700015385,57.55302140000276,0.0,57.55302140000276,1,0.0,0,0,1000,num_4,2.632026399951428,,25,3,2026-03-04_17h18.52.494,2026A_exp2,2022.2.4,59.98512368778086,
1000,1,0.0,0.0,0,0,1,1,75,,,,,60.20571820001351,60.85631420003483,60.85631420003483,61.34057230001781,45,315,61.34057230001781,61.34057230001781,61.34057230001781,61.34057230001781,61.34057230001781,61.34057230001781,61.34057230001781,61.34057230001781,61.34057230001781,61.70683839998674,61.70683839998674,61.70683839998674,61.70683839998674,61.70683839998674,61.70683839998674,61.70683839998674,61.70683839998674,61.70683839998674,23,0,,,61.70683839998674,61.91193010000279,1000,61.91193010000279,1000,1000,1000,1000,0,num_3,0.8093625999754295,,25,3,2026-03-04_17h18.52.494,2026A_exp2,2022.2.4,59.98512368778086,
1000,1,4.9,3.7,1,0,2,2,67,,,,,62.74165759998141,63.39215560001321,63.39215560001321,63.89342109998688,315,315,63.89342109998688,63.89342109998688,63.89342109998688,63.89342109998688,63.89342109998688,63.89342109998688,63.89342109998688,63.89342109998688,63.89342109998688,64.25967230001697,64.25967230001697,64.25967230001697,64.25967230001697,64.25967230001697,64.25967230001697,64.25967230001697,64.25967230001697,64.25967230001697,23,0,,,64.25967230001697,64.4618595999782,1000,64.4618595999782,1000,1000,1000,1000,1,num_2,0.8586120000109076,,25,3,2026-03-04_17h18.52.494,2026A_exp2,2022.2.4,59.98512368778086,
1000,1,0.0,4.9,1,0,3,3,27,,,,,65.3446280999924,65.97854600002756,65.97854600002756,66.49591820000205,315,315,66.49591820000205,66.49591820000205,66.49591820000205,66.49591820000205,66.49591820000205,66.49591820000205,66.49591820000205,66.49591820000205,66.49591820000205,66.84559879999142,66.84559879999142,66.84559879999142,66.84559879999142,66.84559879999142,66.84559879999142,66.84559879999142,66.84559879999142,66.84559879999142,0,1,[0.0007291999645531178],[0.35074169997824356],66.84559879999142,67.04575889999978,1000,67.04575889999978,1000,1000,1000,1000,1,num_2,1.2992074000067078,,25,3,2026-03-04_17h18.52.494,2026A_exp2,2022.2.4,59.98512368778086,
1,0,0.0,0.0,0,0,4,4,2,,,,,68.36348790000193,68.99736680003116,68.99736680003116,69.49901949998457,45,45,69.49901949998457,69.49901949998457,69.49901949998457,69.49901949998457,69.49901949998457,69.49901949998457,69.49901949998457,69.49901949998457,69.49901949998457,69.8649979000329,69.8649979000329,69.8649979000329,69.8649979000329,69.8649979000329,69.8649979000329,69.8649979000329,69.8649979000329,69.8649979000329,0,1,[0.0009669000282883644],[0.3660856000497006],69.8649979000329,70.06525500002317,0.0,70.06525500002317,1,0.0,0,0,1000,num_4,1.9675579999457113,,25,3,2026-03-04_17h18.52.494,2026A_exp2,2022.2.4,59.98512368778086,
1,0,0.0,3.7,1,0,5,5,57,,,,,72.05099389998941,72.70158749999246,72.70158749999246,73.185854499985,45,45,73.185854499985,73.185854499985,73.185854499985,73.185854499985,73.185854499985,73.185854499985,73.185854499985,73.185854499985,73.185854499985,73.55242930003442,73.55242930003442,73.55242930003442,73.55242930003442,73.55242930003442,73.55242930003442,73.55242930003442,73.55242930003442,73.55242930003442,23,0,,,73.55242930003442,73.7525019000168,3.7,73.7525019000168,1,3.7,1,1,1000,num_4,0.7925748999696225,,25,3,2026-03-04_17h18.52.494,2026A_exp2,2022.2.4,59.98512368778086,
1000,1,6.1,4.9,1,0,6,6,16,,,,,74.56999079999514,75.22075819998281,75.22075819998281,75.70505540003069,315,45,75.70505540003069,75.70505540003069,75.70505540003069,75.70505540003069,75.70505540003069,75.70505540003069,75.70505540003069,75.70505540003069,75.70505540003069,76.07153630000539,76.07153630000539,76.07153630000539,76.07153630000539,76.07153630000539,76.07153630000539,76.07153630000539,76.07153630000539,76.07153630000539,23,0,,,76.07153630000539,76.27340940001886,1000,76.27340940001886,1000,1000,1000,1000,1,num_2,0.7510966000263579,,25,3,2026-03-04_17h18.52.494,2026A_exp2,2022.2.4,59.98512368778086,
1,0,4.9,0.0,0,0,7,7,48,,,,,77.05597679998027,77.70647079998162,77.70647079998162,78.19086229999084,45,45,78.19086229999084,78.19086229999084,78.19086229999084,78.19086229999084,78.19086229999084,78.19086229999084,78.19086229999084,78.19086229999084,78.19086229999084,78.55737160000717,78.55737160000717,78.55737160000717,78.55737160000717,78.55737160000717,78.55737160000717,78.55737160000717,78.55737160000717,78.55737160000717,0,1,[0.0012943000183440745],[0.36696960002882406],78.55737160000717,78.75749990000622,4.9,78.75749990000622,1,4.9,1,1,1000,num_4,0.9709323000279255,,25,3,2026-03-04_17h18.52.494,2026A_exp2,2022.2.4,59.98512368778086,
1,0,4.9,6.1,1,0,8,8,86,,,,,79.75848409999162,80.40922000003047,80.40922000003047,80.89352290000534,315,315,80.89352290000534,80.89352290000534,80.89352290000534,80.89352290000534,80.89352290000534,80.89352290000534,80.89352290000534,80.89352290000534,80.89352290000534,81.26058820000617,81.26058820000617,81.26058820000617,81.26058820000617,81.26058820000617,81.26058820000617,81.26058820000617,81.26058820000617,81.26058820000617,0,1,[0.001158400031272322],[0.3670832000207156],81.26058820000617,81.4603114000056,6.1,81.4603114000056,1,6.1,1,1,1000,num_4,1.092764700006228,,25,3,2026-03-04_17h18.52.494,2026A_exp2,2022.2.4,59.98512368778086,
0,0,0.0,4.9,0,0,9,9,54,,,,,82.57797739998205,83.228782900027,83.228782900027,83.71307850000449,45,45,83.71307850000449,83.71307850000449,83.71307850000449,83.71307850000449,83.71307850000449,83.71307850000449,83.71307850000449,83.71307850000449,83.71307850000449,84.07967860001372,84.07967860001372,84.07967860001372,84.07967860001372,84.07967860001372,84.07967860001372,84.07967860001372,84.07967860001372,84.07967860001372,21,1,[0.23366410000016913],[0.26705679995939136],84.07967860001372,84.27962570003001,4.9,84.27962570003001,1,4.9,1,1,1000,num_4,0.5610145999817178,,25,3,2026-03-04_17h18.52.494,2026A_exp2,2022.2.4,59.98512368778086,
1000,1,0.0,4.9,1,0,10,10,51,,,,,84.86360280000372,85.5142522000242,85.5142522000242,86.01536339998711,315,315,86.01536339998711,86.01536339998711,86.01536339998711,86.01536339998711,86.01536339998711,86.01536339998711,86.01536339998711,86.01536339998711,86.01536339998711,86.36503630003426,86.36503630003426,86.36503630003426,86.36503630003426,86.36503630003426,86.36503630003426,86.36503630003426,86.36503630003426,86.36503630003426,22,0,,,86.36503630003426,86.5671938000014,1000,86.5671938000014,1000,1000,1000,1000,1,num_2,0.6264896999928169,,25,3,2026-03-04_17h18.52.494,2026A_exp2,2022.2.4,59.98512368778086,
1,0,0.0,0.0,0,0,11,11,38,,,,,87.21610760001931,87.86661349999486,87.86661349999486,88.3677196999779,45,45,88.3677196999779,88.3677196999779,88.3677196999779,88.3677196999779,88.3677196999779,88.3677196999779,88.3677196999779,88.3677196999779,88.3677196999779,88.7342415000312,88.7342415000312,88.7342415000312,88.7342415000312,88.7342415000312,88.7342415000312,88.7342415000312,88.7342415000312,88.7342415000312,23,0,,,88.7342415000312,88.93447209999431,0.0,88.93447209999431,1,0.0,0,0,1000,num_4,0.8021316999802366,,25,3,2026-03-04_17h18.52.494,2026A_exp2,2022.2.4,59.98512368778086,
1,0,0.0,0.0,0,0,12,12,81,,,,,89.76866850000806,90.41926950000925,90.41926950000925,90.90373010002077,315,45,90.90373010002077,90.90373010002077,90.90373010002077,90.90373010002077,90.90373010002077,90.90373010002077,90.90373010002077,90.90373010002077,90.90373010002077,91.27015990001382,91.27015990001382,91.27015990001382,91.27015990001382,91.27015990001382,91.27015990001382,91.27015990001382,91.27015990001382,91.27015990001382,21,2,"[0.017445200006477535, 0.050323500006925315]","[0.03347259998554364, 0.06685150001430884]",91.27015990001382,91.47025280003436,0.0,91.47025280003436,0,0.0,0,1,1000,num_1,1.3391135999700055,,25,3,2026-03-04_17h18.52.494,2026A_exp2,2022.2.4,59.98512368778086,
1000,1,4.9,0.0,1,0,13,13,72,,,,,92.83822789997794,93.48897160001798,93.48897160001798,93.97330319997855,45,45,93.97330319997855,93.97330319997855,93.97330319997855,93.97330319997855,93.97330319997855,93.97330319997855,93.97330319997855,93.97330319997855,93.97330319997855,94.33978260000004,94.33978260000004,94.33978260000004,94.33978260000004,94.33978260000004,94.33978260000004,94.33978260000004,94.33978260000004,94.33978260000004,23,0,,,94.33978260000004,94.54218899999978,1000,94.54218899999978,1000,1000,1000,1000,1,num_2,1.267736999958288,,25,3,2026-03-04_17h18.52.494,2026A_exp2,2022.2.4,59.98512368778086,
1,0,0.0,0.0,1,0,14,14,41,,,,,95.84162319998723,96.49203650001436,96.49203650001436,96.97639359999448,45,315,96.97639359999448,96.97639359999448,96.97639359999448,96.97639359999448,96.97639359999448,96.97639359999448,96.97639359999448,96.97639359999448,96.97639359999448,97.34287430002587,97.34287430002587,97.34287430002587,97.34287430002587,97.34287430002587,97.34287430002587,97.34287430002587,97.34287430002587,97.34287430002587,23,0,,,97.34287430002587,97.54313820000971,0.0,97.54313820000971,1,0.0,0,0,1000,num_4,1.1944581000134349,,25,3,2026-03-04_17h18.52.494,2026A_exp2,2022.2.4,59.98512368778086,
1000,1,4.9,3.7,1,0,15,15,32,,,,,98.76101289998041,99.41160739999032,99.41160739999032,99.89591180003481,315,315,99.89591180003481,99.89591180003481,99.89591180003481,99.89591180003481,99.89591180003481,99.89591180003481,99.89591180003481,99.89591180003481,99.89591180003481,100.26240200002212,100.26240200002212,100.26240200002212,100.26240200002212,100.26240200002212,100.26240200002212,100.26240200002212,100.26240200002212,100.26240200002212,23,0,,,100.26240200002212,100.4648871999816,1000,100.4648871999816,1000,1000,1000,1000,0,num_3,0.9045952999731526,,25,3,2026-03-04_17h18.52.494,2026A_exp2,2022.2.4,59.98512368778086,
1000,1,4.9,0.0,0,0,16,16,22,,,,,101.39679959998466,102.04754410003079,102.04754410003079,102.54870460001985,45,315,102.54870460001985,102.54870460001985,102.54870460001985,102.54870460001985,102.54870460001985,102.54870460001985,102.54870460001985,102.54870460001985,102.54870460001985,102.89827320002951,102.89827320002951,102.89827320002951,102.89827320002951,102.89827320002951,102.89827320002951,102.89827320002951,102.89827320002951,102.89827320002951,22,0,,,102.89827320002951,103.10078600002453,1000,103.10078600002453,1000,1000,1000,1000,0,num_3,0.6042731000343338,,25,3,2026-03-04_17h18.52.494,2026A_exp2,2022.2.4,59.98512368778086,
1000,1,6.1,0.0,1,0,17,17,60,,,,,103.73258200002601,104.38327520003077,104.38327520003077,104.88436030002777,315,315,104.88436030002777,104.88436030002777,104.88436030002777,104.88436030002777,104.88436030002777,104.88436030002777,104.88436030002777,104.88436030002777,104.88436030002777,105.25078270002268,105.25078270002268,105.25078270002268,105.25078270002268,105.25078270002268,105.25078270002268,105.25078270002268,105.25078270002268,105.25078270002268,23,0,,,105.25078270002268,105.45308730000397,1000,105.45308730000397,1000,1000,1000,1000,0,num_3,0.6435455000028014,,25,3,2026-03-04_17h18.52.494,2026A_exp2,2022.2.4,59.98512368778086,
1000,1,4.9,0.0,0,0,18,18,36,,,,,106.11808340001153,106.75220119999722,106.75220119999722,107.25326399999904,315,315,107.25326399999904,107.25326399999904,107.25326399999904,107.25326399999904,107.25326399999904,107.25326399999904,107.25326399999904,107.25326399999904,107.25326399999904,107.61967029998777,107.61967029998777,107.61967029998777,107.61967029998777,107.61967029998777,107.61967029998777,107.61967029998777,107.61967029998777,107.61967029998777,23,0,,,107.61967029998777,107.82217340002535,1000,107.82217340002535,1000,1000,1000,1000,0,num_3,0.5067000999697484,,25,3,2026-03-04_17h18.52.494,2026A_exp2,2022.2.4,59.98512368778086,
1000,1,0.0,6.1,0,0,19,19,34,,,,,108.35373560001608,109.00443369999994,109.00443369999994,109.50567400001455,315,315,109.50567400001455,109.50567400001455,109.50567400001455,109.50567400001455,109.50567400001455,109.50567400001455,109.50567400001455,109.50567400001455,109.50567400001455,109.87203129997943,109.87203129997943,109.87203129997943,109.87203129997943,109.87203129997943,109.87203129997943,109.87203129997943,109.87203129997943,109.87203129997943,23,0,,,109.87203129997943,110.07452349999221,1000,110.07452349999221,1000,1000,1000,1000,1,num_2,0.4547919000033289,,25,3,2026-03-04_17h18.52.494,2026A_exp2,2022.2.4,59.98512368778086,
1,0,0.0,0.0,0,0,20,20,59,,,,,110.55602229997749,111.20663079997757,111.20663079997757,111.70768550003413,45,315,111.70768550003413,111.70768550003413,111.70768550003413,111.70768550003413,111.70768550003413,111.70768550003413,111.70768550003413,111.70768550003413,111.70768550003413,112.0742881000042,112.0742881000042,112.0742881000042,112.0742881000042,112.0742881000042,112.0742881000042,112.0742881000042,112.0742881000042,112.0742881000042,21,1,[0.001219599973410368],[0.03339120000600815],112.0742881000042,112.27440759999445,0.0,112.27440759999445,0,0.0,0,1,1000,num_1,1.4383696999866515,,25,3,2026-03-04_17h18.52.494,2026A_exp2,2022.2.4,59.98512368778086,
1,0,4.9,6.1,0,0,21,21,15,,,,,113.74251810001442,114.39319640002213,114.39319640002213,114.87762470002053,315,315,114.87762470002053,114.87762470002053,114.87762470002053,114.87762470002053,114.87762470002053,114.87762470002053,114.87762470002053,114.87762470002053,114.87762470002053,115.24395879998337,115.24395879998337,115.24395879998337,115.24395879998337,115.24395879998337,115.24395879998337,115.24395879998337,115.24395879998337,115.24395879998337,23,0,,,115.24395879998337,115.44413730001543,4.9,115.44413730001543,0,4.9,1,0,1000,num_1,1.0681342000025325,,25,3,2026-03-04_17h18.52.494,2026A_exp2,2022.2.4,59.98512368778086,
1000,1,6.1,0.0,0,0,22,22,33,,,,,116.5286436000024,117.17915280000307,117.17915280000307,117.66379160003271,45,45,117.66379160003271,117.66379160003271,117.66379160003271,117.66379160003271,117.66379160003271,117.66379160003271,117.66379160003271,117.66379160003271,117.66379160003271,118.0301592000178,118.0301592000178,118.0301592000178,118.0301592000178,118.0301592000178,118.0301592000178,118.0301592000178,118.0301592000178,118.0301592000178,2,2,"[0.0012953000259585679, 0.31711930001620203]","[0.28364959999453276, 0.36718639999162406]",118.0301592000178,118.2325232999865,1000,118.2325232999865,1000,1000,1000,1000,0,num_3,0.9676429000101052,,25,3,2026-03-04_17h18.52.494,2026A_exp2,2022.2.4,59.98512368778086,
1000,1,0.0,4.9,0,0,23,23,77,,,,,119.23120029998245,119.88202020002063,119.88202020002063,120.38319969997974,315,45,120.38319969997974,120.38319969997974,120.38319969997974,120.38319969997974,120.38319969997974,120.38319969997974,120.38319969997974,120.38319969997974,120.38319969997974,120.74960949999513,120.74960949999513,120.74960949999513,120.74960949999513,120.74960949999513,120.74960949999513,120.74960949999513,120.74960949999513,120.74960949999513,23,0,,,120.74960949999513,120.9499644000316,1000,120.9499644000316,1000,1000,1000,1000,1,num_2,0.491113799973391,,25,3,2026-03-04_17h18.52.494,2026A_exp2,2022.2.4,59.98512368778086,
1000,1,0.0,0.0,1,0,24,24,14,,,,,121.4669389000046,122.11768470000243,122.11768470000243,122.61862929997733,45,315,122.61862929997733,122.61862929997733,122.61862929997733,122.61862929997733,122.61862929997733,122.61862929997733,122.61862929997733,122.61862929997733,122.61862929997733,122.96849030000158,122.96849030000158,122.96849030000158,122.96849030000158,122.96849030000158,122.96849030000158,122.96849030000158,122.96849030000158,122.96849030000158,22,0,,,122.96849030000158,123.17053140001372,1000,123.18544319999637,1000,1000,1000,1000,0,num_3,0.823872700042557,,25,3,2026-03-04_17h18.52.494,2026A_exp2,2022.2.4,59.98512368778086,
1000,1,6.1,4.9,1,0,25,25,53,,,,,124.03611899999669,124.68673820002005,124.68673820002005,125.18785350001417,45,315,125.18785350001417,125.18785350001417,125.18785350001417,125.18785350001417,125.18785350001417,125.18785350001417,125.18785350001417,125.18785350001417,125.18785350001417,125.53771310002776,125.53771310002776,125.53771310002776,125.53771310002776,125.53771310002776,125.53771310002776,125.53771310002776,125.53771310002776,125.53771310002776,22,0,,,125.53771310002776,125.73969399998896,1000,125.73969399998896,1000,1000,1000,1000,1,num_2,0.7489089999580756,,25,3,2026-03-04_17h18.52.494,2026A_exp2,2022.2.4,59.98512368778086,
1000,1,0.0,4.9,0,0,26,26,11,,,,,126.5052700000233,127.15597540000454,127.15597540000454,127.65704530000221,45,45,127.65704530000221,127.65704530000221,127.65704530000221,127.65704530000221,127.65704530000221,127.65704530000221,127.65704530000221,127.65704530000221,127.65704530000221,128.02337320003426,128.02337320003426,128.02337320003426,128.02337320003426,128.02337320003426,128.02337320003426,128.02337320003426,128.02337320003426,128.02337320003426,23,0,,,128.02337320003426,128.2255959000322,1000,128.2255959000322,1000,1000,1000,1000,1,num_2,0.8476412000018172,,25,3,2026-03-04_17h18.52.494,2026A_exp2,2022.2.4,59.98512368778086,
1,0,0.0,0.0,1,0,27,27,66,,,,,129.09115230001044,129.74193180003203,129.74193180003203,130.24309180001728,45,45,130.24309180001728,130.24309180001728,130.24309180001728,130.24309180001728,130.24309180001728,130.24309180001728,130.24309180001728,130.24309180001728,130.24309180001728,130.59266020002542,130.59266020002542,130.59266020002542,130.59266020002542,130.59266020002542,130.59266020002542,130.59266020002542,130.59266020002542,130.59266020002542,22,0,,,130.59266020002542,130.79288969998015,0.0,130.79288969998015,1,0.0,0,0,1000,num_4,0.6961309000034817,,25,3,2026-03-04_17h18.52.494,2026A_exp2,2022.2.4,59.98512368778086,
0,0,0.0,0.0,1,0,28,28,62,,,,,131.5101449000067,132.16100560000632,132.16100560000632,132.64545200002613,315,315,132.64545200002613,132.64545200002613,132.64545200002613,132.64545200002613,132.64545200002613,132.64545200002613,132.64545200002613,132.64545200002613,132.64545200002613,133.01188740000362,133.01188740000362,133.01188740000362,133.01188740000362,133.01188740000362,133.01188740000362,133.01188740000362,133.01188740000362,133.01188740000362,23,0,,,133.01188740000362,133.212081100035,0.0,133.212081100035,1,0.0,0,0,1000,num_4,1.2527706999680959,,25,3,2026-03-04_17h18.52.494,2026A_exp2,2022.2.4,59.98512368778086,
0,0,0.0,0.0,1,0,29,29,8,,,,,134.49671049998142,135.13067729998147,135.13067729998147,135.63175320002483,315,315,135.63175320002483,135.63175320002483,135.63175320002483,135.63175320002483,135.63175320002483,135.63175320002483,135.63175320002483,135.63175320002483,135.63175320002483,135.99797319999197,135.99797319999197,135.99797319999197,135.99797319999197,135.99797319999197,135.99797319999197,135.99797319999197,135.99797319999197,135.99797319999197,23,0,,,135.99797319999197,136.19842570001492,0.0,136.19842570001492,0,0.0,0,1,1000,num_1,0.6418193000135943,,25,3,2026-03-04_17h18.52.494,2026A_exp2,2022.2.4,59.98512368778086,
1,0,0.0,0.0,1,0,30,30,70,,,,,136.8655764000141,137.51641350000864,137.51641350000864,138.00083969999105,315,45,138.00083969999105,138.00083969999105,138.00083969999105,138.00083969999105,138.00083969999105,138.00083969999105,138.00083969999105,138.00083969999105,138.00083969999105,138.36703179997858,138.36703179997858,138.36703179997858,138.36703179997858,138.36703179997858,138.36703179997858,138.36703179997858,138.36703179997858,138.36703179997858,23,0,,,138.36703179997858,138.56732889998239,0.0,138.56732889998239,1,0.0,0,0,1000,num_4,0.7377664999803528,,25,3,2026-03-04_17h18.52.494,2026A_exp2,2022.2.4,59.98512368778086,
1,0,0.0,3.7,0,0,31,31,12,,,,,139.33468780003022,139.98534120002296,139.98534120002296,140.46998460002942,315,45,140.46998460002942,140.46998460002942,140.46998460002942,140.46998460002942,140.46998460002942,140.46998460002942,140.46998460002942,140.46998460002942,140.46998460002942,140.83636900002602,140.83636900002602,140.83636900002602,140.83636900002602,140.83636900002602,140.83636900002602,140.83636900002602,140.83636900002602,140.83636900002602,23,0,,,140.83636900002602,141.03652339999098,0.0,141.03652339999098,0,0.0,0,1,1000,num_1,1.1483169999555685,,25,3,2026-03-04_17h18.52.494,2026A_exp2,2022.2.4,59.98512368778086,
1,0,3.7,4.9,1,0,32,32,39,,,,,142.20448780001607,142.854943000013,142.854943000013,143.33930829999736,315,45,143.33930829999736,143.33930829999736,143.33930829999736,143.33930829999736,143.33930829999736,143.33930829999736,143.33930829999736,143.33930829999736,143.33930829999736,143.70588229998248,143.70588229998248,143.70588229998248,143.70588229998248,143.70588229998248,143.70588229998248,143.70588229998248,143.70588229998248,143.70588229998248,23,0,,,143.70588229998248,143.90597479999997,4.9,143.90597479999997,1,4.9,1,1,1000,num_4,1.5588504999759607,,25,3,2026-03-04_17h18.52.494,2026A_exp2,2022.2.4,59.98512368778086,
1000,1,4.9,0.0,0,0,33,33,58,,,,,145.490852500021,146.14145340002142,146.14145340002142,146.62592229997972,45,315,146.62592229997972,146.62592229997972,146.62592229997972,146.62592229997972,146.62592229997972,146.62592229997972,146.62592229997972,146.62592229997972,146.62592229997972,146.99232910003047,146.99232910003047,146.99232910003047,146.99232910003047,146.99232910003047,146.99232910003047,146.99232910003047,146.99232910003047,146.99232910003047,18,2,"[0.0016006000223569572, 0.3668042999925092]","[0.05020900000818074, 0.366809600032866]",146.99232910003047,147.19449640001403,1000,147.19449640001403,1000,1000,1000,1000,0,num_3,0.6711662000161596,,25,3,2026-03-04_17h18.52.494,2026A_exp2,2022.2.4,59.98512368778086,
1,0,6.1,0.0,0,0,34,34,50,,,,,147.89363509998657,148.54401260003215,148.54401260003215,149.02856230002362,315,45,149.02856230002362,149.02856230002362,149.02856230002362,149.02856230002362,149.02856230002362,149.02856230002362,149.02856230002362,149.02856230002362,149.02856230002362,149.39477950002765,149.39477950002765,149.39477950002765,149.39477950002765,149.39477950002765,149.39477950002765,149.39477950002765,149.39477950002765,149.39477950002765,23,0,,,149.39477950002765,149.59503790002782,6.1,149.59503790002782,1,6.1,1,1,1000,num_4,0.9093240000074729,,25,3,2026-03-04_17h18.52.494,2026A_exp2,2022.2.4,59.98512368778086,
1,0,0.0,6.1,0,0,35,35,68,,,,,150.52915630000643,151.1800321000046,151.1800321000046,151.66432859998895,45,45,151.66432859998895,151.66432859998895,151.66432859998895,151.66432859998895,151.66432859998895,151.66432859998895,151.66432859998895,151.66432859998895,151.66432859998895,152.03084700001637,152.03084700001637,152.03084700001637,152.03084700001637,152.03084700001637,152.03084700001637,152.03084700001637,152.03084700001637,152.03084700001637,23,0,,,152.03084700001637,152.2309052000055,0.0,152.2309052000055,0,0.0,0,1,1000,num_1,1.385799500043504,,25,3,2026-03-04_17h18.52.494,2026A_exp2,2022.2.4,59.98512368778086,
1000,1,0.0,0.0,1,0,36,36,29,,,,,153.63263489998644,154.28317579999566,154.28317579999566,154.76759449997917,45,315,154.76759449997917,154.76759449997917,154.76759449997917,154.76759449997917,154.76759449997917,154.76759449997917,154.76759449997917,154.76759449997917,154.76759449997917,155.1340169000323,155.1340169000323,155.1340169000323,155.1340169000323,155.1340169000323,155.1340169000323,155.1340169000323,155.1340169000323,155.1340169000323,23,0,,,155.1340169000323,155.33600130002014,1000,155.33600130002014,1000,1000,1000,1000,1,num_2,0.6331747000222094,,25,3,2026-03-04_17h18.52.494,2026A_exp2,2022.2.4,59.98512368778086,
1000,1,3.7,0.0,1,0,37,37,79,,,,,155.98489389999304,156.6352121999953,156.6352121999953,157.13653130002785,315,45,157.13653130002785,157.13653130002785,157.13653130002785,157.13653130002785,157.13653130002785,157.13653130002785,157.13653130002785,157.13653130002785,157.13653130002785,157.5030297000194,157.5030297000194,157.5030297000194,157.5030297000194,157.5030297000194,157.5030297000194,157.5030297000194,157.5030297000194,157.5030297000194,23,0,,,157.5030297000194,157.70530069997767,1000,157.70530069997767,1000,1000,1000,1000,0,num_3,0.5036306999973021,,25,3,2026-03-04_17h18.52.494,2026A_exp2,2022.2.4,59.98512368778086,
1,0,4.9,0.0,1,0,38,38,84,,,,,158.23711450002156,158.88773950003088,158.88773950003088,159.3887116999831,45,315,159.3887116999831,159.3887116999831,159.3887116999831,159.3887116999831,159.3887116999831,159.3887116999831,159.3887116999831,159.3887116999831,159.3887116999831,159.75524640001822,159.75524640001822,159.75524640001822,159.75524640001822,159.75524640001822,159.75524640001822,159.75524640001822,159.75524640001822,159.75524640001822,23,0,,,159.75524640001822,159.9554560999968,0.0,159.9554560999968,1,0.0,0,0,1000,num_4,0.5649335999623872,,25,3,2026-03-04_17h18.52.494,2026A_exp2,2022.2.4,59.98512368778086,
1,0,0.0,4.9,1,0,39,39,45,,,,,160.53943760000402,161.18998800002737,161.18998800002737,161.69100130000152,45,315,161.69100130000152,161.69100130000152,161.69100130000152,161.69100130000152,161.69100130000152,161.69100130000152,161.69100130000152,161.69100130000152,161.69100130000152,162.05757549998816,162.05757549998816,162.05757549998816,162.05757549998816,162.05757549998816,162.05757549998816,162.05757549998816,162.05757549998816,162.05757549998816,23,0,,,162.05757549998816,162.25762849999592,4.9,162.25762849999592,1,4.9,1,1,1000,num_4,1.4865775000071153,,25,3,2026-03-04_17h18.52.494,2026A_exp2,2022.2.4,59.98512368778086,
1,0,0.0,6.1,0,0,40,40,5,,,,,163.77585520001594,164.4266895999899,164.4266895999899,164.91105539997807,45,45,164.91105539997807,164.91105539997807,164.91105539997807,164.91105539997807,164.91105539997807,164.91105539997807,164.91105539997807,164.91105539997807,164.91105539997807,165.27747710002586,165.27747710002586,165.27747710002586,165.27747710002586,165.27747710002586,165.27747710002586,165.27747710002586,165.27747710002586,165.27747710002586,22,1,[0.0011199000291526318],[0.017462500021792948],165.27747710002586,165.47770119999768,0.0,165.47770119999768,0,0.0,0,1,1000,num_1,0.7145667999866419,,25,3,2026-03-04_17h18.52.494,2026A_exp2,2022.2.4,59.98512368778086,
1000,1,6.1,3.7,1,0,41,41,0,,,,,166.2115194000071,166.86223139998037,166.86223139998037,167.34682899998734,45,315,167.34682899998734,167.34682899998734,167.34682899998734,167.34682899998734,167.34682899998734,167.34682899998734,167.34682899998734,167.34682899998734,167.34682899998734,167.71306690003257,167.71306690003257,167.71306690003257,167.71306690003257,167.71306690003257,167.71306690003257,167.71306690003257,167.71306690003257,167.71306690003257,23,0,,,167.71306690003257,167.91972900001565,1000,167.91972900001565,1000,1000,1000,1000,0,num_3,1.2085775000159629,,25,3,2026-03-04_17h18.52.494,2026A_exp2,2022.2.4,59.98512368778086,
1000,1,0.0,6.1,1,0,42,42,88,,,,,169.1479488000041,169.7986456999788,169.7986456999788,170.29970430000685,45,315,170.29970430000685,170.29970430000685,170.29970430000685,170.29970430000685,170.29970430000685,170.29970430000685,170.29970430000685,170.29970430000685,170.29970430000685,170.64931660000002,170.64931660000002,170.64931660000002,170.64931660000002,170.64931660000002,170.64931660000002,170.64931660000002,170.64931660000002,170.64931660000002,22,0,,,170.64931660000002,170.8521652999916,1000,170.8521652999916,1000,1000,1000,1000,1,num_2,0.6610504999989644,,25,3,2026-03-04_17h18.52.494,2026A_exp2,2022.2.4,59.98512368778086,
0,0,3.7,0.0,1,0,43,43,83,,,,,171.53386590001173,172.18449610000243,172.18449610000243,172.66857099998742,315,315,172.66857099998742,172.66857099998742,172.66857099998742,172.66857099998742,172.66857099998742,172.66857099998742,172.66857099998742,172.66857099998742,172.66857099998742,173.03514260001248,173.03514260001248,173.03514260001248,173.03514260001248,173.03514260001248,173.03514260001248,173.03514260001248,173.03514260001248,173.03514260001248,23,0,,,173.03514260001248,173.23543699999573,3.7,173.23543699999573,0,3.7,1,0,1000,num_1,0.8770109000033699,,25,3,2026-03-04_17h18.52.494,2026A_exp2,2022.2.4,59.98512368778086,
1000,1,4.9,6.1,1,0,44,44,1,,,,,174.13622109999415,174.78694800002268,174.78694800002268,175.27120890002698,45,45,175.27120890002698,175.27120890002698,175.27120890002698,175.27120890002698,175.27120890002698,175.27120890002698,175.27120890002698,175.27120890002698,175.27120890002698,175.63778350001667,175.63778350001667,175.63778350001667,175.63778350001667,175.63778350001667,175.63778350001667,175.63778350001667,175.63778350001667,175.63778350001667,23,0,,,175.63778350001667,175.83961570000974,1000,175.83961570000974,1000,1000,1000,1000,1,num_2,0.625276800012216,,25,3,2026-03-04_17h18.52.494,2026A_exp2,2022.2.4,59.98512368778086,
1000,1,0.0,3.7,0,0,45,45,52,,,,,176.48856810003053,177.13929940003436,177.13929940003436,177.6404316999833,315,315,177.6404316999833,177.6404316999833,177.6404316999833,177.6404316999833,177.6404316999833,177.6404316999833,177.6404316999833,177.6404316999833,177.6404316999833,178.00689550000243,178.00689550000243,178.00689550000243,178.00689550000243,178.00689550000243,178.00689550000243,178.00689550000243,178.00689550000243,178.00689550000243,23,0,,,178.00689550000243,178.2089461000287,1000,178.2089461000287,1000,1000,1000,1000,0,num_3,1.136414899956435,,25,3,2026-03-04_17h18.52.494,2026A_exp2,2022.2.4,59.98512368778086,
1,0,4.9,4.9,1,0,46,46,89,,,,,179.3747426000191,180.0253583000158,180.0253583000158,180.52666650002357,315,45,180.52666650002357,180.52666650002357,180.52666650002357,180.52666650002357,180.52666650002357,180.52666650002357,180.52666650002357,180.52666650002357,180.52666650002357,180.8930811000173,180.8930811000173,180.8930811000173,180.8930811000173,180.8930811000173,180.8930811000173,180.8930811000173,180.8930811000173,180.8930811000173,23,0,,,180.8930811000173,181.09322989999782,4.9,181.09322989999782,1,4.9,1,1,1000,num_4,0.7480866999831051,,25,3,2026-03-04_17h18.52.494,2026A_exp2,2022.2.4,59.98512368778086,
1000,1,0.0,0.0,0,0,47,47,20,,,,,181.86063800001284,182.51125039998442,182.51125039998442,182.99559990002308,45,45,182.99559990002308,182.99559990002308,182.99559990002308,182.99559990002308,182.99559990002308,182.99559990002308,182.99559990002308,182.99559990002308,182.99559990002308,183.36225579999154,183.36225579999154,183.36225579999154,183.36225579999154,183.36225579999154,183.36225579999154,183.36225579999154,183.36225579999154,183.36225579999154,23,0,,,183.36225579999154,183.5635173000046,1000,183.5635173000046,1000,1000,1000,1000,1,num_2,0.8447708000312559,,25,3,2026-03-04_17h18.52.494,2026A_exp2,2022.2.4,59.98512368778086,
1000,1,4.9,0.0,1,0,48,48,25,,,,,184.4298363000271,185.08057950000511,185.08057950000511,185.58169850002741,315,45,185.58169850002741,185.58169850002741,185.58169850002741,185.58169850002741,185.58169850002741,185.58169850002741,185.58169850002741,185.58169850002741,185.58169850002741,185.94779409997864,185.94779409997864,185.94779409997864,185.94779409997864,185.94779409997864,185.94779409997864,185.94779409997864,185.94779409997864,185.94779409997864,21,1,[0.033381399989593774],[0.06735520000802353],185.94779409997864,186.14820649998728,1000,186.14820649998728,1000,1000,1000,1000,0,num_3,0.46060580003540963,,25,3,2026-03-04_17h18.52.494,2026A_exp2,2022.2.4,59.98512368778086,
1,0,4.9,0.0,1,0,49,49,6,,,,,186.63223749998724,187.28266020002775,187.28266020002775,187.7839203000185,315,315,187.7839203000185,187.7839203000185,187.7839203000185,187.7839203000185,187.7839203000185,187.7839203000185,187.7839203000185,187.7839203000185,187.7839203000185,188.13366849999875,188.13366849999875,188.13366849999875,188.13366849999875,188.13366849999875,188.13366849999875,188.13366849999875,188.13366849999875,188.13366849999875,2,1,[0.0012092000106349587],[0.33403239998733625],188.13366849999875,188.333873399999,0.0,188.333873399999,1,0.0,0,0,1000,num_4,0.626841300050728,,25,3,2026-03-04_17h18.52.494,2026A_exp2,2022.2.4,59.98512368778086,
1000,1,3.7,0.0,1,0,50,50,55,,,,,188.98446310003055,189.63501199998427,189.63501199998427,190.1195272000041,315,45,190.1195272000041,190.1195272000041,190.1195272000041,190.1195272000041,190.1195272000041,190.1195272000041,190.1195272000041,190.1195272000041,190.1195272000041,190.48590050003259,190.48590050003259,190.48590050003259,190.48590050003259,190.48590050003259,190.48590050003259,190.48590050003259,190.48590050003259,190.48590050003259,23,0,,,190.48590050003259,190.68855680001434,1000,190.68855680001434,1000,1000,1000,1000,0,num_3,0.5679377999622375,,25,3,2026-03-04_17h18.52.494,2026A_exp2,2022.2.4,59.98512368778086,
1,0,6.1,0.0,1,0,51,51,13,,,,,191.28668289998313,191.93747040000744,191.93747040000744,192.43857880000724,45,315,192.43857880000724,192.43857880000724,192.43857880000724,192.43857880000724,192.43857880000724,192.43857880000724,192.43857880000724,192.43857880000724,192.43857880000724,192.804953999992,192.804953999992,192.804953999992,192.804953999992,192.804953999992,192.804953999992,192.804953999992,192.804953999992,192.804953999992,23,0,,,192.804953999992,193.00514289998682,0.0,193.00514289998682,1,0.0,0,0,1000,num_4,0.5000438999850303,,25,3,2026-03-04_17h18.52.494,2026A_exp2,2022.2.4,59.98512368778086,
0,0,3.7,4.9,1,0,52,52,3,,,,,193.5222551000188,194.1729534000042,194.1729534000042,194.66514080000343,315,315,194.66514080000343,194.66514080000343,194.66514080000343,194.66514080000343,194.66514080000343,194.66514080000343,194.66514080000343,194.66514080000343,194.66514080000343,195.02376000001095,195.02376000001095,195.02376000001095,195.02376000001095,195.02376000001095,195.02376000001095,195.02376000001095,195.02376000001095,195.02376000001095,4,2,"[0.039423100010026246, 0.10035520000383258]","[0.08388300001388416, 0.3656112000462599]",195.02376000001095,195.22395240003243,3.7,195.22395240003243,0,3.7,1,0,1000,num_1,0.9853122999775223,,25,3,2026-03-04_17h18.52.494,2026A_exp2,2022.2.4,59.98512368778086,
1,0,0.0,0.0,1,0,53,53,18,,,,,196.22488729999168,196.87577470001997,196.87577470001997,197.36017790000187,45,315,197.36017790000187,197.36017790000187,197.36017790000187,197.36017790000187,197.36017790000187,197.36017790000187,197.36017790000187,197.36017790000187,197.36017790000187,197.7264623999945,197.7264623999945,197.7264623999945,197.7264623999945,197.7264623999945,197.7264623999945,197.7264623999945,197.7264623999945,197.7264623999945,23,0,,,197.7264623999945,197.92655490001198,0.0,197.92655490001198,0,0.0,0,1,1000,num_1,1.0257302000536583,,25,3,2026-03-04_17h18.52.494,2026A_exp2,2022.2.4,59.98512368778086,
1,0,0.0,3.7,0,0,54,54,78,,,,,198.97768519999227,199.62853049999103,199.62853049999103,200.11290900001768,315,45,200.11290900001768,200.11290900001768,200.11290900001768,200.11290900001768,200.11290900001768,200.11290900001768,200.11290900001768,200.11290900001768,200.11290900001768,200.4793802999775,200.4793802999775,200.4793802999775,200.4793802999775,200.4793802999775,200.4793802999775,200.4793802999775,200.4793802999775,200.4793802999775,23,0,,,200.4793802999775,200.67934219999006,0.0,200.67934219999006,0,0.0,0,1,1000,num_1,0.8329345999518409,,25,3,2026-03-04_17h18.52.494,2026A_exp2,2022.2.4,59.98512368778086,
1,0,0.0,4.9,0,0,55,55,17,,,,,201.53015730000334,202.1808531000279,202.1808531000279,202.6654373999918,45,45,202.6654373999918,202.6654373999918,202.6654373999918,202.6654373999918,202.6654373999918,202.6654373999918,202.6654373999918,202.6654373999918,202.6654373999918,203.03186560003087,203.03186560003087,203.03186560003087,203.03186560003087,203.03186560003087,203.03186560003087,203.03186560003087,203.03186560003087,203.03186560003087,15,3,"[0.18370619998313487, 0.25042820000089705, 0.3340061999624595]","[0.23374589998275042, 0.28361579996999353, 0.3672489000018686]",203.03186560003087,203.23210939997807,0.0,203.23210939997807,0,0.0,0,1,1000,num_1,0.6092347999801859,,25,3,2026-03-04_17h18.52.494,2026A_exp2,2022.2.4,59.98512368778086,
1000,1,3.7,3.7,1,0,56,56,40,,,,,203.86589140002616,204.50014120002743,204.50014120002743,205.0009696999914,315,315,205.0009696999914,205.0009696999914,205.0009696999914,205.0009696999914,205.0009696999914,205.0009696999914,205.0009696999914,205.0009696999914,205.0009696999914,205.36758369999006,205.36758369999006,205.36758369999006,205.36758369999006,205.36758369999006,205.36758369999006,205.36758369999006,205.36758369999006,205.36758369999006,23,0,,,205.36758369999006,205.5693909000256,1000,205.5693909000256,1000,1000,1000,1000,0,num_3,0.7195502000395209,,25,3,2026-03-04_17h18.52.494,2026A_exp2,2022.2.4,59.98512368778086,
1000,1,6.1,0.0,0,0,57,57,19,,,,,206.3184052000288,206.96910200000275,206.96910200000275,207.47031639999477,45,45,207.47031639999477,207.47031639999477,207.47031639999477,207.47031639999477,207.47031639999477,207.47031639999477,207.47031639999477,207.47031639999477,207.47031639999477,207.8366613999824,207.8366613999824,207.8366613999824,207.8366613999824,207.8366613999824,207.8366613999824,207.8366613999824,207.8366613999824,207.8366613999824,21,1,[0.00102680001873523],[0.033842200005892664],207.8366613999824,208.03895740001462,1000,208.03895740001462,1000,1000,1000,1000,0,num_3,0.4737211000174284,,25,3,2026-03-04_17h18.52.494,2026A_exp2,2022.2.4,59.98512368778086,
1,0,4.9,0.0,1,0,58,58,4,,,,,208.53714680002304,209.18794049997814,209.18794049997814,209.69005760003347,315,45,209.69005760003347,209.69005760003347,209.69005760003347,209.69005760003347,209.69005760003347,209.69005760003347,209.69005760003347,209.69005760003347,209.69005760003347,210.0388568000053,210.0388568000053,210.0388568000053,210.0388568000053,210.0388568000053,210.0388568000053,210.0388568000053,210.0388568000053,210.0388568000053,22,0,,,210.0388568000053,210.23908430000301,0.0,210.25576919998275,0,0.0,0,1,1000,num_1,0.6653976999805309,,25,3,2026-03-04_17h18.52.494,2026A_exp2,2022.2.4,59.98512368778086,
0,0,0.0,3.7,1,0,59,59,21,,,,,210.93994180002483,211.57375809998484,211.57375809998484,212.07475710002473,45,315,212.07475710002473,212.07475710002473,212.07475710002473,212.07475710002473,212.07475710002473,212.07475710002473,212.07475710002473,212.07475710002473,212.07475710002473,212.4410438000341,212.4410438000341,212.4410438000341,212.4410438000341,212.4410438000341,212.4410438000341,212.4410438000341,212.4410438000341,212.4410438000341,23,0,,,212.4410438000341,212.64147380000213,0.0,212.64147380000213,1,0.0,0,0,1000,num_4,0.6081324000260793,,25,3,2026-03-04_17h18.52.494,2026A_exp2,2022.2.4,59.98512368778086,
1,0,0.0,4.9,0,0,60,60,71,,,,,213.27562000002945,213.92615569999907,213.92615569999907,214.41059029998723,315,45,214.41059029998723,214.41059029998723,214.41059029998723,214.41059029998723,214.41059029998723,214.41059029998723,214.41059029998723,214.41059029998723,214.41059029998723,214.77694980002707,214.77694980002707,214.77694980002707,214.77694980002707,214.77694980002707,214.77694980002707,214.77694980002707,214.77694980002707,214.77694980002707,23,0,,,214.77694980002707,214.98776889999863,0.0,214.98776889999863,0,0.0,0,1,1000,num_1,0.6128526999964379,,25,3,2026-03-04_17h18.52.494,2026A_exp2,2022.2.4,59.98512368778086,
1000,1,4.9,4.9,0,0,61,61,42,,,,,215.62778769998113,216.27846030000364,216.27846030000364,216.77963030000683,45,45,216.77963030000683,216.77963030000683,216.77963030000683,216.77963030000683,216.77963030000683,216.77963030000683,216.77963030000683,216.77963030000683,216.77963030000683,217.14586490002694,217.14586490002694,217.14586490002694,217.14586490002694,217.14586490002694,217.14586490002694,217.14586490002694,217.14586490002694,217.14586490002694,23,0,,,217.14586490002694,217.34812680003233,1000,217.34812680003233,1000,1000,1000,1000,0,num_3,0.5961297000176273,,25,3,2026-03-04_17h18.52.494,2026A_exp2,2022.2.4,59.98512368778086,
1000,1,0.0,0.0,0,0,62,62,61,,,,,217.96341620001476,218.61413160001393,218.61413160001393,219.1153332000249,315,45,219.1153332000249,219.1153332000249,219.1153332000249,219.1153332000249,219.1153332000249,219.1153332000249,219.1153332000249,219.1153332000249,219.1153332000249,219.4815377999912,219.4815377999912,219.4815377999912,219.4815377999912,219.4815377999912,219.4815377999912,219.4815377999912,219.4815377999912,219.4815377999912,23,0,,,219.4815377999912,219.68374300003052,1000,219.68374300003052,1000,1000,1000,1000,0,num_3,0.46103710000170395,,25,3,2026-03-04_17h18.52.494,2026A_exp2,2022.2.4,59.98512368778086,
1,0,6.1,4.9,1,0,63,63,35,,,,,220.16552889999002,220.81628770002862,220.81628770002862,221.31756729999324,45,315,221.31756729999324,221.31756729999324,221.31756729999324,221.31756729999324,221.31756729999324,221.31756729999324,221.31756729999324,221.31756729999324,221.31756729999324,221.66735070000868,221.66735070000868,221.66735070000868,221.66735070000868,221.66735070000868,221.66735070000868,221.66735070000868,221.66735070000868,221.66735070000868,22,0,,,221.66735070000868,221.86725980002666,4.9,221.8841669000103,1,4.9,1,1,1000,num_4,0.6121756000211462,,25,3,2026-03-04_17h18.52.494,2026A_exp2,2022.2.4,59.98512368778086,
1000,1,4.9,4.9,0,0,64,64,31,,,,,222.5178717999952,223.16869540000334,223.16869540000334,223.65293270000257,315,45,223.65293270000257,223.65293270000257,223.65293270000257,223.65293270000257,223.65293270000257,223.65293270000257,223.65293270000257,223.65293270000257,223.65293270000257,224.019363600004,224.019363600004,224.019363600004,224.019363600004,224.019363600004,224.019363600004,224.019363600004,224.019363600004,224.019363600004,23,0,,,224.019363600004,224.2220510999905,1000,224.2220510999905,1000,1000,1000,1000,0,num_3,0.5232977999839932,,25,3,2026-03-04_17h18.52.494,2026A_exp2,2022.2.4,59.98512368778086,
1,0,6.1,3.7,0,0,65,65,26,,,,,224.77033550001215,225.42154300003313,225.42154300003313,225.92605449998518,315,45,225.92605449998518,225.92605449998518,225.92605449998518,225.92605449998518,225.92605449998518,225.92605449998518,225.92605449998518,225.92605449998518,225.92605449998518,226.2886074000271,226.2886074000271,226.2886074000271,226.2886074000271,226.2886074000271,226.2886074000271,226.2886074000271,226.2886074000271,226.2886074000271,23,0,,,226.2886074000271,226.4910675000283,6.1,226.4910675000283,1,6.1,1,1,1000,num_4,1.517569299961906,,25,3,2026-03-04_17h18.52.494,2026A_exp2,2022.2.4,59.98512368778086,
1000,1,0.0,0.0,1,0,66,66,23,,,,,228.0400449000299,228.69086869998137,228.69086869998137,229.17515760002425,315,45,229.17515760002425,229.17515760002425,229.17515760002425,229.17515760002425,229.17515760002425,229.17515760002425,229.17515760002425,229.17515760002425,229.17515760002425,229.54152500000782,229.54152500000782,229.54152500000782,229.54152500000782,229.54152500000782,229.54152500000782,229.54152500000782,229.54152500000782,229.54152500000782,23,0,,,229.54152500000782,229.743120500003,1000,229.743120500003,1000,1000,1000,1000,0,num_3,0.4177742000319995,,25,3,2026-03-04_17h18.52.494,2026A_exp2,2022.2.4,59.98512368778086,
1,0,3.7,0.0,1,0,67,67,74,,,,,230.19243370002368,230.8430449999869,230.8430449999869,231.3440464999876,315,45,231.3440464999876,231.3440464999876,231.3440464999876,231.3440464999876,231.3440464999876,231.3440464999876,231.3440464999876,231.3440464999876,231.3440464999876,231.69374860002426,231.69374860002426,231.69374860002426,231.69374860002426,231.69374860002426,231.69374860002426,231.69374860002426,231.69374860002426,231.69374860002426,22,0,,,231.69374860002426,231.89389519998804,0.0,231.9104151999927,1,0.0,0,0,1000,num_4,1.585817200015299,,25,3,2026-03-04_17h18.52.494,2026A_exp2,2022.2.4,59.98512368778086,
1,0,0.0,0.0,1,0,68,68,73,,,,,233.51244969997788,234.16303990001325,234.16303990001325,234.64762000000337,45,315,234.64762000000337,234.64762000000337,234.64762000000337,234.64762000000337,234.64762000000337,234.64762000000337,234.64762000000337,234.64762000000337,234.64762000000337,235.01367620000383,235.01367620000383,235.01367620000383,235.01367620000383,235.01367620000383,235.01367620000383,235.01367620000383,235.01367620000383,235.01367620000383,23,0,,,235.01367620000383,235.2138769000303,0.0,235.2138769000303,0,0.0,0,1,1000,num_1,0.6752154999994673,,25,3,2026-03-04_17h18.52.494,2026A_exp2,2022.2.4,59.98512368778086,
1000,1,6.1,3.7,1,0,69,69,24,,,,,235.91458859998966,236.56526920001488,236.56526920001488,237.06655029999092,45,315,237.06655029999092,237.06655029999092,237.06655029999092,237.06655029999092,237.06655029999092,237.06655029999092,237.06655029999092,237.06655029999092,237.06655029999092,237.41609489999246,237.41609489999246,237.41609489999246,237.41609489999246,237.41609489999246,237.41609489999246,237.41609489999246,237.41609489999246,237.41609489999246,22,0,,,237.41609489999246,237.61793750000652,1000,237.61793750000652,1000,1000,1000,1000,0,num_3,0.31121499999426305,,25,3,2026-03-04_17h18.52.494,2026A_exp2,2022.2.4,59.98512368778086,
0,0,0.0,4.9,1,0,70,70,56,,,,,237.95001879998017,238.60071060003247,238.60071060003247,239.10200509999413,45,45,239.10200509999413,239.10200509999413,239.10200509999413,239.10200509999413,239.10200509999413,239.10200509999413,239.10200509999413,239.10200509999413,239.10200509999413,239.46830830001272,239.46830830001272,239.46830830001272,239.46830830001272,239.46830830001272,239.46830830001272,239.46830830001272,239.46830830001272,239.46830830001272,23,0,,,239.46830830001272,239.66854149999563,0.0,239.66854149999563,0,0.0,0,1,1000,num_1,0.5802454999648035,,25,3,2026-03-04_17h18.52.494,2026A_exp2,2022.2.4,59.98512368778086,
1000,1,0.0,0.0,1,0,71,71,47,,,,,240.26898150000488,240.9197112999973,240.9197112999973,241.403748599987,315,315,241.403748599987,241.403748599987,241.403748599987,241.403748599987,241.403748599987,241.403748599987,241.403748599987,241.403748599987,241.403748599987,241.77048940001987,241.77048940001987,241.77048940001987,241.77048940001987,241.77048940001987,241.77048940001987,241.77048940001987,241.77048940001987,241.77048940001987,23,0,,,241.77048940001987,241.97246249997988,1000,241.97246249997988,1000,1000,1000,1000,0,num_3,0.47675259999232367,,25,3,2026-03-04_17h18.52.494,2026A_exp2,2022.2.4,59.98512368778086,
0,0,4.9,0.0,0,0,72,72,30,,,,,242.4711651999969,243.12188739998965,243.12188739998965,243.62300979997963,45,45,243.62300979997963,243.62300979997963,243.62300979997963,243.62300979997963,243.62300979997963,243.62300979997963,243.62300979997963,243.62300979997963,243.62300979997963,243.98935899999924,243.98935899999924,243.98935899999924,243.98935899999924,243.98935899999924,243.98935899999924,243.98935899999924,243.98935899999924,243.98935899999924,23,0,,,243.98935899999924,244.18957480002427,0.0,244.18957480002427,1,0.0,0,0,1000,num_4,0.39527340000495315,,25,3,2026-03-04_17h18.52.494,2026A_exp2,2022.2.4,59.98512368778086,
1000,1,0.0,0.0,0,0,73,73,69,,,,,244.60658249998232,245.240827600006,245.240827600006,245.7418915000162,315,315,245.7418915000162,245.7418915000162,245.7418915000162,245.7418915000162,245.7418915000162,245.7418915000162,245.7418915000162,245.7418915000162,245.7418915000162,246.1086529000313,246.1086529000313,246.1086529000313,246.1086529000313,246.1086529000313,246.1086529000313,246.1086529000313,246.1086529000313,246.1086529000313,23,0,,,246.1086529000313,246.30853039998328,1000,246.30853039998328,1000,1000,1000,1000,1,num_2,0.780531800002791,,25,3,2026-03-04_17h18.52.494,2026A_exp2,2022.2.4,59.98512368778086,
1,0,0.0,0.0,0,0,74,74,49,,,,,247.10939430003054,247.74311700003454,247.74311700003454,248.24427239998477,45,45,248.24427239998477,248.24427239998477,248.24427239998477,248.24427239998477,248.24427239998477,248.24427239998477,248.24427239998477,248.24427239998477,248.24427239998477,248.6107918000198,248.6107918000198,248.6107918000198,248.6107918000198,248.6107918000198,248.6107918000198,248.6107918000198,248.6107918000198,248.6107918000198,23,0,,,248.6107918000198,248.81088720000116,0.0,248.81088720000116,0,0.0,0,1,1000,num_1,0.46920939994743094,,25,3,2026-03-04_17h18.52.494,2026A_exp2,2022.2.4,59.98512368778086,
1,0,4.9,0.0,1,0,75,75,82,,,,,249.3114588999888,249.94541149999714,249.94541149999714,250.44645310001215,315,315,250.44645310001215,250.44645310001215,250.44645310001215,250.44645310001215,250.44645310001215,250.44645310001215,250.44645310001215,250.44645310001215,250.44645310001215,250.81292579998262,250.81292579998262,250.81292579998262,250.81292579998262,250.81292579998262,250.81292579998262,250.81292579998262,250.81292579998262,250.81292579998262,23,0,,,250.81292579998262,251.01308730000164,0.0,251.01308730000164,1,0.0,0,0,1000,num_4,0.7157112000277266,,25,3,2026-03-04_17h18.52.494,2026A_exp2,2022.2.4,59.98512368778086,
1000,1,0.0,0.0,1,0,76,76,7,,,,,251.74711709999247,252.39803149999352,252.39803149999352,252.88236019999022,315,45,252.88236019999022,252.88236019999022,252.88236019999022,252.88236019999022,252.88236019999022,252.88236019999022,252.88236019999022,252.88236019999022,252.88236019999022,253.24873719998868,253.24873719998868,253.24873719998868,253.24873719998868,253.24873719998868,253.24873719998868,253.24873719998868,253.24873719998868,253.24873719998868,23,0,,,253.24873719998868,253.45089859998552,1000,253.45089859998552,1000,1000,1000,1000,0,num_3,0.5336937999818474,,25,3,2026-03-04_17h18.52.494,2026A_exp2,2022.2.4,59.98512368778086,
1000,1,0.0,3.7,0,0,77,77,44,,,,,254.01620419998653,254.66688580001937,254.66688580001937,255.16793240001425,45,315,255.16793240001425,255.16793240001425,255.16793240001425,255.16793240001425,255.16793240001425,255.16793240001425,255.16793240001425,255.16793240001425,255.16793240001425,255.51775080000516,255.51775080000516,255.51775080000516,255.51775080000516,255.51775080000516,255.51775080000516,255.51775080000516,255.51775080000516,255.51775080000516,22,0,,,255.51775080000516,255.71960160002345,1000,255.71960160002345,1000,1000,1000,1000,1,num_2,0.5529619999579154,,25,3,2026-03-04_17h18.52.494,2026A_exp2,2022.2.4,59.98512368778086,
1,0,4.9,6.1,1,0,78,78,46,,,,,256.3016553000198,256.9523556000204,256.9523556000204,257.45349230000284,45,315,257.45349230000284,257.45349230000284,257.45349230000284,257.45349230000284,257.45349230000284,257.45349230000284,257.45349230000284,257.45349230000284,257.45349230000284,257.8200072000036,257.8200072000036,257.8200072000036,257.8200072000036,257.8200072000036,257.8200072000036,257.8200072000036,257.8200072000036,257.8200072000036,23,0,,,257.8200072000036,258.0200480000349,6.1,258.0200480000349,0,6.1,1,0,1000,num_1,1.4041465000482276,,25,3,2026-03-04_17h18.52.494,2026A_exp2,2022.2.4,59.98512368778086,
1000,1,6.1,3.7,0,0,79,79,87,,,,,259.45507149997866,260.0886113999877,260.0886113999877,260.58989800000563,45,45,260.58989800000563,260.58989800000563,260.58989800000563,260.58989800000563,260.58989800000563,260.58989800000563,260.58989800000563,260.58989800000563,260.58989800000563,260.95654829998966,260.95654829998966,260.95654829998966,260.95654829998966,260.95654829998966,260.95654829998966,260.95654829998966,260.95654829998966,260.95654829998966,23,0,,,260.95654829998966,261.15826330002164,1000,261.15826330002164,1000,1000,1000,1000,0,num_3,0.6506095999502577,,25,3,2026-03-04_17h18.52.494,2026A_exp2,2022.2.4,59.98512368778086,
1,0,0.0,0.0,1,0,80,80,43,,,,,261.8238229000126,262.47462059999816,262.47462059999816,262.97569180000573,45,45,262.97569180000573,262.97569180000573,262.97569180000573,262.97569180000573,262.97569180000573,262.97569180000573,262.97569180000573,262.97569180000573,262.97569180000573,263.34213130001444,263.34213130001444,263.34213130001444,263.34213130001444,263.34213130001444,263.34213130001444,263.34213130001444,263.34213130001444,263.34213130001444,23,0,,,263.34213130001444,263.5424068000284,0.0,263.5424068000284,1,0.0,0,0,1000,num_4,0.7468689000234008,,25,3,2026-03-04_17h18.52.494,2026A_exp2,2022.2.4,59.98512368778086,
1,0,0.0,4.9,0,0,81,81,85,,,,,264.3097861999995,264.94363920000615,264.94363920000615,265.44486280001,315,315,265.44486280001,265.44486280001,265.44486280001,265.44486280001,265.44486280001,265.44486280001,265.44486280001,265.44486280001,265.44486280001,265.811136000033,265.811136000033,265.811136000033,265.811136000033,265.811136000033,265.811136000033,265.811136000033,265.811136000033,265.811136000033,23,0,,,265.811136000033,266.0114638999803,0.0,266.0114638999803,0,0.0,0,1,1000,num_1,1.2610237000044435,,25,3,2026-03-04_17h18.52.494,2026A_exp2,2022.2.4,59.98512368778086,
1000,1,3.7,6.1,0,0,82,82,28,,,,,267.2959182999912,267.93004880001536,267.93004880001536,268.43136829999276,45,315,268.43136829999276,268.43136829999276,268.43136829999276,268.43136829999276,268.43136829999276,268.43136829999276,268.43136829999276,268.43136829999276,268.43136829999276,268.79750620003324,268.79750620003324,268.79750620003324,268.79750620003324,268.79750620003324,268.79750620003324,268.79750620003324,268.79750620003324,268.79750620003324,23,0,,,268.79750620003324,268.9995236999821,1000,268.9995236999821,1000,1000,1000,1000,1,num_2,0.4007116000284441,,25,3,2026-03-04_17h18.52.494,2026A_exp2,2022.2.4,59.98512368778086,
1,0,0.0,0.0,1,0,83,83,37,,,,,269.4314747999888,270.082198899996,270.082198899996,270.5832824999816,315,315,270.5832824999816,270.5832824999816,270.5832824999816,270.5832824999816,270.5832824999816,270.5832824999816,270.5832824999816,270.5832824999816,270.5832824999816,270.9496128000319,270.9496128000319,270.9496128000319,270.9496128000319,270.9496128000319,270.9496128000319,270.9496128000319,270.9496128000319,270.9496128000319,23,0,,,270.9496128000319,271.1500260999892,0.0,271.1500260999892,1,0.0,0,0,1000,num_4,0.5465629999525845,,25,3,2026-03-04_17h18.52.494,2026A_exp2,2022.2.4,59.98512368778086,
0,0,0.0,6.1,1,0,84,84,76,,,,,271.71703170001274,272.36788149998756,272.36788149998756,272.8523219000199,45,45,272.8523219000199,272.8523219000199,272.8523219000199,272.8523219000199,272.8523219000199,272.8523219000199,272.8523219000199,272.8523219000199,272.8523219000199,273.2187175999861,273.2187175999861,273.2187175999861,273.2187175999861,273.2187175999861,273.2187175999861,273.2187175999861,273.2187175999861,273.2187175999861,21,1,[0.35040609998395666],[0.3670227999682538],273.2187175999861,273.41891790000955,0.0,273.41891790000955,0,0.0,0,1,1000,num_1,1.1106131999986246,,25,3,2026-03-04_17h18.52.494,2026A_exp2,2022.2.4,59.98512368778086,
1000,1,6.1,3.7,1,0,85,85,10,,,,,274.5534184999997,275.2040810000035,275.2040810000035,275.68849730002694,45,315,275.68849730002694,275.68849730002694,275.68849730002694,275.68849730002694,275.68849730002694,275.68849730002694,275.68849730002694,275.68849730002694,275.68849730002694,276.054900099989,276.054900099989,276.054900099989,276.054900099989,276.054900099989,276.054900099989,276.054900099989,276.054900099989,276.054900099989,23,0,,,276.054900099989,276.2568283000146,1000,276.2568283000146,1000,1000,1000,1000,1,num_2,0.45643349998863414,,25,3,2026-03-04_17h18.52.494,2026A_exp2,2022.2.4,59.98512368778086,
1,0,4.9,4.9,0,0,86,86,63,,,,,276.7390015000128,277.3895827999804,277.3895827999804,277.87400640000124,315,45,277.87400640000124,277.87400640000124,277.87400640000124,277.87400640000124,277.87400640000124,277.87400640000124,277.87400640000124,277.87400640000124,277.87400640000124,278.2404251000262,278.2404251000262,278.2404251000262,278.2404251000262,278.2404251000262,278.2404251000262,278.2404251000262,278.2404251000262,278.2404251000262,23,0,,,278.2404251000262,278.440557599999,4.9,278.440557599999,1,4.9,1,1,1000,num_4,0.5290638000005856,,25,3,2026-03-04_17h18.52.494,2026A_exp2,2022.2.4,59.98512368778086,
1000,1,0.0,0.0,0,0,87,87,65,,,,,278.9910707999952,279.6418937999988,279.6418937999988,280.1429898000206,45,45,280.1429898000206,280.1429898000206,280.1429898000206,280.1429898000206,280.1429898000206,280.1429898000206,280.1429898000206,280.1429898000206,280.1429898000206,280.50928739999654,280.50928739999654,280.50928739999654,280.50928739999654,280.50928739999654,280.50928739999654,280.50928739999654,280.50928739999654,280.50928739999654,23,0,,,280.50928739999654,280.71120800002245,1000,280.71120800002245,1000,1000,1000,1000,0,num_3,0.5214493999956176,,25,3,2026-03-04_17h18.52.494,2026A_exp2,2022.2.4,59.98512368778086,
1,0,0.0,0.0,0,0,88,88,9,,,,,281.2602181999828,281.9107464000117,281.9107464000117,282.4117978999857,315,315,282.4117978999857,282.4117978999857,282.4117978999857,282.4117978999857,282.4117978999857,282.4117978999857,282.4117978999857,282.4117978999857,282.4117978999857,282.7614466000232,282.7614466000232,282.7614466000232,282.7614466000232,282.7614466000232,282.7614466000232,282.7614466000232,282.7614466000232,282.7614466000232,22,0,,,282.7614466000232,282.96161400002893,0.0,282.96161400002893,0,0.0,0,1,1000,num_1,0.4067030999576673,,25,3,2026-03-04_17h18.52.494,2026A_exp2,2022.2.4,59.98512368778086,
1000,1,0.0,3.7,1,0,89,89,80,,,,,283.3955907999771,284.0461446000263,284.0461446000263,284.53051790001336,45,45,284.53051790001336,284.53051790001336,284.53051790001336,284.53051790001336,284.53051790001336,284.53051790001336,284.53051790001336,284.53051790001336,284.53051790001336,284.8970666999812,284.8970666999812,284.8970666999812,284.8970666999812,284.8970666999812,284.8970666999812,284.8970666999812,284.8970666999812,284.8970666999812,23,0,,,284.8970666999812,285.0992206999799,1000,285.0992206999799,1000,1000,1000,1000,1,num_2,0.5330487000173889,,25,3,2026-03-04_17h18.52.494,2026A_exp2,2022.2.4,59.98512368778086,
,,,,,,,,,,,,,,,,,,,,,,,,,,,,,,,,,,,,,,,,,,,,,,,,,,,,285.6684118999983,,,,,,,
