validity,detectorcomp,contrastCW,contrastCCW,precueCWorCCW,block_80trials.thisRepN,block_80trials.thisTrialN,block_80trials.thisN,block_80trials.thisIndex,etRecord.started,etRecord.stopped,text.started,text.stopped,text_4.started,text_4.stopped,text_6.started,text_6.stopped,oriCW,oriCCW,roi_2.started,grating_UR.started,grating_UL.started,grating_LR.started,grating_LL.started,noise_UR.started,noise_UL.started,noise_LR.started,noise_LL.started,roi_2.stopped,grating_UR.stopped,grating_UL.stopped,grating_LR.stopped,grating_LL.stopped,noise_UR.stopped,noise_UL.stopped,noise_LR.stopped,noise_LL.stopped,outframe,roi_2.numLooks,roi_2.timesOn,roi_2.timesOff,text_2.started,text_2.stopped,probedcontrast,key_resp.started,respdetect,relevantContrast,correctDetect,TorFdetect,respCWorCCW,key_resp.keys,key_resp.rt,feedback_display_.started,participantNo,blockNo,date,expName,psychopyVersion,frameRate,
1000,1,6.1,0.0,1,0,0,0,16,6.029999349266291e-05,6.029999349266291e-05,49.05495109996991,51.0641155000194,51.0641155000194,51.69181920000119,51.69181920000119,52.2106057999772,45,45,52.2106057999772,52.2106057999772,52.2106057999772,52.2106057999772,52.2106057999772,52.2106057999772,52.2106057999772,52.2106057999772,52.2106057999772,52.55940039997222,52.55940039997222,52.55940039997222,52.55940039997222,52.55940039997222,52.55940039997222,52.55940039997222,52.55940039997222,52.55940039997222,2,1,[0.042639899998903275],[0.36745369998971],52.55940039997222,52.76635890000034,1000,52.76635890000034,1000,1000,1000,1000,0,num_3,1.5692588999518193,,25,2,2026-03-04_17h12.50.764,2026A_exp2,2022.2.4,60.029954951983775,
1,0,3.7,6.1,0,0,1,1,55,,,,,54.361365899967495,55.01145130000077,55.01145130000077,55.51301409996813,45,45,55.51301409996813,55.51301409996813,55.51301409996813,55.51301409996813,55.51301409996813,55.51301409996813,55.51301409996813,55.51301409996813,55.51301409996813,55.87947919999715,55.87947919999715,55.87947919999715,55.87947919999715,55.87947919999715,55.87947919999715,55.87947919999715,55.87947919999715,55.87947919999715,23,0,,,55.87947919999715,56.07952769997064,3.7,56.07952769997064,0,3.7,1,0,1000,num_1,1.7198896000045352,,25,2,2026-03-04_17h12.50.764,2026A_exp2,2022.2.4,60.029954951983775,
1000,1,0.0,0.0,1,0,2,2,33,,,,,57.83135019999463,58.48208310001064,58.48208310001064,58.96642269997392,315,315,58.96642269997392,58.96642269997392,58.96642269997392,58.96642269997392,58.96642269997392,58.96642269997392,58.96642269997392,58.96642269997392,58.96642269997392,59.33298220002325,59.33298220002325,59.33298220002325,59.33298220002325,59.33298220002325,59.33298220002325,59.33298220002325,59.33298220002325,59.33298220002325,17,4,"[0.1003393999999389, 0.20046730001922697, 0.3005451000062749, 0.3499246999854222]","[0.11701799998991191, 0.23378970002522692, 0.3171124000218697, 0.366894599981606]",59.33298220002325,59.53918329998851,1000,59.53918329998851,1000,1000,1000,1000,0,num_3,0.5016065000090748,,25,2,2026-03-04_17h12.50.764,2026A_exp2,2022.2.4,60.029954951983775,
1,0,0.0,6.1,1,0,3,3,52,,,,,60.06701930001145,60.71755800000392,60.71755800000392,61.2185781999724,45,45,61.2185781999724,61.2185781999724,61.2185781999724,61.2185781999724,61.2185781999724,61.2185781999724,61.2185781999724,61.2185781999724,61.2185781999724,61.585047799977474,61.585047799977474,61.585047799977474,61.585047799977474,61.585047799977474,61.585047799977474,61.585047799977474,61.585047799977474,61.585047799977474,23,0,,,61.585047799977474,61.78531040000962,6.1,61.78531040000962,0,6.1,1,0,1000,num_1,1.7910868000471964,,25,2,2026-03-04_17h12.50.764,2026A_exp2,2022.2.4,60.029954951983775,
1000,1,0.0,4.9,1,0,4,4,79,,,,,63.60384160000831,64.25433640001575,64.25433640001575,64.73878929996863,45,315,64.73878929996863,64.73878929996863,64.73878929996863,64.73878929996863,64.73878929996863,64.73878929996863,64.73878929996863,64.73878929996863,64.73878929996863,65.10504270001547,65.10504270001547,65.10504270001547,65.10504270001547,65.10504270001547,65.10504270001547,65.10504270001547,65.10504270001547,65.10504270001547,2,3,"[0.0012588000390678644, 0.3334618000080809, 0.36688630003482103]","[0.317038000037428, 0.35037570004351437, 0.36689070001011714]",65.10504270001547,65.3072291999706,1000,65.3072291999706,1000,1000,1000,1000,1,num_2,1.7084245000150986,,25,2,2026-03-04_17h12.50.764,2026A_exp2,2022.2.4,60.029954951983775,
1,0,0.0,3.7,0,0,5,5,61,,,,,67.04081779997796,67.69123150000814,67.69123150000814,68.19205610000063,45,315,68.19205610000063,68.19205610000063,68.19205610000063,68.19205610000063,68.19205610000063,68.19205610000063,68.19205610000063,68.19205610000063,68.19205610000063,68.54211400001077,68.54211400001077,68.54211400001077,68.54211400001077,68.54211400001077,68.54211400001077,68.54211400001077,68.54211400001077,68.54211400001077,22,0,,,68.54211400001077,68.74238329997752,0.0,68.74238329997752,1,0.0,0,0,1000,num_4,2.1611476999823935,,25,2,2026-03-04_17h12.50.764,2026A_exp2,2022.2.4,60.029954951983775,
1000,1,0.0,0.0,0,0,6,6,18,,,,,70.9277653999743,71.57830709998962,71.57830709998962,72.06321960000787,45,315,72.06321960000787,72.06321960000787,72.06321960000787,72.06321960000787,72.06321960000787,72.06321960000787,72.06321960000787,72.06321960000787,72.06321960000787,72.42934669996612,72.42934669996612,72.42934669996612,72.42934669996612,72.42934669996612,72.42934669996612,72.42934669996612,72.42934669996612,72.42934669996612,0,1,[0.0007704999879933894],[0.36753639997914433],72.42934669996612,72.63197839999339,1000,72.63197839999339,1000,1000,1000,1000,1,num_2,1.431785199965816,,25,2,2026-03-04_17h12.50.764,2026A_exp2,2022.2.4,60.029954951983775,
1,0,6.1,4.9,0,0,7,7,39,,,,,74.08085289999144,74.7316012000083,74.7316012000083,75.23288129997673,45,45,75.23288129997673,75.23288129997673,75.23288129997673,75.23288129997673,75.23288129997673,75.23288129997673,75.23288129997673,75.23288129997673,75.23288129997673,75.5991499000229,75.5991499000229,75.5991499000229,75.5991499000229,75.5991499000229,75.5991499000229,75.5991499000229,75.5991499000229,75.5991499000229,19,2,"[0.30061090004164726, 0.35078490001615137]","[0.3339740000083111, 0.36743069998919964]",75.5991499000229,75.79930539999623,6.1,75.79930539999623,1,6.1,1,1,1000,num_4,0.6328640999854542,,25,2,2026-03-04_17h12.50.764,2026A_exp2,2022.2.4,60.029954951983775,
1,0,0.0,6.1,1,0,8,8,36,,,,,76.45000070001697,77.08379449998029,77.08379449998029,77.5851387999719,45,45,77.5851387999719,77.5851387999719,77.5851387999719,77.5851387999719,77.5851387999719,77.5851387999719,77.5851387999719,77.5851387999719,77.5851387999719,77.95155050000176,77.95155050000176,77.95155050000176,77.95155050000176,77.95155050000176,77.95155050000176,77.95155050000176,77.95155050000176,77.95155050000176,23,0,,,77.95155050000176,78.15174299996579,6.1,78.15174299996579,1,6.1,1,1,1000,num_4,2.8320137999835424,,25,2,2026-03-04_17h12.50.764,2026A_exp2,2022.2.4,60.029954951983775,
1,0,3.7,0.0,0,0,9,9,3,,,,,81.00447649997659,81.6552816000185,81.6552816000185,82.13959849998355,45,45,82.13959849998355,82.13959849998355,82.13959849998355,82.13959849998355,82.13959849998355,82.13959849998355,82.13959849998355,82.13959849998355,82.13959849998355,82.50605889997678,82.50605889997678,82.50605889997678,82.50605889997678,82.50605889997678,82.50605889997678,82.50605889997678,82.50605889997678,82.50605889997678,23,0,,,82.50605889997678,82.7061939999694,3.7,82.7061939999694,1,3.7,1,1,1000,num_4,0.6452920999727212,,25,2,2026-03-04_17h12.50.764,2026A_exp2,2022.2.4,60.029954951983775,
1,0,4.9,0.0,1,0,10,10,8,,,,,83.37335479998728,84.02423889999045,84.02423889999045,84.50858710001921,45,45,84.50858710001921,84.50858710001921,84.50858710001921,84.50858710001921,84.50858710001921,84.50858710001921,84.50858710001921,84.50858710001921,84.50858710001921,84.87502059998224,84.87502059998224,84.87502059998224,84.87502059998224,84.87502059998224,84.87502059998224,84.87502059998224,84.87502059998224,84.87502059998224,23,0,,,84.87502059998224,85.07513790001394,0.0,85.07513790001394,0,0.0,0,1,1000,num_1,1.5882128000375815,,25,2,2026-03-04_17h12.50.764,2026A_exp2,2022.2.4,60.029954951983775,
1000,1,6.1,0.0,1,0,11,11,30,,,,,86.69342849997338,87.34402489999775,87.34402489999775,87.82867700001225,315,45,87.82867700001225,87.82867700001225,87.82867700001225,87.82867700001225,87.82867700001225,87.82867700001225,87.82867700001225,87.82867700001225,87.82867700001225,88.19498939998448,88.19498939998448,88.19498939998448,88.19498939998448,88.19498939998448,88.19498939998448,88.19498939998448,88.19498939998448,88.19498939998448,23,0,,,88.19498939998448,88.39705979998689,1000,88.39705979998689,1000,1000,1000,1000,0,num_3,1.9149192000040784,,25,2,2026-03-04_17h12.50.764,2026A_exp2,2022.2.4,60.029954951983775,
1000,1,4.9,0.0,1,0,12,12,5,,,,,90.33039070002269,90.9813773999922,90.9813773999922,91.48226129997056,45,315,91.48226129997056,91.48226129997056,91.48226129997056,91.48226129997056,91.48226129997056,91.48226129997056,91.48226129997056,91.48226129997056,91.48226129997056,91.84859060001327,91.84859060001327,91.84859060001327,91.84859060001327,91.84859060001327,91.84859060001327,91.84859060001327,91.84859060001327,91.84859060001327,23,0,,,91.84859060001327,92.0507651999942,1000,92.0507651999942,1000,1000,1000,1000,0,num_3,0.9810274000046775,,25,2,2026-03-04_17h12.50.764,2026A_exp2,2022.2.4,60.029954951983775,
1000,1,4.9,0.0,1,0,13,13,72,,,,,93.04992259998107,93.70060520002153,93.70060520002153,94.20171629998367,45,45,94.20171629998367,94.20171629998367,94.20171629998367,94.20171629998367,94.20171629998367,94.20171629998367,94.20171629998367,94.20171629998367,94.20171629998367,94.55145309999352,94.55145309999352,94.55145309999352,94.55145309999352,94.55145309999352,94.55145309999352,94.55145309999352,94.55145309999352,94.55145309999352,22,0,,,94.55145309999352,94.75347609998425,1000,94.75347609998425,1000,1000,1000,1000,0,num_3,0.7339540999964811,,25,2,2026-03-04_17h12.50.764,2026A_exp2,2022.2.4,60.029954951983775,
1000,1,0.0,0.0,0,0,14,14,74,,,,,95.51914280001074,96.16958950000117,96.16958950000117,96.65422889997717,45,45,96.65422889997717,96.65422889997717,96.65422889997717,96.65422889997717,96.65422889997717,96.65422889997717,96.65422889997717,96.65422889997717,96.65422889997717,97.0205619999906,97.0205619999906,97.0205619999906,97.0205619999906,97.0205619999906,97.0205619999906,97.0205619999906,97.0205619999906,97.0205619999906,23,0,,,97.0205619999906,97.223069700005,1000,97.223069700005,1000,1000,1000,1000,1,num_2,1.3695753999636509,,25,2,2026-03-04_17h12.50.764,2026A_exp2,2022.2.4,60.029954951983775,
1,0,6.1,0.0,0,0,15,15,56,,,,,98.62205329997232,99.27267420000862,99.27267420000862,99.77388100000098,315,315,99.77388100000098,99.77388100000098,99.77388100000098,99.77388100000098,99.77388100000098,99.77388100000098,99.77388100000098,99.77388100000098,99.77388100000098,100.12372149998555,100.12372149998555,100.12372149998555,100.12372149998555,100.12372149998555,100.12372149998555,100.12372149998555,100.12372149998555,100.12372149998555,22,0,,,100.12372149998555,100.32393549999688,6.1,100.32393549999688,0,6.1,1,0,1000,num_1,1.3236231000046246,,25,2,2026-03-04_17h12.50.764,2026A_exp2,2022.2.4,60.029954951983775,
1000,1,3.7,0.0,0,0,16,16,45,,,,,101.67509319999954,102.32585969998036,102.32585969998036,102.81039589998545,315,315,102.81039589998545,102.81039589998545,102.81039589998545,102.81039589998545,102.81039589998545,102.81039589998545,102.81039589998545,102.81039589998545,102.81039589998545,103.17662370001199,103.17662370001199,103.17662370001199,103.17662370001199,103.17662370001199,103.17662370001199,103.17662370001199,103.17662370001199,103.17662370001199,23,0,,,103.17662370001199,103.37845079996623,1000,103.37845079996623,1000,1000,1000,1000,1,num_2,1.4455467000370845,,25,2,2026-03-04_17h12.50.764,2026A_exp2,2022.2.4,60.029954951983775,
1,0,3.7,0.0,1,0,17,17,19,,,,,104.84489469998516,105.49573279998731,105.49573279998731,105.99669230001746,45,315,105.99669230001746,105.99669230001746,105.99669230001746,105.99669230001746,105.99669230001746,105.99669230001746,105.99669230001746,105.99669230001746,105.99669230001746,106.36328190000495,106.36328190000495,106.36328190000495,106.36328190000495,106.36328190000495,106.36328190000495,106.36328190000495,106.36328190000495,106.36328190000495,23,0,,,106.36328190000495,106.56329700001515,0.0,106.56329700001515,0,0.0,0,1,1000,num_1,2.3323191000381485,,25,2,2026-03-04_17h12.50.764,2026A_exp2,2022.2.4,60.029954951983775,
1000,1,0.0,0.0,0,0,18,18,17,,,,,108.91596349998144,109.56622550002066,109.56622550002066,110.0509105999954,315,45,110.0509105999954,110.0509105999954,110.0509105999954,110.0509105999954,110.0509105999954,110.0509105999954,110.0509105999954,110.0509105999954,110.0509105999954,110.41723700001603,110.41723700001603,110.41723700001603,110.41723700001603,110.41723700001603,110.41723700001603,110.41723700001603,110.41723700001603,110.41723700001603,23,0,,,110.41723700001603,110.61951799999224,1000,110.61951799999224,1000,1000,1000,1000,1,num_2,1.077303199970629,,25,2,2026-03-04_17h12.50.764,2026A_exp2,2022.2.4,60.029954951983775,
1000,1,0.0,6.1,0,0,19,19,37,,,,,111.71848899999168,112.36938099999679,112.36938099999679,112.87030379998032,315,45,112.87030379998032,112.87030379998032,112.87030379998032,112.87030379998032,112.87030379998032,112.87030379998032,112.87030379998032,112.87030379998032,112.87030379998032,113.22015740000643,113.22015740000643,113.22015740000643,113.22015740000643,113.22015740000643,113.22015740000643,113.22015740000643,113.22015740000643,113.22015740000643,14,1,[0.0012055999832227826],[0.13363050000043586],113.22015740000643,113.42207460000645,1000,113.42207460000645,1000,1000,1000,1000,1,num_2,1.3532911000074819,,25,2,2026-03-04_17h12.50.764,2026A_exp2,2022.2.4,60.029954951983775,
1000,1,0.0,0.0,0,0,20,20,80,,,,,114.80488910002168,115.45548780000536,115.45548780000536,115.95673619996523,315,315,115.95673619996523,115.95673619996523,115.95673619996523,115.95673619996523,115.95673619996523,115.95673619996523,115.95673619996523,115.95673619996523,115.95673619996523,116.30650549998973,116.30650549998973,116.30650549998973,116.30650549998973,116.30650549998973,116.30650549998973,116.30650549998973,116.30650549998973,116.30650549998973,11,1,[0.0012588999816216528],[0.18379359995014966],116.30650549998973,116.50852819997817,1000,116.50852819997817,1000,1000,1000,1000,1,num_2,0.46711450000293553,,25,2,2026-03-04_17h12.50.764,2026A_exp2,2022.2.4,60.029954951983775,
1000,1,0.0,0.0,0,0,21,21,86,,,,,117.00733079999918,117.65790829999605,117.65790829999605,118.15888609999092,315,45,118.15888609999092,118.15888609999092,118.15888609999092,118.15888609999092,118.15888609999092,118.15888609999092,118.15888609999092,118.15888609999092,118.15888609999092,118.52542229997925,118.52542229997925,118.52542229997925,118.52542229997925,118.52542229997925,118.52542229997925,118.52542229997925,118.52542229997925,118.52542229997925,23,0,,,118.52542229997925,118.7275348000112,1000,118.7275348000112,1000,1000,1000,1000,0,num_3,1.2484758999780752,,25,2,2026-03-04_17h12.50.764,2026A_exp2,2022.2.4,60.029954951983775,
1000,1,0.0,0.0,1,0,22,22,23,,,,,119.99354230001336,120.64419339998858,120.64419339998858,121.1286143999896,315,315,121.1286143999896,121.1286143999896,121.1286143999896,121.1286143999896,121.1286143999896,121.1286143999896,121.1286143999896,121.1286143999896,121.1286143999896,121.49493039998924,121.49493039998924,121.49493039998924,121.49493039998924,121.49493039998924,121.49493039998924,121.49493039998924,121.49493039998924,121.49493039998924,23,0,,,121.49493039998924,121.69685740000568,1000,121.69685740000568,1000,1000,1000,1000,0,num_3,1.1355120000080206,,25,2,2026-03-04_17h12.50.764,2026A_exp2,2022.2.4,60.029954951983775,
1,0,0.0,4.9,1,0,23,23,53,,,,,122.86298179998994,123.51361570000881,123.51361570000881,124.01476879999973,45,315,124.01476879999973,124.01476879999973,124.01476879999973,124.01476879999973,124.01476879999973,124.01476879999973,124.01476879999973,124.01476879999973,124.01476879999973,124.36427660001209,124.36427660001209,124.36427660001209,124.36427660001209,124.36427660001209,124.36427660001209,124.36427660001209,124.36427660001209,124.36427660001209,22,0,,,124.36427660001209,124.56482069997583,4.9,124.58150689996546,1,4.9,1,1,1000,num_4,1.7379648999776691,,25,2,2026-03-04_17h12.50.764,2026A_exp2,2022.2.4,60.029954951983775,
1000,1,0.0,0.0,0,0,24,24,85,,,,,126.34969960001763,127.00053129997104,127.00053129997104,127.48492989997612,315,315,127.48492989997612,127.48492989997612,127.48492989997612,127.48492989997612,127.48492989997612,127.48492989997612,127.48492989997612,127.48492989997612,127.48492989997612,127.85126429999946,127.85126429999946,127.85126429999946,127.85126429999946,127.85126429999946,127.85126429999946,127.85126429999946,127.85126429999946,127.85126429999946,23,0,,,127.85126429999946,128.05148510000436,1000,128.05148510000436,1000,1000,1000,1000,0,num_3,1.0609547999920323,,25,2,2026-03-04_17h12.50.764,2026A_exp2,2022.2.4,60.029954951983775,
1000,1,0.0,6.1,1,0,25,25,62,,,,,129.135878400004,129.78670739999507,129.78670739999507,130.28793920000317,315,315,130.28793920000317,130.28793920000317,130.28793920000317,130.28793920000317,130.28793920000317,130.28793920000317,130.28793920000317,130.28793920000317,130.28793920000317,130.6541631,130.6541631,130.6541631,130.6541631,130.6541631,130.6541631,130.6541631,130.6541631,130.6541631,23,0,,,130.6541631,130.87656110001262,1000,130.87656110001262,1000,1000,1000,1000,0,num_3,1.9554128000163473,,25,2,2026-03-04_17h12.50.764,2026A_exp2,2022.2.4,60.029954951983775,
1000,1,0.0,4.9,1,0,26,26,31,,,,,132.8562169999932,133.50706699996954,133.50706699996954,134.00821709999582,315,45,134.00821709999582,134.00821709999582,134.00821709999582,134.00821709999582,134.00821709999582,134.00821709999582,134.00821709999582,134.00821709999582,134.00821709999582,134.3745643000002,134.3745643000002,134.3745643000002,134.3745643000002,134.3745643000002,134.3745643000002,134.3745643000002,134.3745643000002,134.3745643000002,3,2,"[0.01740149996476248, 0.06703719997312874]","[0.033489399997051805, 0.3670738999499008]",134.3745643000002,134.57650239998475,1000,134.57650239998475,1000,1000,1000,1000,1,num_2,0.8236598999937996,,25,2,2026-03-04_17h12.50.764,2026A_exp2,2022.2.4,60.029954951983775,
1,0,0.0,0.0,0,0,27,27,63,,,,,135.42551259999163,136.07619599997997,136.07619599997997,136.59208749997197,45,45,136.59208749997197,136.59208749997197,136.59208749997197,136.59208749997197,136.59208749997197,136.59208749997197,136.59208749997197,136.59208749997197,136.59208749997197,136.94377989997156,136.94377989997156,136.94377989997156,136.94377989997156,136.94377989997156,136.94377989997156,136.94377989997156,136.94377989997156,136.94377989997156,23,0,,,136.94377989997156,137.14393259998178,0.0,137.14393259998178,0,0.0,0,1,1000,num_1,1.216435000009369,,25,2,2026-03-04_17h12.50.764,2026A_exp2,2022.2.4,60.029954951983775,
1000,1,3.7,6.1,0,0,28,28,0,,,,,138.38046289997874,139.02915339998435,139.02915339998435,139.53037310001673,315,45,139.53037310001673,139.53037310001673,139.53037310001673,139.53037310001673,139.53037310001673,139.53037310001673,139.53037310001673,139.53037310001673,139.53037310001673,139.89697379997233,139.89697379997233,139.89697379997233,139.89697379997233,139.89697379997233,139.89697379997233,139.89697379997233,139.89697379997233,139.89697379997233,23,0,,,139.89697379997233,140.09888800000772,1000,140.09888800000772,1000,1000,1000,1000,1,num_2,0.9416495999903418,,25,2,2026-03-04_17h12.50.764,2026A_exp2,2022.2.4,60.029954951983775,
1,0,0.0,0.0,1,0,29,29,6,,,,,141.0645534999785,141.715269599983,141.715269599983,142.2164595000213,315,315,142.2164595000213,142.2164595000213,142.2164595000213,142.2164595000213,142.2164595000213,142.2164595000213,142.2164595000213,142.2164595000213,142.2164595000213,142.58283919998212,142.58283919998212,142.58283919998212,142.58283919998212,142.58283919998212,142.58283919998212,142.58283919998212,142.58283919998212,142.58283919998212,23,0,,,142.58283919998212,142.78298209997592,0.0,142.78298209997592,0,0.0,0,1,1000,num_1,0.44835520000196993,,25,2,2026-03-04_17h12.50.764,2026A_exp2,2022.2.4,60.029954951983775,
1000,1,4.9,6.1,0,0,30,30,20,,,,,143.24985089997062,143.90086090000113,143.90086090000113,144.3852665000013,45,315,144.3852665000013,144.3852665000013,144.3852665000013,144.3852665000013,144.3852665000013,144.3852665000013,144.3852665000013,144.3852665000013,144.3852665000013,144.7513111999724,144.7513111999724,144.7513111999724,144.7513111999724,144.7513111999724,144.7513111999724,144.7513111999724,144.7513111999724,144.7513111999724,23,0,,,144.7513111999724,144.953503799974,1000,144.953503799974,1000,1000,1000,1000,0,num_3,0.9187833999749273,,25,2,2026-03-04_17h12.50.764,2026A_exp2,2022.2.4,60.029954951983775,
1000,1,0.0,0.0,0,0,31,31,81,,,,,145.90266159997554,146.55347420001635,146.55347420001635,147.05463229998713,315,315,147.05463229998713,147.05463229998713,147.05463229998713,147.05463229998713,147.05463229998713,147.05463229998713,147.05463229998713,147.05463229998713,147.05463229998713,147.42091290000826,147.42091290000826,147.42091290000826,147.42091290000826,147.42091290000826,147.42091290000826,147.42091290000826,147.42091290000826,147.42091290000826,23,0,,,147.42091290000826,147.62291789997835,1000,147.62291789997835,1000,1000,1000,1000,1,num_2,0.8808459999854676,,25,2,2026-03-04_17h12.50.764,2026A_exp2,2022.2.4,60.029954951983775,
1000,1,0.0,6.1,0,0,32,32,9,,,,,148.52206609997666,149.1727107000188,149.1727107000188,149.6737230999861,315,315,149.6737230999861,149.6737230999861,149.6737230999861,149.6737230999861,149.6737230999861,149.6737230999861,149.6737230999861,149.6737230999861,149.6737230999861,150.02356230001897,150.02356230001897,150.02356230001897,150.02356230001897,150.02356230001897,150.02356230001897,150.02356230001897,150.02356230001897,150.02356230001897,22,0,,,150.02356230001897,150.2255791000207,1000,150.2255791000207,1000,1000,1000,1000,1,num_2,1.438659000035841,,25,2,2026-03-04_17h12.50.764,2026A_exp2,2022.2.4,60.029954951983775,
1000,1,0.0,3.7,0,0,33,33,78,,,,,151.6917231999687,152.34257310000248,152.34257310000248,152.84362719999626,45,315,152.84362719999626,152.84362719999626,152.84362719999626,152.84362719999626,152.84362719999626,152.84362719999626,152.84362719999626,152.84362719999626,152.84362719999626,153.1933060999727,153.1933060999727,153.1933060999727,153.1933060999727,153.1933060999727,153.1933060999727,153.1933060999727,153.1933060999727,153.1933060999727,22,0,,,153.1933060999727,153.39548499998637,1000,153.39548499998637,1000,1000,1000,1000,1,num_2,0.34785160003229976,,25,2,2026-03-04_17h12.50.764,2026A_exp2,2022.2.4,60.029954951983775,
1,0,0.0,6.1,0,0,34,34,34,,,,,153.7605171999894,154.41118479997385,154.41118479997385,154.91229369997745,45,315,154.91229369997745,154.91229369997745,154.91229369997745,154.91229369997745,154.91229369997745,154.91229369997745,154.91229369997745,154.91229369997745,154.91229369997745,155.27886129997205,155.27886129997205,155.27886129997205,155.27886129997205,155.27886129997205,155.27886129997205,155.27886129997205,155.27886129997205,155.27886129997205,23,0,,,155.27886129997205,155.4790106000146,0.0,155.4790106000146,0,0.0,0,1,1000,num_1,3.9530213000252843,,25,2,2026-03-04_17h12.50.764,2026A_exp2,2022.2.4,60.029954951983775,
1000,1,0.0,3.7,1,0,35,35,47,,,,,159.450254699972,160.1091508999816,160.1091508999816,160.60128389997408,45,45,160.60128389997408,160.60128389997408,160.60128389997408,160.60128389997408,160.60128389997408,160.60128389997408,160.60128389997408,160.60128389997408,160.60128389997408,160.96791090001352,160.96791090001352,160.96791090001352,160.96791090001352,160.96791090001352,160.96791090001352,160.96791090001352,160.96791090001352,160.96791090001352,23,0,,,160.96791090001352,161.18377180001698,1000,161.18377180001698,1000,1000,1000,1000,0,num_3,1.2639166999724694,,25,2,2026-03-04_17h12.50.764,2026A_exp2,2022.2.4,60.029954951983775,
1000,1,3.7,4.9,1,0,36,36,46,,,,,162.46933749999152,163.1200269999681,163.1200269999681,163.62102399999276,45,45,163.62102399999276,163.62102399999276,163.62102399999276,163.62102399999276,163.62102399999276,163.62102399999276,163.62102399999276,163.62102399999276,163.62102399999276,163.97086910001235,163.97086910001235,163.97086910001235,163.97086910001235,163.97086910001235,163.97086910001235,163.97086910001235,163.97086910001235,163.97086910001235,22,0,,,163.97086910001235,164.1728631000151,1000,164.18771600001492,1000,1000,1000,1000,0,num_3,1.3239416000433266,,25,2,2026-03-04_17h12.50.764,2026A_exp2,2022.2.4,60.029954951983775,
1,0,0.0,4.9,1,0,37,37,21,,,,,165.53913200000534,166.17299459996866,166.17299459996866,166.67411379999248,315,45,166.67411379999248,166.67411379999248,166.67411379999248,166.67411379999248,166.67411379999248,166.67411379999248,166.67411379999248,166.67411379999248,166.67411379999248,167.04061259998707,167.04061259998707,167.04061259998707,167.04061259998707,167.04061259998707,167.04061259998707,167.04061259998707,167.04061259998707,167.04061259998707,23,0,,,167.04061259998707,167.24075040000025,4.9,167.24075040000025,0,4.9,1,0,1000,num_1,1.0314638999989256,,25,2,2026-03-04_17h12.50.764,2026A_exp2,2022.2.4,60.029954951983775,
0,0,0.0,0.0,1,0,38,38,71,,,,,168.29168169997865,168.94244409998646,168.94244409998646,169.42694919998758,45,45,169.42694919998758,169.42694919998758,169.42694919998758,169.42694919998758,169.42694919998758,169.42694919998758,169.42694919998758,169.42694919998758,169.42694919998758,169.79338669998106,169.79338669998106,169.79338669998106,169.79338669998106,169.79338669998106,169.79338669998106,169.79338669998106,169.79338669998106,169.79338669998106,23,0,,,169.79338669998106,170.00574699998833,0.0,170.00574699998833,0,0.0,0,1,1000,num_1,0.6349602999980561,,25,2,2026-03-04_17h12.50.764,2026A_exp2,2022.2.4,60.029954951983775,
1000,1,4.9,6.1,1,0,39,39,28,,,,,170.6607106999727,171.31147969997255,171.31147969997255,171.81257199996617,315,45,171.81257199996617,171.81257199996617,171.81257199996617,171.81257199996617,171.81257199996617,171.81257199996617,171.81257199996617,171.81257199996617,171.81257199996617,172.17902430001413,172.17902430001413,172.17902430001413,172.17902430001413,172.17902430001413,172.17902430001413,172.17902430001413,172.17902430001413,172.17902430001413,23,0,,,172.17902430001413,172.38052140001673,1000,172.38052140001673,1000,1000,1000,1000,0,num_3,0.9315412999712862,,25,2,2026-03-04_17h12.50.764,2026A_exp2,2022.2.4,60.029954951983775,
1000,1,6.1,0.0,0,0,40,40,82,,,,,173.3300775999669,173.9809363000095,173.9809363000095,174.46531070000492,315,45,174.46531070000492,174.46531070000492,174.46531070000492,174.46531070000492,174.46531070000492,174.46531070000492,174.46531070000492,174.46531070000492,174.46531070000492,174.83170929999324,174.83170929999324,174.83170929999324,174.83170929999324,174.83170929999324,174.83170929999324,174.83170929999324,174.83170929999324,174.83170929999324,23,0,,,174.83170929999324,175.03378030000022,1000,175.03378030000022,1000,1000,1000,1000,1,num_2,1.334005199954845,,25,2,2026-03-04_17h12.50.764,2026A_exp2,2022.2.4,60.029954951983775,
1000,1,6.1,0.0,0,0,41,41,14,,,,,176.38323259999743,177.03388469998026,177.03388469998026,177.53502239997033,45,45,177.53502239997033,177.53502239997033,177.53502239997033,177.53502239997033,177.53502239997033,177.53502239997033,177.53502239997033,177.53502239997033,177.53502239997033,177.9011121999938,177.9011121999938,177.9011121999938,177.9011121999938,177.9011121999938,177.9011121999938,177.9011121999938,177.9011121999938,177.9011121999938,23,0,,,177.9011121999938,178.1017400000128,1000,178.1017400000128,1000,1000,1000,1000,1,num_2,0.37032600003294647,,25,2,2026-03-04_17h12.50.764,2026A_exp2,2022.2.4,60.029954951983775,
1,0,0.0,0.0,0,0,42,42,1,,,,,178.50195070001064,179.1527449999703,179.1527449999703,179.65377490001265,45,315,179.65377490001265,179.65377490001265,179.65377490001265,179.65377490001265,179.65377490001265,179.65377490001265,179.65377490001265,179.65377490001265,179.65377490001265,180.02017630002229,180.02017630002229,180.02017630002229,180.02017630002229,180.02017630002229,180.02017630002229,180.02017630002229,180.02017630002229,180.02017630002229,23,0,,,180.02017630002229,180.22028110001702,0.0,180.22028110001702,0,0.0,0,1,1000,num_1,1.5151807999936864,,25,2,2026-03-04_17h12.50.764,2026A_exp2,2022.2.4,60.029954951983775,
1,0,0.0,4.9,0,0,43,43,4,,,,,181.7552862999728,182.40599300002214,182.40599300002214,182.90698359999806,45,315,182.90698359999806,182.90698359999806,182.90698359999806,182.90698359999806,182.90698359999806,182.90698359999806,182.90698359999806,182.90698359999806,182.90698359999806,183.27345239999704,183.27345239999704,183.27345239999704,183.27345239999704,183.27345239999704,183.27345239999704,183.27345239999704,183.27345239999704,183.27345239999704,23,0,,,183.27345239999704,183.47354169999016,0.0,183.47354169999016,1,0.0,0,0,1000,num_4,2.0058899999712594,,25,2,2026-03-04_17h12.50.764,2026A_exp2,2022.2.4,60.029954951983775,
1,0,3.7,0.0,0,0,44,44,65,,,,,185.50877249997575,186.1596038999851,186.1596038999851,186.6441627999884,315,315,186.6441627999884,186.6441627999884,186.6441627999884,186.6441627999884,186.6441627999884,186.6441627999884,186.6441627999884,186.6441627999884,186.6441627999884,187.01046760001918,187.01046760001918,187.01046760001918,187.01046760001918,187.01046760001918,187.01046760001918,187.01046760001918,187.01046760001918,187.01046760001918,23,0,,,187.01046760001918,187.21062249998795,3.7,187.21062249998795,0,3.7,1,0,1000,num_1,2.189552999974694,,25,2,2026-03-04_17h12.50.764,2026A_exp2,2022.2.4,60.029954951983775,
1,0,4.9,0.0,1,0,45,45,38,,,,,189.42956060002325,190.08033079997404,190.08033079997404,190.56459329999052,315,315,190.56459329999052,190.56459329999052,190.56459329999052,190.56459329999052,190.56459329999052,190.56459329999052,190.56459329999052,190.56459329999052,190.56459329999052,190.9310690999846,190.9310690999846,190.9310690999846,190.9310690999846,190.9310690999846,190.9310690999846,190.9310690999846,190.9310690999846,190.9310690999846,23,0,,,190.9310690999846,191.13124389998848,0.0,191.13124389998848,0,0.0,0,1,1000,num_1,0.9575461999629624,,25,2,2026-03-04_17h12.50.764,2026A_exp2,2022.2.4,60.029954951983775,
1000,1,0.0,4.9,1,0,46,46,76,,,,,192.1155282999971,192.7663253999781,192.7663253999781,193.25074559997302,45,45,193.25074559997302,193.25074559997302,193.25074559997302,193.25074559997302,193.25074559997302,193.25074559997302,193.25074559997302,193.25074559997302,193.25074559997302,193.61716089997208,193.61716089997208,193.61716089997208,193.61716089997208,193.61716089997208,193.61716089997208,193.61716089997208,193.61716089997208,193.61716089997208,23,0,,,193.61716089997208,193.8173858000082,1000,193.8173858000082,1000,1000,1000,1000,1,num_2,1.5502401000121608,,25,2,2026-03-04_17h12.50.764,2026A_exp2,2022.2.4,60.029954951983775,
1,0,0.0,3.7,1,0,47,47,41,,,,,195.38535160000902,196.03627669997513,196.03627669997513,196.53723499999614,45,45,196.53723499999614,196.53723499999614,196.53723499999614,196.53723499999614,196.53723499999614,196.53723499999614,196.53723499999614,196.53723499999614,196.53723499999614,196.90360899997177,196.90360899997177,196.90360899997177,196.90360899997177,196.90360899997177,196.90360899997177,196.90360899997177,196.90360899997177,196.90360899997177,23,0,,,196.90360899997177,197.10391449998133,3.7,197.10391449998133,0,3.7,1,0,1000,num_1,1.2878692999947816,,25,2,2026-03-04_17h12.50.764,2026A_exp2,2022.2.4,60.029954951983775,
1000,1,3.7,4.9,1,0,48,48,44,,,,,198.42184490000363,199.07257050002227,199.07257050002227,199.55707769998116,315,45,199.55707769998116,199.55707769998116,199.55707769998116,199.55707769998116,199.55707769998116,199.55707769998116,199.55707769998116,199.55707769998116,199.55707769998116,199.92342589999316,199.92342589999316,199.92342589999316,199.92342589999316,199.92342589999316,199.92342589999316,199.92342589999316,199.92342589999316,199.92342589999316,23,0,,,199.92342589999316,200.1256532999687,1000,200.1256532999687,1000,1000,1000,1000,0,num_3,0.3780752000166103,,25,2,2026-03-04_17h12.50.764,2026A_exp2,2022.2.4,60.029954951983775,
1000,1,0.0,0.0,0,0,49,49,83,,,,,200.52392970002256,201.1747858999879,201.1747858999879,201.67584709997755,45,45,201.67584709997755,201.67584709997755,201.67584709997755,201.67584709997755,201.67584709997755,201.67584709997755,201.67584709997755,201.67584709997755,201.67584709997755,202.02560320001794,202.02560320001794,202.02560320001794,202.02560320001794,202.02560320001794,202.02560320001794,202.02560320001794,202.02560320001794,202.02560320001794,22,0,,,202.02560320001794,202.22740159998648,1000,202.24237769999309,1000,1000,1000,1000,1,num_2,0.5971121999900788,,25,2,2026-03-04_17h12.50.764,2026A_exp2,2022.2.4,60.029954951983775,
1,0,0.0,0.0,0,0,50,50,29,,,,,202.85984970000573,203.51041829999303,203.51041829999303,204.01142850000178,315,315,204.01142850000178,204.01142850000178,204.01142850000178,204.01142850000178,204.01142850000178,204.01142850000178,204.01142850000178,204.01142850000178,204.01142850000178,204.3611842999817,204.3611842999817,204.3611842999817,204.3611842999817,204.3611842999817,204.3611842999817,204.3611842999817,204.3611842999817,204.3611842999817,22,0,,,204.3611842999817,204.56139430002077,0.0,204.56139430002077,0,0.0,0,1,1000,num_1,0.854384400008712,,25,2,2026-03-04_17h12.50.764,2026A_exp2,2022.2.4,60.029954951983775,
1000,1,0.0,4.9,1,0,51,51,59,,,,,205.44558759999927,206.09592649998376,206.09592649998376,206.58053739997558,315,45,206.58053739997558,206.58053739997558,206.58053739997558,206.58053739997558,206.58053739997558,206.58053739997558,206.58053739997558,206.58053739997558,206.58053739997558,206.947078600002,206.947078600002,206.947078600002,206.947078600002,206.947078600002,206.947078600002,206.947078600002,206.947078600002,206.947078600002,23,0,,,206.947078600002,207.1489313999773,1000,207.1489313999773,1000,1000,1000,1000,1,num_2,1.059399600024335,,25,2,2026-03-04_17h12.50.764,2026A_exp2,2022.2.4,60.029954951983775,
1,0,6.1,0.0,0,0,52,52,70,,,,,208.23198250000132,208.8822996999952,208.8822996999952,209.38360830000602,45,315,209.38360830000602,209.38360830000602,209.38360830000602,209.38360830000602,209.38360830000602,209.38360830000602,209.38360830000602,209.38360830000602,209.38360830000602,209.749993800011,209.749993800011,209.749993800011,209.749993800011,209.749993800011,209.749993800011,209.749993800011,209.749993800011,209.749993800011,23,0,,,209.749993800011,209.95011669996893,6.1,209.95011669996893,0,6.1,1,0,1000,num_1,1.905456200009212,,25,2,2026-03-04_17h12.50.764,2026A_exp2,2022.2.4,60.029954951983775,
1000,1,0.0,0.0,1,0,53,53,67,,,,,211.88535300001968,212.53616849996615,212.53616849996615,213.02045609999914,315,45,213.02045609999914,213.02045609999914,213.02045609999914,213.02045609999914,213.02045609999914,213.02045609999914,213.02045609999914,213.02045609999914,213.02045609999914,213.38676849997137,213.38676849997137,213.38676849997137,213.38676849997137,213.38676849997137,213.38676849997137,213.38676849997137,213.38676849997137,213.38676849997137,23,0,,,213.38676849997137,213.58727909997106,1000,213.58727909997106,1000,1000,1000,1000,0,num_3,1.1087665999657474,,25,2,2026-03-04_17h12.50.764,2026A_exp2,2022.2.4,60.029954951983775,
1000,1,0.0,3.7,0,0,54,54,51,,,,,214.7215850999928,215.3783192000119,215.3783192000119,215.86634319997393,315,45,215.86634319997393,215.86634319997393,215.86634319997393,215.86634319997393,215.86634319997393,215.86634319997393,215.86634319997393,215.86634319997393,215.86634319997393,216.23983580002096,216.23983580002096,216.23983580002096,216.23983580002096,216.23983580002096,216.23983580002096,216.23983580002096,216.23983580002096,216.23983580002096,24,0,,,216.23983580002096,216.44180069997674,1000,216.44180069997674,1000,1000,1000,1000,1,num_2,0.7823828000109643,,25,2,2026-03-04_17h12.50.764,2026A_exp2,2022.2.4,60.029954951983775,
1000,1,0.0,6.1,1,0,55,55,88,,,,,217.24084969999967,217.89139020000584,217.89139020000584,218.3757671000203,315,315,218.3757671000203,218.3757671000203,218.3757671000203,218.3757671000203,218.3757671000203,218.3757671000203,218.3757671000203,218.3757671000203,218.3757671000203,218.74214310001116,218.74214310001116,218.74214310001116,218.74214310001116,218.74214310001116,218.74214310001116,218.74214310001116,218.74214310001116,218.74214310001116,23,0,,,218.74214310001116,218.94423399999505,1000,218.94423399999505,1000,1000,1000,1000,1,num_2,0.5761998999514617,,25,2,2026-03-04_17h12.50.764,2026A_exp2,2022.2.4,60.029954951983775,
1000,1,4.9,0.0,1,0,56,56,22,,,,,219.54300830001011,220.19376370002283,220.19376370002283,220.6949828999932,45,315,220.6949828999932,220.6949828999932,220.6949828999932,220.6949828999932,220.6949828999932,220.6949828999932,220.6949828999932,220.6949828999932,220.6949828999932,221.04457909998018,221.04457909998018,221.04457909998018,221.04457909998018,221.04457909998018,221.04457909998018,221.04457909998018,221.04457909998018,221.04457909998018,22,0,,,221.04457909998018,221.24662370001897,1000,221.2614633999765,1000,1000,1000,1000,0,num_3,0.4659676000010222,,25,2,2026-03-04_17h12.50.764,2026A_exp2,2022.2.4,60.029954951983775,
1000,1,3.7,0.0,0,0,57,57,57,,,,,221.7454036999843,222.39589539996814,222.39589539996814,222.896960699989,315,45,222.896960699989,222.896960699989,222.896960699989,222.896960699989,222.896960699989,222.896960699989,222.896960699989,222.896960699989,222.896960699989,223.24682739999844,223.24682739999844,223.24682739999844,223.24682739999844,223.24682739999844,223.24682739999844,223.24682739999844,223.24682739999844,223.24682739999844,22,0,,,223.24682739999844,223.44844020000892,1000,223.46347620000597,1000,1000,1000,1000,0,num_3,0.520387299999129,,25,2,2026-03-04_17h12.50.764,2026A_exp2,2022.2.4,60.029954951983775,
1000,1,3.7,6.1,0,0,58,58,84,,,,,224.01412120001623,224.66475310001988,224.66475310001988,225.16603169997688,45,315,225.16603169997688,225.16603169997688,225.16603169997688,225.16603169997688,225.16603169997688,225.16603169997688,225.16603169997688,225.16603169997688,225.16603169997688,225.5320970999892,225.5320970999892,225.5320970999892,225.5320970999892,225.5320970999892,225.5320970999892,225.5320970999892,225.5320970999892,225.5320970999892,23,0,,,225.5320970999892,225.73486779996892,1000,225.73486779996892,1000,1000,1000,1000,0,num_3,0.5851970000076108,,25,2,2026-03-04_17h12.50.764,2026A_exp2,2022.2.4,60.029954951983775,
1,0,0.0,6.1,0,0,59,59,60,,,,,226.34988320001867,227.00051959999837,227.00051959999837,227.48501750000287,315,45,227.48501750000287,227.48501750000287,227.48501750000287,227.48501750000287,227.48501750000287,227.48501750000287,227.48501750000287,227.48501750000287,227.48501750000287,227.85104769997997,227.85104769997997,227.85104769997997,227.85104769997997,227.85104769997997,227.85104769997997,227.85104769997997,227.85104769997997,227.85104769997997,23,0,,,227.85104769997997,228.05526850000024,0.0,228.05526850000024,1,0.0,0,0,1000,num_4,1.4249382000416517,,25,2,2026-03-04_17h12.50.764,2026A_exp2,2022.2.4,60.029954951983775,
1000,1,6.1,6.1,1,0,60,60,77,,,,,229.5029135000077,230.15365429996746,230.15365429996746,230.63827589998255,45,45,230.63827589998255,230.63827589998255,230.63827589998255,230.63827589998255,230.63827589998255,230.63827589998255,230.63827589998255,230.63827589998255,230.63827589998255,231.00445219996618,231.00445219996618,231.00445219996618,231.00445219996618,231.00445219996618,231.00445219996618,231.00445219996618,231.00445219996618,231.00445219996618,23,0,,,231.00445219996618,231.218829200021,1000,231.218829200021,1000,1000,1000,1000,0,num_3,0.8299389000167139,,25,2,2026-03-04_17h12.50.764,2026A_exp2,2022.2.4,60.029954951983775,
1,0,0.0,0.0,1,0,61,61,73,,,,,232.07209530001273,232.72288869996555,232.72288869996555,233.2240324000013,45,45,233.2240324000013,233.2240324000013,233.2240324000013,233.2240324000013,233.2240324000013,233.2240324000013,233.2240324000013,233.2240324000013,233.2240324000013,233.59042490000138,233.59042490000138,233.59042490000138,233.59042490000138,233.59042490000138,233.59042490000138,233.59042490000138,233.59042490000138,233.59042490000138,23,0,,,233.59042490000138,233.79028409998864,0.0,233.79028409998864,0,0.0,0,1,1000,num_1,1.3855471000424586,,25,2,2026-03-04_17h12.50.764,2026A_exp2,2022.2.4,60.029954951983775,
1,0,4.9,0.0,0,0,62,62,58,,,,,235.1919048000127,235.8425693999743,235.8425693999743,236.34408810001332,45,315,236.34408810001332,236.34408810001332,236.34408810001332,236.34408810001332,236.34408810001332,236.34408810001332,236.34408810001332,236.34408810001332,236.34408810001332,236.69363019999582,236.69363019999582,236.69363019999582,236.69363019999582,236.69363019999582,236.69363019999582,236.69363019999582,236.69363019999582,236.69363019999582,22,0,,,236.69363019999582,236.89376970002195,4.9,236.89376970002195,1,4.9,1,1,1000,num_4,3.2430786000331864,,25,2,2026-03-04_17h12.50.764,2026A_exp2,2022.2.4,60.029954951983775,
0,0,4.9,0.0,1,0,63,63,25,,,,,240.16374440002255,240.79757930000778,240.79757930000778,241.2986751999706,45,315,241.2986751999706,241.2986751999706,241.2986751999706,241.2986751999706,241.2986751999706,241.2986751999706,241.2986751999706,241.2986751999706,241.2986751999706,241.66522660001647,241.66522660001647,241.66522660001647,241.66522660001647,241.66522660001647,241.66522660001647,241.66522660001647,241.66522660001647,241.66522660001647,23,0,,,241.66522660001647,241.86526140000205,4.9,241.86526140000205,1,4.9,1,1,1000,num_4,1.0796568000223488,,25,2,2026-03-04_17h12.50.764,2026A_exp2,2022.2.4,60.029954951983775,
1000,1,3.7,0.0,1,0,64,64,48,,,,,242.96655100001954,243.6003526999848,243.6003526999848,244.10160379996523,315,315,244.10160379996523,244.10160379996523,244.10160379996523,244.10160379996523,244.10160379996523,244.10160379996523,244.10160379996523,244.10160379996523,244.10160379996523,244.4678641000064,244.4678641000064,244.4678641000064,244.4678641000064,244.4678641000064,244.4678641000064,244.4678641000064,244.4678641000064,244.4678641000064,23,0,,,244.4678641000064,244.67011249996722,1000,244.67011249996722,1000,1000,1000,1000,0,num_3,1.2012214999995194,,25,2,2026-03-04_17h12.50.764,2026A_exp2,2022.2.4,60.029954951983775,
1000,1,4.9,3.7,0,0,65,65,32,,,,,245.90288880001754,246.55326830002014,246.55326830002014,247.0544751000125,315,45,247.0544751000125,247.0544751000125,247.0544751000125,247.0544751000125,247.0544751000125,247.0544751000125,247.0544751000125,247.0544751000125,247.0544751000125,247.40431720000925,247.40431720000925,247.40431720000925,247.40431720000925,247.40431720000925,247.40431720000925,247.40431720000925,247.40431720000925,247.40431720000925,0,1,[0.0012421999708749354],[0.350385700003244],247.40431720000925,247.606273900019,1000,247.606273900019,1000,1000,1000,1000,0,num_3,0.8330597000312991,,25,2,2026-03-04_17h12.50.764,2026A_exp2,2022.2.4,60.029954951983775,
1,0,3.7,3.7,0,0,66,66,13,,,,,248.45528449997073,249.10596070002066,249.10596070002066,249.60710349999135,315,45,249.60710349999135,249.60710349999135,249.60710349999135,249.60710349999135,249.60710349999135,249.60710349999135,249.60710349999135,249.60710349999135,249.60710349999135,249.97338270000182,249.97338270000182,249.97338270000182,249.97338270000182,249.97338270000182,249.97338270000182,249.97338270000182,249.97338270000182,249.97338270000182,23,0,,,249.97338270000182,250.17359969997779,3.7,250.17359969997779,1,3.7,1,1,1000,num_4,1.922722099989187,,25,2,2026-03-04_17h12.50.764,2026A_exp2,2022.2.4,60.029954951983775,
1000,1,0.0,0.0,1,0,67,67,12,,,,,252.12541999999667,252.77620540000498,252.77620540000498,253.26079839997692,45,45,253.26079839997692,253.26079839997692,253.26079839997692,253.26079839997692,253.26079839997692,253.26079839997692,253.26079839997692,253.26079839997692,253.26079839997692,253.62705650000134,253.62705650000134,253.62705650000134,253.62705650000134,253.62705650000134,253.62705650000134,253.62705650000134,253.62705650000134,253.62705650000134,23,0,,,253.62705650000134,253.82919979997678,1000,253.82919979997678,1000,1000,1000,1000,0,num_3,1.0821607999969274,,25,2,2026-03-04_17h12.50.764,2026A_exp2,2022.2.4,60.029954951983775,
0,0,0.0,6.1,0,0,68,68,7,,,,,254.9284251999925,255.57913440000266,255.57913440000266,256.08015739999246,45,45,256.08015739999246,256.08015739999246,256.08015739999246,256.08015739999246,256.08015739999246,256.08015739999246,256.08015739999246,256.08015739999246,256.08015739999246,256.4463326999685,256.4463326999685,256.4463326999685,256.4463326999685,256.4463326999685,256.4463326999685,256.4463326999685,256.4463326999685,256.4463326999685,23,0,,,256.4463326999685,256.6467763999826,6.1,256.6467763999826,1,6.1,1,1,1000,num_4,1.0888241999782622,,25,2,2026-03-04_17h12.50.764,2026A_exp2,2022.2.4,60.029954951983775,
1,0,0.0,6.1,1,0,69,69,40,,,,,257.7643877000082,258.41525000002,258.41525000002,258.91635800001677,315,315,258.91635800001677,258.91635800001677,258.91635800001677,258.91635800001677,258.91635800001677,258.91635800001677,258.91635800001677,258.91635800001677,258.91635800001677,259.2828556000022,259.2828556000022,259.2828556000022,259.2828556000022,259.2828556000022,259.2828556000022,259.2828556000022,259.2828556000022,259.2828556000022,23,0,,,259.2828556000022,259.48300100001507,6.1,259.48300100001507,0,6.1,1,0,1000,num_1,1.4288859000080265,,25,2,2026-03-04_17h12.50.764,2026A_exp2,2022.2.4,60.029954951983775,
1,0,0.0,3.7,0,0,70,70,35,,,,,260.9342257999815,261.5851012999774,261.5851012999774,262.0695761999814,45,45,262.0695761999814,262.0695761999814,262.0695761999814,262.0695761999814,262.0695761999814,262.0695761999814,262.0695761999814,262.0695761999814,262.0695761999814,262.4360507999663,262.4360507999663,262.4360507999663,262.4360507999663,262.4360507999663,262.4360507999663,262.4360507999663,262.4360507999663,262.4360507999663,23,0,,,262.4360507999663,262.63619029999245,0.0,262.63619029999245,0,0.0,0,1,1000,num_1,1.4835271000047214,,25,2,2026-03-04_17h12.50.764,2026A_exp2,2022.2.4,60.029954951983775,
1000,1,6.1,0.0,1,0,71,71,75,,,,,264.1374288999941,264.7883921000175,264.7883921000175,265.27249479998136,315,45,265.27249479998136,265.27249479998136,265.27249479998136,265.27249479998136,265.27249479998136,265.27249479998136,265.27249479998136,265.27249479998136,265.27249479998136,265.639162699983,265.639162699983,265.639162699983,265.639162699983,265.639162699983,265.639162699983,265.639162699983,265.639162699983,265.639162699983,23,0,,,265.639162699983,265.8412491999916,1000,265.8412491999916,1000,1000,1000,1000,0,num_3,1.2542727999971248,,25,2,2026-03-04_17h12.50.764,2026A_exp2,2022.2.4,60.029954951983775,
1000,1,4.9,0.0,0,0,72,72,54,,,,,267.12409429997206,267.77471420000074,267.77471420000074,268.2758154000039,45,315,268.2758154000039,268.2758154000039,268.2758154000039,268.2758154000039,268.2758154000039,268.2758154000039,268.2758154000039,268.2758154000039,268.2758154000039,268.64220329996897,268.64220329996897,268.64220329996897,268.64220329996897,268.64220329996897,268.64220329996897,268.64220329996897,268.64220329996897,268.64220329996897,23,0,,,268.64220329996897,268.8442218999844,1000,268.8442218999844,1000,1000,1000,1000,1,num_2,0.9562883999897167,,25,2,2026-03-04_17h12.50.764,2026A_exp2,2022.2.4,60.029954951983775,
1,0,0.0,0.0,1,0,73,73,87,,,,,269.8265217000153,270.477301899984,270.477301899984,270.97842110000784,315,45,270.97842110000784,270.97842110000784,270.97842110000784,270.97842110000784,270.97842110000784,270.97842110000784,270.97842110000784,270.97842110000784,270.97842110000784,271.3448904000106,271.3448904000106,271.3448904000106,271.3448904000106,271.3448904000106,271.3448904000106,271.3448904000106,271.3448904000106,271.3448904000106,7,3,"[0.0012207000399939716, 0.08359350002137944, 0.16742330003762618]","[0.03350100002717227, 0.11700270004803315, 0.3673545999918133]",271.3448904000106,271.5449257,0.0,271.5449257,1,0.0,0,0,1000,num_4,0.9905741999973543,,25,2,2026-03-04_17h12.50.764,2026A_exp2,2022.2.4,60.029954951983775,
1,0,6.1,4.9,0,0,74,74,24,,,,,272.562551799987,273.21365320001496,273.21365320001496,273.69772090000333,315,45,273.69772090000333,273.69772090000333,273.69772090000333,273.69772090000333,273.69772090000333,273.69772090000333,273.69772090000333,273.69772090000333,273.69772090000333,274.0642261999892,274.0642261999892,274.0642261999892,274.0642261999892,274.0642261999892,274.0642261999892,274.0642261999892,274.0642261999892,274.0642261999892,23,0,,,274.0642261999892,274.2643663000199,6.1,274.2643663000199,0,6.1,1,0,1000,num_1,1.2878283999743871,,25,2,2026-03-04_17h12.50.764,2026A_exp2,2022.2.4,60.029954951983775,
1000,1,0.0,0.0,1,0,75,75,27,,,,,275.58230150002055,276.23311460000696,276.23311460000696,276.7175653000013,315,45,276.7175653000013,276.7175653000013,276.7175653000013,276.7175653000013,276.7175653000013,276.7175653000013,276.7175653000013,276.7175653000013,276.7175653000013,277.08380630001193,277.08380630001193,277.08380630001193,277.08380630001193,277.08380630001193,277.08380630001193,277.08380630001193,277.08380630001193,277.08380630001193,23,0,,,277.08380630001193,277.28625080001075,1000,277.28625080001075,1000,1000,1000,1000,1,num_2,1.385033900034614,,25,2,2026-03-04_17h12.50.764,2026A_exp2,2022.2.4,60.029954951983775,
0,0,0.0,0.0,1,0,76,76,89,,,,,278.7023988000001,279.3527273000218,279.3527273000218,279.83717640000395,315,315,279.83717640000395,279.83717640000395,279.83717640000395,279.83717640000395,279.83717640000395,279.83717640000395,279.83717640000395,279.83717640000395,279.83717640000395,280.20376339997165,280.20376339997165,280.20376339997165,280.20376339997165,280.20376339997165,280.20376339997165,280.20376339997165,280.20376339997165,280.20376339997165,23,0,,,280.20376339997165,280.4038244999829,0.0,280.4038244999829,1,0.0,0,0,1000,num_4,0.5563559999573044,,25,2,2026-03-04_17h12.50.764,2026A_exp2,2022.2.4,60.029954951983775,
1,0,3.7,0.0,0,0,77,77,42,,,,,280.987736399984,281.6385099000181,281.6385099000181,282.1229857999715,45,45,282.1229857999715,282.1229857999715,282.1229857999715,282.1229857999715,282.1229857999715,282.1229857999715,282.1229857999715,282.1229857999715,282.1229857999715,282.4891893999884,282.4891893999884,282.4891893999884,282.4891893999884,282.4891893999884,282.4891893999884,282.4891893999884,282.4891893999884,282.4891893999884,23,0,,,282.4891893999884,282.68954429996666,3.7,282.68954429996666,1,3.7,1,1,1000,num_4,1.158660700020846,,25,2,2026-03-04_17h12.50.764,2026A_exp2,2022.2.4,60.029954951983775,
1000,1,0.0,0.0,0,0,78,78,15,,,,,283.8739971999894,284.5246886999812,284.5246886999812,285.0257846000022,315,45,285.0257846000022,285.0257846000022,285.0257846000022,285.0257846000022,285.0257846000022,285.0257846000022,285.0257846000022,285.0257846000022,285.0257846000022,285.3922872999683,285.3922872999683,285.3922872999683,285.3922872999683,285.3922872999683,285.3922872999683,285.3922872999683,285.3922872999683,285.3922872999683,23,0,,,285.3922872999683,285.59398140001576,1000,285.59398140001576,1000,1000,1000,1000,0,num_3,0.7979087000130676,,25,2,2026-03-04_17h12.50.764,2026A_exp2,2022.2.4,60.029954951983775,
1000,1,6.1,0.0,1,0,79,79,69,,,,,286.40989140002057,287.06047590001253,287.06047590001253,287.56178940000245,315,45,287.56178940000245,287.56178940000245,287.56178940000245,287.56178940000245,287.56178940000245,287.56178940000245,287.56178940000245,287.56178940000245,287.56178940000245,287.9114474999951,287.9114474999951,287.9114474999951,287.9114474999951,287.9114474999951,287.9114474999951,287.9114474999951,287.9114474999951,287.9114474999951,22,0,,,287.9114474999951,288.11355459998595,1000,288.1284138999763,1000,1000,1000,1000,0,num_3,0.7274367000209168,,25,2,2026-03-04_17h12.50.764,2026A_exp2,2022.2.4,60.029954951983775,
0,0,0.0,3.7,1,0,80,80,10,,,,,288.87926030001836,289.52959920000285,289.52959920000285,290.0141578000039,315,45,290.0141578000039,290.0141578000039,290.0141578000039,290.0141578000039,290.0141578000039,290.0141578000039,290.0141578000039,290.0141578000039,290.0141578000039,290.38039870001376,290.38039870001376,290.38039870001376,290.38039870001376,290.38039870001376,290.38039870001376,290.38039870001376,290.38039870001376,290.38039870001376,23,0,,,290.38039870001376,290.5806583999656,0.0,290.5806583999656,1,0.0,0,0,1000,num_4,1.1954600000171922,,25,2,2026-03-04_17h12.50.764,2026A_exp2,2022.2.4,60.029954951983775,
1,0,3.7,0.0,1,0,81,81,50,,,,,291.79846030002227,292.4491710999864,292.4491710999864,292.95033429999603,45,45,292.95033429999603,292.95033429999603,292.95033429999603,292.95033429999603,292.95033429999603,292.95033429999603,292.95033429999603,292.95033429999603,292.95033429999603,293.30018449999625,293.30018449999625,293.30018449999625,293.30018449999625,293.30018449999625,293.30018449999625,293.30018449999625,293.30018449999625,293.30018449999625,22,0,,,293.30018449999625,293.50041869998677,0.0,293.50041869998677,0,0.0,0,1,1000,num_1,1.1630980999907479,,25,2,2026-03-04_17h12.50.764,2026A_exp2,2022.2.4,60.029954951983775,
1000,1,4.9,0.0,0,0,82,82,26,,,,,294.6847061999724,295.3356177000096,295.3356177000096,295.81979149999097,45,45,295.81979149999097,295.81979149999097,295.81979149999097,295.81979149999097,295.81979149999097,295.81979149999097,295.81979149999097,295.81979149999097,295.81979149999097,296.18628409999656,296.18628409999656,296.18628409999656,296.18628409999656,296.18628409999656,296.18628409999656,296.18628409999656,296.18628409999656,296.18628409999656,23,0,,,296.18628409999656,296.3883118000231,1000,296.3883118000231,1000,1000,1000,1000,0,num_3,0.6918669000151567,,25,2,2026-03-04_17h12.50.764,2026A_exp2,2022.2.4,60.029954951983775,
0,0,6.1,3.7,1,0,83,83,49,,,,,297.1039083999931,297.7545623999904,297.7545623999904,298.2557745000231,315,45,298.2557745000231,298.2557745000231,298.2557745000231,298.2557745000231,298.2557745000231,298.2557745000231,298.2557745000231,298.2557745000231,298.2557745000231,298.62220380001236,298.62220380001236,298.62220380001236,298.62220380001236,298.62220380001236,298.62220380001236,298.62220380001236,298.62220380001236,298.62220380001236,23,0,,,298.62220380001236,298.8222796000191,6.1,298.8222796000191,1,6.1,1,1,1000,num_4,2.1783934999839403,,25,2,2026-03-04_17h12.50.764,2026A_exp2,2022.2.4,60.029954951983775,
1000,1,6.1,0.0,1,0,84,84,68,,,,,301.0243523999816,301.67523960000835,301.67523960000835,302.1595831000013,315,45,302.1595831000013,302.1595831000013,302.1595831000013,302.1595831000013,302.1595831000013,302.1595831000013,302.1595831000013,302.1595831000013,302.1595831000013,302.5260709999711,302.5260709999711,302.5260709999711,302.5260709999711,302.5260709999711,302.5260709999711,302.5260709999711,302.5260709999711,302.5260709999711,23,0,,,302.5260709999711,302.72848879999947,1000,302.72848879999947,1000,1000,1000,1000,0,num_3,0.7759413999738172,,25,2,2026-03-04_17h12.50.764,2026A_exp2,2022.2.4,60.029954951983775,
1,0,0.0,6.1,0,0,85,85,11,,,,,303.5272039999836,304.1776649999665,304.1776649999665,304.6788530999911,315,45,304.6788530999911,304.6788530999911,304.6788530999911,304.6788530999911,304.6788530999911,304.6788530999911,304.6788530999911,304.6788530999911,304.6788530999911,305.0451721000136,305.0451721000136,305.0451721000136,305.0451721000136,305.0451721000136,305.0451721000136,305.0451721000136,305.0451721000136,305.0451721000136,23,0,,,305.0451721000136,305.24555960000725,0.0,305.24555960000725,0,0.0,0,1,1000,num_1,1.8348104000324383,,25,2,2026-03-04_17h12.50.764,2026A_exp2,2022.2.4,60.029954951983775,
1000,1,3.7,4.9,1,0,86,86,43,,,,,307.09723830001894,307.7480641999864,307.7480641999864,308.2491221000091,315,315,308.2491221000091,308.2491221000091,308.2491221000091,308.2491221000091,308.2491221000091,308.2491221000091,308.2491221000091,308.2491221000091,308.2491221000091,308.5987483999925,308.5987483999925,308.5987483999925,308.5987483999925,308.5987483999925,308.5987483999925,308.5987483999925,308.5987483999925,308.5987483999925,22,0,,,308.5987483999925,308.80039639997995,1000,308.80039639997995,1000,1000,1000,1000,1,num_2,0.6801227999967523,,25,2,2026-03-04_17h12.50.764,2026A_exp2,2022.2.4,60.029954951983775,
1,0,0.0,3.7,1,0,87,87,66,,,,,309.4998221999849,310.1502795999986,310.1502795999986,310.65118430001894,315,315,310.65118430001894,310.65118430001894,310.65118430001894,310.65118430001894,310.65118430001894,310.65118430001894,310.65118430001894,310.65118430001894,310.65118430001894,311.0012185999658,311.0012185999658,311.0012185999658,311.0012185999658,311.0012185999658,311.0012185999658,311.0012185999658,311.0012185999658,311.0012185999658,22,0,,,311.0012185999658,311.2012660999899,3.7,311.2012660999899,1,3.7,1,1,1000,num_4,1.3823823999846354,,25,2,2026-03-04_17h12.50.764,2026A_exp2,2022.2.4,60.029954951983775,
1000,1,3.7,0.0,0,0,88,88,2,,,,,312.60272969998186,313.2367002000101,313.2367002000101,313.7378101000213,315,315,313.7378101000213,313.7378101000213,313.7378101000213,313.7378101000213,313.7378101000213,313.7378101000213,313.7378101000213,313.7378101000213,313.7378101000213,314.1042543000076,314.1042543000076,314.1042543000076,314.1042543000076,314.1042543000076,314.1042543000076,314.1042543000076,314.1042543000076,314.1042543000076,23,0,,,314.1042543000076,314.3057955999975,1000,314.3057955999975,1000,1000,1000,1000,1,num_2,0.42302540002856404,,25,2,2026-03-04_17h12.50.764,2026A_exp2,2022.2.4,60.029954951983775,
1000,1,0.0,0.0,0,0,89,89,64,,,,,314.75503749999916,315.388862599968,315.388862599968,315.8900503999903,315,45,315.8900503999903,315.8900503999903,315.8900503999903,315.8900503999903,315.8900503999903,315.8900503999903,315.8900503999903,315.8900503999903,315.8900503999903,316.256304599985,316.256304599985,316.256304599985,316.256304599985,316.256304599985,316.256304599985,316.256304599985,316.256304599985,316.256304599985,23,0,,,316.256304599985,316.4628866999992,1000,316.4628866999992,1000,1000,1000,1000,1,num_2,0.6654389000032097,,25,2,2026-03-04_17h12.50.764,2026A_exp2,2022.2.4,60.029954951983775,
,,,,,,,,,,,,,,,,,,,,,,,,,,,,,,,,,,,,,,,,,,,,,,,,,,,,317.16597259999253,,,,,,,
