validity,detectorcomp,contrastCW,contrastCCW,precueCWorCCW,block_80trials.thisRepN,block_80trials.thisTrialN,block_80trials.thisN,block_80trials.thisIndex,etRecord.started,etRecord.stopped,text.started,text.stopped,text_4.started,text_4.stopped,text_6.started,text_6.stopped,oriCW,oriCCW,roi_2.started,grating_UR.started,grating_UL.started,grating_LR.started,grating_LL.started,noise_UR.started,noise_UL.started,noise_LR.started,noise_LL.started,roi_2.stopped,grating_UR.stopped,grating_UL.stopped,grating_LR.stopped,grating_LL.stopped,noise_UR.stopped,noise_UL.stopped,noise_LR.stopped,noise_LL.stopped,outframe,roi_2.numLooks,roi_2.timesOn,roi_2.timesOff,text_2.started,text_2.stopped,probedcontrast,key_resp.started,respdetect,relevantContrast,correctDetect,TorFdetect,respCWorCCW,key_resp.keys,key_resp.rt,feedback_display_.started,participantNo,blockNo,date,expName,psychopyVersion,frameRate,
1000,1,0.0,6.1,1,0,0,0,3,3.2100011594593525e-05,3.2100011594593525e-05,49.443695200025104,51.446735900011845,51.446735900011845,52.080484400037676,52.080484400037676,52.6001025000005,45,45,52.6001025000005,52.6001025000005,52.6001025000005,52.6001025000005,52.6001025000005,52.6001025000005,52.6001025000005,52.6001025000005,52.6001025000005,52.94808960001683,52.94808960001683,52.94808960001683,52.94808960001683,52.94808960001683,52.94808960001683,52.94808960001683,52.94808960001683,52.94808960001683,23,0,,,52.94808960001683,53.15549929998815,1000,53.15549929998815,1000,1000,1000,1000,1,num_2,0.47936029999982566,,27,8,2026-03-05_13h45.36.252,2026A_exp2,2022.2.4,59.978971366131056,
1,0,0.0,3.7,0,0,1,1,22,,,,,53.665892700024415,54.316172800026834,54.316172800026834,54.80043930001557,315,45,54.80043930001557,54.80043930001557,54.80043930001557,54.80043930001557,54.80043930001557,54.80043930001557,54.80043930001557,54.80043930001557,54.80043930001557,55.16694560000906,55.16694560000906,55.16694560000906,55.16694560000906,55.16694560000906,55.16694560000906,55.16694560000906,55.16694560000906,55.16694560000906,23,0,,,55.16694560000906,55.36725360003766,0.0,55.36725360003766,0,0.0,0,1,1000,num_1,0.6994346000137739,,27,8,2026-03-05_13h45.36.252,2026A_exp2,2022.2.4,59.978971366131056,
1,0,0.0,4.9,0,0,2,2,35,,,,,56.08444569999119,56.735264600021765,56.735264600021765,57.21964180003852,315,315,57.21964180003852,57.21964180003852,57.21964180003852,57.21964180003852,57.21964180003852,57.21964180003852,57.21964180003852,57.21964180003852,57.21964180003852,57.58576250000624,57.58576250000624,57.58576250000624,57.58576250000624,57.58576250000624,57.58576250000624,57.58576250000624,57.58576250000624,57.58576250000624,23,0,,,57.58576250000624,57.78643929999089,0.0,57.78643929999089,0,0.0,0,1,1000,num_1,0.8970957000274211,,27,8,2026-03-05_13h45.36.252,2026A_exp2,2022.2.4,59.978971366131056,
1,0,6.1,6.1,0,0,3,3,51,,,,,58.70395350002218,59.35455670004012,59.35455670004012,59.83888140000636,45,45,59.83888140000636,59.83888140000636,59.83888140000636,59.83888140000636,59.83888140000636,59.83888140000636,59.83888140000636,59.83888140000636,59.83888140000636,60.20536030002404,60.20536030002404,60.20536030002404,60.20536030002404,60.20536030002404,60.20536030002404,60.20536030002404,60.20536030002404,60.20536030002404,23,0,,,60.20536030002404,60.40549979999196,6.1,60.40549979999196,1,6.1,1,1,1000,num_4,0.6702146999887191,,27,8,2026-03-05_13h45.36.252,2026A_exp2,2022.2.4,59.978971366131056,
1,0,6.1,6.1,0,0,4,4,11,,,,,61.106346899992786,61.756905400019605,61.756905400019605,62.24135100003332,315,315,62.24135100003332,62.24135100003332,62.24135100003332,62.24135100003332,62.24135100003332,62.24135100003332,62.24135100003332,62.24135100003332,62.24135100003332,62.607732800010126,62.607732800010126,62.607732800010126,62.607732800010126,62.607732800010126,62.607732800010126,62.607732800010126,62.607732800010126,62.607732800010126,23,0,,,62.607732800010126,62.80802230001427,6.1,62.80802230001427,0,6.1,1,0,1000,num_1,0.7633143999846652,,27,8,2026-03-05_13h45.36.252,2026A_exp2,2022.2.4,59.978971366131056,
1,0,0.0,3.7,1,0,5,5,10,,,,,63.59199650003575,64.24275100004161,64.24275100004161,64.7271762000164,45,315,64.7271762000164,64.7271762000164,64.7271762000164,64.7271762000164,64.7271762000164,64.7271762000164,64.7271762000164,64.7271762000164,64.7271762000164,65.09345210000174,65.09345210000174,65.09345210000174,65.09345210000174,65.09345210000174,65.09345210000174,65.09345210000174,65.09345210000174,65.09345210000174,23,0,,,65.09345210000174,65.29382520000217,3.7,65.29382520000217,1,3.7,1,1,1000,num_4,0.6371846999973059,,27,8,2026-03-05_13h45.36.252,2026A_exp2,2022.2.4,59.978971366131056,
1000,1,4.9,3.7,1,0,6,6,14,,,,,65.96089400001802,66.59506570000667,66.59506570000667,67.09614730003523,315,315,67.09614730003523,67.09614730003523,67.09614730003523,67.09614730003523,67.09614730003523,67.09614730003523,67.09614730003523,67.09614730003523,67.09614730003523,67.46272810001392,67.46272810001392,67.46272810001392,67.46272810001392,67.46272810001392,67.46272810001392,67.46272810001392,67.46272810001392,67.46272810001392,23,0,,,67.46272810001392,67.66474859998561,1000,67.66474859998561,1000,1000,1000,1000,0,num_3,0.5460595000186004,,27,8,2026-03-05_13h45.36.252,2026A_exp2,2022.2.4,59.978971366131056,
0,0,0.0,0.0,0,0,7,7,69,,,,,68.22984650003491,68.866110700008,68.866110700008,69.36507669999264,45,315,69.36507669999264,69.36507669999264,69.36507669999264,69.36507669999264,69.36507669999264,69.36507669999264,69.36507669999264,69.36507669999264,69.36507669999264,69.73154260002775,69.73154260002775,69.73154260002775,69.73154260002775,69.73154260002775,69.73154260002775,69.73154260002775,69.73154260002775,69.73154260002775,23,0,,,69.73154260002775,69.93168770003831,0.0,69.93168770003831,0,0.0,0,1,1000,num_1,0.5919631000142545,,27,8,2026-03-05_13h45.36.252,2026A_exp2,2022.2.4,59.978971366131056,
1000,1,0.0,0.0,1,0,8,8,70,,,,,70.54900709999492,71.19960069999797,71.19960069999797,71.68398000003072,45,315,71.68398000003072,71.68398000003072,71.68398000003072,71.68398000003072,71.68398000003072,71.68398000003072,71.68398000003072,71.68398000003072,71.68398000003072,72.05074390000664,72.05074390000664,72.05074390000664,72.05074390000664,72.05074390000664,72.05074390000664,72.05074390000664,72.05074390000664,72.05074390000664,23,0,,,72.05074390000664,72.25276649999432,1000,72.25276649999432,1000,1000,1000,1000,0,num_3,0.581894300004933,,27,8,2026-03-05_13h45.36.252,2026A_exp2,2022.2.4,59.978971366131056,
1000,1,6.1,4.9,1,0,9,9,76,,,,,72.85141649999423,73.50215190002928,73.50215190002928,74.00322820001747,315,45,74.00322820001747,74.00322820001747,74.00322820001747,74.00322820001747,74.00322820001747,74.00322820001747,74.00322820001747,74.00322820001747,74.00322820001747,74.35269989998778,74.35269989998778,74.35269989998778,74.35269989998778,74.35269989998778,74.35269989998778,74.35269989998778,74.35269989998778,74.35269989998778,22,0,,,74.35269989998778,74.55470760003664,1000,74.56974440003978,1000,1000,1000,1000,1,num_2,0.498036700009834,,27,8,2026-03-05_13h45.36.252,2026A_exp2,2022.2.4,59.978971366131056,
1000,1,4.9,0.0,0,0,10,10,20,,,,,75.08684730000095,75.7376021000091,75.7376021000091,76.23867099999916,315,315,76.23867099999916,76.23867099999916,76.23867099999916,76.23867099999916,76.23867099999916,76.23867099999916,76.23867099999916,76.23867099999916,76.23867099999916,76.60514719999628,76.60514719999628,76.60514719999628,76.60514719999628,76.60514719999628,76.60514719999628,76.60514719999628,76.60514719999628,76.60514719999628,23,0,,,76.60514719999628,76.80550439999206,1000,76.80550439999206,1000,1000,1000,1000,0,num_3,0.5254328000009991,,27,8,2026-03-05_13h45.36.252,2026A_exp2,2022.2.4,59.978971366131056,
1000,1,6.1,0.0,0,0,11,11,68,,,,,77.35573509999085,78.0063709000242,78.0063709000242,78.5076495000394,315,315,78.5076495000394,78.5076495000394,78.5076495000394,78.5076495000394,78.5076495000394,78.5076495000394,78.5076495000394,78.5076495000394,78.5076495000394,78.87405859999126,78.87405859999126,78.87405859999126,78.87405859999126,78.87405859999126,78.87405859999126,78.87405859999126,78.87405859999126,78.87405859999126,23,0,,,78.87405859999126,79.07610380003462,1000,79.07610380003462,1000,1000,1000,1000,0,num_3,0.4227591000380926,,27,8,2026-03-05_13h45.36.252,2026A_exp2,2022.2.4,59.978971366131056,
1000,1,3.7,3.7,0,0,12,12,16,,,,,79.52459859999362,80.17521960003069,80.17521960003069,80.6763577000238,315,45,80.6763577000238,80.6763577000238,80.6763577000238,80.6763577000238,80.6763577000238,80.6763577000238,80.6763577000238,80.6763577000238,80.6763577000238,81.02617000002647,81.02617000002647,81.02617000002647,81.02617000002647,81.02617000002647,81.02617000002647,81.02617000002647,81.02617000002647,81.02617000002647,22,0,,,81.02617000002647,81.22831650002627,1000,81.24297660001321,1000,1000,1000,1000,1,num_2,0.4243146000080742,,27,8,2026-03-05_13h45.36.252,2026A_exp2,2022.2.4,59.978971366131056,
1,0,6.1,0.0,1,0,13,13,38,,,,,81.69378979998874,82.34413730003871,82.34413730003871,82.82859270001063,45,45,82.82859270001063,82.82859270001063,82.82859270001063,82.82859270001063,82.82859270001063,82.82859270001063,82.82859270001063,82.82859270001063,82.82859270001063,83.19504960003542,83.19504960003542,83.19504960003542,83.19504960003542,83.19504960003542,83.19504960003542,83.19504960003542,83.19504960003542,83.19504960003542,23,0,,,83.19504960003542,83.39523780002492,0.0,83.39523780002492,0,0.0,0,1,1000,num_1,0.5605071000172757,,27,8,2026-03-05_13h45.36.252,2026A_exp2,2022.2.4,59.978971366131056,
1000,1,6.1,6.1,0,0,14,14,56,,,,,83.97893640003167,84.62973420001799,84.62973420001799,85.11412370001199,45,45,85.11412370001199,85.11412370001199,85.11412370001199,85.11412370001199,85.11412370001199,85.11412370001199,85.11412370001199,85.11412370001199,85.11412370001199,85.48067980003543,85.48067980003543,85.48067980003543,85.48067980003543,85.48067980003543,85.48067980003543,85.48067980003543,85.48067980003543,85.48067980003543,23,0,,,85.48067980003543,85.68249090004247,1000,85.68249090004247,1000,1000,1000,1000,1,num_2,0.4486353999818675,,27,8,2026-03-05_13h45.36.252,2026A_exp2,2022.2.4,59.978971366131056,
0,0,0.0,0.0,0,0,15,15,67,,,,,86.14802269998472,86.79856780002592,86.79856780002592,87.2999928999925,45,315,87.2999928999925,87.2999928999925,87.2999928999925,87.2999928999925,87.2999928999925,87.2999928999925,87.2999928999925,87.2999928999925,87.2999928999925,87.66607600002317,87.66607600002317,87.66607600002317,87.66607600002317,87.66607600002317,87.66607600002317,87.66607600002317,87.66607600002317,87.66607600002317,23,0,,,87.66607600002317,87.86635150003713,0.0,87.86635150003713,0,0.0,0,1,1000,num_1,0.6168505999958143,,27,8,2026-03-05_13h45.36.252,2026A_exp2,2022.2.4,59.978971366131056,
1,0,3.7,6.1,0,0,16,16,55,,,,,88.50018430000637,89.15099350002129,89.15099350002129,89.63557909999508,45,45,89.63557909999508,89.63557909999508,89.63557909999508,89.63557909999508,89.63557909999508,89.63557909999508,89.63557909999508,89.63557909999508,89.63557909999508,90.0018468000344,90.0018468000344,90.0018468000344,90.0018468000344,90.0018468000344,90.0018468000344,90.0018468000344,90.0018468000344,90.0018468000344,14,1,[0.0012169000110588968],[0.15029640001012012],90.0018468000344,90.20209550001891,3.7,90.20209550001891,0,3.7,1,0,1000,num_1,1.440860300033819,,27,8,2026-03-05_13h45.36.252,2026A_exp2,2022.2.4,59.978971366131056,
1000,1,0.0,4.9,1,0,17,17,73,,,,,91.67015489999903,92.32174210000085,92.32174210000085,92.82186999998521,315,45,92.82186999998521,92.82186999998521,92.82186999998521,92.82186999998521,92.82186999998521,92.82186999998521,92.82186999998521,92.82186999998521,92.82186999998521,93.18841490003979,93.18841490003979,93.18841490003979,93.18841490003979,93.18841490003979,93.18841490003979,93.18841490003979,93.18841490003979,93.18841490003979,1,2,"[0.0014176999684423208, 0.10029809997649863]","[0.08345019997796044, 0.3664390000049025]",93.18841490003979,93.39038060000166,1000,93.39038060000166,1000,1000,1000,1000,1,num_2,0.42894349998096004,,27,8,2026-03-05_13h45.36.252,2026A_exp2,2022.2.4,59.978971366131056,
1,0,0.0,3.7,1,0,18,18,25,,,,,93.83881650003605,94.48964720004005,94.48964720004005,94.9906948999851,315,315,94.9906948999851,94.9906948999851,94.9906948999851,94.9906948999851,94.9906948999851,94.9906948999851,94.9906948999851,94.9906948999851,94.9906948999851,95.35713980003493,95.35713980003493,95.35713980003493,95.35713980003493,95.35713980003493,95.35713980003493,95.35713980003493,95.35713980003493,95.35713980003493,23,0,,,95.35713980003493,95.55744960001903,3.7,95.55744960001903,1,3.7,1,1,1000,num_4,0.6066929000080563,,27,8,2026-03-05_13h45.36.252,2026A_exp2,2022.2.4,59.978971366131056,
1000,1,6.1,6.1,0,0,19,19,50,,,,,96.19152039999608,96.84176390001085,96.84176390001085,97.32642890000716,315,315,97.32642890000716,97.32642890000716,97.32642890000716,97.32642890000716,97.32642890000716,97.32642890000716,97.32642890000716,97.32642890000716,97.32642890000716,97.69289040000876,97.69289040000876,97.69289040000876,97.69289040000876,97.69289040000876,97.69289040000876,97.69289040000876,97.69289040000876,97.69289040000876,23,0,,,97.69289040000876,97.89476029999787,1000,97.89476029999787,1000,1000,1000,1000,1,num_2,0.644961100013461,,27,8,2026-03-05_13h45.36.252,2026A_exp2,2022.2.4,59.978971366131056,
1000,1,6.1,0.0,0,0,20,20,58,,,,,98.5601430000388,99.21084240003256,99.21084240003256,99.71204340003897,315,45,99.71204340003897,99.71204340003897,99.71204340003897,99.71204340003897,99.71204340003897,99.71204340003897,99.71204340003897,99.71204340003897,99.71204340003897,100.07857980002882,100.07857980002882,100.07857980002882,100.07857980002882,100.07857980002882,100.07857980002882,100.07857980002882,100.07857980002882,100.07857980002882,23,0,,,100.07857980002882,100.28078460000688,1000,100.28078460000688,1000,1000,1000,1000,0,num_3,0.42607119999593124,,27,8,2026-03-05_13h45.36.252,2026A_exp2,2022.2.4,59.978971366131056,
1000,1,0.0,0.0,0,0,21,21,47,,,,,100.72908670001198,101.37995239999145,101.37995239999145,101.88099360000342,45,45,101.88099360000342,101.88099360000342,101.88099360000342,101.88099360000342,101.88099360000342,101.88099360000342,101.88099360000342,101.88099360000342,101.88099360000342,102.24744410003768,102.24744410003768,102.24744410003768,102.24744410003768,102.24744410003768,102.24744410003768,102.24744410003768,102.24744410003768,102.24744410003768,23,0,,,102.24744410003768,102.4496785000083,1000,102.4496785000083,1000,1000,1000,1000,0,num_3,0.5937269999994896,,27,8,2026-03-05_13h45.36.252,2026A_exp2,2022.2.4,59.978971366131056,
1000,1,6.1,0.0,0,0,22,22,80,,,,,103.064738999994,103.71561539999675,103.71561539999675,104.21650209999643,45,45,104.21650209999643,104.21650209999643,104.21650209999643,104.21650209999643,104.21650209999643,104.21650209999643,104.21650209999643,104.21650209999643,104.21650209999643,104.58304950001184,104.58304950001184,104.58304950001184,104.58304950001184,104.58304950001184,104.58304950001184,104.58304950001184,104.58304950001184,104.58304950001184,23,0,,,104.58304950001184,104.78510830004234,1000,104.78510830004234,1000,1000,1000,1000,0,num_3,0.37099620001390576,,27,8,2026-03-05_13h45.36.252,2026A_exp2,2022.2.4,59.978971366131056,
1000,1,4.9,4.9,1,0,23,23,85,,,,,105.1835684000398,105.8342413000064,105.8342413000064,106.3394474000088,45,45,106.3394474000088,106.3394474000088,106.3394474000088,106.3394474000088,106.3394474000088,106.3394474000088,106.3394474000088,106.3394474000088,106.3394474000088,106.70217410003534,106.70217410003534,106.70217410003534,106.70217410003534,106.70217410003534,106.70217410003534,106.70217410003534,106.70217410003534,106.70217410003534,23,0,,,106.70217410003534,106.90217890002532,1000,106.90217890002532,1000,1000,1000,1000,0,num_3,0.6375867000315338,,27,8,2026-03-05_13h45.36.252,2026A_exp2,2022.2.4,59.978971366131056,
1000,1,6.1,4.9,0,0,24,24,77,,,,,107.56937260000268,108.219989300007,108.219989300007,108.7211378000211,315,45,108.7211378000211,108.7211378000211,108.7211378000211,108.7211378000211,108.7211378000211,108.7211378000211,108.7211378000211,108.7211378000211,108.7211378000211,109.07075670000631,109.07075670000631,109.07075670000631,109.07075670000631,109.07075670000631,109.07075670000631,109.07075670000631,109.07075670000631,109.07075670000631,22,0,,,109.07075670000631,109.30214839999098,1000,109.30214839999098,1000,1000,1000,1000,0,num_3,0.525501299998723,,27,8,2026-03-05_13h45.36.252,2026A_exp2,2022.2.4,59.978971366131056,
1,0,6.1,0.0,1,0,25,25,54,,,,,109.85491500003263,110.50563750002766,110.50563750002766,111.00672569999006,45,45,111.00672569999006,111.00672569999006,111.00672569999006,111.00672569999006,111.00672569999006,111.00672569999006,111.00672569999006,111.00672569999006,111.00672569999006,111.35649370000465,111.35649370000465,111.35649370000465,111.35649370000465,111.35649370000465,111.35649370000465,111.35649370000465,111.35649370000465,111.35649370000465,22,0,,,111.35649370000465,111.5566792000318,0.0,111.57326470001135,0,0.0,0,1,1000,num_1,0.5980425999732688,,27,8,2026-03-05_13h45.36.252,2026A_exp2,2022.2.4,59.978971366131056,
1,0,0.0,3.7,0,0,26,26,1,,,,,112.19061849999707,112.8414137000218,112.8414137000218,113.34236720000627,315,315,113.34236720000627,113.34236720000627,113.34236720000627,113.34236720000627,113.34236720000627,113.34236720000627,113.34236720000627,113.34236720000627,113.34236720000627,113.70870349998586,113.70870349998586,113.70870349998586,113.70870349998586,113.70870349998586,113.70870349998586,113.70870349998586,113.70870349998586,113.70870349998586,23,0,,,113.70870349998586,113.90899220004212,0.0,113.90899220004212,0,0.0,0,1,1000,num_1,0.9021029999712482,,27,8,2026-03-05_13h45.36.252,2026A_exp2,2022.2.4,59.978971366131056,
1000,1,4.9,4.9,0,0,27,27,34,,,,,114.84347449999768,115.47726469999179,115.47726469999179,115.97876830003224,315,315,115.97876830003224,115.97876830003224,115.97876830003224,115.97876830003224,115.97876830003224,115.97876830003224,115.97876830003224,115.97876830003224,115.97876830003224,116.34480810002424,116.34480810002424,116.34480810002424,116.34480810002424,116.34480810002424,116.34480810002424,116.34480810002424,116.34480810002424,116.34480810002424,23,0,,,116.34480810002424,116.54687379999086,1000,116.54687379999086,1000,1000,1000,1000,0,num_3,0.47266020003007725,,27,8,2026-03-05_13h45.36.252,2026A_exp2,2022.2.4,59.978971366131056,
1000,1,6.1,0.0,1,0,28,28,52,,,,,117.0454779000138,117.6958649000153,117.6958649000153,118.19750950002344,315,315,118.19750950002344,118.19750950002344,118.19750950002344,118.19750950002344,118.19750950002344,118.19750950002344,118.19750950002344,118.19750950002344,118.19750950002344,118.56377529999008,118.56377529999008,118.56377529999008,118.56377529999008,118.56377529999008,118.56377529999008,118.56377529999008,118.56377529999008,118.56377529999008,23,0,,,118.56377529999008,118.76576450001448,1000,118.76576450001448,1000,1000,1000,1000,0,num_3,0.41340939997462556,,27,8,2026-03-05_13h45.36.252,2026A_exp2,2022.2.4,59.978971366131056,
1000,1,0.0,3.7,1,0,29,29,43,,,,,119.19758859998547,119.84797400003299,119.84797400003299,120.34941210004035,315,45,120.34941210004035,120.34941210004035,120.34941210004035,120.34941210004035,120.34941210004035,120.34941210004035,120.34941210004035,120.34941210004035,120.34941210004035,120.71571940003196,120.71571940003196,120.71571940003196,120.71571940003196,120.71571940003196,120.71571940003196,120.71571940003196,120.71571940003196,120.71571940003196,23,0,,,120.71571940003196,120.91801960003795,1000,120.91801960003795,1000,1000,1000,1000,1,num_2,0.4208548000315204,,27,8,2026-03-05_13h45.36.252,2026A_exp2,2022.2.4,59.978971366131056,
1,0,3.7,3.7,1,0,30,30,64,,,,,121.3664411000209,122.0170824000379,122.0170824000379,122.51814850000665,45,45,122.51814850000665,122.51814850000665,122.51814850000665,122.51814850000665,122.51814850000665,122.51814850000665,122.51814850000665,122.51814850000665,122.51814850000665,122.88457980001112,122.88457980001112,122.88457980001112,122.88457980001112,122.88457980001112,122.88457980001112,122.88457980001112,122.88457980001112,122.88457980001112,23,0,,,122.88457980001112,123.08494259999134,3.7,123.08494259999134,0,3.7,1,0,1000,num_1,1.1182922999723814,,27,8,2026-03-05_13h45.36.252,2026A_exp2,2022.2.4,59.978971366131056,
1,0,0.0,4.9,1,0,31,31,65,,,,,124.2192689999938,124.87148670002352,124.87148670002352,125.35451480001211,315,45,125.35451480001211,125.35451480001211,125.35451480001211,125.35451480001211,125.35451480001211,125.35451480001211,125.35451480001211,125.35451480001211,125.35451480001211,125.720907800016,125.720907800016,125.720907800016,125.720907800016,125.720907800016,125.720907800016,125.720907800016,125.720907800016,125.720907800016,23,0,,,125.720907800016,125.92115489998832,4.9,125.92115489998832,1,4.9,1,1,1000,num_4,0.642579699982889,,27,8,2026-03-05_13h45.36.252,2026A_exp2,2022.2.4,59.978971366131056,
1,0,3.7,4.9,0,0,32,32,31,,,,,126.5882174000144,127.23903150000842,127.23903150000842,127.72354580002138,315,315,127.72354580002138,127.72354580002138,127.72354580002138,127.72354580002138,127.72354580002138,127.72354580002138,127.72354580002138,127.72354580002138,127.72354580002138,128.0899628000334,128.0899628000334,128.0899628000334,128.0899628000334,128.0899628000334,128.0899628000334,128.0899628000334,128.0899628000334,128.0899628000334,23,0,,,128.0899628000334,128.29022090003127,3.7,128.29022090003127,0,3.7,1,0,1000,num_1,0.6573552000336349,,27,8,2026-03-05_13h45.36.252,2026A_exp2,2022.2.4,59.978971366131056,
1000,1,4.9,4.9,1,0,33,33,60,,,,,128.97404180001467,129.62479750002967,129.62479750002967,130.10907470004167,45,315,130.10907470004167,130.10907470004167,130.10907470004167,130.10907470004167,130.10907470004167,130.10907470004167,130.10907470004167,130.10907470004167,130.10907470004167,130.47571040003095,130.47571040003095,130.47571040003095,130.47571040003095,130.47571040003095,130.47571040003095,130.47571040003095,130.47571040003095,130.47571040003095,23,0,,,130.47571040003095,130.67746680002892,1000,130.67746680002892,1000,1000,1000,1000,0,num_3,0.6299614999443293,,27,8,2026-03-05_13h45.36.252,2026A_exp2,2022.2.4,59.978971366131056,
0,0,3.7,3.7,0,0,34,34,63,,,,,131.3266544000362,131.9812774999882,131.9812774999882,132.47848709998652,45,45,132.47848709998652,132.47848709998652,132.47848709998652,132.47848709998652,132.47848709998652,132.47848709998652,132.47848709998652,132.47848709998652,132.47848709998652,132.84476579999318,132.84476579999318,132.84476579999318,132.84476579999318,132.84476579999318,132.84476579999318,132.84476579999318,132.84476579999318,132.84476579999318,23,0,,,132.84476579999318,133.04480410000542,3.7,133.04480410000542,0,3.7,1,0,1000,num_1,0.8146854999940842,,27,8,2026-03-05_13h45.36.252,2026A_exp2,2022.2.4,59.978971366131056,
0,0,0.0,0.0,0,0,35,35,4,,,,,133.87886220001383,134.52969160000794,134.52969160000794,135.0143213000265,315,45,135.0143213000265,135.0143213000265,135.0143213000265,135.0143213000265,135.0143213000265,135.0143213000265,135.0143213000265,135.0143213000265,135.0143213000265,135.38052010000683,135.38052010000683,135.38052010000683,135.38052010000683,135.38052010000683,135.38052010000683,135.38052010000683,135.38052010000683,135.38052010000683,23,0,,,135.38052010000683,135.58067749999464,0.0,135.58067749999464,1,0.0,0,0,1000,num_4,0.8059987999731675,,27,8,2026-03-05_13h45.36.252,2026A_exp2,2022.2.4,59.978971366131056,
1,0,4.9,0.0,1,0,36,36,48,,,,,136.41471520002233,137.0655631000409,137.0655631000409,137.5501337000169,45,45,137.5501337000169,137.5501337000169,137.5501337000169,137.5501337000169,137.5501337000169,137.5501337000169,137.5501337000169,137.5501337000169,137.5501337000169,137.91642349999165,137.91642349999165,137.91642349999165,137.91642349999165,137.91642349999165,137.91642349999165,137.91642349999165,137.91642349999165,137.91642349999165,23,0,,,137.91642349999165,138.1166843000101,0.0,138.1166843000101,0,0.0,0,1,1000,num_1,0.4706651999731548,,27,8,2026-03-05_13h45.36.252,2026A_exp2,2022.2.4,59.978971366131056,
1000,1,4.9,0.0,0,0,37,37,78,,,,,138.61714940000093,139.26792000001296,139.26792000001296,139.75208210002165,45,45,139.75208210002165,139.75208210002165,139.75208210002165,139.75208210002165,139.75208210002165,139.75208210002165,139.75208210002165,139.75208210002165,139.75208210002165,140.11846620001597,140.11846620001597,140.11846620001597,140.11846620001597,140.11846620001597,140.11846620001597,140.11846620001597,140.11846620001597,140.11846620001597,23,0,,,140.11846620001597,140.3207226000377,1000,140.3207226000377,1000,1000,1000,1000,0,num_3,0.5302830000291578,,27,8,2026-03-05_13h45.36.252,2026A_exp2,2022.2.4,59.978971366131056,
1,0,3.7,6.1,1,0,38,38,6,,,,,140.8692219000077,141.52010180003708,141.52010180003708,142.02103330002865,315,45,142.02103330002865,142.02103330002865,142.02103330002865,142.02103330002865,142.02103330002865,142.02103330002865,142.02103330002865,142.02103330002865,142.02103330002865,142.387369700009,142.387369700009,142.387369700009,142.387369700009,142.387369700009,142.387369700009,142.387369700009,142.387369700009,142.387369700009,23,0,,,142.387369700009,142.58761749998666,6.1,142.58761749998666,1,6.1,1,1,1000,num_4,0.6402746000094339,,27,8,2026-03-05_13h45.36.252,2026A_exp2,2022.2.4,59.978971366131056,
1000,1,6.1,6.1,0,0,39,39,74,,,,,143.25495630002115,143.90578179998556,143.90578179998556,144.39019539998844,45,45,144.39019539998844,144.39019539998844,144.39019539998844,144.39019539998844,144.39019539998844,144.39019539998844,144.39019539998844,144.39019539998844,144.39019539998844,144.75661570002558,144.75661570002558,144.75661570002558,144.75661570002558,144.75661570002558,144.75661570002558,144.75661570002558,144.75661570002558,144.75661570002558,23,0,,,144.75661570002558,144.9588659000001,1000,144.9588659000001,1000,1000,1000,1000,0,num_3,0.5483782999799587,,27,8,2026-03-05_13h45.36.252,2026A_exp2,2022.2.4,59.978971366131056,
1000,1,3.7,4.9,0,0,40,40,13,,,,,145.52391320001334,146.17464380001184,146.17464380001184,146.67578779999167,315,315,146.67578779999167,146.67578779999167,146.67578779999167,146.67578779999167,146.67578779999167,146.67578779999167,146.67578779999167,146.67578779999167,146.67578779999167,147.04218210000545,147.04218210000545,147.04218210000545,147.04218210000545,147.04218210000545,147.04218210000545,147.04218210000545,147.04218210000545,147.04218210000545,23,0,,,147.04218210000545,147.24399180000182,1000,147.24399180000182,1000,1000,1000,1000,1,num_2,0.47984919999726117,,27,8,2026-03-05_13h45.36.252,2026A_exp2,2022.2.4,59.978971366131056,
1,0,4.9,0.0,1,0,41,41,15,,,,,147.74271930003306,148.39377409999724,148.39377409999724,148.89468999998644,45,45,148.89468999998644,148.89468999998644,148.89468999998644,148.89468999998644,148.89468999998644,148.89468999998644,148.89468999998644,148.89468999998644,148.89468999998644,149.26113400002941,149.26113400002941,149.26113400002941,149.26113400002941,149.26113400002941,149.26113400002941,149.26113400002941,149.26113400002941,149.26113400002941,23,0,,,149.26113400002941,149.4612890999997,0.0,149.4612890999997,0,0.0,0,1,1000,num_1,0.518173799966462,,27,8,2026-03-05_13h45.36.252,2026A_exp2,2022.2.4,59.978971366131056,
1,0,0.0,0.0,0,0,42,42,49,,,,,149.99504710000474,150.6458345000283,150.6458345000283,151.13024600001518,45,315,151.13024600001518,151.13024600001518,151.13024600001518,151.13024600001518,151.13024600001518,151.13024600001518,151.13024600001518,151.13024600001518,151.13024600001518,151.49649230000796,151.49649230000796,151.49649230000796,151.49649230000796,151.49649230000796,151.49649230000796,151.49649230000796,151.49649230000796,151.49649230000796,23,0,,,151.49649230000796,151.6967668000143,0.0,151.6967668000143,0,0.0,0,1,1000,num_1,0.7380975999985822,,27,8,2026-03-05_13h45.36.252,2026A_exp2,2022.2.4,59.978971366131056,
1,0,0.0,0.0,1,0,43,43,82,,,,,152.4640466000419,153.11510560003808,153.11510560003808,153.59927760000573,315,315,153.59927760000573,153.59927760000573,153.59927760000573,153.59927760000573,153.59927760000573,153.59927760000573,153.59927760000573,153.59927760000573,153.59927760000573,153.96574020001572,153.96574020001572,153.96574020001572,153.96574020001572,153.96574020001572,153.96574020001572,153.96574020001572,153.96574020001572,153.96574020001572,20,1,[0.0008134000236168504],[0.033711800002492964],153.96574020001572,154.1659260999877,0.0,154.1659260999877,0,0.0,0,1,1000,num_1,0.5978509000269696,,27,8,2026-03-05_13h45.36.252,2026A_exp2,2022.2.4,59.978971366131056,
0,0,3.7,6.1,1,0,44,44,17,,,,,154.78314240003238,155.43393729999661,155.43393729999661,155.91841159999603,315,315,155.91841159999603,155.91841159999603,155.91841159999603,155.91841159999603,155.91841159999603,155.91841159999603,155.91841159999603,155.91841159999603,155.91841159999603,156.2847339999862,156.2847339999862,156.2847339999862,156.2847339999862,156.2847339999862,156.2847339999862,156.2847339999862,156.2847339999862,156.2847339999862,23,0,,,156.2847339999862,156.48486309999134,3.7,156.48486309999134,0,3.7,1,0,1000,num_1,0.6858150999760255,,27,8,2026-03-05_13h45.36.252,2026A_exp2,2022.2.4,59.978971366131056,
1,0,0.0,0.0,0,0,45,45,29,,,,,157.20218590000877,157.85298120003426,157.85298120003426,158.33740850002505,315,45,158.33740850002505,158.33740850002505,158.33740850002505,158.33740850002505,158.33740850002505,158.33740850002505,158.33740850002505,158.33740850002505,158.33740850002505,158.70374110003468,158.70374110003468,158.70374110003468,158.70374110003468,158.70374110003468,158.70374110003468,158.70374110003468,158.70374110003468,158.70374110003468,0,1,[0.001208400004543364],[0.36711340001784265],158.70374110003468,158.90407300001243,0.0,158.90407300001243,1,0.0,0,0,1000,num_4,1.0277399000478908,,27,8,2026-03-05_13h45.36.252,2026A_exp2,2022.2.4,59.978971366131056,
1,0,3.7,0.0,1,0,46,46,59,,,,,159.95500610000454,160.60567900002934,160.60567900002934,161.09007199999178,45,315,161.09007199999178,161.09007199999178,161.09007199999178,161.09007199999178,161.09007199999178,161.09007199999178,161.09007199999178,161.09007199999178,161.09007199999178,161.45661880000262,161.45661880000262,161.45661880000262,161.45661880000262,161.45661880000262,161.45661880000262,161.45661880000262,161.45661880000262,161.45661880000262,2,2,"[0.0012647999683395028, 0.35048949997872114]","[0.33382869994966313, 0.3671809999505058]",161.45661880000262,161.65686670003925,0.0,161.65686670003925,1,0.0,0,0,1000,num_4,0.5380290999892168,,27,8,2026-03-05_13h45.36.252,2026A_exp2,2022.2.4,59.978971366131056,
1,0,0.0,6.1,0,0,47,47,57,,,,,162.22389429999748,162.87468120001722,162.87468120001722,163.35917429998517,45,45,163.35917429998517,163.35917429998517,163.35917429998517,163.35917429998517,163.35917429998517,163.35917429998517,163.35917429998517,163.35917429998517,163.35917429998517,163.72527260001516,163.72527260001516,163.72527260001516,163.72527260001516,163.72527260001516,163.72527260001516,163.72527260001516,163.72527260001516,163.72527260001516,23,0,,,163.72527260001516,163.9258339999942,0.0,163.9258339999942,0,0.0,0,1,1000,num_1,0.6611965000047348,,27,8,2026-03-05_13h45.36.252,2026A_exp2,2022.2.4,59.978971366131056,
1,0,0.0,3.7,1,0,48,48,12,,,,,164.6096130000078,165.26029800000833,165.26029800000833,165.7446824000217,45,45,165.7446824000217,165.7446824000217,165.7446824000217,165.7446824000217,165.7446824000217,165.7446824000217,165.7446824000217,165.7446824000217,165.7446824000217,166.1111772999866,166.1111772999866,166.1111772999866,166.1111772999866,166.1111772999866,166.1111772999866,166.1111772999866,166.1111772999866,166.1111772999866,0,1,[0.0012249000137671828],[0.3670521000167355],166.1111772999866,166.31142350001028,3.7,166.31142350001028,1,3.7,1,1,1000,num_4,0.6998506999807432,,27,8,2026-03-05_13h45.36.252,2026A_exp2,2022.2.4,59.978971366131056,
1000,1,6.1,0.0,1,0,49,49,79,,,,,167.02889230003348,167.6628814000287,167.6628814000287,168.16393800004153,315,45,168.16393800004153,168.16393800004153,168.16393800004153,168.16393800004153,168.16393800004153,168.16393800004153,168.16393800004153,168.16393800004153,168.16393800004153,168.5303392999922,168.5303392999922,168.5303392999922,168.5303392999922,168.5303392999922,168.5303392999922,168.5303392999922,168.5303392999922,168.5303392999922,23,0,,,168.5303392999922,168.7322527000215,1000,168.7322527000215,1000,1000,1000,1000,1,num_2,0.9028516999678686,,27,8,2026-03-05_13h45.36.252,2026A_exp2,2022.2.4,59.978971366131056,
1000,1,0.0,6.1,0,0,50,50,83,,,,,169.66472260002047,170.31544750003377,170.31544750003377,170.81649490003474,315,315,170.81649490003474,170.81649490003474,170.81649490003474,170.81649490003474,170.81649490003474,170.81649490003474,170.81649490003474,170.81649490003474,170.81649490003474,171.16631530004088,171.16631530004088,171.16631530004088,171.16631530004088,171.16631530004088,171.16631530004088,171.16631530004088,171.16631530004088,171.16631530004088,22,0,,,171.16631530004088,171.36833140003728,1000,171.38324090000242,1000,1000,1000,1000,1,num_2,0.4924388999934308,,27,8,2026-03-05_13h45.36.252,2026A_exp2,2022.2.4,59.978971366131056,
1000,1,3.7,0.0,1,0,51,51,33,,,,,171.90050749998773,172.55109180003637,172.55109180003637,173.03539060003823,315,315,173.03539060003823,173.03539060003823,173.03539060003823,173.03539060003823,173.03539060003823,173.03539060003823,173.03539060003823,173.03539060003823,173.03539060003823,173.40186530002393,173.40186530002393,173.40186530002393,173.40186530002393,173.40186530002393,173.40186530002393,173.40186530002393,173.40186530002393,173.40186530002393,23,0,,,173.40186530002393,173.60422550002113,1000,173.60422550002113,1000,1000,1000,1000,0,num_3,0.7351477000047453,,27,8,2026-03-05_13h45.36.252,2026A_exp2,2022.2.4,59.978971366131056,
1,0,4.9,0.0,0,0,52,52,87,,,,,174.36957590002567,175.02005290001398,175.02005290001398,175.52130130003206,45,45,175.52130130003206,175.52130130003206,175.52130130003206,175.52130130003206,175.52130130003206,175.52130130003206,175.52130130003206,175.52130130003206,175.52130130003206,175.8877306000213,175.8877306000213,175.8877306000213,175.8877306000213,175.8877306000213,175.8877306000213,175.8877306000213,175.8877306000213,175.8877306000213,23,0,,,175.8877306000213,176.08784669998568,4.9,176.08784669998568,1,4.9,1,1,1000,num_4,0.7960359000135213,,27,8,2026-03-05_13h45.36.252,2026A_exp2,2022.2.4,59.978971366131056,
1000,1,4.9,0.0,1,0,53,53,7,,,,,176.9052270000102,177.5589220999973,177.5589220999973,178.04296829999657,315,45,178.04296829999657,178.04296829999657,178.04296829999657,178.04296829999657,178.04296829999657,178.04296829999657,178.04296829999657,178.04296829999657,178.04296829999657,178.40695750003215,178.40695750003215,178.40695750003215,178.40695750003215,178.40695750003215,178.40695750003215,178.40695750003215,178.40695750003215,178.40695750003215,23,0,,,178.40695750003215,178.60719010001048,1000,178.60719010001048,1000,1000,1000,1000,1,num_2,0.6361168000148609,,27,8,2026-03-05_13h45.36.252,2026A_exp2,2022.2.4,59.978971366131056,
1000,1,0.0,3.7,1,0,54,54,75,,,,,179.27434860001085,179.92513930000132,179.92513930000132,180.42510530003347,315,315,180.42510530003347,180.42510530003347,180.42510530003347,180.42510530003347,180.42510530003347,180.42510530003347,180.42510530003347,180.42510530003347,180.42510530003347,180.7759153000079,180.7759153000079,180.7759153000079,180.7759153000079,180.7759153000079,180.7759153000079,180.7759153000079,180.7759153000079,180.7759153000079,19,4,"[0.004173199995420873, 0.04343810002319515, 0.24823420000029728, 0.2819253000197932]","[0.030834699980914593, 0.05497190001187846, 0.2650700000231154, 0.31488720001652837]",180.7759153000079,180.98141330003273,1000,180.98141330003273,1000,1000,1000,1000,1,num_2,0.46230620000278577,,27,8,2026-03-05_13h45.36.252,2026A_exp2,2022.2.4,59.978971366131056,
1000,1,3.7,0.0,1,0,55,55,21,,,,,181.45984650001628,182.11060790001648,182.11060790001648,182.61177870002575,315,315,182.61177870002575,182.61177870002575,182.61177870002575,182.61177870002575,182.61177870002575,182.61177870002575,182.61177870002575,182.61177870002575,182.61177870002575,182.9781035000342,182.9781035000342,182.9781035000342,182.9781035000342,182.9781035000342,182.9781035000342,182.9781035000342,182.9781035000342,182.9781035000342,23,0,,,182.9781035000342,183.18048290000297,1000,183.18048290000297,1000,1000,1000,1000,0,num_3,0.623681899975054,,27,8,2026-03-05_13h45.36.252,2026A_exp2,2022.2.4,59.978971366131056,
1,0,3.7,4.9,0,0,56,56,84,,,,,183.82880540000042,184.47956880001584,184.47956880001584,184.98061930004042,45,45,184.98061930004042,184.98061930004042,184.98061930004042,184.98061930004042,184.98061930004042,184.98061930004042,184.98061930004042,184.98061930004042,184.98061930004042,185.34721340000397,185.34721340000397,185.34721340000397,185.34721340000397,185.34721340000397,185.34721340000397,185.34721340000397,185.34721340000397,185.34721340000397,23,0,,,185.34721340000397,185.54729170002975,3.7,185.54729170002975,0,3.7,1,0,1000,num_1,0.7120249000145122,,27,8,2026-03-05_13h45.36.252,2026A_exp2,2022.2.4,59.978971366131056,
1000,1,0.0,0.0,0,0,57,57,5,,,,,186.2813439000165,186.93207109998912,186.93207109998912,187.4164538999903,315,45,187.4164538999903,187.4164538999903,187.4164538999903,187.4164538999903,187.4164538999903,187.4164538999903,187.4164538999903,187.4164538999903,187.4164538999903,187.78276780003216,187.78276780003216,187.78276780003216,187.78276780003216,187.78276780003216,187.78276780003216,187.78276780003216,187.78276780003216,187.78276780003216,23,0,,,187.78276780003216,187.98509199998807,1000,187.98509199998807,1000,1000,1000,1000,0,num_3,0.5464097000076436,,27,8,2026-03-05_13h45.36.252,2026A_exp2,2022.2.4,59.978971366131056,
1,0,0.0,0.0,1,0,58,58,53,,,,,188.55023880000226,189.2011336000287,189.2011336000287,189.70220120000886,45,315,189.70220120000886,189.70220120000886,189.70220120000886,189.70220120000886,189.70220120000886,189.70220120000886,189.70220120000886,189.70220120000886,189.70220120000886,190.0685586000327,190.0685586000327,190.0685586000327,190.0685586000327,190.0685586000327,190.0685586000327,190.0685586000327,190.0685586000327,190.0685586000327,21,1,[0.05010970000876114],[0.08348319999640808],190.0685586000327,190.26881710003363,0.0,190.26881710003363,0,0.0,0,1,1000,num_1,1.0793587999651209,,27,8,2026-03-05_13h45.36.252,2026A_exp2,2022.2.4,59.978971366131056,
1000,1,0.0,4.9,0,0,59,59,27,,,,,191.3697322999942,192.02038410003297,192.02038410003297,192.51977930002613,315,315,192.51977930002613,192.51977930002613,192.51977930002613,192.51977930002613,192.51977930002613,192.51977930002613,192.51977930002613,192.51977930002613,192.51977930002613,192.87139819998993,192.87139819998993,192.87139819998993,192.87139819998993,192.87139819998993,192.87139819998993,192.87139819998993,192.87139819998993,192.87139819998993,22,0,,,192.87139819998993,193.07353580003837,1000,193.07353580003837,1000,1000,1000,1000,1,num_2,0.4265394999529235,,27,8,2026-03-05_13h45.36.252,2026A_exp2,2022.2.4,59.978971366131056,
1,0,0.0,4.9,1,0,60,60,36,,,,,193.52183819998754,194.17269060004037,194.17269060004037,194.67365910002263,315,315,194.67365910002263,194.67365910002263,194.67365910002263,194.67365910002263,194.67365910002263,194.67365910002263,194.67365910002263,194.67365910002263,194.67365910002263,195.0400387000409,195.0400387000409,195.0400387000409,195.0400387000409,195.0400387000409,195.0400387000409,195.0400387000409,195.0400387000409,195.0400387000409,10,4,"[0.05035969999153167, 0.16681680001784116, 0.20038360002217814, 0.2838255999959074]","[0.0835365999955684, 0.18427620001602918, 0.26707649999298155, 0.3674444999778643]",195.0400387000409,195.24026869999943,4.9,195.24026869999943,1,4.9,1,1,1000,num_4,0.5795129999751225,,27,8,2026-03-05_13h45.36.252,2026A_exp2,2022.2.4,59.978971366131056,
1000,1,6.1,3.7,1,0,61,61,45,,,,,195.84073320002062,196.49153310002293,196.49153310002293,196.97617949999403,45,45,196.97617949999403,196.97617949999403,196.97617949999403,196.97617949999403,196.97617949999403,196.97617949999403,196.97617949999403,196.97617949999403,196.97617949999403,197.34265150001738,197.34265150001738,197.34265150001738,197.34265150001738,197.34265150001738,197.34265150001738,197.34265150001738,197.34265150001738,197.34265150001738,23,0,,,197.34265150001738,197.54492640000535,1000,197.54492640000535,1000,1000,1000,1000,0,num_3,0.4748642999911681,,27,8,2026-03-05_13h45.36.252,2026A_exp2,2022.2.4,59.978971366131056,
1000,1,0.0,3.7,0,0,62,62,32,,,,,198.04316629999084,198.69366630003788,198.69366630003788,199.19484120002016,45,45,199.19484120002016,199.19484120002016,199.19484120002016,199.19484120002016,199.19484120002016,199.19484120002016,199.19484120002016,199.19484120002016,199.19484120002016,199.56133380002575,199.56133380002575,199.56133380002575,199.56133380002575,199.56133380002575,199.56133380002575,199.56133380002575,199.56133380002575,199.56133380002575,8,2,"[0.10017240000888705, 0.1502477999893017]","[0.11694010003702715, 0.36718460003612563]",199.56133380002575,199.76355999999214,1000,199.76355999999214,1000,1000,1000,1000,1,num_2,0.48769879998872057,,27,8,2026-03-05_13h45.36.252,2026A_exp2,2022.2.4,59.978971366131056,
1000,1,0.0,0.0,1,0,63,63,62,,,,,200.2786117999931,200.92951759998687,200.92951759998687,201.4304439999978,315,315,201.4304439999978,201.4304439999978,201.4304439999978,201.4304439999978,201.4304439999978,201.4304439999978,201.4304439999978,201.4304439999978,201.4304439999978,201.79691269999603,201.79691269999603,201.79691269999603,201.79691269999603,201.79691269999603,201.79691269999603,201.79691269999603,201.79691269999603,201.79691269999603,23,0,,,201.79691269999603,201.99925420002546,1000,201.99925420002546,1000,1000,1000,1000,0,num_3,0.6844641999923624,,27,8,2026-03-05_13h45.36.252,2026A_exp2,2022.2.4,59.978971366131056,
1000,1,3.7,6.1,0,0,64,64,81,,,,,202.71444650000194,203.3652054000413,203.3652054000413,203.86610789998667,45,315,203.86610789998667,203.86610789998667,203.86610789998667,203.86610789998667,203.86610789998667,203.86610789998667,203.86610789998667,203.86610789998667,203.86610789998667,204.2326043000212,204.2326043000212,204.2326043000212,204.2326043000212,204.2326043000212,204.2326043000212,204.2326043000212,204.2326043000212,204.2326043000212,13,1,[0.0015361999976448715],[0.16650360001949593],204.2326043000212,204.43290200002957,1000,204.43290200002957,1000,1000,1000,1000,1,num_2,0.8825020000222139,,27,8,2026-03-05_13h45.36.252,2026A_exp2,2022.2.4,59.978971366131056,
1,0,0.0,0.0,0,0,65,65,0,,,,,205.33370220003417,205.98456519999309,205.98456519999309,206.4856712000328,315,315,206.4856712000328,206.4856712000328,206.4856712000328,206.4856712000328,206.4856712000328,206.4856712000328,206.4856712000328,206.4856712000328,206.4856712000328,206.85195480001858,206.85195480001858,206.85195480001858,206.85195480001858,206.85195480001858,206.85195480001858,206.85195480001858,206.85195480001858,206.85195480001858,21,3,"[0.10033529996871948, 0.23401229997398332, 0.3173879999667406]","[0.11736979999113828, 0.2510284999734722, 0.33417319995351136]",206.85195480001858,207.05213660001755,0.0,207.05213660001755,0,0.0,0,1,1000,num_1,2.175150399969425,,27,8,2026-03-05_13h45.36.252,2026A_exp2,2022.2.4,59.978971366131056,
1000,1,4.9,0.0,1,0,66,66,28,,,,,209.25428430002648,209.90507239999715,209.90507239999715,210.38940129999537,45,315,210.38940129999537,210.38940129999537,210.38940129999537,210.38940129999537,210.38940129999537,210.38940129999537,210.38940129999537,210.38940129999537,210.38940129999537,210.75595890003024,210.75595890003024,210.75595890003024,210.75595890003024,210.75595890003024,210.75595890003024,210.75595890003024,210.75595890003024,210.75595890003024,23,0,,,210.75595890003024,210.95790490001673,1000,210.95790490001673,1000,1000,1000,1000,0,num_3,0.4694084000075236,,27,8,2026-03-05_13h45.36.252,2026A_exp2,2022.2.4,59.978971366131056,
1000,1,6.1,3.7,0,0,67,67,61,,,,,211.45691220002482,212.1071418999927,212.1071418999927,212.60841990000335,45,45,212.60841990000335,212.60841990000335,212.60841990000335,212.60841990000335,212.60841990000335,212.60841990000335,212.60841990000335,212.60841990000335,212.60841990000335,212.9745481000282,212.9745481000282,212.9745481000282,212.9745481000282,212.9745481000282,212.9745481000282,212.9745481000282,212.9745481000282,212.9745481000282,23,0,,,212.9745481000282,213.17700249998597,1000,213.17700249998597,1000,1000,1000,1000,0,num_3,0.3862717999727465,,27,8,2026-03-05_13h45.36.252,2026A_exp2,2022.2.4,59.978971366131056,
1000,1,0.0,0.0,0,0,68,68,41,,,,,213.5919780000113,214.24271240003873,214.24271240003873,214.74391020002076,45,45,214.74391020002076,214.74391020002076,214.74391020002076,214.74391020002076,214.74391020002076,214.74391020002076,214.74391020002076,214.74391020002076,214.74391020002076,215.11036759999115,215.11036759999115,215.11036759999115,215.11036759999115,215.11036759999115,215.11036759999115,215.11036759999115,215.11036759999115,215.11036759999115,23,0,,,215.11036759999115,215.31211170001188,1000,215.31211170001188,1000,1000,1000,1000,1,num_2,0.514982599997893,,27,8,2026-03-05_13h45.36.252,2026A_exp2,2022.2.4,59.978971366131056,
1,0,4.9,0.0,0,0,69,69,23,,,,,215.8441508000251,216.49504300003173,216.49504300003173,216.99593450000975,315,315,216.99593450000975,216.99593450000975,216.99593450000975,216.99593450000975,216.99593450000975,216.99593450000975,216.99593450000975,216.99593450000975,216.99593450000975,217.362532500003,217.362532500003,217.362532500003,217.362532500003,217.362532500003,217.362532500003,217.362532500003,217.362532500003,217.362532500003,23,0,,,217.362532500003,217.56263729999773,4.9,217.56263729999773,1,4.9,1,1,1000,num_4,0.6644821999943815,,27,8,2026-03-05_13h45.36.252,2026A_exp2,2022.2.4,59.978971366131056,
1,0,6.1,3.7,0,0,70,70,86,,,,,218.24667870003032,218.8974937000312,218.8974937000312,219.3820508000208,45,315,219.3820508000208,219.3820508000208,219.3820508000208,219.3820508000208,219.3820508000208,219.3820508000208,219.3820508000208,219.3820508000208,219.3820508000208,219.7482170999865,219.7482170999865,219.7482170999865,219.7482170999865,219.7482170999865,219.7482170999865,219.7482170999865,219.7482170999865,219.7482170999865,23,0,,,219.7482170999865,219.9484276000294,6.1,219.9484276000294,1,6.1,1,1,1000,num_4,0.7346975000109524,,27,8,2026-03-05_13h45.36.252,2026A_exp2,2022.2.4,59.978971366131056,
1000,1,0.0,0.0,1,0,71,71,39,,,,,220.69921679998515,221.3498408999876,221.3498408999876,221.83428559999447,315,315,221.83428559999447,221.83428559999447,221.83428559999447,221.83428559999447,221.83428559999447,221.83428559999447,221.83428559999447,221.83428559999447,221.83428559999447,222.2007222000393,222.2007222000393,222.2007222000393,222.2007222000393,222.2007222000393,222.2007222000393,222.2007222000393,222.2007222000393,222.2007222000393,22,1,[0.18371009995462373],[0.2004816999542527],222.2007222000393,222.40269140002783,1000,222.40269140002783,1000,1000,1000,1000,1,num_2,0.7373978999676183,,27,8,2026-03-05_13h45.36.252,2026A_exp2,2022.2.4,59.978971366131056,
1000,1,0.0,4.9,0,0,72,72,9,,,,,223.16821309999796,223.8188846000121,223.8188846000121,224.30344420002075,315,315,224.30344420002075,224.30344420002075,224.30344420002075,224.30344420002075,224.30344420002075,224.30344420002075,224.30344420002075,224.30344420002075,224.30344420002075,224.6698494000011,224.6698494000011,224.6698494000011,224.6698494000011,224.6698494000011,224.6698494000011,224.6698494000011,224.6698494000011,224.6698494000011,22,1,[0.0012118000304326415],[0.017391900008078665],224.6698494000011,224.872019500006,1000,224.872019500006,1000,1000,1000,1000,1,num_2,0.5078110999893397,,27,8,2026-03-05_13h45.36.252,2026A_exp2,2022.2.4,59.978971366131056,
1,0,0.0,0.0,0,0,73,73,19,,,,,225.4038162000361,226.0545385000296,226.0545385000296,226.55532849999145,45,315,226.55532849999145,226.55532849999145,226.55532849999145,226.55532849999145,226.55532849999145,226.55532849999145,226.55532849999145,226.55532849999145,226.55532849999145,226.92216570000164,226.92216570000164,226.92216570000164,226.92216570000164,226.92216570000164,226.92216570000164,226.92216570000164,226.92216570000164,226.92216570000164,23,0,,,226.92216570000164,227.1360580000328,0.0,227.1360580000328,1,0.0,0,0,1000,num_4,0.9320784999872558,,27,8,2026-03-05_13h45.36.252,2026A_exp2,2022.2.4,59.978971366131056,
1000,1,3.7,3.7,1,0,74,74,88,,,,,228.0899563000421,228.72392860002583,228.72392860002583,229.2250262000016,315,315,229.2250262000016,229.2250262000016,229.2250262000016,229.2250262000016,229.2250262000016,229.2250262000016,229.2250262000016,229.2250262000016,229.2250262000016,229.5911079000216,229.5911079000216,229.5911079000216,229.5911079000216,229.5911079000216,229.5911079000216,229.5911079000216,229.5911079000216,229.5911079000216,14,2,"[0.21714070002781227, 0.2671804000274278]","[0.25047760002780706, 0.3669813000014983]",229.5911079000216,229.7936245999881,1000,229.7936245999881,1000,1000,1000,1000,1,num_2,0.5461310999817215,,27,8,2026-03-05_13h45.36.252,2026A_exp2,2022.2.4,59.978971366131056,
1,0,0.0,6.1,0,0,75,75,72,,,,,230.35870550002437,231.00951160001568,231.00951160001568,231.51063929998782,45,45,231.51063929998782,231.51063929998782,231.51063929998782,231.51063929998782,231.51063929998782,231.51063929998782,231.51063929998782,231.51063929998782,231.51063929998782,231.87704930000473,231.87704930000473,231.87704930000473,231.87704930000473,231.87704930000473,231.87704930000473,231.87704930000473,231.87704930000473,231.87704930000473,19,2,"[0.30032089998712763, 0.3337807999923825]","[0.3171355999656953, 0.36709489999338984]",231.87704930000473,232.07719260000158,0.0,232.07719260000158,0,0.0,0,1,1000,num_1,0.8069457999663427,,27,8,2026-03-05_13h45.36.252,2026A_exp2,2022.2.4,59.978971366131056,
1,0,6.1,6.1,1,0,76,76,89,,,,,232.91127740003867,233.5619994000299,233.5619994000299,234.04643220000435,45,45,234.04643220000435,234.04643220000435,234.04643220000435,234.04643220000435,234.04643220000435,234.04643220000435,234.04643220000435,234.04643220000435,234.04643220000435,234.41291370004183,234.41291370004183,234.41291370004183,234.41291370004183,234.41291370004183,234.41291370004183,234.41291370004183,234.41291370004183,234.41291370004183,23,0,,,234.41291370004183,234.61302220000653,6.1,234.61302220000653,0,6.1,1,0,1000,num_1,0.950271799985785,,27,8,2026-03-05_13h45.36.252,2026A_exp2,2022.2.4,59.978971366131056,
1000,1,6.1,0.0,0,0,77,77,8,,,,,235.58053410000866,236.23525219998555,236.23525219998555,236.72362860001158,315,45,236.72362860001158,236.72362860001158,236.72362860001158,236.72362860001158,236.72362860001158,236.72362860001158,236.72362860001158,236.72362860001158,236.72362860001158,237.08203300001333,237.08203300001333,237.08203300001333,237.08203300001333,237.08203300001333,237.08203300001333,237.08203300001333,237.08203300001333,237.08203300001333,1,2,"[0.0030725999968126416, 0.18154180003330112]","[0.16474450001260266, 0.3651901999837719]",237.08203300001333,237.3126713000238,1000,237.3126713000238,1000,1000,1000,1000,0,num_3,0.4747788999811746,,27,8,2026-03-05_13h45.36.252,2026A_exp2,2022.2.4,59.978971366131056,
1,0,0.0,0.0,0,0,78,78,66,,,,,237.8163210999919,238.46699819999048,238.46699819999048,238.9679050000268,315,45,238.9679050000268,238.9679050000268,238.9679050000268,238.9679050000268,238.9679050000268,238.9679050000268,238.9679050000268,238.9679050000268,238.9679050000268,239.3345091000083,239.3345091000083,239.3345091000083,239.3345091000083,239.3345091000083,239.3345091000083,239.3345091000083,239.3345091000083,239.3345091000083,23,0,,,239.3345091000083,239.5346704000258,0.0,239.5346704000258,1,0.0,0,0,1000,num_4,0.7160313000204042,,27,8,2026-03-05_13h45.36.252,2026A_exp2,2022.2.4,59.978971366131056,
1,0,6.1,0.0,0,0,79,79,24,,,,,240.26862400001846,240.9194249000284,240.9194249000284,241.40373720001662,315,45,241.40373720001662,241.40373720001662,241.40373720001662,241.40373720001662,241.40373720001662,241.40373720001662,241.40373720001662,241.40373720001662,241.40373720001662,241.770105100004,241.770105100004,241.770105100004,241.770105100004,241.770105100004,241.770105100004,241.770105100004,241.770105100004,241.770105100004,23,0,,,241.770105100004,241.97028770000907,6.1,241.97028770000907,1,6.1,1,1,1000,num_4,0.4418374999659136,,27,8,2026-03-05_13h45.36.252,2026A_exp2,2022.2.4,59.978971366131056,
1000,1,3.7,0.0,1,0,80,80,44,,,,,242.43752219999442,243.08784270001343,243.08784270001343,243.57258530001855,315,45,243.57258530001855,243.57258530001855,243.57258530001855,243.57258530001855,243.57258530001855,243.57258530001855,243.57258530001855,243.57258530001855,243.57258530001855,243.93903370003682,243.93903370003682,243.93903370003682,243.93903370003682,243.93903370003682,243.93903370003682,243.93903370003682,243.93903370003682,243.93903370003682,22,1,[0.15035940002417192],[0.16698810004163533],243.93903370003682,244.14133090001997,1000,244.14133090001997,1000,1000,1000,1000,0,num_3,0.5747490000212565,,27,8,2026-03-05_13h45.36.252,2026A_exp2,2022.2.4,59.978971366131056,
1000,1,4.9,4.9,1,0,81,81,26,,,,,244.73986480000895,245.39056450000498,245.39056450000498,245.89140580000822,315,315,245.89140580000822,245.89140580000822,245.89140580000822,245.89140580000822,245.89140580000822,245.89140580000822,245.89140580000822,245.89140580000822,245.89140580000822,246.25795980001567,246.25795980001567,246.25795980001567,246.25795980001567,246.25795980001567,246.25795980001567,246.25795980001567,246.25795980001567,246.25795980001567,23,0,,,246.25795980001567,246.46019320003688,1000,246.46019320003688,1000,1000,1000,1000,1,num_2,0.43138269998598844,,27,8,2026-03-05_13h45.36.252,2026A_exp2,2022.2.4,59.978971366131056,
1000,1,3.7,0.0,0,0,82,82,37,,,,,246.90877300000284,247.55934279999929,247.55934279999929,248.06057030003285,45,315,248.06057030003285,248.06057030003285,248.06057030003285,248.06057030003285,248.06057030003285,248.06057030003285,248.06057030003285,248.06057030003285,248.06057030003285,248.42682719998993,248.42682719998993,248.42682719998993,248.42682719998993,248.42682719998993,248.42682719998993,248.42682719998993,248.42682719998993,248.42682719998993,0,1,[0.0012706000125035644],[0.367194099992048],248.42682719998993,248.62729630002286,1000,248.62729630002286,1000,1000,1000,1000,0,num_3,0.5121356999734417,,27,8,2026-03-05_13h45.36.252,2026A_exp2,2022.2.4,59.978971366131056,
1,0,6.1,4.9,0,0,83,83,30,,,,,249.16113720001886,249.81165950000286,249.81165950000286,250.29602440004237,315,315,250.29602440004237,250.29602440004237,250.29602440004237,250.29602440004237,250.29602440004237,250.29602440004237,250.29602440004237,250.29602440004237,250.29602440004237,250.66251600004034,250.66251600004034,250.66251600004034,250.66251600004034,250.66251600004034,250.66251600004034,250.66251600004034,250.66251600004034,250.66251600004034,23,0,,,250.66251600004034,250.8626559000113,6.1,250.8626559000113,0,6.1,1,0,1000,num_1,0.8369200999732129,,27,8,2026-03-05_13h45.36.252,2026A_exp2,2022.2.4,59.978971366131056,
1000,1,0.0,0.0,1,0,84,84,71,,,,,251.7299944999977,252.38109109998913,252.38109109998913,252.8651348000276,45,315,252.8651348000276,252.8651348000276,252.8651348000276,252.8651348000276,252.8651348000276,252.8651348000276,252.8651348000276,252.8651348000276,252.8651348000276,253.23165900004096,253.23165900004096,253.23165900004096,253.23165900004096,253.23165900004096,253.23165900004096,253.23165900004096,253.23165900004096,253.23165900004096,23,0,,,253.23165900004096,253.43377830000827,1000,253.43377830000827,1000,1000,1000,1000,0,num_3,0.5383058000006713,,27,8,2026-03-05_13h45.36.252,2026A_exp2,2022.2.4,59.978971366131056,
1,0,0.0,3.7,0,0,85,85,2,,,,,253.99911350000184,254.64980840001954,254.64980840001954,255.15094650001265,45,315,255.15094650001265,255.15094650001265,255.15094650001265,255.15094650001265,255.15094650001265,255.15094650001265,255.15094650001265,255.15094650001265,255.15094650001265,255.5171877000248,255.5171877000248,255.5171877000248,255.5171877000248,255.5171877000248,255.5171877000248,255.5171877000248,255.5171877000248,255.5171877000248,21,2,"[0.16696510004112497, 0.36730060004629195]","[0.1837222000467591, 0.367306100029964]",255.5171877000248,255.71753150003497,0.0,255.71753150003497,0,0.0,0,1,1000,num_1,0.84529259998817,,27,8,2026-03-05_13h45.36.252,2026A_exp2,2022.2.4,59.978971366131056,
1000,1,0.0,0.0,1,0,86,86,40,,,,,256.5849046999938,257.2357032999862,257.2357032999862,257.72018370003207,45,45,257.72018370003207,257.72018370003207,257.72018370003207,257.72018370003207,257.72018370003207,257.72018370003207,257.72018370003207,257.72018370003207,257.72018370003207,258.0866301000351,258.0866301000351,258.0866301000351,258.0866301000351,258.0866301000351,258.0866301000351,258.0866301000351,258.0866301000351,258.0866301000351,23,0,,,258.0866301000351,258.28873020003084,1000,258.28873020003084,1000,1000,1000,1000,1,num_2,1.0020739999599755,,27,8,2026-03-05_13h45.36.252,2026A_exp2,2022.2.4,59.978971366131056,
1000,1,3.7,3.7,1,0,87,87,46,,,,,259.3210756999906,259.9718462000019,259.9718462000019,260.47275730001274,315,315,260.47275730001274,260.47275730001274,260.47275730001274,260.47275730001274,260.47275730001274,260.47275730001274,260.47275730001274,260.47275730001274,260.47275730001274,260.8241352000041,260.8241352000041,260.8241352000041,260.8241352000041,260.8241352000041,260.8241352000041,260.8241352000041,260.8241352000041,260.8241352000041,2,3,"[0.0012136000441387296, 0.08362079999642447, 0.32167660002596676]","[0.06695639999816194, 0.3044186000479385, 0.3555468000122346]",260.8241352000041,261.05529380001826,1000,261.05529380001826,1000,1000,1000,1000,1,num_2,0.4531282000243664,,27,8,2026-03-05_13h45.36.252,2026A_exp2,2022.2.4,59.978971366131056,
1000,1,0.0,0.0,1,0,88,88,42,,,,,261.5401665000245,262.1929789999849,262.1929789999849,262.69164229999296,45,45,262.69164229999296,262.69164229999296,262.69164229999296,262.69164229999296,262.69164229999296,262.69164229999296,262.69164229999296,262.69164229999296,262.69164229999296,263.0582121000043,263.0582121000043,263.0582121000043,263.0582121000043,263.0582121000043,263.0582121000043,263.0582121000043,263.0582121000043,263.0582121000043,22,1,[0.35017200000584126],[0.3668156999628991],263.0582121000043,263.260409599985,1000,263.260409599985,1000,1000,1000,1000,1,num_2,0.4627572000026703,,27,8,2026-03-05_13h45.36.252,2026A_exp2,2022.2.4,59.978971366131056,
1000,1,4.9,6.1,1,0,89,89,18,,,,,263.74205749999965,264.39287680003326,264.39287680003326,264.89399350003805,315,45,264.89399350003805,264.89399350003805,264.89399350003805,264.89399350003805,264.89399350003805,264.89399350003805,264.89399350003805,264.89399350003805,264.89399350003805,265.2604166000383,265.2604166000383,265.2604166000383,265.2604166000383,265.2604166000383,265.2604166000383,265.2604166000383,265.2604166000383,265.2604166000383,19,2,"[0.08357379998778924, 0.13350289996014908]","[0.1168070999556221, 0.15024619997711852]",265.2604166000383,265.4623220000067,1000,265.4623220000067,1000,1000,1000,1000,1,num_2,0.5652228000108153,,27,8,2026-03-05_13h45.36.252,2026A_exp2,2022.2.4,59.978971366131056,
,,,,,,,,,,,,,,,,,,,,,,,,,,,,,,,,,,,,,,,,,,,,,,,,,,,,266.05437279999023,,,,,,,
