validity,detectorcomp,contrastCW,contrastCCW,precueCWorCCW,block_80trials.thisRepN,block_80trials.thisTrialN,block_80trials.thisN,block_80trials.thisIndex,etRecord.started,etRecord.stopped,text.started,text.stopped,text_4.started,text_4.stopped,text_6.started,text_6.stopped,oriCW,oriCCW,roi_2.started,grating_UR.started,grating_UL.started,grating_LR.started,grating_LL.started,noise_UR.started,noise_UL.started,noise_LR.started,noise_LL.started,roi_2.stopped,grating_UR.stopped,grating_UL.stopped,grating_LR.stopped,grating_LL.stopped,noise_UR.stopped,noise_UL.stopped,noise_LR.stopped,noise_LL.stopped,outframe,roi_2.numLooks,roi_2.timesOn,roi_2.timesOff,text_2.started,text_2.stopped,probedcontrast,key_resp.started,respdetect,relevantContrast,correctDetect,TorFdetect,respCWorCCW,key_resp.keys,key_resp.rt,feedback_display_.started,participantNo,blockNo,date,expName,psychopyVersion,frameRate,
1000,1,0.0,6.1,1,0,0,0,88,5.840003723278642e-05,5.840003723278642e-05,56.83095329999924,58.83347250003135,58.83347250003135,59.46727640001336,59.46727640001336,59.98611230001552,45,45,59.98611230001552,59.98611230001552,59.98611230001552,59.98611230001552,59.98611230001552,59.98611230001552,59.98611230001552,59.98611230001552,59.98611230001552,60.3349246000289,60.3349246000289,60.3349246000289,60.3349246000289,60.3349246000289,60.3349246000289,60.3349246000289,60.3349246000289,60.3349246000289,0,1,[0.0009179000044241548],[0.3677896999870427],60.3349246000289,60.542088699992746,1000,60.542088699992746,1000,1000,1000,1000,1,num_2,0.7173147999565117,,24,3,2026-03-04_15h23.26.966,2026A_exp2,2022.2.4,59.94337748015847,
1000,1,0.0,4.9,1,0,1,1,27,,,,,61.2859181999811,61.936573199986015,61.936573199986015,62.43763850000687,45,45,62.43763850000687,62.43763850000687,62.43763850000687,62.43763850000687,62.43763850000687,62.43763850000687,62.43763850000687,62.43763850000687,62.43763850000687,62.80407389998436,62.80407389998436,62.80407389998436,62.80407389998436,62.80407389998436,62.80407389998436,62.80407389998436,62.80407389998436,62.80407389998436,1,1,[0.017281200038269162],[0.36682230001315475],62.80407389998436,63.00651000003563,1000,63.00651000003563,1000,1000,1000,1000,1,num_2,0.6038289999705739,,24,3,2026-03-04_15h23.26.966,2026A_exp2,2022.2.4,59.94337748015847,
1000,1,0.0,3.7,0,0,2,2,52,,,,,63.638343500031624,64.28887410002062,64.28887410002062,64.78994210000383,45,45,64.78994210000383,64.78994210000383,64.78994210000383,64.78994210000383,64.78994210000383,64.78994210000383,64.78994210000383,64.78994210000383,64.78994210000383,65.1562226000242,65.1562226000242,65.1562226000242,65.1562226000242,65.1562226000242,65.1562226000242,65.1562226000242,65.1562226000242,65.1562226000242,0,1,[0.0012670000432990491],[0.3668441000045277],65.1562226000242,65.3585030999966,1000,65.3585030999966,1000,1000,1000,1000,1,num_2,0.7569574000081047,,24,3,2026-03-04_15h23.26.966,2026A_exp2,2022.2.4,59.94337748015847,
1,0,4.9,0.0,1,0,3,3,4,,,,,66.14082540001255,66.79143390001263,66.79143390001263,67.29246969998349,45,315,67.29246969998349,67.29246969998349,67.29246969998349,67.29246969998349,67.29246969998349,67.29246969998349,67.29246969998349,67.29246969998349,67.29246969998349,67.65892580000218,67.65892580000218,67.65892580000218,67.65892580000218,67.65892580000218,67.65892580000218,67.65892580000218,67.65892580000218,67.65892580000218,13,2,"[0.0012190000270493329, 0.13356159999966621]","[0.1170943999895826, 0.18379249999998137]",67.65892580000218,67.8591618000064,0.0,67.8591618000064,1,0.0,0,0,1000,num_4,1.679157100035809,,24,3,2026-03-04_15h23.26.966,2026A_exp2,2022.2.4,59.94337748015847,
1,0,0.0,6.1,0,0,4,4,68,,,,,69.5607580000069,70.19477090000873,70.19477090000873,70.69577140000183,315,45,70.69577140000183,70.69577140000183,70.69577140000183,70.69577140000183,70.69577140000183,70.69577140000183,70.69577140000183,70.69577140000183,70.69577140000183,71.06225540000014,71.06225540000014,71.06225540000014,71.06225540000014,71.06225540000014,71.06225540000014,71.06225540000014,71.06225540000014,71.06225540000014,7,2,"[0.050102800014428794, 0.1334682999877259]","[0.06675930001074448, 0.36705420003272593]",71.06225540000014,71.26257070002612,0.0,71.26257070002612,1,0.0,0,0,1000,num_4,1.5556370000122115,,24,3,2026-03-04_15h23.26.966,2026A_exp2,2022.2.4,59.94337748015847,
1,0,0.0,0.0,1,0,5,5,73,,,,,72.84774519997882,73.48144609999144,73.48144609999144,73.98252409999259,315,315,73.98252409999259,73.98252409999259,73.98252409999259,73.98252409999259,73.98252409999259,73.98252409999259,73.98252409999259,73.98252409999259,73.98252409999259,74.34885990002658,74.34885990002658,74.34885990002658,74.34885990002658,74.34885990002658,74.34885990002658,74.34885990002658,74.34885990002658,74.34885990002658,0,1,[0.0012203999795019627],[0.3672229999792762],74.34885990002658,74.54914710001322,0.0,74.54914710001322,0,0.0,0,1,1000,num_1,0.8216544999741018,,24,3,2026-03-04_15h23.26.966,2026A_exp2,2022.2.4,59.94337748015847,
1000,1,6.1,0.0,1,0,6,6,60,,,,,75.40004370000679,76.05078089999733,76.05078089999733,76.53494959999807,315,45,76.53494959999807,76.53494959999807,76.53494959999807,76.53494959999807,76.53494959999807,76.53494959999807,76.53494959999807,76.53494959999807,76.53494959999807,76.90147809998598,76.90147809998598,76.90147809998598,76.90147809998598,76.90147809998598,76.90147809998598,76.90147809998598,76.90147809998598,76.90147809998598,14,4,"[0.0012941000168211758, 0.05001499998616055, 0.13370569999096915, 0.36722989997360855]","[0.017277500010095537, 0.0834783999598585, 0.23373029998037964, 0.3672351000132039]",76.90147809998598,77.10460880002938,1000,77.10460880002938,1000,1000,1000,1000,0,num_3,0.6341914999647997,,24,3,2026-03-04_15h23.26.966,2026A_exp2,2022.2.4,59.94337748015847,
1000,1,6.1,3.7,1,0,7,7,10,,,,,77.7688001000206,78.41963800002122,78.41963800002122,78.92072120000375,45,315,78.92072120000375,78.92072120000375,78.92072120000375,78.92072120000375,78.92072120000375,78.92072120000375,78.92072120000375,78.92072120000375,78.92072120000375,79.28704680001829,79.28704680001829,79.28704680001829,79.28704680001829,79.28704680001829,79.28704680001829,79.28704680001829,79.28704680001829,79.28704680001829,7,4,"[0.033582800009753555, 0.11693610000656918, 0.1670729999896139, 0.28368990001035854]","[0.10032119997777045, 0.13364469999214634, 0.2335989999701269, 0.3670760999666527]",79.28704680001829,79.48965609999141,1000,79.48965609999141,1000,1000,1000,1000,0,num_3,0.9297284000203945,,24,3,2026-03-04_15h23.26.966,2026A_exp2,2022.2.4,59.94337748015847,
1,0,0.0,0.0,0,0,8,8,49,,,,,80.43849179998506,81.08887929999037,81.08887929999037,81.59004470001673,315,45,81.59004470001673,81.59004470001673,81.59004470001673,81.59004470001673,81.59004470001673,81.59004470001673,81.59004470001673,81.59004470001673,81.59004470001673,81.95665509998798,81.95665509998798,81.95665509998798,81.95665509998798,81.95665509998798,81.95665509998798,81.95665509998798,81.95665509998798,81.95665509998798,20,3,"[0.017413599998690188, 0.05024420004338026, 0.08340920001501217]","[0.03354340000078082, 0.06683810002868995, 0.10009400005219504]",81.95665509998798,82.156747800007,0.0,82.156747800007,0,0.0,0,1,1000,num_1,1.1746337999938987,,24,3,2026-03-04_15h23.26.966,2026A_exp2,2022.2.4,59.94337748015847,
1000,1,6.1,4.9,1,0,9,9,53,,,,,83.35786600003485,84.00856839999324,84.00856839999324,84.4928971999907,45,45,84.4928971999907,84.4928971999907,84.4928971999907,84.4928971999907,84.4928971999907,84.4928971999907,84.4928971999907,84.4928971999907,84.4928971999907,84.85952749999706,84.85952749999706,84.85952749999706,84.85952749999706,84.85952749999706,84.85952749999706,84.85952749999706,84.85952749999706,84.85952749999706,0,1,[0.001311000029090792],[0.36707050004042685],84.85952749999706,85.0613197000348,1000,85.0613197000348,1000,1000,1000,1000,0,num_3,0.8058544999803416,,24,3,2026-03-04_15h23.26.966,2026A_exp2,2022.2.4,59.94337748015847,
1000,1,0.0,0.0,0,0,10,10,75,,,,,85.893853400019,86.54449609998846,86.54449609998846,87.0454841000028,45,315,87.0454841000028,87.0454841000028,87.0454841000028,87.0454841000028,87.0454841000028,87.0454841000028,87.0454841000028,87.0454841000028,87.0454841000028,87.41203040000983,87.41203040000983,87.41203040000983,87.41203040000983,87.41203040000983,87.41203040000983,87.41203040000983,87.41203040000983,87.41203040000983,23,0,,,87.41203040000983,87.61406460002763,1000,87.61406460002763,1000,1000,1000,1000,1,num_2,1.1485254999715835,,24,3,2026-03-04_15h23.26.966,2026A_exp2,2022.2.4,59.94337748015847,
0,0,0.0,0.0,1,0,11,11,8,,,,,88.7799040999962,89.43060150003294,89.43060150003294,89.93184919998748,45,45,89.93184919998748,89.93184919998748,89.93184919998748,89.93184919998748,89.93184919998748,89.93184919998748,89.93184919998748,89.93184919998748,89.93184919998748,90.29826180002419,90.29826180002419,90.29826180002419,90.29826180002419,90.29826180002419,90.29826180002419,90.29826180002419,90.29826180002419,90.29826180002419,0,1,[0.001210999966133386],[0.3672085999860428],90.29826180002419,90.4982698999811,0.0,90.4982698999811,0,0.0,0,1,1000,num_1,0.856647000007797,,24,3,2026-03-04_15h23.26.966,2026A_exp2,2022.2.4,59.94337748015847,
1,0,4.9,6.1,1,0,12,12,86,,,,,91.38274249999085,92.03324760001851,92.03324760001851,92.53427699999884,45,315,92.53427699999884,92.53427699999884,92.53427699999884,92.53427699999884,92.53427699999884,92.53427699999884,92.53427699999884,92.53427699999884,92.53427699999884,92.88411799998721,92.88411799998721,92.88411799998721,92.88411799998721,92.88411799998721,92.88411799998721,92.88411799998721,92.88411799998721,92.88411799998721,22,0,,,92.88411799998721,93.08429780002916,6.1,93.08429780002916,1,6.1,1,1,1000,num_4,0.8312038000440225,,24,3,2026-03-04_15h23.26.966,2026A_exp2,2022.2.4,59.94337748015847,
0,0,3.7,0.0,1,0,13,13,83,,,,,93.935442099988,94.58571180002764,94.58571180002764,95.07005540002137,315,45,95.07005540002137,95.07005540002137,95.07005540002137,95.07005540002137,95.07005540002137,95.07005540002137,95.07005540002137,95.07005540002137,95.07005540002137,95.43672549998155,95.43672549998155,95.43672549998155,95.43672549998155,95.43672549998155,95.43672549998155,95.43672549998155,95.43672549998155,95.43672549998155,6,3,"[0.0012973000411875546, 0.18359730002703145, 0.26700760005041957]","[0.13365540001541376, 0.21692660002736375, 0.3672064000274986]",95.43672549998155,95.6369335000054,3.7,95.6369335000054,1,3.7,1,1,1000,num_4,1.2143731999676675,,24,3,2026-03-04_15h23.26.966,2026A_exp2,2022.2.4,59.94337748015847,
1,0,0.0,0.0,1,0,14,14,70,,,,,96.87138279998908,97.52195650001522,97.52195650001522,98.00656680000247,45,315,98.00656680000247,98.00656680000247,98.00656680000247,98.00656680000247,98.00656680000247,98.00656680000247,98.00656680000247,98.00656680000247,98.00656680000247,98.37295230000746,98.37295230000746,98.37295230000746,98.37295230000746,98.37295230000746,98.37295230000746,98.37295230000746,98.37295230000746,98.37295230000746,0,1,[0.0012271000305190682],[0.36702449998119846],98.37295230000746,98.57319239998469,0.0,98.57319239998469,0,0.0,0,1,1000,num_1,0.8701160000055097,,24,3,2026-03-04_15h23.26.966,2026A_exp2,2022.2.4,59.94337748015847,
1000,1,0.0,3.7,1,0,15,15,80,,,,,99.47386219998589,100.10787940002047,100.10787940002047,100.60901399998693,315,45,100.60901399998693,100.60901399998693,100.60901399998693,100.60901399998693,100.60901399998693,100.60901399998693,100.60901399998693,100.60901399998693,100.60901399998693,100.975562800013,100.975562800013,100.975562800013,100.975562800013,100.975562800013,100.975562800013,100.975562800013,100.975562800013,100.975562800013,13,4,"[0.017071500013116747, 0.11669600004097447, 0.25033210002584383, 0.2836306000244804]","[0.03333200002089143, 0.16687230003299192, 0.26691430003847927, 0.3669514000066556]",100.975562800013,101.17784050002228,1000,101.17784050002228,1000,1000,1000,1000,0,num_3,2.1618117000325583,,24,3,2026-03-04_15h23.26.966,2026A_exp2,2022.2.4,59.94337748015847,
1,0,0.0,3.7,1,0,16,16,57,,,,,103.36127270001452,104.01198660000227,104.01198660000227,104.51302260003285,315,315,104.51302260003285,104.51302260003285,104.51302260003285,104.51302260003285,104.51302260003285,104.51302260003285,104.51302260003285,104.51302260003285,104.51302260003285,104.87946279998869,104.87946279998869,104.87946279998869,104.87946279998869,104.87946279998869,104.87946279998869,104.87946279998869,104.87946279998869,104.87946279998869,23,0,,,104.87946279998869,105.0796744999825,3.7,105.0796744999825,1,3.7,1,1,1000,num_4,0.9078750000335276,,24,3,2026-03-04_15h23.26.966,2026A_exp2,2022.2.4,59.94337748015847,
1000,1,3.7,0.0,1,0,17,17,79,,,,,106.01386940001976,106.66456669999752,106.66456669999752,107.14890119998017,315,315,107.14890119998017,107.14890119998017,107.14890119998017,107.14890119998017,107.14890119998017,107.14890119998017,107.14890119998017,107.14890119998017,107.14890119998017,107.51548679999541,107.51548679999541,107.51548679999541,107.51548679999541,107.51548679999541,107.51548679999541,107.51548679999541,107.51548679999541,107.51548679999541,0,1,[0.0012095000129193068],[0.36727650003740564],107.51548679999541,107.71736750000855,1000,107.71736750000855,1000,1000,1000,1000,0,num_3,0.9656386999995448,,24,3,2026-03-04_15h23.26.966,2026A_exp2,2022.2.4,59.94337748015847,
1,0,0.0,4.9,0,0,18,18,71,,,,,108.70003469998483,109.35053080000216,109.35053080000216,109.8350374000147,45,315,109.8350374000147,109.8350374000147,109.8350374000147,109.8350374000147,109.8350374000147,109.8350374000147,109.8350374000147,109.8350374000147,109.8350374000147,110.20147580001503,110.20147580001503,110.20147580001503,110.20147580001503,110.20147580001503,110.20147580001503,110.20147580001503,110.20147580001503,110.20147580001503,0,1,[0.0012322000111453235],[0.3673103000037372],110.20147580001503,110.40166849998059,0.0,110.40166849998059,0,0.0,0,1,1000,num_1,1.2016227000276558,,24,3,2026-03-04_15h23.26.966,2026A_exp2,2022.2.4,59.94337748015847,
1,0,3.7,0.0,1,0,19,19,74,,,,,111.6193991000182,112.27016399998683,112.27016399998683,112.75426289997995,315,45,112.75426289997995,112.75426289997995,112.75426289997995,112.75426289997995,112.75426289997995,112.75426289997995,112.75426289997995,112.75426289997995,112.75426289997995,113.12099580001086,113.12099580001086,113.12099580001086,113.12099580001086,113.12099580001086,113.12099580001086,113.12099580001086,113.12099580001086,113.12099580001086,0,1,[0.0012163000064902008],[0.36638820002553985],113.12099580001086,113.3212421000353,0.0,113.3212421000353,0,0.0,0,1,1000,num_1,1.625194200023543,,24,3,2026-03-04_15h23.26.966,2026A_exp2,2022.2.4,59.94337748015847,
1000,1,6.1,3.7,1,0,20,20,24,,,,,114.97280729998602,115.62357370002428,115.62357370002428,116.10799970000517,315,315,116.10799970000517,116.10799970000517,116.10799970000517,116.10799970000517,116.10799970000517,116.10799970000517,116.10799970000517,116.10799970000517,116.10799970000517,116.47423260001233,116.47423260001233,116.47423260001233,116.47423260001233,116.47423260001233,116.47423260001233,116.47423260001233,116.47423260001233,116.47423260001233,22,1,[0.30052099999738857],[0.31728299998212606],116.47423260001233,116.6767281999928,1000,116.6767281999928,1000,1000,1000,1000,0,num_3,0.9020131000434048,,24,3,2026-03-04_15h23.26.966,2026A_exp2,2022.2.4,59.94337748015847,
1000,1,0.0,3.7,0,0,21,21,44,,,,,117.60887779999757,118.25932349998038,118.25932349998038,118.76065630000085,45,45,118.76065630000085,118.76065630000085,118.76065630000085,118.76065630000085,118.76065630000085,118.76065630000085,118.76065630000085,118.76065630000085,118.76065630000085,119.12684849998914,119.12684849998914,119.12684849998914,119.12684849998914,119.12684849998914,119.12684849998914,119.12684849998914,119.12684849998914,119.12684849998914,23,0,,,119.12684849998914,119.32988139998633,1000,119.32988139998633,1000,1000,1000,1000,1,num_2,0.9364311000099406,,24,3,2026-03-04_15h23.26.966,2026A_exp2,2022.2.4,59.94337748015847,
1000,1,4.9,0.0,1,0,22,22,25,,,,,120.29481039999519,120.94537879998097,120.94537879998097,121.4465654999949,45,45,121.4465654999949,121.4465654999949,121.4465654999949,121.4465654999949,121.4465654999949,121.4465654999949,121.4465654999949,121.4465654999949,121.4465654999949,121.81309509999119,121.81309509999119,121.81309509999119,121.81309509999119,121.81309509999119,121.81309509999119,121.81309509999119,121.81309509999119,121.81309509999119,0,1,[0.0012698000064119697],[0.36730089999036863],121.81309509999119,122.01541709998855,1000,122.01541709998855,1000,1000,1000,1000,0,num_3,0.9877452000509948,,24,3,2026-03-04_15h23.26.966,2026A_exp2,2022.2.4,59.94337748015847,
1,0,0.0,6.1,0,0,23,23,5,,,,,123.03097010002239,123.68163509998703,123.68163509998703,124.18288829998346,315,45,124.18288829998346,124.18288829998346,124.18288829998346,124.18288829998346,124.18288829998346,124.18288829998346,124.18288829998346,124.18288829998346,124.18288829998346,124.54911520000314,124.54911520000314,124.54911520000314,124.54911520000314,124.54911520000314,124.54911520000314,124.54911520000314,124.54911520000314,124.54911520000314,23,0,,,124.54911520000314,124.74958449997939,0.0,124.74958449997939,0,0.0,0,1,1000,num_1,1.084805199992843,,24,3,2026-03-04_15h23.26.966,2026A_exp2,2022.2.4,59.94337748015847,
1000,1,4.9,4.9,0,0,24,24,42,,,,,125.85047529998701,126.5010595000349,126.5010595000349,126.98548770003254,45,315,126.98548770003254,126.98548770003254,126.98548770003254,126.98548770003254,126.98548770003254,126.98548770003254,126.98548770003254,126.98548770003254,126.98548770003254,127.35188839997863,127.35188839997863,127.35188839997863,127.35188839997863,127.35188839997863,127.35188839997863,127.35188839997863,127.35188839997863,127.35188839997863,20,2,"[0.06690230005187914, 0.16694740002276376]","[0.10038820002228022, 0.1838905000477098]",127.35188839997863,127.55434640002204,1000,127.55434640002204,1000,1000,1000,1000,1,num_2,1.016425399982836,,24,3,2026-03-04_15h23.26.966,2026A_exp2,2022.2.4,59.94337748015847,
0,0,0.0,4.9,1,0,25,25,56,,,,,128.58650959999068,129.2371206000098,129.2371206000098,129.73829050001223,45,315,129.73829050001223,129.73829050001223,129.73829050001223,129.73829050001223,129.73829050001223,129.73829050001223,129.73829050001223,129.73829050001223,129.73829050001223,130.10467070003506,130.10467070003506,130.10467070003506,130.10467070003506,130.10467070003506,130.10467070003506,130.10467070003506,130.10467070003506,130.10467070003506,0,1,[0.0012832999927923083],[0.3671273000072688],130.10467070003506,130.30492040002719,0.0,130.30492040002719,1,0.0,0,0,1000,num_4,1.1297296999837272,,24,3,2026-03-04_15h23.26.966,2026A_exp2,2022.2.4,59.94337748015847,
1,0,0.0,0.0,1,0,26,26,43,,,,,131.45600940001896,132.1067581999814,132.1067581999814,132.59099860000424,45,45,132.59099860000424,132.59099860000424,132.59099860000424,132.59099860000424,132.59099860000424,132.59099860000424,132.59099860000424,132.59099860000424,132.59099860000424,132.95740050001768,132.95740050001768,132.95740050001768,132.95740050001768,132.95740050001768,132.95740050001768,132.95740050001768,132.95740050001768,132.95740050001768,1,2,"[0.0012434999807737768, 0.23377459996845573]","[0.2171173999668099, 0.3671238999813795]",132.95740050001768,133.15767139999662,0.0,133.15767139999662,1,0.0,0,0,1000,num_4,0.8295772999990731,,24,3,2026-03-04_15h23.26.966,2026A_exp2,2022.2.4,59.94337748015847,
1000,1,6.1,3.7,1,0,27,27,0,,,,,134.00852199998917,134.65925359999528,134.65925359999528,135.16034649999347,45,315,135.16034649999347,135.16034649999347,135.16034649999347,135.16034649999347,135.16034649999347,135.16034649999347,135.16034649999347,135.16034649999347,135.16034649999347,135.52646920003463,135.52646920003463,135.52646920003463,135.52646920003463,135.52646920003463,135.52646920003463,135.52646920003463,135.52646920003463,135.52646920003463,0,1,[0.001263400015886873],[0.367355500056874],135.52646920003463,135.73096509999596,1000,135.73096509999596,1000,1000,1000,1000,1,num_2,1.4717742999782786,,24,3,2026-03-04_15h23.26.966,2026A_exp2,2022.2.4,59.94337748015847,
1000,1,3.7,0.0,1,0,28,28,55,,,,,137.22856930003036,137.87910279998323,137.87910279998323,138.38028310000664,315,45,138.38028310000664,138.38028310000664,138.38028310000664,138.38028310000664,138.38028310000664,138.38028310000664,138.38028310000664,138.38028310000664,138.38028310000664,138.74652099999366,138.74652099999366,138.74652099999366,138.74652099999366,138.74652099999366,138.74652099999366,138.74652099999366,138.74652099999366,138.74652099999366,0,1,[0.0012035999679937959],[0.3672112000058405],138.74652099999366,138.9487501999829,1000,138.9487501999829,1000,1000,1000,1000,0,num_3,0.6856795999919996,,24,3,2026-03-04_15h23.26.966,2026A_exp2,2022.2.4,59.94337748015847,
1,0,4.9,0.0,0,0,29,29,48,,,,,139.66409839998232,140.31488640001044,140.31488640001044,140.81602770002792,45,45,140.81602770002792,140.81602770002792,140.81602770002792,140.81602770002792,140.81602770002792,140.81602770002792,140.81602770002792,140.81602770002792,140.81602770002792,141.1824435000308,141.1824435000308,141.1824435000308,141.1824435000308,141.1824435000308,141.1824435000308,141.1824435000308,141.1824435000308,141.1824435000308,23,0,,,141.1824435000308,141.3826627000235,4.9,141.3826627000235,1,4.9,1,1,1000,num_4,0.8839544000220485,,24,3,2026-03-04_15h23.26.966,2026A_exp2,2022.2.4,59.94337748015847,
1000,1,4.9,0.0,0,0,30,30,36,,,,,142.28348430001643,142.93412739998894,142.93412739998894,143.41865910001798,45,315,143.41865910001798,143.41865910001798,143.41865910001798,143.41865910001798,143.41865910001798,143.41865910001798,143.41865910001798,143.41865910001798,143.41865910001798,143.80171770002926,143.80171770002926,143.80171770002926,143.80171770002926,143.80171770002926,143.80171770002926,143.80171770002926,143.80171770002926,143.80171770002926,24,0,,,143.80171770002926,144.00397810002323,1000,144.00397810002323,1000,1000,1000,1000,0,num_3,0.7031832999782637,,24,3,2026-03-04_15h23.26.966,2026A_exp2,2022.2.4,59.94337748015847,
1000,1,0.0,0.0,0,0,31,31,20,,,,,144.73596690001432,145.38665860000765,145.38665860000765,145.88781480002217,45,315,145.88781480002217,145.88781480002217,145.88781480002217,145.88781480002217,145.88781480002217,145.88781480002217,145.88781480002217,145.88781480002217,145.88781480002217,146.23748820001492,146.23748820001492,146.23748820001492,146.23748820001492,146.23748820001492,146.23748820001492,146.23748820001492,146.23748820001492,146.23748820001492,22,0,,,146.23748820001492,146.4398538999958,1000,146.4398538999958,1000,1000,1000,1000,1,num_2,1.091620100021828,,24,3,2026-03-04_15h23.26.966,2026A_exp2,2022.2.4,59.94337748015847,
1000,1,6.1,0.0,0,0,32,32,33,,,,,147.55545759998495,148.20613639999647,148.20613639999647,148.70717399998102,45,45,148.70717399998102,148.70717399998102,148.70717399998102,148.70717399998102,148.70717399998102,148.70717399998102,148.70717399998102,148.70717399998102,148.70717399998102,149.0736898999894,149.0736898999894,149.0736898999894,149.0736898999894,149.0736898999894,149.0736898999894,149.0736898999894,149.0736898999894,149.0736898999894,23,0,,,149.0736898999894,149.27557080000406,1000,149.27557080000406,1000,1000,1000,1000,0,num_3,0.5996858999715187,,24,3,2026-03-04_15h23.26.966,2026A_exp2,2022.2.4,59.94337748015847,
1000,1,0.0,6.1,0,0,33,33,34,,,,,149.89118630002486,150.54171590000624,150.54171590000624,151.0429226999986,45,45,151.0429226999986,151.0429226999986,151.0429226999986,151.0429226999986,151.0429226999986,151.0429226999986,151.0429226999986,151.0429226999986,151.0429226999986,151.39250580000225,151.39250580000225,151.39250580000225,151.39250580000225,151.39250580000225,151.39250580000225,151.39250580000225,151.39250580000225,151.39250580000225,22,0,,,151.39250580000225,151.59424280002713,1000,151.60972080001375,1000,1000,1000,1000,1,num_2,0.6889798000338487,,24,3,2026-03-04_15h23.26.966,2026A_exp2,2022.2.4,59.94337748015847,
1000,1,6.1,0.0,0,0,34,34,19,,,,,152.3271906999871,152.97763720003422,152.97763720003422,153.47854650003137,315,45,153.47854650003137,153.47854650003137,153.47854650003137,153.47854650003137,153.47854650003137,153.47854650003137,153.47854650003137,153.47854650003137,153.47854650003137,153.8450867999927,153.8450867999927,153.8450867999927,153.8450867999927,153.8450867999927,153.8450867999927,153.8450867999927,153.8450867999927,153.8450867999927,23,0,,,153.8450867999927,154.04742379998788,1000,154.04742379998788,1000,1000,1000,1000,0,num_3,0.6515143000287935,,24,3,2026-03-04_15h23.26.966,2026A_exp2,2022.2.4,59.94337748015847,
1000,1,4.9,3.7,1,0,35,35,32,,,,,154.72911710001063,155.37988339998992,155.37988339998992,155.88096510001924,45,315,155.88096510001924,155.88096510001924,155.88096510001924,155.88096510001924,155.88096510001924,155.88096510001924,155.88096510001924,155.88096510001924,155.88096510001924,156.24738700001035,156.24738700001035,156.24738700001035,156.24738700001035,156.24738700001035,156.24738700001035,156.24738700001035,156.24738700001035,156.24738700001035,23,0,,,156.24738700001035,156.45459209999535,1000,156.45459209999535,1000,1000,1000,1000,0,num_3,0.6606535000028089,,24,3,2026-03-04_15h23.26.966,2026A_exp2,2022.2.4,59.94337748015847,
1,0,4.9,0.0,1,0,36,36,82,,,,,157.13176429999294,157.78229250002187,157.78229250002187,158.28330650000134,315,315,158.28330650000134,158.28330650000134,158.28330650000134,158.28330650000134,158.28330650000134,158.28330650000134,158.28330650000134,158.28330650000134,158.28330650000134,158.65015250002034,158.65015250002034,158.65015250002034,158.65015250002034,158.65015250002034,158.65015250002034,158.65015250002034,158.65015250002034,158.65015250002034,23,0,,,158.65015250002034,158.8501091999933,0.0,158.8501091999933,0,0.0,0,1,1000,num_1,1.5200005999649875,,24,3,2026-03-04_15h23.26.966,2026A_exp2,2022.2.4,59.94337748015847,
1000,1,0.0,0.0,1,0,37,37,7,,,,,160.40130919998046,161.05234460002976,161.05234460002976,161.5367064999882,315,315,161.5367064999882,161.5367064999882,161.5367064999882,161.5367064999882,161.5367064999882,161.5367064999882,161.5367064999882,161.5367064999882,161.5367064999882,161.90301030001137,161.90301030001137,161.90301030001137,161.90301030001137,161.90301030001137,161.90301030001137,161.90301030001137,161.90301030001137,161.90301030001137,23,0,,,161.90301030001137,162.1052604999859,1000,162.1052604999859,1000,1000,1000,1000,1,num_2,1.1137210000306368,,24,3,2026-03-04_15h23.26.966,2026A_exp2,2022.2.4,59.94337748015847,
1000,1,3.7,3.7,1,0,38,38,40,,,,,163.23777459998382,163.8884165000054,163.8884165000054,164.38928599999053,45,315,164.38928599999053,164.38928599999053,164.38928599999053,164.38928599999053,164.38928599999053,164.38928599999053,164.38928599999053,164.38928599999053,164.38928599999053,164.75598220003303,164.75598220003303,164.75598220003303,164.75598220003303,164.75598220003303,164.75598220003303,164.75598220003303,164.75598220003303,164.75598220003303,23,0,,,164.75598220003303,164.95796750002773,1000,164.95796750002773,1000,1000,1000,1000,0,num_3,1.1894402999896556,,24,3,2026-03-04_15h23.26.966,2026A_exp2,2022.2.4,59.94337748015847,
1000,1,0.0,0.0,0,0,39,39,69,,,,,166.17433489998803,166.8246894000331,166.8246894000331,167.32588409999153,45,45,167.32588409999153,167.32588409999153,167.32588409999153,167.32588409999153,167.32588409999153,167.32588409999153,167.32588409999153,167.32588409999153,167.32588409999153,167.6922289999784,167.6922289999784,167.6922289999784,167.6922289999784,167.6922289999784,167.6922289999784,167.6922289999784,167.6922289999784,167.6922289999784,23,0,,,167.6922289999784,167.8942055000225,1000,167.8942055000225,1000,1000,1000,1000,1,num_2,0.5965766999870539,,24,3,2026-03-04_15h23.26.966,2026A_exp2,2022.2.4,59.94337748015847,
1,0,3.7,4.9,1,0,40,40,39,,,,,168.5097884000279,169.1602952000103,169.1602952000103,169.6615350000211,45,315,169.6615350000211,169.6615350000211,169.6615350000211,169.6615350000211,169.6615350000211,169.6615350000211,169.6615350000211,169.6615350000211,169.6615350000211,170.02787600003649,170.02787600003649,170.02787600003649,170.02787600003649,170.02787600003649,170.02787600003649,170.02787600003649,170.02787600003649,170.02787600003649,23,0,,,170.02787600003649,170.22815670003183,4.9,170.22815670003183,1,4.9,1,1,1000,num_4,0.9188437000266276,,24,3,2026-03-04_15h23.26.966,2026A_exp2,2022.2.4,59.94337748015847,
1000,1,3.7,6.1,0,0,41,41,28,,,,,171.17911720002303,171.82972759997938,171.82972759997938,172.31408929999452,315,45,172.31408929999452,172.31408929999452,172.31408929999452,172.31408929999452,172.31408929999452,172.31408929999452,172.31408929999452,172.31408929999452,172.31408929999452,172.68059810000705,172.68059810000705,172.68059810000705,172.68059810000705,172.68059810000705,172.68059810000705,172.68059810000705,172.68059810000705,172.68059810000705,23,0,,,172.68059810000705,172.88069670001278,1000,172.88069670001278,1000,1000,1000,1000,1,num_2,0.6343441000208259,,24,3,2026-03-04_15h23.26.966,2026A_exp2,2022.2.4,59.94337748015847,
1,0,0.0,0.0,0,0,42,42,81,,,,,173.53141210001195,174.18197249999503,174.18197249999503,174.6669896999956,315,315,174.6669896999956,174.6669896999956,174.6669896999956,174.6669896999956,174.6669896999956,174.6669896999956,174.6669896999956,174.6669896999956,174.6669896999956,175.03276289999485,175.03276289999485,175.03276289999485,175.03276289999485,175.03276289999485,175.03276289999485,175.03276289999485,175.03276289999485,175.03276289999485,23,0,,,175.03276289999485,175.23318270000163,0.0,175.23318270000163,0,0.0,0,1,1000,num_1,1.401352400018368,,24,3,2026-03-04_15h23.26.966,2026A_exp2,2022.2.4,59.94337748015847,
1,0,0.0,4.9,0,0,43,43,17,,,,,176.65115609997883,177.30193070002133,177.30193070002133,177.80288020003354,315,45,177.80288020003354,177.80288020003354,177.80288020003354,177.80288020003354,177.80288020003354,177.80288020003354,177.80288020003354,177.80288020003354,177.80288020003354,178.15269600000465,178.15269600000465,178.15269600000465,178.15269600000465,178.15269600000465,178.15269600000465,178.15269600000465,178.15269600000465,178.15269600000465,10,4,"[0.0012138999882154167, 0.050129099981859326, 0.15035250002983958, 0.2669717000098899]","[0.0335831000120379, 0.0835672999965027, 0.16708560002734885, 0.3505410000216216]",178.15269600000465,178.35287910001352,0.0,178.35287910001352,0,0.0,0,1,1000,num_1,1.0500144999823533,,24,3,2026-03-04_15h23.26.966,2026A_exp2,2022.2.4,59.94337748015847,
1000,1,0.0,0.0,1,0,44,44,23,,,,,179.42057650000788,180.07134050002787,180.07134050002787,180.57222030003322,45,45,180.57222030003322,180.57222030003322,180.57222030003322,180.57222030003322,180.57222030003322,180.57222030003322,180.57222030003322,180.57222030003322,180.57222030003322,180.92217959999107,180.92217959999107,180.92217959999107,180.92217959999107,180.92217959999107,180.92217959999107,180.92217959999107,180.92217959999107,180.92217959999107,22,0,,,180.92217959999107,181.12241770001128,1000,181.12241770001128,1000,1000,1000,1000,1,num_2,1.7759515999932773,,24,3,2026-03-04_15h23.26.966,2026A_exp2,2022.2.4,59.94337748015847,
1,0,0.0,4.9,0,0,45,45,85,,,,,182.92420090001542,183.57471559999976,183.57471559999976,184.0758971000323,315,45,184.0758971000323,184.0758971000323,184.0758971000323,184.0758971000323,184.0758971000323,184.0758971000323,184.0758971000323,184.0758971000323,184.0758971000323,184.44239159999415,184.44239159999415,184.44239159999415,184.44239159999415,184.44239159999415,184.44239159999415,184.44239159999415,184.44239159999415,184.44239159999415,23,0,,,184.44239159999415,184.64250120002544,0.0,184.64250120002544,0,0.0,0,1,1000,num_1,1.4002939999918453,,24,3,2026-03-04_15h23.26.966,2026A_exp2,2022.2.4,59.94337748015847,
0,0,3.7,4.9,1,0,46,46,3,,,,,186.06057099997997,186.7111484000343,186.7111484000343,187.19563430000562,45,315,187.19563430000562,187.19563430000562,187.19563430000562,187.19563430000562,187.19563430000562,187.19563430000562,187.19563430000562,187.19563430000562,187.19563430000562,187.5621719000046,187.5621719000046,187.5621719000046,187.5621719000046,187.5621719000046,187.5621719000046,187.5621719000046,187.5621719000046,187.5621719000046,23,0,,,187.5621719000046,187.76241249998566,3.7,187.76241249998566,1,3.7,1,1,1000,num_4,0.7197711999760941,,24,3,2026-03-04_15h23.26.966,2026A_exp2,2022.2.4,59.94337748015847,
1,0,0.0,4.9,1,0,47,47,45,,,,,188.5129203000106,189.16373050003313,189.16373050003313,189.64822370000184,315,45,189.64822370000184,189.64822370000184,189.64822370000184,189.64822370000184,189.64822370000184,189.64822370000184,189.64822370000184,189.64822370000184,189.64822370000184,190.01460799999768,190.01460799999768,190.01460799999768,190.01460799999768,190.01460799999768,190.01460799999768,190.01460799999768,190.01460799999768,190.01460799999768,23,0,,,190.01460799999768,190.21479759999784,4.9,190.21479759999784,1,4.9,1,1,1000,num_4,0.6926959999836981,,24,3,2026-03-04_15h23.26.966,2026A_exp2,2022.2.4,59.94337748015847,
1,0,0.0,0.0,0,0,48,48,9,,,,,190.93242670001928,191.58285489998525,191.58285489998525,192.06718569999794,45,45,192.06718569999794,192.06718569999794,192.06718569999794,192.06718569999794,192.06718569999794,192.06718569999794,192.06718569999794,192.06718569999794,192.06718569999794,192.4336403000052,192.4336403000052,192.4336403000052,192.4336403000052,192.4336403000052,192.4336403000052,192.4336403000052,192.4336403000052,192.4336403000052,23,0,,,192.4336403000052,192.63381929998286,0.0,192.63381929998286,0,0.0,0,1,1000,num_1,0.9615582000114955,,24,3,2026-03-04_15h23.26.966,2026A_exp2,2022.2.4,59.94337748015847,
1,0,0.0,0.0,0,0,49,49,59,,,,,193.61789579998003,194.2521813000203,194.2521813000203,194.75311140000122,45,315,194.75311140000122,194.75311140000122,194.75311140000122,194.75311140000122,194.75311140000122,194.75311140000122,194.75311140000122,194.75311140000122,194.75311140000122,195.11974250001367,195.11974250001367,195.11974250001367,195.11974250001367,195.11974250001367,195.11974250001367,195.11974250001367,195.11974250001367,195.11974250001367,23,0,,,195.11974250001367,195.31985269999132,0.0,195.31985269999132,0,0.0,0,1,1000,num_1,0.8195700999931432,,24,3,2026-03-04_15h23.26.966,2026A_exp2,2022.2.4,59.94337748015847,
0,0,0.0,0.0,1,0,50,50,62,,,,,196.17075950000435,196.8213549000211,196.8213549000211,197.30586610001046,45,315,197.30586610001046,197.30586610001046,197.30586610001046,197.30586610001046,197.30586610001046,197.30586610001046,197.30586610001046,197.30586610001046,197.30586610001046,197.67225539998617,197.67225539998617,197.67225539998617,197.67225539998617,197.67225539998617,197.67225539998617,197.67225539998617,197.67225539998617,197.67225539998617,23,0,,,197.67225539998617,197.87256450002315,0.0,197.87256450002315,0,0.0,0,1,1000,num_1,1.4428864000365138,,24,3,2026-03-04_15h23.26.966,2026A_exp2,2022.2.4,59.94337748015847,
1000,1,6.1,4.9,1,0,51,51,16,,,,,199.3404995999881,199.99128600000404,199.99128600000404,200.47570180002367,45,45,200.47570180002367,200.47570180002367,200.47570180002367,200.47570180002367,200.47570180002367,200.47570180002367,200.47570180002367,200.47570180002367,200.47570180002367,200.84208620002028,200.84208620002028,200.84208620002028,200.84208620002028,200.84208620002028,200.84208620002028,200.84208620002028,200.84208620002028,200.84208620002028,23,0,,,200.84208620002028,201.04465870000422,1000,201.04465870000422,1000,1000,1000,1000,0,num_3,1.0541255000280216,,24,3,2026-03-04_15h23.26.966,2026A_exp2,2022.2.4,59.94337748015847,
1,0,0.0,3.7,0,0,52,52,78,,,,,202.12659360002726,202.77735059999395,202.77735059999395,203.27836920000846,45,315,203.27836920000846,203.27836920000846,203.27836920000846,203.27836920000846,203.27836920000846,203.27836920000846,203.27836920000846,203.27836920000846,203.27836920000846,203.6449500999879,203.6449500999879,203.6449500999879,203.6449500999879,203.6449500999879,203.6449500999879,203.6449500999879,203.6449500999879,203.6449500999879,23,0,,,203.6449500999879,203.84506309998687,0.0,203.84506309998687,0,0.0,0,1,1000,num_1,0.9732475999626331,,24,3,2026-03-04_15h23.26.966,2026A_exp2,2022.2.4,59.94337748015847,
1,0,6.1,0.0,1,0,53,53,13,,,,,204.84596740000416,205.49689750000834,205.49689750000834,205.98108490003506,315,45,205.98108490003506,205.98108490003506,205.98108490003506,205.98108490003506,205.98108490003506,205.98108490003506,205.98108490003506,205.98108490003506,205.98108490003506,206.3475770999794,206.3475770999794,206.3475770999794,206.3475770999794,206.3475770999794,206.3475770999794,206.3475770999794,206.3475770999794,206.3475770999794,23,0,,,206.3475770999794,206.54779049998615,0.0,206.54779049998615,0,0.0,0,1,1000,num_1,2.270324199984316,,24,3,2026-03-04_15h23.26.966,2026A_exp2,2022.2.4,59.94337748015847,
1,0,0.0,0.0,0,0,54,54,38,,,,,208.85014689998934,209.48405299999285,209.48405299999285,209.9849789,45,45,209.9849789,209.9849789,209.9849789,209.9849789,209.9849789,209.9849789,209.9849789,209.9849789,209.9849789,210.3515180000104,210.3515180000104,210.3515180000104,210.3515180000104,210.3515180000104,210.3515180000104,210.3515180000104,210.3515180000104,210.3515180000104,23,0,,,210.3515180000104,210.55173980002292,0.0,210.55173980002292,0,0.0,0,1,1000,num_1,1.0354350000270642,,24,3,2026-03-04_15h23.26.966,2026A_exp2,2022.2.4,59.94337748015847,
1000,1,0.0,0.0,1,0,55,55,14,,,,,211.6028149999911,212.25353170000017,212.25353170000017,212.7546563000069,315,315,212.7546563000069,212.7546563000069,212.7546563000069,212.7546563000069,212.7546563000069,212.7546563000069,212.7546563000069,212.7546563000069,212.7546563000069,213.12102540000342,213.12102540000342,213.12102540000342,213.12102540000342,213.12102540000342,213.12102540000342,213.12102540000342,213.12102540000342,213.12102540000342,23,0,,,213.12102540000342,213.3233880000189,1000,213.3233880000189,1000,1000,1000,1000,1,num_2,1.4958804000052623,,24,3,2026-03-04_15h23.26.966,2026A_exp2,2022.2.4,59.94337748015847,
1,0,4.9,4.9,1,0,56,56,89,,,,,214.8393681999878,215.49000809999416,215.49000809999416,215.99125309998635,315,45,215.99125309998635,215.99125309998635,215.99125309998635,215.99125309998635,215.99125309998635,215.99125309998635,215.99125309998635,215.99125309998635,215.99125309998635,216.3575026000035,216.3575026000035,216.3575026000035,216.3575026000035,216.3575026000035,216.3575026000035,216.3575026000035,216.3575026000035,216.3575026000035,23,0,,,216.3575026000035,216.5578486000304,4.9,216.5578486000304,1,4.9,1,1,1000,num_4,1.4451333000324667,,24,3,2026-03-04_15h23.26.966,2026A_exp2,2022.2.4,59.94337748015847,
1000,1,0.0,4.9,0,0,57,57,77,,,,,218.02580449997913,218.6766340000322,218.6766340000322,219.17741479998222,315,315,219.17741479998222,219.17741479998222,219.17741479998222,219.17741479998222,219.17741479998222,219.17741479998222,219.17741479998222,219.17741479998222,219.17741479998222,219.5273946999805,219.5273946999805,219.5273946999805,219.5273946999805,219.5273946999805,219.5273946999805,219.5273946999805,219.5273946999805,219.5273946999805,22,0,,,219.5273946999805,219.7295324000297,1000,219.7295324000297,1000,1000,1000,1000,1,num_2,1.080649799958337,,24,3,2026-03-04_15h23.26.966,2026A_exp2,2022.2.4,59.94337748015847,
1,0,4.9,6.1,0,0,58,58,15,,,,,220.82857810001587,221.479384700011,221.479384700011,221.98031489999266,45,45,221.98031489999266,221.98031489999266,221.98031489999266,221.98031489999266,221.98031489999266,221.98031489999266,221.98031489999266,221.98031489999266,221.98031489999266,222.3469206999871,222.3469206999871,222.3469206999871,222.3469206999871,222.3469206999871,222.3469206999871,222.3469206999871,222.3469206999871,222.3469206999871,23,0,,,222.3469206999871,222.5471454000217,4.9,222.5471454000217,1,4.9,1,1,1000,num_4,0.8797707000048831,,24,3,2026-03-04_15h23.26.966,2026A_exp2,2022.2.4,59.94337748015847,
1000,1,4.9,4.9,0,0,59,59,31,,,,,223.44827160000568,224.09872549999272,224.09872549999272,224.5829350000131,315,315,224.5829350000131,224.5829350000131,224.5829350000131,224.5829350000131,224.5829350000131,224.5829350000131,224.5829350000131,224.5829350000131,224.5829350000131,224.94935539999278,224.94935539999278,224.94935539999278,224.94935539999278,224.94935539999278,224.94935539999278,224.94935539999278,224.94935539999278,224.94935539999278,23,0,,,224.94935539999278,225.15144400001736,1000,225.15144400001736,1000,1000,1000,1000,0,num_3,1.7635769000044093,,24,3,2026-03-04_15h23.26.966,2026A_exp2,2022.2.4,59.94337748015847,
1000,1,4.9,0.0,1,0,60,60,72,,,,,226.93481419997988,227.58533770003123,227.58533770003123,228.08660949999467,315,315,228.08660949999467,228.08660949999467,228.08660949999467,228.08660949999467,228.08660949999467,228.08660949999467,228.08660949999467,228.08660949999467,228.08660949999467,228.45302870002342,228.45302870002342,228.45302870002342,228.45302870002342,228.45302870002342,228.45302870002342,228.45302870002342,228.45302870002342,228.45302870002342,23,0,,,228.45302870002342,228.65459590003593,1000,228.65459590003593,1000,1000,1000,1000,0,num_3,1.3484159000217915,,24,3,2026-03-04_15h23.26.966,2026A_exp2,2022.2.4,59.94337748015847,
1000,1,0.0,0.0,0,0,61,61,61,,,,,230.02167689998168,230.67180339997867,230.67180339997867,231.17289829999208,315,315,231.17289829999208,231.17289829999208,231.17289829999208,231.17289829999208,231.17289829999208,231.17289829999208,231.17289829999208,231.17289829999208,231.17289829999208,231.52276720001828,231.52276720001828,231.52276720001828,231.52276720001828,231.52276720001828,231.52276720001828,231.52276720001828,231.52276720001828,231.52276720001828,22,0,,,231.52276720001828,231.7250864999951,1000,231.7250864999951,1000,1000,1000,1000,1,num_2,0.9971089999889955,,24,3,2026-03-04_15h23.26.966,2026A_exp2,2022.2.4,59.94337748015847,
1,0,0.0,0.0,0,0,62,62,2,,,,,232.7407028999878,233.39136750000762,233.39136750000762,233.89222570002312,45,45,233.89222570002312,233.89222570002312,233.89222570002312,233.89222570002312,233.89222570002312,233.89222570002312,233.89222570002312,233.89222570002312,233.89222570002312,234.2588228000095,234.2588228000095,234.2588228000095,234.2588228000095,234.2588228000095,234.2588228000095,234.2588228000095,234.2588228000095,234.2588228000095,23,0,,,234.2588228000095,234.45888669998385,0.0,234.45888669998385,0,0.0,0,1,1000,num_1,0.8954825000255369,,24,3,2026-03-04_15h23.26.966,2026A_exp2,2022.2.4,59.94337748015847,
1000,1,0.0,4.9,0,0,63,63,11,,,,,235.37654299999122,236.027149200032,236.027149200032,236.5116140000173,315,45,236.5116140000173,236.5116140000173,236.5116140000173,236.5116140000173,236.5116140000173,236.5116140000173,236.5116140000173,236.5116140000173,236.5116140000173,236.87806250003632,236.87806250003632,236.87806250003632,236.87806250003632,236.87806250003632,236.87806250003632,236.87806250003632,236.87806250003632,236.87806250003632,23,0,,,236.87806250003632,237.080251700012,1000,237.080251700012,1000,1000,1000,1000,1,num_2,0.7711308000143617,,24,3,2026-03-04_15h23.26.966,2026A_exp2,2022.2.4,59.94337748015847,
1,0,0.0,0.0,1,0,64,64,37,,,,,237.8790818999987,238.529808900028,238.529808900028,239.03081880003447,315,315,239.03081880003447,239.03081880003447,239.03081880003447,239.03081880003447,239.03081880003447,239.03081880003447,239.03081880003447,239.03081880003447,239.03081880003447,239.39722109999275,239.39722109999275,239.39722109999275,239.39722109999275,239.39722109999275,239.39722109999275,239.39722109999275,239.39722109999275,239.39722109999275,23,0,,,239.39722109999275,239.5975383000332,0.0,239.5975383000332,1,0.0,0,0,1000,num_4,0.9579130000201985,,24,3,2026-03-04_15h23.26.966,2026A_exp2,2022.2.4,59.94337748015847,
1,0,4.9,4.9,0,0,65,65,63,,,,,240.58188980002888,241.23248000000603,241.23248000000603,241.7167061000364,315,45,241.7167061000364,241.7167061000364,241.7167061000364,241.7167061000364,241.7167061000364,241.7167061000364,241.7167061000364,241.7167061000364,241.7167061000364,242.0832534999936,242.0832534999936,242.0832534999936,242.0832534999936,242.0832534999936,242.0832534999936,242.0832534999936,242.0832534999936,242.0832534999936,23,0,,,242.0832534999936,242.28346020000754,4.9,242.28346020000754,1,4.9,1,1,1000,num_4,0.9440746000036597,,24,3,2026-03-04_15h23.26.966,2026A_exp2,2022.2.4,59.94337748015847,
1000,1,4.9,0.0,0,0,66,66,22,,,,,243.25096859998303,243.90191499999491,243.90191499999491,244.38608870003372,45,315,244.38608870003372,244.38608870003372,244.38608870003372,244.38608870003372,244.38608870003372,244.38608870003372,244.38608870003372,244.38608870003372,244.38608870003372,244.752722300007,244.752722300007,244.752722300007,244.752722300007,244.752722300007,244.752722300007,244.752722300007,244.752722300007,244.752722300007,23,0,,,244.752722300007,244.95431910001207,1000,244.95431910001207,1000,1000,1000,1000,0,num_3,1.0081512000178918,,24,3,2026-03-04_15h23.26.966,2026A_exp2,2022.2.4,59.94337748015847,
1,0,0.0,0.0,1,0,67,67,18,,,,,245.98715489997994,246.63773590000346,246.63773590000346,247.13901460001944,45,315,247.13901460001944,247.13901460001944,247.13901460001944,247.13901460001944,247.13901460001944,247.13901460001944,247.13901460001944,247.13901460001944,247.13901460001944,247.50512650003657,247.50512650003657,247.50512650003657,247.50512650003657,247.50512650003657,247.50512650003657,247.50512650003657,247.50512650003657,247.50512650003657,23,0,,,247.50512650003657,247.70551910001086,0.0,247.70551910001086,1,0.0,0,0,1000,num_4,0.969256000011228,,24,3,2026-03-04_15h23.26.966,2026A_exp2,2022.2.4,59.94337748015847,
1,0,0.0,3.7,0,0,68,68,12,,,,,248.70668750000186,249.35715260001598,249.35715260001598,249.8417032000143,45,45,249.8417032000143,249.8417032000143,249.8417032000143,249.8417032000143,249.8417032000143,249.8417032000143,249.8417032000143,249.8417032000143,249.8417032000143,250.20814579998842,250.20814579998842,250.20814579998842,250.20814579998842,250.20814579998842,250.20814579998842,250.20814579998842,250.20814579998842,250.20814579998842,23,0,,,250.20814579998842,250.40820050000912,0.0,250.40820050000912,0,0.0,0,1,1000,num_1,0.8905732000130229,,24,3,2026-03-04_15h23.26.966,2026A_exp2,2022.2.4,59.94337748015847,
1000,1,0.0,0.0,0,0,69,69,65,,,,,251.32583210000303,251.9764965000213,251.9764965000213,252.47753570001805,315,315,252.47753570001805,252.47753570001805,252.47753570001805,252.47753570001805,252.47753570001805,252.47753570001805,252.47753570001805,252.47753570001805,252.47753570001805,252.84391880000476,252.84391880000476,252.84391880000476,252.84391880000476,252.84391880000476,252.84391880000476,252.84391880000476,252.84391880000476,252.84391880000476,23,0,,,252.84391880000476,253.04606660001446,1000,253.04606660001446,1000,1000,1000,1000,0,num_3,1.1084776999778114,,24,3,2026-03-04_15h23.26.966,2026A_exp2,2022.2.4,59.94337748015847,
1,0,4.9,6.1,1,0,70,70,46,,,,,254.17886719998205,254.82944669999415,254.82944669999415,255.31384700001217,315,315,255.31384700001217,255.31384700001217,255.31384700001217,255.31384700001217,255.31384700001217,255.31384700001217,255.31384700001217,255.31384700001217,255.31384700001217,255.68023150000954,255.68023150000954,255.68023150000954,255.68023150000954,255.68023150000954,255.68023150000954,255.68023150000954,255.68023150000954,255.68023150000954,23,0,,,255.68023150000954,255.8803140000091,6.1,255.8803140000091,1,6.1,1,1,1000,num_4,0.722582699963823,,24,3,2026-03-04_15h23.26.966,2026A_exp2,2022.2.4,59.94337748015847,
0,0,4.9,0.0,0,0,71,71,30,,,,,256.6312068999978,257.28189330000896,257.28189330000896,257.7663148000138,315,315,257.7663148000138,257.7663148000138,257.7663148000138,257.7663148000138,257.7663148000138,257.7663148000138,257.7663148000138,257.7663148000138,257.7663148000138,258.13267989997985,258.13267989997985,258.13267989997985,258.13267989997985,258.13267989997985,258.13267989997985,258.13267989997985,258.13267989997985,258.13267989997985,23,0,,,258.13267989997985,258.33284819999244,0.0,258.33284819999244,0,0.0,0,1,1000,num_1,1.2856443999917246,,24,3,2026-03-04_15h23.26.966,2026A_exp2,2022.2.4,59.94337748015847,
1,0,6.1,4.9,1,0,72,72,35,,,,,259.63416549999965,260.284784700023,260.284784700023,260.785988299991,45,315,260.785988299991,260.785988299991,260.785988299991,260.785988299991,260.785988299991,260.785988299991,260.785988299991,260.785988299991,260.785988299991,261.1356237999862,261.1356237999862,261.1356237999862,261.1356237999862,261.1356237999862,261.1356237999862,261.1356237999862,261.1356237999862,261.1356237999862,22,0,,,261.1356237999862,261.3358734000358,4.9,261.3358734000358,1,4.9,1,1,1000,num_4,0.6983246000017971,,24,3,2026-03-04_15h23.26.966,2026A_exp2,2022.2.4,59.94337748015847,
1000,1,4.9,6.1,1,0,73,73,1,,,,,262.0531532000168,262.7039194999961,262.7039194999961,263.1883710999973,45,45,263.1883710999973,263.1883710999973,263.1883710999973,263.1883710999973,263.1883710999973,263.1883710999973,263.1883710999973,263.1883710999973,263.1883710999973,263.5547291000257,263.5547291000257,263.5547291000257,263.5547291000257,263.5547291000257,263.5547291000257,263.5547291000257,263.5547291000257,263.5547291000257,23,0,,,263.5547291000257,263.75690889998805,1000,263.75690889998805,1000,1000,1000,1000,1,num_2,1.2704325999948196,,24,3,2026-03-04_15h23.26.966,2026A_exp2,2022.2.4,59.94337748015847,
1,0,4.9,0.0,1,0,74,74,84,,,,,265.05615379998926,265.70690119999927,265.70690119999927,266.2080941000022,315,315,266.2080941000022,266.2080941000022,266.2080941000022,266.2080941000022,266.2080941000022,266.2080941000022,266.2080941000022,266.2080941000022,266.2080941000022,266.574322200031,266.574322200031,266.574322200031,266.574322200031,266.574322200031,266.574322200031,266.574322200031,266.574322200031,266.574322200031,23,0,,,266.574322200031,266.7747259000316,0.0,266.7747259000316,1,0.0,0,0,1000,num_4,1.084417800011579,,24,3,2026-03-04_15h23.26.966,2026A_exp2,2022.2.4,59.94337748015847,
1,0,6.1,3.7,0,0,75,75,26,,,,,267.8756343999994,268.52644769998733,268.52644769998733,269.0160183000262,315,315,269.0160183000262,269.0160183000262,269.0160183000262,269.0160183000262,269.0160183000262,269.0160183000262,269.0160183000262,269.0160183000262,269.0160183000262,269.3775960000348,269.3775960000348,269.3775960000348,269.3775960000348,269.3775960000348,269.3775960000348,269.3775960000348,269.3775960000348,269.3775960000348,23,0,,,269.3775960000348,269.5808977999841,6.1,269.5808977999841,1,6.1,1,1,1000,num_4,1.013762099959422,,24,3,2026-03-04_15h23.26.966,2026A_exp2,2022.2.4,59.94337748015847,
1,0,6.1,0.0,0,0,76,76,50,,,,,270.6117969999905,271.26238119998015,271.26238119998015,271.7469915000256,45,315,271.7469915000256,271.7469915000256,271.7469915000256,271.7469915000256,271.7469915000256,271.7469915000256,271.7469915000256,271.7469915000256,271.7469915000256,272.11336489999667,272.11336489999667,272.11336489999667,272.11336489999667,272.11336489999667,272.11336489999667,272.11336489999667,272.11336489999667,272.11336489999667,23,0,,,272.11336489999667,272.3134985000361,6.1,272.3134985000361,1,6.1,1,1,1000,num_4,0.6728184000239708,,24,3,2026-03-04_15h23.26.966,2026A_exp2,2022.2.4,59.94337748015847,
1000,1,6.1,3.7,0,0,77,77,87,,,,,273.0142074000323,273.6649090999854,273.6649090999854,274.1492159999907,45,45,274.1492159999907,274.1492159999907,274.1492159999907,274.1492159999907,274.1492159999907,274.1492159999907,274.1492159999907,274.1492159999907,274.1492159999907,274.5158195000258,274.5158195000258,274.5158195000258,274.5158195000258,274.5158195000258,274.5158195000258,274.5158195000258,274.5158195000258,274.5158195000258,21,1,[0.06603699998231605],[0.10019939998164773],274.5158195000258,274.7177178999991,1000,274.7177178999991,1000,1000,1000,1000,0,num_3,0.884479200001806,,24,3,2026-03-04_15h23.26.966,2026A_exp2,2022.2.4,59.94337748015847,
1000,1,4.9,0.0,0,0,78,78,58,,,,,275.6336450999952,276.28410719998647,276.28410719998647,276.78528210002696,45,45,276.78528210002696,276.78528210002696,276.78528210002696,276.78528210002696,276.78528210002696,276.78528210002696,276.78528210002696,276.78528210002696,276.78528210002696,277.135028299992,277.135028299992,277.135028299992,277.135028299992,277.135028299992,277.135028299992,277.135028299992,277.135028299992,277.135028299992,22,0,,,277.135028299992,277.33526570000686,1000,277.35170669999206,1000,1000,1000,1000,0,num_3,0.6186978000332601,,24,3,2026-03-04_15h23.26.966,2026A_exp2,2022.2.4,59.94337748015847,
1,0,0.0,0.0,1,0,79,79,66,,,,,277.98587340000086,278.6365808999981,278.6365808999981,279.1376752000069,45,315,279.1376752000069,279.1376752000069,279.1376752000069,279.1376752000069,279.1376752000069,279.1376752000069,279.1376752000069,279.1376752000069,279.1376752000069,279.50404790003086,279.50404790003086,279.50404790003086,279.50404790003086,279.50404790003086,279.50404790003086,279.50404790003086,279.50404790003086,279.50404790003086,23,0,,,279.50404790003086,279.70422240003245,0.0,279.70422240003245,0,0.0,0,1,1000,num_1,0.9539687000215054,,24,3,2026-03-04_15h23.26.966,2026A_exp2,2022.2.4,59.94337748015847,
1000,1,4.9,3.7,1,0,80,80,67,,,,,280.6885597000364,281.3391907000332,281.3391907000332,281.8237064999994,315,315,281.8237064999994,281.8237064999994,281.8237064999994,281.8237064999994,281.8237064999994,281.8237064999994,281.8237064999994,281.8237064999994,281.8237064999994,282.1900972999865,282.1900972999865,282.1900972999865,282.1900972999865,282.1900972999865,282.1900972999865,282.1900972999865,282.1900972999865,282.1900972999865,23,0,,,282.1900972999865,282.39208850002615,1000,282.39208850002615,1000,1000,1000,1000,0,num_3,1.1308200000203215,,24,3,2026-03-04_15h23.26.966,2026A_exp2,2022.2.4,59.94337748015847,
1,0,4.9,0.0,1,0,81,81,6,,,,,283.541314000031,284.19208350003464,284.19208350003464,284.6932359000202,45,45,284.6932359000202,284.6932359000202,284.6932359000202,284.6932359000202,284.6932359000202,284.6932359000202,284.6932359000202,284.6932359000202,284.6932359000202,285.0596159999841,285.0596159999841,285.0596159999841,285.0596159999841,285.0596159999841,285.0596159999841,285.0596159999841,285.0596159999841,285.0596159999841,23,0,,,285.0596159999841,285.25979909999296,0.0,285.25979909999296,1,0.0,0,0,1000,num_4,1.1586866999859922,,24,3,2026-03-04_15h23.26.966,2026A_exp2,2022.2.4,59.94337748015847,
1,0,0.0,0.0,1,0,82,82,41,,,,,286.4442615000298,287.0950302000274,287.0950302000274,287.5794096000027,45,315,287.5794096000027,287.5794096000027,287.5794096000027,287.5794096000027,287.5794096000027,287.5794096000027,287.5794096000027,287.5794096000027,287.5794096000027,287.94568990002153,287.94568990002153,287.94568990002153,287.94568990002153,287.94568990002153,287.94568990002153,287.94568990002153,287.94568990002153,287.94568990002153,23,0,,,287.94568990002153,288.1461133999983,0.0,288.1461133999983,0,0.0,0,1,1000,num_1,0.9767115999711677,,24,3,2026-03-04_15h23.26.966,2026A_exp2,2022.2.4,59.94337748015847,
1000,1,0.0,4.9,1,0,83,83,51,,,,,289.1470634000143,289.79776960000163,289.79776960000163,290.28214570001,315,45,290.28214570001,290.28214570001,290.28214570001,290.28214570001,290.28214570001,290.28214570001,290.28214570001,290.28214570001,290.28214570001,290.6485743999947,290.6485743999947,290.6485743999947,290.6485743999947,290.6485743999947,290.6485743999947,290.6485743999947,290.6485743999947,290.6485743999947,9,1,[0.0012615000014193356],[0.23360320000210777],290.6485743999947,290.84868870000355,1000,290.84868870000355,1000,1000,1000,1000,1,num_2,0.8344616999966092,,24,3,2026-03-04_15h23.26.966,2026A_exp2,2022.2.4,59.94337748015847,
1000,1,0.0,0.0,1,0,84,84,47,,,,,291.6994506000192,292.3503370999824,292.3503370999824,292.85129670001334,45,45,292.85129670001334,292.85129670001334,292.85129670001334,292.85129670001334,292.85129670001334,292.85129670001334,292.85129670001334,292.85129670001334,292.85129670001334,293.2178183000069,293.2178183000069,293.2178183000069,293.2178183000069,293.2178183000069,293.2178183000069,293.2178183000069,293.2178183000069,293.2178183000069,23,0,,,293.2178183000069,293.41981799999485,1000,293.41981799999485,1000,1000,1000,1000,1,num_2,1.030793400015682,,24,3,2026-03-04_15h23.26.966,2026A_exp2,2022.2.4,59.94337748015847,
0,0,0.0,3.7,1,0,85,85,21,,,,,294.46916280000005,295.1195463000331,295.1195463000331,295.6208144000266,315,315,295.6208144000266,295.6208144000266,295.6208144000266,295.6208144000266,295.6208144000266,295.6208144000266,295.6208144000266,295.6208144000266,295.6208144000266,295.9871710999869,295.9871710999869,295.9871710999869,295.9871710999869,295.9871710999869,295.9871710999869,295.9871710999869,295.9871710999869,295.9871710999869,3,4,"[0.0012712000170722604, 0.1834923000424169, 0.28371100005460903, 0.3670249000424519]","[0.16685850004432723, 0.267116500006523, 0.3503621000563726, 0.3670296000200324]",295.9871710999869,296.18738449999364,0.0,296.18738449999364,0,0.0,0,1,1000,num_1,0.8627620000042953,,24,3,2026-03-04_15h23.26.966,2026A_exp2,2022.2.4,59.94337748015847,
1,0,0.0,0.0,0,0,86,86,64,,,,,297.07131030003075,297.72227159998147,297.72227159998147,298.20671910000965,315,45,298.20671910000965,298.20671910000965,298.20671910000965,298.20671910000965,298.20671910000965,298.20671910000965,298.20671910000965,298.20671910000965,298.20671910000965,298.5730851999833,298.5730851999833,298.5730851999833,298.5730851999833,298.5730851999833,298.5730851999833,298.5730851999833,298.5730851999833,298.5730851999833,19,3,"[0.0011990999919362366, 0.05021879996638745, 0.0836400999687612]","[0.017363699967972934, 0.06690299999900162, 0.11692240001866594]",298.5730851999833,298.77338199998485,0.0,298.77338199998485,0,0.0,0,1,1000,num_1,0.9409711000043899,,24,3,2026-03-04_15h23.26.966,2026A_exp2,2022.2.4,59.94337748015847,
0,0,0.0,6.1,1,0,87,87,76,,,,,299.74091450002743,300.3914856000338,300.3914856000338,300.8759876000113,45,45,300.8759876000113,300.8759876000113,300.8759876000113,300.8759876000113,300.8759876000113,300.8759876000113,300.8759876000113,300.8759876000113,300.8759876000113,301.2423787000007,301.2423787000007,301.2423787000007,301.2423787000007,301.2423787000007,301.2423787000007,301.2423787000007,301.2423787000007,301.2423787000007,10,5,"[0.0012540000025182962, 0.10020889999577776, 0.1335580999730155, 0.2002160000265576, 0.33357979997526854]","[0.08346250001341105, 0.11684729997068644, 0.15034609998110682, 0.25025230000028387, 0.36705240001901984]",301.2423787000007,301.44275360001484,0.0,301.44275360001484,1,0.0,0,0,1000,num_4,1.3677616999484599,,24,3,2026-03-04_15h23.26.966,2026A_exp2,2022.2.4,59.94337748015847,
1000,1,0.0,0.0,1,0,88,88,29,,,,,302.82729019998806,303.4779135999852,303.4779135999852,303.9625110999914,45,45,303.9625110999914,303.9625110999914,303.9625110999914,303.9625110999914,303.9625110999914,303.9625110999914,303.9625110999914,303.9625110999914,303.9625110999914,304.3288241000264,304.3288241000264,304.3288241000264,304.3288241000264,304.3288241000264,304.3288241000264,304.3288241000264,304.3288241000264,304.3288241000264,21,1,[0.05021770001621917],[0.08347569999750704],304.3288241000264,304.5289590000175,1000,304.5289590000175,1000,1000,1000,1000,0,num_3,1.5300785999861546,,24,3,2026-03-04_15h23.26.966,2026A_exp2,2022.2.4,59.94337748015847,
0,0,0.0,4.9,0,0,89,89,54,,,,,306.0805676000309,306.7313287000288,306.7313287000288,307.23247139999876,45,45,307.23247139999876,307.23247139999876,307.23247139999876,307.23247139999876,307.23247139999876,307.23247139999876,307.23247139999876,307.23247139999876,307.23247139999876,307.5988936999929,307.5988936999929,307.5988936999929,307.5988936999929,307.5988936999929,307.5988936999929,307.5988936999929,307.5988936999929,307.5988936999929,23,0,,,307.5988936999929,307.7990040000295,4.9,307.7990040000295,1,4.9,1,1,1000,num_4,0.8435124999959953,,24,3,2026-03-04_15h23.26.966,2026A_exp2,2022.2.4,59.94337748015847,
,,,,,,,,,,,,,,,,,,,,,,,,,,,,,,,,,,,,,,,,,,,,,,,,,,,,308.674728300015,,,,,,,
