validity,detectorcomp,contrastCW,contrastCCW,precueCWorCCW,block_80trials.thisRepN,block_80trials.thisTrialN,block_80trials.thisN,block_80trials.thisIndex,etRecord.started,etRecord.stopped,text.started,text.stopped,text_4.started,text_4.stopped,text_6.started,text_6.stopped,oriCW,oriCCW,roi_2.started,grating_UR.started,grating_UL.started,grating_LR.started,grating_LL.started,noise_UR.started,noise_UL.started,noise_LR.started,noise_LL.started,roi_2.stopped,grating_UR.stopped,grating_UL.stopped,grating_LR.stopped,grating_LL.stopped,noise_UR.stopped,noise_UL.stopped,noise_LR.stopped,noise_LL.stopped,outframe,roi_2.numLooks,roi_2.timesOn,roi_2.timesOff,text_2.started,text_2.stopped,probedcontrast,key_resp.started,respdetect,relevantContrast,correctDetect,TorFdetect,respCWorCCW,key_resp.keys,key_resp.rt,feedback_display_.started,participantNo,blockNo,date,expName,psychopyVersion,frameRate,
1,0,0.0,0.0,0,0,0,0,64,8.840003283694386e-05,8.840003283694386e-05,53.00071040005423,55.006456200033426,55.006456200033426,55.63747950003017,55.63747950003017,56.15900290000718,45,315,56.15900290000718,56.15900290000718,56.15900290000718,56.15900290000718,56.15900290000718,56.15900290000718,56.15900290000718,56.15900290000718,56.15900290000718,56.505236299999524,56.505236299999524,56.505236299999524,56.505236299999524,56.505236299999524,56.505236299999524,56.505236299999524,56.505236299999524,56.505236299999524,23,0,,,56.505236299999524,56.705414700030815,0.0,56.705414700030815,1,0.0,0,0,1000,num_4,1.2431138000101782,,23,11,2026-03-04_14h15.24.254,2026A_exp2,2022.2.4,59.93762889594968,
1000,1,0.0,0.0,0,0,1,1,61,,,,,57.973381700052414,58.62402510002721,58.62402510002721,59.11261720000766,45,45,59.11261720000766,59.11261720000766,59.11261720000766,59.11261720000766,59.11261720000766,59.11261720000766,59.11261720000766,59.11261720000766,59.11261720000766,59.47473940002965,59.47473940002965,59.47473940002965,59.47473940002965,59.47473940002965,59.47473940002965,59.47473940002965,59.47473940002965,59.47473940002965,23,0,,,59.47473940002965,59.68263009999646,1000,59.68263009999646,1000,1000,1000,1000,0,num_3,0.4262495000148192,,23,11,2026-03-04_14h15.24.254,2026A_exp2,2022.2.4,59.93762889594968,
1,0,0.0,0.0,1,0,2,2,43,,,,,60.12548160000006,60.77612670004601,60.77612670004601,61.27749240002595,45,45,61.27749240002595,61.27749240002595,61.27749240002595,61.27749240002595,61.27749240002595,61.27749240002595,61.27749240002595,61.27749240002595,61.27749240002595,61.643566900049336,61.643566900049336,61.643566900049336,61.643566900049336,61.643566900049336,61.643566900049336,61.643566900049336,61.643566900049336,61.643566900049336,23,0,,,61.643566900049336,61.843870100041386,0.0,61.843870100041386,1,0.0,0,0,1000,num_4,0.808233400050085,,23,11,2026-03-04_14h15.24.254,2026A_exp2,2022.2.4,59.93762889594968,
1000,1,3.7,0.0,1,0,3,3,79,,,,,62.67810380004812,63.328491000051145,63.328491000051145,63.813024000031874,45,45,63.813024000031874,63.813024000031874,63.813024000031874,63.813024000031874,63.813024000031874,63.813024000031874,63.813024000031874,63.813024000031874,63.813024000031874,64.1795535000274,64.1795535000274,64.1795535000274,64.1795535000274,64.1795535000274,64.1795535000274,64.1795535000274,64.1795535000274,64.1795535000274,23,0,,,64.1795535000274,64.38179670000682,1000,64.38179670000682,1000,1000,1000,1000,0,num_3,0.4069969999836758,,23,11,2026-03-04_14h15.24.254,2026A_exp2,2022.2.4,59.93762889594968,
1000,1,0.0,3.7,0,0,4,4,52,,,,,64.81355860002805,65.46411280002212,65.46411280002212,65.9652171000489,315,315,65.9652171000489,65.9652171000489,65.9652171000489,65.9652171000489,65.9652171000489,65.9652171000489,65.9652171000489,65.9652171000489,65.9652171000489,66.31508090003626,66.31508090003626,66.31508090003626,66.31508090003626,66.31508090003626,66.31508090003626,66.31508090003626,66.31508090003626,66.31508090003626,22,0,,,66.31508090003626,66.51689110003645,1000,66.53194720001193,1000,1000,1000,1000,0,num_3,0.4240741999819875,,23,11,2026-03-04_14h15.24.254,2026A_exp2,2022.2.4,59.93762889594968,
1,0,4.9,6.1,0,0,5,5,15,,,,,66.98246320005273,67.63285950000864,67.63285950000864,68.13409600005252,45,315,68.13409600005252,68.13409600005252,68.13409600005252,68.13409600005252,68.13409600005252,68.13409600005252,68.13409600005252,68.13409600005252,68.13409600005252,68.50043070001993,68.50043070001993,68.50043070001993,68.50043070001993,68.50043070001993,68.50043070001993,68.50043070001993,68.50043070001993,68.50043070001993,17,3,"[0.001285900012589991, 0.08356419997289777, 0.13367640000069514]","[0.066930599976331, 0.11694470001384616, 0.15022670000325888]",68.50043070001993,68.70062320004217,4.9,68.70062320004217,0,4.9,1,0,1000,num_1,0.9275117000215687,,23,11,2026-03-04_14h15.24.254,2026A_exp2,2022.2.4,59.93762889594968,
1,0,4.9,4.9,1,0,6,6,89,,,,,69.65165860002162,70.3022564999992,70.3022564999992,70.78679590002866,45,45,70.78679590002866,70.78679590002866,70.78679590002866,70.78679590002866,70.78679590002866,70.78679590002866,70.78679590002866,70.78679590002866,70.78679590002866,71.15283150004689,71.15283150004689,71.15283150004689,71.15283150004689,71.15283150004689,71.15283150004689,71.15283150004689,71.15283150004689,71.15283150004689,23,0,,,71.15283150004689,71.35348220000742,4.9,71.35348220000742,0,4.9,1,0,1000,num_1,0.6113654999644496,,23,11,2026-03-04_14h15.24.254,2026A_exp2,2022.2.4,59.93762889594968,
1000,1,4.9,0.0,0,0,7,7,36,,,,,71.9872712000506,72.6380313000409,72.6380313000409,73.12246810004581,45,45,73.12246810004581,73.12246810004581,73.12246810004581,73.12246810004581,73.12246810004581,73.12246810004581,73.12246810004581,73.12246810004581,73.12246810004581,73.48880630003987,73.48880630003987,73.48880630003987,73.48880630003987,73.48880630003987,73.48880630003987,73.48880630003987,73.48880630003987,73.48880630003987,1,2,"[0.0013082000077702105, 0.033350199984852225]","[0.017300899955444038, 0.36722969997208565]",73.48880630003987,73.69089640001766,1000,73.69089640001766,1000,1000,1000,1000,0,num_3,0.4412609999999404,,23,11,2026-03-04_14h15.24.254,2026A_exp2,2022.2.4,59.93762889594968,
1000,1,3.7,6.1,0,0,8,8,28,,,,,74.15622730000177,74.80679360002978,74.80679360002978,75.30806589999702,315,315,75.30806589999702,75.30806589999702,75.30806589999702,75.30806589999702,75.30806589999702,75.30806589999702,75.30806589999702,75.30806589999702,75.30806589999702,75.67442440002924,75.67442440002924,75.67442440002924,75.67442440002924,75.67442440002924,75.67442440002924,75.67442440002924,75.67442440002924,75.67442440002924,0,1,[0.0008573000086471438],[0.3675880000228062],75.67442440002924,75.87657390005188,1000,75.87657390005188,1000,1000,1000,1000,1,num_2,0.40860460000112653,,23,11,2026-03-04_14h15.24.254,2026A_exp2,2022.2.4,59.93762889594968,
1,0,4.9,0.0,1,0,9,9,6,,,,,76.30830730003072,76.95896489999723,76.95896489999723,77.46020520001184,45,45,77.46020520001184,77.46020520001184,77.46020520001184,77.46020520001184,77.46020520001184,77.46020520001184,77.46020520001184,77.46020520001184,77.46020520001184,77.82644090004032,77.82644090004032,77.82644090004032,77.82644090004032,77.82644090004032,77.82644090004032,77.82644090004032,77.82644090004032,77.82644090004032,0,1,[0.0012510999804362655],[0.3668972000014037],77.82644090004032,78.0268131000339,0.0,78.0268131000339,0,0.0,0,1,1000,num_1,0.8575491999508813,,23,11,2026-03-04_14h15.24.254,2026A_exp2,2022.2.4,59.93762889594968,
1000,1,0.0,0.0,1,0,10,10,47,,,,,78.91097570001148,79.55705050000688,79.55705050000688,80.04621820000466,315,45,80.04621820000466,80.04621820000466,80.04621820000466,80.04621820000466,80.04621820000466,80.04621820000466,80.04621820000466,80.04621820000466,80.04621820000466,80.41240110003855,80.41240110003855,80.41240110003855,80.41240110003855,80.41240110003855,80.41240110003855,80.41240110003855,80.41240110003855,80.41240110003855,14,2,"[0.11709280003560707, 0.28399970004102215]","[0.167209500039462, 0.3674699999974109]",80.41240110003855,80.61462080001365,1000,80.61462080001365,1000,1000,1000,1000,1,num_2,0.8934100000187755,,23,11,2026-03-04_14h15.24.254,2026A_exp2,2022.2.4,59.93762889594968,
1,0,4.9,4.9,0,0,11,11,63,,,,,81.53032990003703,82.18090670002857,82.18090670002857,82.66535850003129,45,315,82.66535850003129,82.66535850003129,82.66535850003129,82.66535850003129,82.66535850003129,82.66535850003129,82.66535850003129,82.66535850003129,82.66535850003129,83.03175460000057,83.03175460000057,83.03175460000057,83.03175460000057,83.03175460000057,83.03175460000057,83.03175460000057,83.03175460000057,83.03175460000057,22,1,[0.36728050000965595],[0.36728569999104366],83.03175460000057,83.23187720001442,4.9,83.23187720001442,1,4.9,1,1,1000,num_4,0.8679914000094868,,23,11,2026-03-04_14h15.24.254,2026A_exp2,2022.2.4,59.93762889594968,
1,0,6.1,3.7,0,0,12,12,26,,,,,84.11599010002101,84.7667999000405,84.7667999000405,85.25127500004601,45,45,85.25127500004601,85.25127500004601,85.25127500004601,85.25127500004601,85.25127500004601,85.25127500004601,85.25127500004601,85.25127500004601,85.25127500004601,85.61755960003939,85.61755960003939,85.61755960003939,85.61755960003939,85.61755960003939,85.61755960003939,85.61755960003939,85.61755960003939,85.61755960003939,23,0,,,85.61755960003939,85.817788400047,6.1,85.817788400047,1,6.1,1,1,1000,num_4,0.6583073000074364,,23,11,2026-03-04_14h15.24.254,2026A_exp2,2022.2.4,59.93762889594968,
1000,1,0.0,3.7,1,0,13,13,80,,,,,86.50203260005219,87.15248740004608,87.15248740004608,87.63688400003593,45,315,87.63688400003593,87.63688400003593,87.63688400003593,87.63688400003593,87.63688400003593,87.63688400003593,87.63688400003593,87.63688400003593,87.63688400003593,88.00343959999736,88.00343959999736,88.00343959999736,88.00343959999736,88.00343959999736,88.00343959999736,88.00343959999736,88.00343959999736,88.00343959999736,4,2,"[0.05019380000885576, 0.2669904000358656]","[0.25007840001489967, 0.3671845000353642]",88.00343959999736,88.20539450005163,1000,88.20539450005163,1000,1000,1000,1000,1,num_2,1.014727000030689,,23,11,2026-03-04_14h15.24.254,2026A_exp2,2022.2.4,59.93762889594968,
1,0,6.1,0.0,1,0,14,14,13,,,,,89.23782780003967,89.88850800000364,89.88850800000364,90.3896341000218,315,315,90.3896341000218,90.3896341000218,90.3896341000218,90.3896341000218,90.3896341000218,90.3896341000218,90.3896341000218,90.3896341000218,90.3896341000218,90.75618830003077,90.75618830003077,90.75618830003077,90.75618830003077,90.75618830003077,90.75618830003077,90.75618830003077,90.75618830003077,90.75618830003077,15,1,[0.22326260001864284],[0.3517658999771811],90.75618830003077,90.95918130001519,0.0,90.95918130001519,0,0.0,0,1,1000,num_1,0.8850759000051767,,23,11,2026-03-04_14h15.24.254,2026A_exp2,2022.2.4,59.93762889594968,
1,0,4.9,0.0,0,0,15,15,48,,,,,91.87420530000236,92.50789730000542,92.50789730000542,93.00884890003363,45,315,93.00884890003363,93.00884890003363,93.00884890003363,93.00884890003363,93.00884890003363,93.00884890003363,93.00884890003363,93.00884890003363,93.00884890003363,93.37522240000544,93.37522240000544,93.37522240000544,93.37522240000544,93.37522240000544,93.37522240000544,93.37522240000544,93.37522240000544,93.37522240000544,18,3,"[0.016875000030267984, 0.16670080000767484, 0.21656889998121187]","[0.04999939998378977, 0.18333279999205843, 0.2500403000158258]",93.37522240000544,93.57549130002735,4.9,93.57549130002735,1,4.9,1,1,1000,num_4,0.6771198000060394,,23,11,2026-03-04_14h15.24.254,2026A_exp2,2022.2.4,59.93762889594968,
1000,1,4.9,6.1,1,0,16,16,1,,,,,94.27629250002792,94.92703570000594,94.92703570000594,95.41134310001507,45,315,95.41134310001507,95.41134310001507,95.41134310001507,95.41134310001507,95.41134310001507,95.41134310001507,95.41134310001507,95.41134310001507,95.41134310001507,95.77797870000359,95.77797870000359,95.77797870000359,95.77797870000359,95.77797870000359,95.77797870000359,95.77797870000359,95.77797870000359,95.77797870000359,14,1,[0.11699530004989356],[0.2669037000159733],95.77797870000359,95.99404200003482,1000,95.99404200003482,1000,1000,1000,1000,1,num_2,0.46609210001770407,,23,11,2026-03-04_14h15.24.254,2026A_exp2,2022.2.4,59.93762889594968,
1,0,0.0,0.0,1,0,17,17,18,,,,,96.47854890004965,97.12908020004397,97.12908020004397,97.6302035000408,315,315,97.6302035000408,97.6302035000408,97.6302035000408,97.6302035000408,97.6302035000408,97.6302035000408,97.6302035000408,97.6302035000408,97.6302035000408,97.99699840001995,97.99699840001995,97.99699840001995,97.99699840001995,97.99699840001995,97.99699840001995,97.99699840001995,97.99699840001995,97.99699840001995,1,2,"[0.0012008000048808753, 0.03347929997835308]","[0.017324800021015108, 0.3673203000216745]",97.99699840001995,98.19689650001237,0.0,98.19689650001237,0,0.0,0,1,1000,num_1,0.7276960000162944,,23,11,2026-03-04_14h15.24.254,2026A_exp2,2022.2.4,59.93762889594968,
1000,1,3.7,3.7,1,0,18,18,40,,,,,98.94904630002566,99.59835360001307,99.59835360001307,100.09947370004375,315,45,100.09947370004375,100.09947370004375,100.09947370004375,100.09947370004375,100.09947370004375,100.09947370004375,100.09947370004375,100.09947370004375,100.09947370004375,100.465811400034,100.465811400034,100.465811400034,100.465811400034,100.465811400034,100.465811400034,100.465811400034,100.465811400034,100.465811400034,19,1,[0.0011814000317826867],[0.06683929997961968],100.465811400034,100.66791870002635,1000,100.66791870002635,1000,1000,1000,1000,1,num_2,1.2722126999869943,,23,11,2026-03-04_14h15.24.254,2026A_exp2,2022.2.4,59.93762889594968,
1,0,0.0,4.9,1,0,19,19,45,,,,,101.96732890000567,102.6180307000177,102.6180307000177,103.11658840003656,45,315,103.11658840003656,103.11658840003656,103.11658840003656,103.11658840003656,103.11658840003656,103.11658840003656,103.11658840003656,103.11658840003656,103.11658840003656,103.4688768000342,103.4688768000342,103.4688768000342,103.4688768000342,103.4688768000342,103.4688768000342,103.4688768000342,103.4688768000342,103.4688768000342,0,1,[0.004258000000845641],[0.3644594000070356],103.4688768000342,103.66896730003646,4.9,103.66896730003646,1,4.9,1,1,1000,num_4,0.5603194999857806,,23,11,2026-03-04_14h15.24.254,2026A_exp2,2022.2.4,59.93762889594968,
1000,1,0.0,4.9,0,0,20,20,11,,,,,104.25294540001778,104.90351570001803,104.90351570001803,105.39325480000116,315,315,105.39325480000116,105.39325480000116,105.39325480000116,105.39325480000116,105.39325480000116,105.39325480000116,105.39325480000116,105.39325480000116,105.39325480000116,105.75461120001273,105.75461120001273,105.75461120001273,105.75461120001273,105.75461120001273,105.75461120001273,105.75461120001273,105.75461120001273,105.75461120001273,7,2,"[0.002524400013498962, 0.2502544999588281]","[0.23363189998781309, 0.2836113999946974]",105.75461120001273,105.95680360001279,1000,105.95680360001279,1000,1000,1000,1000,1,num_2,0.4470094999996945,,23,11,2026-03-04_14h15.24.254,2026A_exp2,2022.2.4,59.93762889594968,
0,0,0.0,4.9,1,0,21,21,56,,,,,106.42170790000819,107.07253880001372,107.07253880001372,107.57354780001333,45,315,107.57354780001333,107.57354780001333,107.57354780001333,107.57354780001333,107.57354780001333,107.57354780001333,107.57354780001333,107.57354780001333,107.57354780001333,107.9399900000426,107.9399900000426,107.9399900000426,107.9399900000426,107.9399900000426,107.9399900000426,107.9399900000426,107.9399900000426,107.9399900000426,23,0,,,107.9399900000426,108.14003740000771,0.0,108.14003740000771,0,0.0,0,1,1000,num_1,1.079859799996484,,23,11,2026-03-04_14h15.24.254,2026A_exp2,2022.2.4,59.93762889594968,
1,0,3.7,4.9,1,0,22,22,39,,,,,109.24111270002322,109.89182660001097,109.89182660001097,110.37621720001334,45,315,110.37621720001334,110.37621720001334,110.37621720001334,110.37621720001334,110.37621720001334,110.37621720001334,110.37621720001334,110.37621720001334,110.37621720001334,110.74269870005082,110.74269870005082,110.74269870005082,110.74269870005082,110.74269870005082,110.74269870005082,110.74269870005082,110.74269870005082,110.74269870005082,23,0,,,110.74269870005082,110.94303790002596,4.9,110.94303790002596,1,4.9,1,1,1000,num_4,0.5249358000000939,,23,11,2026-03-04_14h15.24.254,2026A_exp2,2022.2.4,59.93762889594968,
1000,1,4.9,4.9,0,0,23,23,31,,,,,111.49355790001573,112.14422519999789,112.14422519999789,112.62847300001886,45,45,112.62847300001886,112.62847300001886,112.62847300001886,112.62847300001886,112.62847300001886,112.62847300001886,112.62847300001886,112.62847300001886,112.62847300001886,112.99498310004128,112.99498310004128,112.99498310004128,112.99498310004128,112.99498310004128,112.99498310004128,112.99498310004128,112.99498310004128,112.99498310004128,23,0,,,112.99498310004128,113.19680610002251,1000,113.19680610002251,1000,1000,1000,1000,0,num_3,0.5433552000322379,,23,11,2026-03-04_14h15.24.254,2026A_exp2,2022.2.4,59.93762889594968,
1,0,0.0,0.0,1,0,24,24,73,,,,,113.76233290001983,114.41300430003321,114.41300430003321,114.91429370001424,315,315,114.91429370001424,114.91429370001424,114.91429370001424,114.91429370001424,114.91429370001424,114.91429370001424,114.91429370001424,114.91429370001424,114.91429370001424,115.28069240000332,115.28069240000332,115.28069240000332,115.28069240000332,115.28069240000332,115.28069240000332,115.28069240000332,115.28069240000332,115.28069240000332,23,0,,,115.28069240000332,115.48049100005301,0.0,115.48049100005301,0,0.0,0,1,1000,num_1,0.619631199981086,,23,11,2026-03-04_14h15.24.254,2026A_exp2,2022.2.4,59.93762889594968,
1,0,0.0,0.0,0,0,25,25,59,,,,,116.13149320002412,116.78214150003623,116.78214150003623,117.2666224000277,45,315,117.2666224000277,117.2666224000277,117.2666224000277,117.2666224000277,117.2666224000277,117.2666224000277,117.2666224000277,117.2666224000277,117.2666224000277,117.63307480001822,117.63307480001822,117.63307480001822,117.63307480001822,117.63307480001822,117.63307480001822,117.63307480001822,117.63307480001822,117.63307480001822,23,0,,,117.63307480001822,117.83319269999629,0.0,117.83319269999629,0,0.0,0,1,1000,num_1,1.2187587000080384,,23,11,2026-03-04_14h15.24.254,2026A_exp2,2022.2.4,59.93762889594968,
1000,1,0.0,4.9,1,0,26,26,51,,,,,119.08451460005017,119.7184372000047,119.7184372000047,120.21947010001168,315,45,120.21947010001168,120.21947010001168,120.21947010001168,120.21947010001168,120.21947010001168,120.21947010001168,120.21947010001168,120.21947010001168,120.21947010001168,120.58606340002734,120.58606340002734,120.58606340002734,120.58606340002734,120.58606340002734,120.58606340002734,120.58606340002734,120.58606340002734,120.58606340002734,23,0,,,120.58606340002734,120.78803680004785,1000,120.78803680004785,1000,1000,1000,1000,1,num_2,0.44850399997085333,,23,11,2026-03-04_14h15.24.254,2026A_exp2,2022.2.4,59.93762889594968,
1,0,0.0,0.0,1,0,27,27,41,,,,,121.25322780001443,121.90391049999744,121.90391049999744,122.4051098000491,45,315,122.4051098000491,122.4051098000491,122.4051098000491,122.4051098000491,122.4051098000491,122.4051098000491,122.4051098000491,122.4051098000491,122.4051098000491,122.77140050003072,122.77140050003072,122.77140050003072,122.77140050003072,122.77140050003072,122.77140050003072,122.77140050003072,122.77140050003072,122.77140050003072,16,4,"[0.0013501000357791781, 0.05012920004082844, 0.08342480001738295, 0.3337453000131063]","[0.03359550004824996, 0.06691650004358962, 0.10029660002328455, 0.3671107000554912]",122.77140050003072,122.9715616000467,0.0,122.9715616000467,1,0.0,0,0,1000,num_4,0.5605425999965519,,23,11,2026-03-04_14h15.24.254,2026A_exp2,2022.2.4,59.93762889594968,
1000,1,0.0,0.0,1,0,28,28,23,,,,,123.55565430002753,124.18960150005296,124.18960150005296,124.69065560004674,45,315,124.69065560004674,124.69065560004674,124.69065560004674,124.69065560004674,124.69065560004674,124.69065560004674,124.69065560004674,124.69065560004674,124.69065560004674,125.05705030000536,125.05705030000536,125.05705030000536,125.05705030000536,125.05705030000536,125.05705030000536,125.05705030000536,125.05705030000536,125.05705030000536,23,0,,,125.05705030000536,125.2589346000459,1000,125.2589346000459,1000,1000,1000,1000,1,num_2,0.593225899967365,,23,11,2026-03-04_14h15.24.254,2026A_exp2,2022.2.4,59.93762889594968,
1000,1,6.1,4.9,1,0,29,29,16,,,,,125.87458160001552,126.52515660005156,126.52515660005156,127.02615950000472,45,315,127.02615950000472,127.02615950000472,127.02615950000472,127.02615950000472,127.02615950000472,127.02615950000472,127.02615950000472,127.02615950000472,127.02615950000472,127.37605610000901,127.37605610000901,127.37605610000901,127.37605610000901,127.37605610000901,127.37605610000901,127.37605610000901,127.37605610000901,127.37605610000901,22,0,,,127.37605610000901,127.6000561999972,1000,127.6000561999972,1000,1000,1000,1000,0,num_3,0.3400394000345841,,23,11,2026-03-04_14h15.24.254,2026A_exp2,2022.2.4,59.93762889594968,
1000,1,0.0,0.0,1,0,30,30,14,,,,,127.96000469999854,128.61052690003999,128.61052690003999,129.11198960000183,315,315,129.11198960000183,129.11198960000183,129.11198960000183,129.11198960000183,129.11198960000183,129.11198960000183,129.11198960000183,129.11198960000183,129.11198960000183,129.47811840003124,129.47811840003124,129.47811840003124,129.47811840003124,129.47811840003124,129.47811840003124,129.47811840003124,129.47811840003124,129.47811840003124,23,0,,,129.47811840003124,129.68040400004247,1000,129.68040400004247,1000,1000,1000,1000,1,num_2,0.9557290999800898,,23,11,2026-03-04_14h15.24.254,2026A_exp2,2022.2.4,59.93762889594968,
1000,1,4.9,3.7,1,0,31,31,67,,,,,130.66280000004917,131.31345610000426,131.31345610000426,131.81425760005368,315,315,131.81425760005368,131.81425760005368,131.81425760005368,131.81425760005368,131.81425760005368,131.81425760005368,131.81425760005368,131.81425760005368,131.81425760005368,132.18090150004718,132.18090150004718,132.18090150004718,132.18090150004718,132.18090150004718,132.18090150004718,132.18090150004718,132.18090150004718,132.18090150004718,11,1,[0.001218699966557324],[0.2005312999826856],132.18090150004718,132.3827344000456,1000,132.3827344000456,1000,1000,1000,1000,1,num_2,0.613255099975504,,23,11,2026-03-04_14h15.24.254,2026A_exp2,2022.2.4,59.93762889594968,
1,0,0.0,3.7,1,0,32,32,57,,,,,133.01502750004875,133.6657939000288,133.6657939000288,134.16690240002936,315,45,134.16690240002936,134.16690240002936,134.16690240002936,134.16690240002936,134.16690240002936,134.16690240002936,134.16690240002936,134.16690240002936,134.16690240002936,134.53340890002437,134.53340890002437,134.53340890002437,134.53340890002437,134.53340890002437,134.53340890002437,134.53340890002437,134.53340890002437,134.53340890002437,23,0,,,134.53340890002437,134.73346180003136,3.7,134.73346180003136,1,3.7,1,1,1000,num_4,0.5755928000435233,,23,11,2026-03-04_14h15.24.254,2026A_exp2,2022.2.4,59.93762889594968,
1000,1,0.0,0.0,1,0,33,33,7,,,,,135.33386500005145,135.98449980001897,135.98449980001897,136.46918060001917,315,315,136.46918060001917,136.46918060001917,136.46918060001917,136.46918060001917,136.46918060001917,136.46918060001917,136.46918060001917,136.46918060001917,136.46918060001917,136.83555940003134,136.83555940003134,136.83555940003134,136.83555940003134,136.83555940003134,136.83555940003134,136.83555940003134,136.83555940003134,136.83555940003134,23,0,,,136.83555940003134,137.03762410004856,1000,137.03762410004856,1000,1000,1000,1000,0,num_3,0.35067169996909797,,23,11,2026-03-04_14h15.24.254,2026A_exp2,2022.2.4,59.93762889594968,
1000,1,4.9,0.0,1,0,34,34,72,,,,,137.41951720003271,138.07031700003427,138.07031700003427,138.57124980003573,315,45,138.57124980003573,138.57124980003573,138.57124980003573,138.57124980003573,138.57124980003573,138.57124980003573,138.57124980003573,138.57124980003573,138.57124980003573,138.92097269999795,138.92097269999795,138.92097269999795,138.92097269999795,138.92097269999795,138.92097269999795,138.92097269999795,138.92097269999795,138.92097269999795,22,0,,,138.92097269999795,139.12302110000746,1000,139.1377885999973,1000,1000,1000,1000,0,num_3,0.43485489999875426,,23,11,2026-03-04_14h15.24.254,2026A_exp2,2022.2.4,59.93762889594968,
1000,1,3.7,0.0,1,0,35,35,55,,,,,139.58828530000756,140.2389503000304,140.2389503000304,140.73992190003628,315,45,140.73992190003628,140.73992190003628,140.73992190003628,140.73992190003628,140.73992190003628,140.73992190003628,140.73992190003628,140.73992190003628,140.73992190003628,141.10643220000202,141.10643220000202,141.10643220000202,141.10643220000202,141.10643220000202,141.10643220000202,141.10643220000202,141.10643220000202,141.10643220000202,11,3,"[0.0010284000309184194, 0.11699940002290532, 0.36707310000201687]","[0.06674119998933747, 0.2505308000254445, 0.3670786000438966]",141.10643220000202,141.30852820002474,1000,141.30852820002474,1000,1000,1000,1000,0,num_3,0.4875082999933511,,23,11,2026-03-04_14h15.24.254,2026A_exp2,2022.2.4,59.93762889594968,
1000,1,6.1,4.9,1,0,36,36,53,,,,,141.82389160001185,142.47436190000735,142.47436190000735,142.9756883000373,45,45,142.9756883000373,142.9756883000373,142.9756883000373,142.9756883000373,142.9756883000373,142.9756883000373,142.9756883000373,142.9756883000373,142.9756883000373,143.3420546000125,143.3420546000125,143.3420546000125,143.3420546000125,143.3420546000125,143.3420546000125,143.3420546000125,143.3420546000125,143.3420546000125,23,0,,,143.3420546000125,143.54410530003952,1000,143.54410530003952,1000,1000,1000,1000,0,num_3,0.38067569996928796,,23,11,2026-03-04_14h15.24.254,2026A_exp2,2022.2.4,59.93762889594968,
1000,1,6.1,3.7,0,0,37,37,87,,,,,143.94264030002523,144.59341230004793,144.59341230004793,145.09458170004655,315,315,145.09458170004655,145.09458170004655,145.09458170004655,145.09458170004655,145.09458170004655,145.09458170004655,145.09458170004655,145.09458170004655,145.09458170004655,145.46080240001902,145.46080240001902,145.46080240001902,145.46080240001902,145.46080240001902,145.46080240001902,145.46080240001902,145.46080240001902,145.46080240001902,23,0,,,145.46080240001902,145.66259490000084,1000,145.66259490000084,1000,1000,1000,1000,0,num_3,0.3738514999859035,,23,11,2026-03-04_14h15.24.254,2026A_exp2,2022.2.4,59.93762889594968,
1,0,0.0,0.0,0,0,38,38,81,,,,,146.06141460000072,146.71196210000198,146.71196210000198,147.21319870004663,45,45,147.21319870004663,147.21319870004663,147.21319870004663,147.21319870004663,147.21319870004663,147.21319870004663,147.21319870004663,147.21319870004663,147.21319870004663,147.56295240001054,147.56295240001054,147.56295240001054,147.56295240001054,147.56295240001054,147.56295240001054,147.56295240001054,147.56295240001054,147.56295240001054,22,0,,,147.56295240001054,147.76319500000682,0.0,147.77982510003494,1,0.0,0,0,1000,num_4,0.656139400030952,,23,11,2026-03-04_14h15.24.254,2026A_exp2,2022.2.4,59.93762889594968,
1,0,4.9,0.0,1,0,39,39,84,,,,,148.46362730005058,149.09788930002833,149.09788930002833,149.59883990004892,315,45,149.59883990004892,149.59883990004892,149.59883990004892,149.59883990004892,149.59883990004892,149.59883990004892,149.59883990004892,149.59883990004892,149.59883990004892,149.96520630002487,149.96520630002487,149.96520630002487,149.96520630002487,149.96520630002487,149.96520630002487,149.96520630002487,149.96520630002487,149.96520630002487,23,0,,,149.96520630002487,150.16563380003208,0.0,150.16563380003208,0,0.0,0,1,1000,num_1,0.606794599967543,,23,11,2026-03-04_14h15.24.254,2026A_exp2,2022.2.4,59.93762889594968,
1,0,0.0,0.0,0,0,40,40,38,,,,,150.79945910000242,151.4501220000093,151.4501220000093,151.95096450002166,45,45,151.95096450002166,151.95096450002166,151.95096450002166,151.95096450002166,151.95096450002166,151.95096450002166,151.95096450002166,151.95096450002166,151.95096450002166,152.3008291000151,152.3008291000151,152.3008291000151,152.3008291000151,152.3008291000151,152.3008291000151,152.3008291000151,152.3008291000151,152.3008291000151,22,0,,,152.3008291000151,152.50126680004178,0.0,152.50126680004178,1,0.0,0,0,1000,num_4,0.7746953000314534,,23,11,2026-03-04_14h15.24.254,2026A_exp2,2022.2.4,59.93762889594968,
1000,1,0.0,4.9,1,0,41,41,27,,,,,153.30195490003098,153.95258900005138,153.95258900005138,154.43713410000782,315,45,154.43713410000782,154.43713410000782,154.43713410000782,154.43713410000782,154.43713410000782,154.43713410000782,154.43713410000782,154.43713410000782,154.43713410000782,154.8035147000337,154.8035147000337,154.8035147000337,154.8035147000337,154.8035147000337,154.8035147000337,154.8035147000337,154.8035147000337,154.8035147000337,23,0,,,154.8035147000337,155.0056307000341,1000,155.0056307000341,1000,1000,1000,1000,1,num_2,0.3912618000176735,,23,11,2026-03-04_14h15.24.254,2026A_exp2,2022.2.4,59.93762889594968,
1000,1,0.0,0.0,1,0,42,42,29,,,,,155.4207948000403,156.07141950004734,156.07141950004734,156.57268380001187,45,315,156.57268380001187,156.57268380001187,156.57268380001187,156.57268380001187,156.57268380001187,156.57268380001187,156.57268380001187,156.57268380001187,156.57268380001187,156.9390485000331,156.9390485000331,156.9390485000331,156.9390485000331,156.9390485000331,156.9390485000331,156.9390485000331,156.9390485000331,156.9390485000331,23,0,,,156.9390485000331,157.14136260002851,1000,157.14136260002851,1000,1000,1000,1000,1,num_2,0.4953168999636546,,23,11,2026-03-04_14h15.24.254,2026A_exp2,2022.2.4,59.93762889594968,
1000,1,0.0,0.0,0,0,43,43,69,,,,,157.6565214000293,158.307070400042,158.307070400042,158.8080745000043,45,45,158.8080745000043,158.8080745000043,158.8080745000043,158.8080745000043,158.8080745000043,158.8080745000043,158.8080745000043,158.8080745000043,158.8080745000043,159.17445540003246,159.17445540003246,159.17445540003246,159.17445540003246,159.17445540003246,159.17445540003246,159.17445540003246,159.17445540003246,159.17445540003246,12,1,[0.20030849997419864],[0.3670084999757819],159.17445540003246,159.37660400004825,1000,159.37660400004825,1000,1000,1000,1000,1,num_2,1.6517359999706969,,23,11,2026-03-04_14h15.24.254,2026A_exp2,2022.2.4,59.93762889594968,
1000,1,6.1,0.0,1,0,44,44,60,,,,,161.0598416000139,161.7103911000304,161.7103911000304,162.21151020005345,315,45,162.21151020005345,162.21151020005345,162.21151020005345,162.21151020005345,162.21151020005345,162.21151020005345,162.21151020005345,162.21151020005345,162.21151020005345,162.57786130002933,162.57786130002933,162.57786130002933,162.57786130002933,162.57786130002933,162.57786130002933,162.57786130002933,162.57786130002933,162.57786130002933,18,2,"[0.10031060001347214, 0.33382240001810715]","[0.1335833999910392, 0.3670507000060752]",162.57786130002933,162.77996770001482,1000,162.77996770001482,1000,1000,1000,1000,0,num_3,0.41631579998647794,,23,11,2026-03-04_14h15.24.254,2026A_exp2,2022.2.4,59.93762889594968,
1,0,0.0,4.9,0,0,45,45,85,,,,,163.21196530002635,163.86265650001587,163.86265650001587,164.36405090003973,45,45,164.36405090003973,164.36405090003973,164.36405090003973,164.36405090003973,164.36405090003973,164.36405090003973,164.36405090003973,164.36405090003973,164.36405090003973,164.7301350000198,164.7301350000198,164.7301350000198,164.7301350000198,164.7301350000198,164.7301350000198,164.7301350000198,164.7301350000198,164.7301350000198,11,4,"[0.06679139996413141, 0.2495886999531649, 0.3330546999932267, 0.3665426999796182]","[0.23302289994899184, 0.2664095999789424, 0.34973379998700693, 0.366547699959483]",164.7301350000198,164.9303563000285,0.0,164.9303563000285,1,0.0,0,0,1000,num_4,0.6654500999720767,,23,11,2026-03-04_14h15.24.254,2026A_exp2,2022.2.4,59.93762889594968,
1000,1,0.0,3.7,0,0,46,46,44,,,,,165.61449930001982,166.26499120000517,166.26499120000517,166.74945920001483,45,315,166.74945920001483,166.74945920001483,166.74945920001483,166.74945920001483,166.74945920001483,166.74945920001483,166.74945920001483,166.74945920001483,166.74945920001483,167.11574480001582,167.11574480001582,167.11574480001582,167.11574480001582,167.11574480001582,167.11574480001582,167.11574480001582,167.11574480001582,167.11574480001582,23,0,,,167.11574480001582,167.3178699000273,1000,167.3178699000273,1000,1000,1000,1000,0,num_3,0.49481360003119335,,23,11,2026-03-04_14h15.24.254,2026A_exp2,2022.2.4,59.93762889594968,
1000,1,4.9,0.0,0,0,47,47,58,,,,,167.83320730004925,168.4837618000456,168.4837618000456,168.9849555999972,45,45,168.9849555999972,168.9849555999972,168.9849555999972,168.9849555999972,168.9849555999972,168.9849555999972,168.9849555999972,168.9849555999972,168.9849555999972,169.33468990004621,169.33468990004621,169.33468990004621,169.33468990004621,169.33468990004621,169.33468990004621,169.33468990004621,169.33468990004621,169.33468990004621,6,4,"[0.0012193000293336809, 0.23393159999977797, 0.2670026000123471, 0.3170454000355676]","[0.1838592000422068, 0.25036510004429147, 0.28364420001162216, 0.3507210000534542]",169.33468990004621,169.53675300005125,1000,169.55162980000023,1000,1000,1000,1000,0,num_3,0.4050584000069648,,23,11,2026-03-04_14h15.24.254,2026A_exp2,2022.2.4,59.93762889594968,
1,0,3.7,0.0,1,0,48,48,74,,,,,169.98552899999777,170.63601650000783,170.63601650000783,171.13715820002835,315,45,171.13715820002835,171.13715820002835,171.13715820002835,171.13715820002835,171.13715820002835,171.13715820002835,171.13715820002835,171.13715820002835,171.13715820002835,171.50350270001218,171.50350270001218,171.50350270001218,171.50350270001218,171.50350270001218,171.50350270001218,171.50350270001218,171.50350270001218,171.50350270001218,22,1,[0.1669592999969609],[0.18357540003489703],171.50350270001218,171.70371840003645,0.0,171.70371840003645,1,0.0,0,0,1000,num_4,0.6364005000214092,,23,11,2026-03-04_14h15.24.254,2026A_exp2,2022.2.4,59.93762889594968,
1,0,4.9,6.1,1,0,49,49,86,,,,,172.37104420003016,173.0215475000441,173.0215475000441,173.5060648000217,315,45,173.5060648000217,173.5060648000217,173.5060648000217,173.5060648000217,173.5060648000217,173.5060648000217,173.5060648000217,173.5060648000217,173.5060648000217,173.87250450003194,173.87250450003194,173.87250450003194,173.87250450003194,173.87250450003194,173.87250450003194,173.87250450003194,173.87250450003194,173.87250450003194,23,0,,,173.87250450003194,174.07274200004758,6.1,174.07274200004758,1,6.1,1,1,1000,num_4,0.5875451000174507,,23,11,2026-03-04_14h15.24.254,2026A_exp2,2022.2.4,59.93762889594968,
0,0,0.0,3.7,1,0,50,50,21,,,,,174.69002430001274,175.34079420001945,175.34079420001945,175.82541370001854,45,45,175.82541370001854,175.82541370001854,175.82541370001854,175.82541370001854,175.82541370001854,175.82541370001854,175.82541370001854,175.82541370001854,175.82541370001854,176.19157180003822,176.19157180003822,176.19157180003822,176.19157180003822,176.19157180003822,176.19157180003822,176.19157180003822,176.19157180003822,176.19157180003822,23,0,,,176.19157180003822,176.3917844000389,0.0,176.3917844000389,0,0.0,0,1,1000,num_1,0.8522228000219911,,23,11,2026-03-04_14h15.24.254,2026A_exp2,2022.2.4,59.93762889594968,
0,0,3.7,0.0,1,0,51,51,83,,,,,177.27598450001096,177.92686669999966,177.92686669999966,178.41111860005185,45,45,178.41111860005185,178.41111860005185,178.41111860005185,178.41111860005185,178.41111860005185,178.41111860005185,178.41111860005185,178.41111860005185,178.41111860005185,178.7775651999982,178.7775651999982,178.7775651999982,178.7775651999982,178.7775651999982,178.7775651999982,178.7775651999982,178.7775651999982,178.7775651999982,0,1,[0.0012472000089474022],[0.36729989998275414],178.7775651999982,178.97764880000614,3.7,178.97764880000614,1,3.7,1,1,1000,num_4,0.8345249000121839,,23,11,2026-03-04_14h15.24.254,2026A_exp2,2022.2.4,59.93762889594968,
1000,1,0.0,6.1,0,0,52,52,34,,,,,179.8285359000438,180.47916460002307,180.47916460002307,180.96365590003552,315,45,180.96365590003552,180.96365590003552,180.96365590003552,180.96365590003552,180.96365590003552,180.96365590003552,180.96365590003552,180.96365590003552,180.96365590003552,181.32987150002737,181.32987150002737,181.32987150002737,181.32987150002737,181.32987150002737,181.32987150002737,181.32987150002737,181.32987150002737,181.32987150002737,23,0,,,181.32987150002737,181.5319985000533,1000,181.5319985000533,1000,1000,1000,1000,1,num_2,0.5848404000280425,,23,11,2026-03-04_14h15.24.254,2026A_exp2,2022.2.4,59.93762889594968,
1000,1,6.1,3.7,1,0,53,53,0,,,,,182.14742960000876,182.79813040001318,182.79813040001318,183.2993148000096,45,315,183.2993148000096,183.2993148000096,183.2993148000096,183.2993148000096,183.2993148000096,183.2993148000096,183.2993148000096,183.2993148000096,183.2993148000096,183.6656806000392,183.6656806000392,183.6656806000392,183.6656806000392,183.6656806000392,183.6656806000392,183.6656806000392,183.6656806000392,183.6656806000392,0,1,[0.001215199998114258],[0.3672832999727689],183.6656806000392,183.86763440002687,1000,183.86763440002687,1000,1000,1000,1000,0,num_3,0.344993999984581,,23,11,2026-03-04_14h15.24.254,2026A_exp2,2022.2.4,59.93762889594968,
1000,1,0.0,0.0,0,0,54,54,65,,,,,184.2329489000258,184.88356060005026,184.88356060005026,185.3845589000266,315,315,185.3845589000266,185.3845589000266,185.3845589000266,185.3845589000266,185.3845589000266,185.3845589000266,185.3845589000266,185.3845589000266,185.3845589000266,185.75108440004988,185.75108440004988,185.75108440004988,185.75108440004988,185.75108440004988,185.75108440004988,185.75108440004988,185.75108440004988,185.75108440004988,0,1,[0.0012144999927841127],[0.3672952000051737],185.75108440004988,185.95335780002642,1000,185.95335780002642,1000,1000,1000,1000,0,num_3,0.49847769999178126,,23,11,2026-03-04_14h15.24.254,2026A_exp2,2022.2.4,59.93762889594968,
1,0,0.0,0.0,1,0,55,55,66,,,,,186.46855460002553,187.11908790003508,187.11908790003508,187.6202537000063,315,45,187.6202537000063,187.6202537000063,187.6202537000063,187.6202537000063,187.6202537000063,187.6202537000063,187.6202537000063,187.6202537000063,187.6202537000063,187.98674220003886,187.98674220003886,187.98674220003886,187.98674220003886,187.98674220003886,187.98674220003886,187.98674220003886,187.98674220003886,187.98674220003886,3,2,"[0.0006633999873884022, 0.2835793000413105]","[0.26657939999131486, 0.35078450001310557]",187.98674220003886,188.18694030004553,0.0,188.18694030004553,1,0.0,0,0,1000,num_4,0.769100800040178,,23,11,2026-03-04_14h15.24.254,2026A_exp2,2022.2.4,59.93762889594968,
1000,1,6.1,0.0,0,0,56,56,19,,,,,188.98775070003467,189.6226966000395,189.6226966000395,190.12277140002698,45,45,190.12277140002698,190.12277140002698,190.12277140002698,190.12277140002698,190.12277140002698,190.12277140002698,190.12277140002698,190.12277140002698,190.12277140002698,190.48920140002156,190.48920140002156,190.48920140002156,190.48920140002156,190.48920140002156,190.48920140002156,190.48920140002156,190.48920140002156,190.48920140002156,23,0,,,190.48920140002156,190.6911209000391,1000,190.6911209000391,1000,1000,1000,1000,0,num_3,0.26518400001805276,,23,11,2026-03-04_14h15.24.254,2026A_exp2,2022.2.4,59.93762889594968,
1,0,0.0,3.7,0,0,57,57,78,,,,,190.97298830002546,191.62362030002987,191.62362030002987,192.13770479999948,315,45,192.13770479999948,192.13770479999948,192.13770479999948,192.13770479999948,192.13770479999948,192.13770479999948,192.13770479999948,192.13770479999948,192.13770479999948,192.49123590003,192.49123590003,192.49123590003,192.49123590003,192.49123590003,192.49123590003,192.49123590003,192.49123590003,192.49123590003,0,1,[0.004314300022087991],[0.36420960002578795],192.49123590003,192.69118800002616,0.0,192.69118800002616,1,0.0,0,0,1000,num_4,0.6814883000333793,,23,11,2026-03-04_14h15.24.254,2026A_exp2,2022.2.4,59.93762889594968,
1,0,0.0,4.9,0,0,58,58,71,,,,,193.3920382000506,194.02607260004152,194.02607260004152,194.5269981000456,315,45,194.5269981000456,194.5269981000456,194.5269981000456,194.5269981000456,194.5269981000456,194.5269981000456,194.5269981000456,194.5269981000456,194.5269981000456,194.89356740005314,194.89356740005314,194.89356740005314,194.89356740005314,194.89356740005314,194.89356740005314,194.89356740005314,194.89356740005314,194.89356740005314,15,2,"[0.03352900000754744, 0.1503489000024274]","[0.1168844000203535, 0.2002164000296034]",194.89356740005314,195.09379700000864,0.0,195.09379700000864,0,0.0,0,1,1000,num_1,0.774565799976699,,23,11,2026-03-04_14h15.24.254,2026A_exp2,2022.2.4,59.93762889594968,
1000,1,4.9,0.0,0,0,59,59,22,,,,,195.8945579000283,196.54529760003788,196.54529760003788,197.02952590002678,45,45,197.02952590002678,197.02952590002678,197.02952590002678,197.02952590002678,197.02952590002678,197.02952590002678,197.02952590002678,197.02952590002678,197.02952590002678,197.39615390001563,197.39615390001563,197.39615390001563,197.39615390001563,197.39615390001563,197.39615390001563,197.39615390001563,197.39615390001563,197.39615390001563,23,0,,,197.39615390001563,197.5978061000351,1000,197.5978061000351,1000,1000,1000,1000,0,num_3,0.3666489999741316,,23,11,2026-03-04_14h15.24.254,2026A_exp2,2022.2.4,59.93762889594968,
1,0,0.0,3.7,0,0,60,60,12,,,,,197.9799552000477,198.63059790001716,198.63059790001716,199.13181370001985,45,315,199.13181370001985,199.13181370001985,199.13181370001985,199.13181370001985,199.13181370001985,199.13181370001985,199.13181370001985,199.13181370001985,199.13181370001985,199.49794720002683,199.49794720002683,199.49794720002683,199.49794720002683,199.49794720002683,199.49794720002683,199.49794720002683,199.49794720002683,199.49794720002683,23,0,,,199.49794720002683,199.698401200003,0.0,199.698401200003,1,0.0,0,0,1000,num_4,0.7464488999685273,,23,11,2026-03-04_14h15.24.254,2026A_exp2,2022.2.4,59.93762889594968,
1,0,0.0,6.1,0,0,61,61,5,,,,,200.4657276000362,201.11631340003805,201.11631340003805,201.60079240001505,45,45,201.60079240001505,201.60079240001505,201.60079240001505,201.60079240001505,201.60079240001505,201.60079240001505,201.60079240001505,201.60079240001505,201.60079240001505,201.9672874000389,201.9672874000389,201.9672874000389,201.9672874000389,201.9672874000389,201.9672874000389,201.9672874000389,201.9672874000389,201.9672874000389,18,4,"[0.13385199999902397, 0.16717139998218045, 0.20075779996113852, 0.33413649996509776]","[0.15053109999280423, 0.18402589997276664, 0.23403779999352992, 0.350902899983339]",201.9672874000389,202.16756760003045,0.0,202.16756760003045,0,0.0,0,1,1000,num_1,1.1733661000034772,,23,11,2026-03-04_14h15.24.254,2026A_exp2,2022.2.4,59.93762889594968,
1,0,6.1,4.9,1,0,62,62,35,,,,,203.3686064000358,204.0194521000376,204.0194521000376,204.5037730000331,45,315,204.5037730000331,204.5037730000331,204.5037730000331,204.5037730000331,204.5037730000331,204.5037730000331,204.5037730000331,204.5037730000331,204.5037730000331,204.87015700002667,204.87015700002667,204.87015700002667,204.87015700002667,204.87015700002667,204.87015700002667,204.87015700002667,204.87015700002667,204.87015700002667,23,0,,,204.87015700002667,205.07050349999918,4.9,205.07050349999918,0,4.9,1,0,1000,num_1,0.7180585999740288,,23,11,2026-03-04_14h15.24.254,2026A_exp2,2022.2.4,59.93762889594968,
1000,1,4.9,0.0,1,0,63,63,25,,,,,205.80449300003238,206.45517910004128,206.45517910004128,206.93938910000725,45,315,206.93938910000725,206.93938910000725,206.93938910000725,206.93938910000725,206.93938910000725,206.93938910000725,206.93938910000725,206.93938910000725,206.93938910000725,207.30600670003332,207.30600670003332,207.30600670003332,207.30600670003332,207.30600670003332,207.30600670003332,207.30600670003332,207.30600670003332,207.30600670003332,0,1,[0.0012765999999828637],[0.36709989997325465],207.30600670003332,207.50782290002098,1000,207.50782290002098,1000,1000,1000,1000,0,num_3,0.42539200000464916,,23,11,2026-03-04_14h15.24.254,2026A_exp2,2022.2.4,59.93762889594968,
1000,1,6.1,3.7,1,0,64,64,10,,,,,207.9564494000515,208.60739000001922,208.60739000001922,209.10835350002162,315,315,209.10835350002162,209.10835350002162,209.10835350002162,209.10835350002162,209.10835350002162,209.10835350002162,209.10835350002162,209.10835350002162,209.10835350002162,209.4749098000466,209.4749098000466,209.4749098000466,209.4749098000466,209.4749098000466,209.4749098000466,209.4749098000466,209.4749098000466,209.4749098000466,0,1,[0.0012424999731592834],[0.36729029996786267],209.4749098000466,209.67674390005413,1000,209.67674390005413,1000,1000,1000,1000,0,num_3,0.3680537000182085,,23,11,2026-03-04_14h15.24.254,2026A_exp2,2022.2.4,59.93762889594968,
1,0,0.0,0.0,0,0,65,65,49,,,,,210.07545590004884,210.72610810003243,210.72610810003243,211.2272758000181,315,315,211.2272758000181,211.2272758000181,211.2272758000181,211.2272758000181,211.2272758000181,211.2272758000181,211.2272758000181,211.2272758000181,211.2272758000181,211.59367920004297,211.59367920004297,211.59367920004297,211.59367920004297,211.59367920004297,211.59367920004297,211.59367920004297,211.59367920004297,211.59367920004297,18,1,[0.001208100002259016],[0.08381250000093132],211.59367920004297,211.79358700005105,0.0,211.79358700005105,1,0.0,0,0,1000,num_4,0.715173100004904,,23,11,2026-03-04_14h15.24.254,2026A_exp2,2022.2.4,59.93762889594968,
0,0,0.0,4.9,0,0,66,66,54,,,,,212.5278110000072,213.17852880002465,213.17852880002465,213.6629385999986,315,45,213.6629385999986,213.6629385999986,213.6629385999986,213.6629385999986,213.6629385999986,213.6629385999986,213.6629385999986,213.6629385999986,213.6629385999986,214.02933170000324,214.02933170000324,214.02933170000324,214.02933170000324,214.02933170000324,214.02933170000324,214.02933170000324,214.02933170000324,214.02933170000324,23,0,,,214.02933170000324,214.2296561000403,4.9,214.2296561000403,1,4.9,1,1,1000,num_4,0.6944688000367023,,23,11,2026-03-04_14h15.24.254,2026A_exp2,2022.2.4,59.93762889594968,
1,0,0.0,4.9,0,0,67,67,17,,,,,214.9469743000227,215.59760060004191,215.59760060004191,216.0986640000483,315,45,216.0986640000483,216.0986640000483,216.0986640000483,216.0986640000483,216.0986640000483,216.0986640000483,216.0986640000483,216.0986640000483,216.0986640000483,216.46510730002774,216.46510730002774,216.46510730002774,216.46510730002774,216.46510730002774,216.46510730002774,216.46510730002774,216.46510730002774,216.46510730002774,23,0,,,216.46510730002774,216.6653538000537,0.0,216.6653538000537,0,0.0,0,1,1000,num_1,0.8439805000089109,,23,11,2026-03-04_14h15.24.254,2026A_exp2,2022.2.4,59.93762889594968,
1,0,0.0,0.0,0,0,68,68,2,,,,,217.53281699999934,218.1835304000415,218.1835304000415,218.66812340001343,45,45,218.66812340001343,218.66812340001343,218.66812340001343,218.66812340001343,218.66812340001343,218.66812340001343,218.66812340001343,218.66812340001343,218.66812340001343,219.0343296000501,219.0343296000501,219.0343296000501,219.0343296000501,219.0343296000501,219.0343296000501,219.0343296000501,219.0343296000501,219.0343296000501,23,0,,,219.0343296000501,219.23446639999747,0.0,219.23446639999747,1,0.0,0,0,1000,num_4,1.6014245999976993,,23,11,2026-03-04_14h15.24.254,2026A_exp2,2022.2.4,59.93762889594968,
1,0,4.9,6.1,1,0,69,69,46,,,,,220.85282990004634,221.50339910003822,221.50339910003822,221.98807230003877,315,45,221.98807230003877,221.98807230003877,221.98807230003877,221.98807230003877,221.98807230003877,221.98807230003877,221.98807230003877,221.98807230003877,221.98807230003877,222.35439390002284,222.35439390002284,222.35439390002284,222.35439390002284,222.35439390002284,222.35439390002284,222.35439390002284,222.35439390002284,222.35439390002284,23,0,,,222.35439390002284,222.55457460001344,6.1,222.55457460001344,1,6.1,1,1,1000,num_4,0.5220189999672584,,23,11,2026-03-04_14h15.24.254,2026A_exp2,2022.2.4,59.93762889594968,
0,0,0.0,0.0,1,0,70,70,8,,,,,223.10503530001733,223.7391105000279,223.7391105000279,224.24013069999637,45,315,224.24013069999637,224.24013069999637,224.24013069999637,224.24013069999637,224.24013069999637,224.24013069999637,224.24013069999637,224.24013069999637,224.24013069999637,224.60667980002472,224.60667980002472,224.60667980002472,224.60667980002472,224.60667980002472,224.60667980002472,224.60667980002472,224.60667980002472,224.60667980002472,23,0,,,224.60667980002472,224.80677030002698,0.0,224.80677030002698,0,0.0,0,1,1000,num_1,2.126516400021501,,23,11,2026-03-04_14h15.24.254,2026A_exp2,2022.2.4,59.93762889594968,
1,0,4.9,0.0,1,0,71,71,4,,,,,226.95910190005088,227.60962010000367,227.60962010000367,228.09424930001842,45,45,228.09424930001842,228.09424930001842,228.09424930001842,228.09424930001842,228.09424930001842,228.09424930001842,228.09424930001842,228.09424930001842,228.09424930001842,228.46043100004317,228.46043100004317,228.46043100004317,228.46043100004317,228.46043100004317,228.46043100004317,228.46043100004317,228.46043100004317,228.46043100004317,23,0,,,228.46043100004317,228.66062090004561,0.0,228.66062090004561,0,0.0,0,1,1000,num_1,0.7356464000185952,,23,11,2026-03-04_14h15.24.254,2026A_exp2,2022.2.4,59.93762889594968,
1000,1,4.9,4.9,0,0,72,72,42,,,,,229.42794970003888,230.06215890002204,230.06215890002204,230.5633429000154,315,45,230.5633429000154,230.5633429000154,230.5633429000154,230.5633429000154,230.5633429000154,230.5633429000154,230.5633429000154,230.5633429000154,230.5633429000154,230.92963090003468,230.92963090003468,230.92963090003468,230.92963090003468,230.92963090003468,230.92963090003468,230.92963090003468,230.92963090003468,230.92963090003468,23,0,,,230.92963090003468,231.13172230002237,1000,231.13172230002237,1000,1000,1000,1000,1,num_2,0.7846673000021838,,23,11,2026-03-04_14h15.24.254,2026A_exp2,2022.2.4,59.93762889594968,
0,0,0.0,0.0,1,0,73,73,62,,,,,231.94722290005302,232.59801810001954,232.59801810001954,233.08240620000288,45,45,233.08240620000288,233.08240620000288,233.08240620000288,233.08240620000288,233.08240620000288,233.08240620000288,233.08240620000288,233.08240620000288,233.08240620000288,233.448934700049,233.448934700049,233.448934700049,233.448934700049,233.448934700049,233.448934700049,233.448934700049,233.448934700049,233.448934700049,23,0,,,233.448934700049,233.64909840002656,0.0,233.64909840002656,0,0.0,0,1,1000,num_1,1.1391678000218235,,23,11,2026-03-04_14h15.24.254,2026A_exp2,2022.2.4,59.93762889594968,
1,0,0.0,0.0,0,0,74,74,9,,,,,234.8168893000111,235.46729410003172,235.46729410003172,235.95331780001288,45,315,235.95331780001288,235.95331780001288,235.95331780001288,235.95331780001288,235.95331780001288,235.95331780001288,235.95331780001288,235.95331780001288,235.95331780001288,236.31847700005164,236.31847700005164,236.31847700005164,236.31847700005164,236.31847700005164,236.31847700005164,236.31847700005164,236.31847700005164,236.31847700005164,23,0,,,236.31847700005164,236.52223020000383,0.0,236.52223020000383,1,0.0,0,0,1000,num_4,1.2338731000199914,,23,11,2026-03-04_14h15.24.254,2026A_exp2,2022.2.4,59.93762889594968,
0,0,4.9,0.0,0,0,75,75,30,,,,,237.78643730003387,238.43702870002016,238.43702870002016,238.92147910001222,45,45,238.92147910001222,238.92147910001222,238.92147910001222,238.92147910001222,238.92147910001222,238.92147910001222,238.92147910001222,238.92147910001222,238.92147910001222,239.2880151999998,239.2880151999998,239.2880151999998,239.2880151999998,239.2880151999998,239.2880151999998,239.2880151999998,239.2880151999998,239.2880151999998,23,0,,,239.2880151999998,239.48815340001602,0.0,239.48815340001602,0,0.0,0,1,1000,num_1,1.0358015999663621,,23,11,2026-03-04_14h15.24.254,2026A_exp2,2022.2.4,59.93762889594968,
1,0,0.0,0.0,1,0,76,76,70,,,,,240.5558874999988,241.20661750005092,241.20661750005092,241.6907364000217,45,45,241.6907364000217,241.6907364000217,241.6907364000217,241.6907364000217,241.6907364000217,241.6907364000217,241.6907364000217,241.6907364000217,241.6907364000217,242.05745010002283,242.05745010002283,242.05745010002283,242.05745010002283,242.05745010002283,242.05745010002283,242.05745010002283,242.05745010002283,242.05745010002283,0,1,[0.0012257000198587775],[0.36742470000172034],242.05745010002283,242.25761359999888,0.0,242.25761359999888,0,0.0,0,1,1000,num_1,0.8916998999775387,,23,11,2026-03-04_14h15.24.254,2026A_exp2,2022.2.4,59.93762889594968,
1,0,6.1,0.0,0,0,77,77,50,,,,,243.17522090004059,243.8257564000087,243.8257564000087,244.31028890004382,45,315,244.31028890004382,244.31028890004382,244.31028890004382,244.31028890004382,244.31028890004382,244.31028890004382,244.31028890004382,244.31028890004382,244.31028890004382,244.67701620003209,244.67701620003209,244.67701620003209,244.67701620003209,244.67701620003209,244.67701620003209,244.67701620003209,244.67701620003209,244.67701620003209,23,0,,,244.67701620003209,244.88087110000197,6.1,244.88087110000197,1,6.1,1,1,1000,num_4,0.483590199961327,,23,11,2026-03-04_14h15.24.254,2026A_exp2,2022.2.4,59.93762889594968,
1000,1,4.9,3.7,1,0,78,78,32,,,,,245.3940583000076,246.04471690003993,246.04471690003993,246.54591130005429,45,45,246.54591130005429,246.54591130005429,246.54591130005429,246.54591130005429,246.54591130005429,246.54591130005429,246.54591130005429,246.54591130005429,246.54591130005429,246.91227070003515,246.91227070003515,246.91227070003515,246.91227070003515,246.91227070003515,246.91227070003515,246.91227070003515,246.91227070003515,246.91227070003515,23,0,,,246.91227070003515,247.11424950003857,1000,247.11424950003857,1000,1000,1000,1000,0,num_3,0.6178491999744438,,23,11,2026-03-04_14h15.24.254,2026A_exp2,2022.2.4,59.93762889594968,
1,0,0.0,0.0,1,0,79,79,37,,,,,247.76310350000858,248.4138258000021,248.4138258000021,248.91479629999958,45,315,248.91479629999958,248.91479629999958,248.91479629999958,248.91479629999958,248.91479629999958,248.91479629999958,248.91479629999958,248.91479629999958,248.91479629999958,249.28121530002682,249.28121530002682,249.28121530002682,249.28121530002682,249.28121530002682,249.28121530002682,249.28121530002682,249.28121530002682,249.28121530002682,23,0,,,249.28121530002682,249.481363400002,0.0,249.481363400002,0,0.0,0,1,1000,num_1,1.0192357000196353,,23,11,2026-03-04_14h15.24.254,2026A_exp2,2022.2.4,59.93762889594968,
0,0,0.0,6.1,1,0,80,80,76,,,,,250.53257740003755,251.1831839000224,251.1831839000224,251.6676024000044,45,315,251.6676024000044,251.6676024000044,251.6676024000044,251.6676024000044,251.6676024000044,251.6676024000044,251.6676024000044,251.6676024000044,251.6676024000044,252.0339881000109,252.0339881000109,252.0339881000109,252.0339881000109,252.0339881000109,252.0339881000109,252.0339881000109,252.0339881000109,252.0339881000109,23,0,,,252.0339881000109,252.24755310005276,0.0,252.24755310005276,0,0.0,0,1,1000,num_1,0.6363078999565914,,23,11,2026-03-04_14h15.24.254,2026A_exp2,2022.2.4,59.93762889594968,
1000,1,0.0,0.0,0,0,81,81,75,,,,,252.9014412999968,253.5522700000438,253.5522700000438,254.05319940001937,45,315,254.05319940001937,254.05319940001937,254.05319940001937,254.05319940001937,254.05319940001937,254.05319940001937,254.05319940001937,254.05319940001937,254.05319940001937,254.41969520004932,254.41969520004932,254.41969520004932,254.41969520004932,254.41969520004932,254.41969520004932,254.41969520004932,254.41969520004932,254.41969520004932,23,0,,,254.41969520004932,254.62174300005427,1000,254.62174300005427,1000,1000,1000,1000,1,num_2,1.0628728000447154,,23,11,2026-03-04_14h15.24.254,2026A_exp2,2022.2.4,59.93762889594968,
1000,1,6.1,0.0,0,0,82,82,33,,,,,255.70464460004587,256.35520390002057,256.35520390002057,256.85615120001603,315,45,256.85615120001603,256.85615120001603,256.85615120001603,256.85615120001603,256.85615120001603,256.85615120001603,256.85615120001603,256.85615120001603,256.85615120001603,257.2226404999965,257.2226404999965,257.2226404999965,257.2226404999965,257.2226404999965,257.2226404999965,257.2226404999965,257.2226404999965,257.2226404999965,22,1,[0.3336596000008285],[0.35053769999649376],257.2226404999965,257.4244491000427,1000,257.4244491000427,1000,1000,1000,1000,0,num_3,0.5560741999652237,,23,11,2026-03-04_14h15.24.254,2026A_exp2,2022.2.4,59.93762889594968,
1000,1,0.0,4.9,0,0,83,83,77,,,,,258.0065657000523,258.6571967000491,258.6571967000491,259.1584963000496,45,315,259.1584963000496,259.1584963000496,259.1584963000496,259.1584963000496,259.1584963000496,259.1584963000496,259.1584963000496,259.1584963000496,259.1584963000496,259.5248039000435,259.5248039000435,259.5248039000435,259.5248039000435,259.5248039000435,259.5248039000435,259.5248039000435,259.5248039000435,259.5248039000435,23,0,,,259.5248039000435,259.7275090000476,1000,259.7275090000476,1000,1000,1000,1000,1,num_2,0.44482510001398623,,23,11,2026-03-04_14h15.24.254,2026A_exp2,2022.2.4,59.93762889594968,
1,0,0.0,6.1,0,0,84,84,68,,,,,260.1923491000198,260.84281820000615,260.84281820000615,261.3441032000119,45,45,261.3441032000119,261.3441032000119,261.3441032000119,261.3441032000119,261.3441032000119,261.3441032000119,261.3441032000119,261.3441032000119,261.3441032000119,261.7102526000235,261.7102526000235,261.7102526000235,261.7102526000235,261.7102526000235,261.7102526000235,261.7102526000235,261.7102526000235,261.7102526000235,23,0,,,261.7102526000235,261.9105741000385,0.0,261.9105741000385,0,0.0,0,1,1000,num_1,0.8296749000437558,,23,11,2026-03-04_14h15.24.254,2026A_exp2,2022.2.4,59.93762889594968,
1,0,4.9,0.0,1,0,85,85,82,,,,,262.7614530000137,263.41213440004503,263.41213440004503,263.89657189999707,45,315,263.89657189999707,263.89657189999707,263.89657189999707,263.89657189999707,263.89657189999707,263.89657189999707,263.89657189999707,263.89657189999707,263.89657189999707,264.2628711000434,264.2628711000434,264.2628711000434,264.2628711000434,264.2628711000434,264.2628711000434,264.2628711000434,264.2628711000434,264.2628711000434,23,0,,,264.2628711000434,264.46318550000433,0.0,264.46318550000433,0,0.0,0,1,1000,num_1,0.5816304999752901,,23,11,2026-03-04_14h15.24.254,2026A_exp2,2022.2.4,59.93762889594968,
1000,1,6.1,3.7,1,0,86,86,24,,,,,265.0639719000319,265.7143172000069,265.7143172000069,266.1987957000383,315,315,266.1987957000383,266.1987957000383,266.1987957000383,266.1987957000383,266.1987957000383,266.1987957000383,266.1987957000383,266.1987957000383,266.1987957000383,266.56513860000996,266.56513860000996,266.56513860000996,266.56513860000996,266.56513860000996,266.56513860000996,266.56513860000996,266.56513860000996,266.56513860000996,23,0,,,266.56513860000996,266.76728330005426,1000,266.76728330005426,1000,1000,1000,1000,0,num_3,0.41262710001319647,,23,11,2026-03-04_14h15.24.254,2026A_exp2,2022.2.4,59.93762889594968,
0,0,3.7,4.9,1,0,87,87,3,,,,,267.19918960001087,267.8498055000091,267.8498055000091,268.350993900036,315,45,268.350993900036,268.350993900036,268.350993900036,268.350993900036,268.350993900036,268.350993900036,268.350993900036,268.350993900036,268.350993900036,268.7005398000474,268.7005398000474,268.7005398000474,268.7005398000474,268.7005398000474,268.7005398000474,268.7005398000474,268.7005398000474,268.7005398000474,22,0,,,268.7005398000474,268.90088440000545,3.7,268.91761030000634,0,3.7,1,0,1000,num_1,1.422432999999728,,23,11,2026-03-04_14h15.24.254,2026A_exp2,2022.2.4,59.93762889594968,
1000,1,0.0,0.0,0,0,88,88,20,,,,,270.3690741000464,271.0198342000367,271.0198342000367,271.504219800001,315,315,271.504219800001,271.504219800001,271.504219800001,271.504219800001,271.504219800001,271.504219800001,271.504219800001,271.504219800001,271.504219800001,271.87016480002785,271.87016480002785,271.87016480002785,271.87016480002785,271.87016480002785,271.87016480002785,271.87016480002785,271.87016480002785,271.87016480002785,23,0,,,271.87016480002785,272.0707704000524,1000,272.0707704000524,1000,1000,1000,1000,0,num_3,1.429427700000815,,23,11,2026-03-04_14h15.24.254,2026A_exp2,2022.2.4,59.93762889594968,
1000,1,0.0,6.1,1,0,89,89,88,,,,,273.5220771000022,274.17265210003825,274.17265210003825,274.65747420000844,45,45,274.65747420000844,274.65747420000844,274.65747420000844,274.65747420000844,274.65747420000844,274.65747420000844,274.65747420000844,274.65747420000844,274.65747420000844,275.02367180003785,275.02367180003785,275.02367180003785,275.02367180003785,275.02367180003785,275.02367180003785,275.02367180003785,275.02367180003785,275.02367180003785,23,0,,,275.02367180003785,275.22382559999824,1000,275.22382559999824,1000,1000,1000,1000,1,num_2,0.676852400007192,,23,11,2026-03-04_14h15.24.254,2026A_exp2,2022.2.4,59.93762889594968,
,,,,,,,,,,,,,,,,,,,,,,,,,,,,,,,,,,,,,,,,,,,,,,,,,,,,275.9284092000453,,,,,,,
