validity,detectorcomp,contrastCW,contrastCCW,precueCWorCCW,block_80trials.thisRepN,block_80trials.thisTrialN,block_80trials.thisN,block_80trials.thisIndex,etRecord.started,etRecord.stopped,text.started,text.stopped,text_4.started,text_4.stopped,text_6.started,text_6.stopped,oriCW,oriCCW,roi_2.started,grating_UR.started,grating_UL.started,grating_LR.started,grating_LL.started,noise_UR.started,noise_UL.started,noise_LR.started,noise_LL.started,roi_2.stopped,grating_UR.stopped,grating_UL.stopped,grating_LR.stopped,grating_LL.stopped,noise_UR.stopped,noise_UL.stopped,noise_LR.stopped,noise_LL.stopped,outframe,roi_2.numLooks,roi_2.timesOn,roi_2.timesOff,text_2.started,text_2.stopped,probedcontrast,key_resp.started,respdetect,relevantContrast,correctDetect,TorFdetect,respCWorCCW,key_resp.keys,key_resp.rt,feedback_display_.started,participantNo,blockNo,date,expName,psychopyVersion,frameRate,
1000,1,6.1,0.0,1,0,0,0,68,4.3000036384910345e-05,4.3000036384910345e-05,99.8702490000287,101.876505799999,101.876505799999,102.52328339999076,102.52328339999076,103.02479280001717,315,45,103.02479280001717,103.02479280001717,103.02479280001717,103.02479280001717,103.02479280001717,103.02479280001717,103.02479280001717,103.02479280001717,103.02479280001717,103.374006500002,103.374006500002,103.374006500002,103.374006500002,103.374006500002,103.374006500002,103.374006500002,103.374006500002,103.374006500002,0,1,[0.0009099000017158687],[0.3679463999578729],103.374006500002,103.58243110001786,1000,103.58243110001786,1000,1000,1000,1000,0,num_3,1.5324306999682449,,23,2,2026-03-04_13h18.39.646,2026A_exp2,2022.2.4,59.87704845957008,
1,0,3.7,0.0,0,0,1,1,65,,,,,105.14255490002688,105.79321730002994,105.79321730002994,106.29437120002694,315,315,106.29437120002694,106.29437120002694,106.29437120002694,106.29437120002694,106.29437120002694,106.29437120002694,106.29437120002694,106.29437120002694,106.29437120002694,106.6607723000343,106.6607723000343,106.6607723000343,106.6607723000343,106.6607723000343,106.6607723000343,106.6607723000343,106.6607723000343,106.6607723000343,4,2,"[0.0012172999558970332, 0.16700869996566325]","[0.10019739996641874, 0.36701689998153597]",106.6607723000343,106.86085320002167,3.7,106.86085320002167,0,3.7,1,0,1000,num_1,2.262806799961254,,23,2,2026-03-04_13h18.39.646,2026A_exp2,2022.2.4,59.87704845957008,
1000,1,6.1,0.0,0,0,2,2,14,,,,,109.14662519999547,109.79719770001248,109.79719770001248,110.281487500004,315,315,110.281487500004,110.281487500004,110.281487500004,110.281487500004,110.281487500004,110.281487500004,110.281487500004,110.281487500004,110.281487500004,110.64807390002534,110.64807390002534,110.64807390002534,110.64807390002534,110.64807390002534,110.64807390002534,110.64807390002534,110.64807390002534,110.64807390002534,3,3,"[0.0012518999865278602, 0.15030799998203292, 0.33372319996124133]","[0.13353249995270744, 0.3170702999923378, 0.36714149999897927]",110.64807390002534,110.85006000002613,1000,110.85006000002613,1000,1000,1000,1000,0,num_3,0.9377214999985881,,23,2,2026-03-04_13h18.39.646,2026A_exp2,2022.2.4,59.87704845957008,
1,0,0.0,3.7,0,0,3,3,61,,,,,111.81596910004737,112.4664793999982,112.4664793999982,112.96763190004276,45,315,112.96763190004276,112.96763190004276,112.96763190004276,112.96763190004276,112.96763190004276,112.96763190004276,112.96763190004276,112.96763190004276,112.96763190004276,113.33413080003811,113.33413080003811,113.33413080003811,113.33413080003811,113.33413080003811,113.33413080003811,113.33413080003811,113.33413080003811,113.33413080003811,3,3,"[0.0012398999533616006, 0.06690400000661612, 0.28367949998937547]","[0.050038999994285405, 0.267007399990689, 0.36686439998447895]",113.33413080003811,113.53413690003799,0.0,113.53413690003799,0,0.0,0,1,1000,num_1,1.8216020000400022,,23,2,2026-03-04_13h18.39.646,2026A_exp2,2022.2.4,59.87704845957008,
1000,1,0.0,0.0,0,0,4,4,74,,,,,115.38624640001217,116.02007980004419,116.02007980004419,116.52108199999202,45,315,116.52108199999202,116.52108199999202,116.52108199999202,116.52108199999202,116.52108199999202,116.52108199999202,116.52108199999202,116.52108199999202,116.52108199999202,116.88749029999599,116.88749029999599,116.88749029999599,116.88749029999599,116.88749029999599,116.88749029999599,116.88749029999599,116.88749029999599,116.88749029999599,2,2,"[0.001264600025024265, 0.23364079999737442]","[0.19999620004091412, 0.3671530000283383]",116.88749029999599,117.08957750000991,1000,117.08957750000991,1000,1000,1000,1000,1,num_2,1.2738586000050418,,23,2,2026-03-04_13h18.39.646,2026A_exp2,2022.2.4,59.87704845957008,
1000,1,4.9,6.1,0,0,5,5,20,,,,,118.38917040004162,119.03972350002732,119.03972350002732,119.54077290004352,315,45,119.54077290004352,119.54077290004352,119.54077290004352,119.54077290004352,119.54077290004352,119.54077290004352,119.54077290004352,119.54077290004352,119.54077290004352,119.90718259999994,119.90718259999994,119.90718259999994,119.90718259999994,119.90718259999994,119.90718259999994,119.90718259999994,119.90718259999994,119.90718259999994,23,0,,,119.90718259999994,120.1094301000121,1000,120.1094301000121,1000,1000,1000,1000,1,num_2,0.9267241000197828,,23,2,2026-03-04_13h18.39.646,2026A_exp2,2022.2.4,59.87704845957008,
1000,1,0.0,4.9,1,0,6,6,79,,,,,121.05830720002996,121.7091823000228,121.7091823000228,122.2100819000043,45,45,122.2100819000043,122.2100819000043,122.2100819000043,122.2100819000043,122.2100819000043,122.2100819000043,122.2100819000043,122.2100819000043,122.2100819000043,122.57658729999093,122.57658729999093,122.57658729999093,122.57658729999093,122.57658729999093,122.57658729999093,122.57658729999093,122.57658729999093,122.57658729999093,0,1,[0.0011992999934591353],[0.3667499999864958],122.57658729999093,122.77878210000927,1000,122.77878210000927,1000,1000,1000,1000,1,num_2,0.6565286999684758,,23,2,2026-03-04_13h18.39.646,2026A_exp2,2022.2.4,59.87704845957008,
1000,1,3.7,4.9,1,0,7,7,46,,,,,123.46082700003171,124.11146580002969,124.11146580002969,124.61249790003058,315,45,124.61249790003058,124.61249790003058,124.61249790003058,124.61249790003058,124.61249790003058,124.61249790003058,124.61249790003058,124.61249790003058,124.61249790003058,124.96237610001117,124.96237610001117,124.96237610001117,124.96237610001117,124.96237610001117,124.96237610001117,124.96237610001117,124.96237610001117,124.96237610001117,3,3,"[0.0012123000342398882, 0.25026070000603795, 0.31719149998389184]","[0.21697290003066882, 0.3005839000106789, 0.35049859998980537]",124.96237610001117,125.16492210002616,1000,125.16492210002616,1000,1000,1000,1000,1,num_2,1.3746733999578282,,23,2,2026-03-04_13h18.39.646,2026A_exp2,2022.2.4,59.87704845957008,
1,0,0.0,6.1,0,0,8,8,60,,,,,126.56389190000482,127.21455650002463,127.21455650002463,127.7156735000317,45,45,127.7156735000317,127.7156735000317,127.7156735000317,127.7156735000317,127.7156735000317,127.7156735000317,127.7156735000317,127.7156735000317,127.7156735000317,128.06545510003343,128.06545510003343,128.06545510003343,128.06545510003343,128.06545510003343,128.06545510003343,128.06545510003343,128.06545510003343,128.06545510003343,22,0,,,128.06545510003343,128.26556740002707,0.0,128.28237070003524,0,0.0,0,1,1000,num_1,2.0644577000057325,,23,2,2026-03-04_13h18.39.646,2026A_exp2,2022.2.4,59.87704845957008,
1000,1,4.9,0.0,0,0,9,9,54,,,,,130.36755690001883,131.01835960004246,131.01835960004246,131.5028610000154,45,45,131.5028610000154,131.5028610000154,131.5028610000154,131.5028610000154,131.5028610000154,131.5028610000154,131.5028610000154,131.5028610000154,131.5028610000154,131.869197299995,131.869197299995,131.869197299995,131.869197299995,131.869197299995,131.869197299995,131.869197299995,131.869197299995,131.869197299995,0,1,[0.0012426000321283937],[0.3670101999887265],131.869197299995,132.0715751000098,1000,132.0715751000098,1000,1000,1000,1000,0,num_3,0.7479339000419714,,23,2,2026-03-04_13h18.39.646,2026A_exp2,2022.2.4,59.87704845957008,
1000,1,0.0,0.0,0,0,10,10,83,,,,,132.83681160002016,133.4874986000359,133.4874986000359,133.9886223000358,45,315,133.9886223000358,133.9886223000358,133.9886223000358,133.9886223000358,133.9886223000358,133.9886223000358,133.9886223000358,133.9886223000358,133.9886223000358,134.35478580003837,134.35478580003837,134.35478580003837,134.35478580003837,134.35478580003837,134.35478580003837,134.35478580003837,134.35478580003837,134.35478580003837,5,3,"[0.0012057999847456813, 0.18371270003262907, 0.3667612000135705]","[0.13364000001456589, 0.33383910002885386, 0.36676380003336817]",134.35478580003837,134.5571907000267,1000,134.5571907000267,1000,1000,1000,1000,0,num_3,0.8626736999722198,,23,2,2026-03-04_13h18.39.646,2026A_exp2,2022.2.4,59.87704845957008,
1000,1,0.0,0.0,0,0,11,11,85,,,,,135.4394650000031,136.10053160000825,136.10053160000825,136.59108320000814,45,45,136.59108320000814,136.59108320000814,136.59108320000814,136.59108320000814,136.59108320000814,136.59108320000814,136.59108320000814,136.59108320000814,136.59108320000814,136.94092340004863,136.94092340004863,136.94092340004863,136.94092340004863,136.94092340004863,136.94092340004863,136.94092340004863,136.94092340004863,136.94092340004863,0,1,[0.001611199986655265],[0.3503795000142418],136.94092340004863,137.14126490004128,1000,137.15792880003573,1000,1000,1000,1000,1,num_2,0.9652707999921404,,23,2,2026-03-04_13h18.39.646,2026A_exp2,2022.2.4,59.87704845957008,
1,0,6.1,4.9,0,0,12,12,24,,,,,138.14212219999172,138.79289979999885,138.79289979999885,139.29385499999626,315,45,139.29385499999626,139.29385499999626,139.29385499999626,139.29385499999626,139.29385499999626,139.29385499999626,139.29385499999626,139.29385499999626,139.29385499999626,139.6602437000256,139.6602437000256,139.6602437000256,139.6602437000256,139.6602437000256,139.6602437000256,139.6602437000256,139.6602437000256,139.6602437000256,23,0,,,139.6602437000256,139.86055129999295,6.1,139.86055129999295,0,6.1,1,0,1000,num_1,1.1111386999837123,,23,2,2026-03-04_13h18.39.646,2026A_exp2,2022.2.4,59.87704845957008,
1,0,0.0,4.9,1,0,13,13,21,,,,,140.99490839999635,141.64568980003241,141.64568980003241,142.130227799993,45,45,142.130227799993,142.130227799993,142.130227799993,142.130227799993,142.130227799993,142.130227799993,142.130227799993,142.130227799993,142.130227799993,142.49635190004483,142.49635190004483,142.49635190004483,142.49635190004483,142.49635190004483,142.49635190004483,142.49635190004483,142.49635190004483,142.49635190004483,23,0,,,142.49635190004483,142.69664100004593,4.9,142.69664100004593,0,4.9,1,0,1000,num_1,1.3951577999978326,,23,2,2026-03-04_13h18.39.646,2026A_exp2,2022.2.4,59.87704845957008,
1000,1,6.1,6.1,1,0,14,14,77,,,,,144.1147441000212,144.76548719999846,144.76548719999846,145.2499312,45,315,145.2499312,145.2499312,145.2499312,145.2499312,145.2499312,145.2499312,145.2499312,145.2499312,145.2499312,145.6162706000032,145.6162706000032,145.6162706000032,145.6162706000032,145.6162706000032,145.6162706000032,145.6162706000032,145.6162706000032,145.6162706000032,23,0,,,145.6162706000032,145.8185314000002,1000,145.8185314000002,1000,1000,1000,1000,1,num_2,1.064577699988149,,23,2,2026-03-04_13h18.39.646,2026A_exp2,2022.2.4,59.87704845957008,
1,0,3.7,0.0,1,0,15,15,19,,,,,146.9007404000149,147.55162770004245,147.55162770004245,148.0525856000022,45,45,148.0525856000022,148.0525856000022,148.0525856000022,148.0525856000022,148.0525856000022,148.0525856000022,148.0525856000022,148.0525856000022,148.0525856000022,148.41894450003747,148.41894450003747,148.41894450003747,148.41894450003747,148.41894450003747,148.41894450003747,148.41894450003747,148.41894450003747,148.41894450003747,8,1,[0.13323100004345179],[0.36704340000869706],148.41894450003747,148.61936050001532,0.0,148.61936050001532,1,0.0,0,0,1000,num_4,1.2554431000025943,,23,2,2026-03-04_13h18.39.646,2026A_exp2,2022.2.4,59.87704845957008,
1000,1,6.1,0.0,1,0,16,16,16,,,,,149.90392940002494,150.55465890001506,150.55465890001506,151.03908730001422,45,315,151.03908730001422,151.03908730001422,151.03908730001422,151.03908730001422,151.03908730001422,151.03908730001422,151.03908730001422,151.03908730001422,151.03908730001422,151.40531820000615,151.40531820000615,151.40531820000615,151.40531820000615,151.40531820000615,151.40531820000615,151.40531820000615,151.40531820000615,151.40531820000615,4,1,[0.001249499968253076],[0.3170894999639131],151.40531820000615,151.607421600027,1000,151.607421600027,1000,1000,1000,1000,0,num_3,0.611357300018426,,23,2,2026-03-04_13h18.39.646,2026A_exp2,2022.2.4,59.87704845957008,
1,0,0.0,0.0,1,0,17,17,6,,,,,152.23948049999308,152.890287599992,152.890287599992,153.39138079999248,45,45,153.39138079999248,153.39138079999248,153.39138079999248,153.39138079999248,153.39138079999248,153.39138079999248,153.39138079999248,153.39138079999248,153.39138079999248,153.74108420003904,153.74108420003904,153.74108420003904,153.74108420003904,153.74108420003904,153.74108420003904,153.74108420003904,153.74108420003904,153.74108420003904,22,0,,,153.74108420003904,153.94137400004547,0.0,153.95783870003652,1,0.0,0,0,1000,num_4,1.8696541999815963,,23,2,2026-03-04_13h18.39.646,2026A_exp2,2022.2.4,59.87704845957008,
0,0,0.0,3.7,1,0,18,18,10,,,,,155.85981580003863,156.49393970001256,156.49393970001256,156.99503859999822,45,315,156.99503859999822,156.99503859999822,156.99503859999822,156.99503859999822,156.99503859999822,156.99503859999822,156.99503859999822,156.99503859999822,156.99503859999822,157.3613689999911,157.3613689999911,157.3613689999911,157.3613689999911,157.3613689999911,157.3613689999911,157.3613689999911,157.3613689999911,157.3613689999911,18,3,"[0.0012137999874539673, 0.08359210001071915, 0.13364660000661388]","[0.033455199969466776, 0.100356999959331, 0.16701909998664632]",157.3613689999911,157.5616695000208,0.0,157.5616695000208,1,0.0,0,0,1000,num_4,2.2973216000245884,,23,2,2026-03-04_13h18.39.646,2026A_exp2,2022.2.4,59.87704845957008,
1,0,0.0,0.0,1,0,19,19,87,,,,,159.88037680002162,160.5312239000341,160.5312239000341,161.01566910004476,315,315,161.01566910004476,161.01566910004476,161.01566910004476,161.01566910004476,161.01566910004476,161.01566910004476,161.01566910004476,161.01566910004476,161.01566910004476,161.38207120000152,161.38207120000152,161.38207120000152,161.38207120000152,161.38207120000152,161.38207120000152,161.38207120000152,161.38207120000152,161.38207120000152,23,0,,,161.38207120000152,161.58237190003274,0.0,161.58237190003274,1,0.0,0,0,1000,num_4,1.3170627999934368,,23,2,2026-03-04_13h18.39.646,2026A_exp2,2022.2.4,59.87704845957008,
1,0,0.0,0.0,0,0,20,20,1,,,,,162.91673910000827,163.5675692000077,163.5675692000077,164.05184860003646,45,315,164.05184860003646,164.05184860003646,164.05184860003646,164.05184860003646,164.05184860003646,164.05184860003646,164.05184860003646,164.05184860003646,164.05184860003646,164.41842210001778,164.41842210001778,164.41842210001778,164.41842210001778,164.41842210001778,164.41842210001778,164.41842210001778,164.41842210001778,164.41842210001778,16,1,[0.23383290000492707],[0.35055589996045455],164.41842210001778,164.61860929999966,0.0,164.61860929999966,0,0.0,0,1,1000,num_1,1.7294959999853745,,23,2,2026-03-04_13h18.39.646,2026A_exp2,2022.2.4,59.87704845957008,
1,0,6.1,4.9,0,0,21,21,39,,,,,166.37018860003445,167.02113579999423,167.02113579999423,167.505544500018,45,45,167.505544500018,167.505544500018,167.505544500018,167.505544500018,167.505544500018,167.505544500018,167.505544500018,167.505544500018,167.505544500018,167.87177930003963,167.87177930003963,167.87177930003963,167.87177930003963,167.87177930003963,167.87177930003963,167.87177930003963,167.87177930003963,167.87177930003963,23,0,,,167.87177930003963,168.0720772999921,6.1,168.0720772999921,0,6.1,1,0,1000,num_1,1.8351075000246055,,23,2,2026-03-04_13h18.39.646,2026A_exp2,2022.2.4,59.87704845957008,
1,0,4.9,0.0,1,0,22,22,8,,,,,169.92398190003587,170.57453420001548,170.57453420001548,171.07566430000588,45,45,171.07566430000588,171.07566430000588,171.07566430000588,171.07566430000588,171.07566430000588,171.07566430000588,171.07566430000588,171.07566430000588,171.07566430000588,171.44212670001434,171.44212670001434,171.44212670001434,171.44212670001434,171.44212670001434,171.44212670001434,171.44212670001434,171.44212670001434,171.44212670001434,23,0,,,171.44212670001434,171.64234250003938,0.0,171.64234250003938,1,0.0,0,0,1000,num_4,0.8969658000278287,,23,2,2026-03-04_13h18.39.646,2026A_exp2,2022.2.4,59.87704845957008,
1000,1,3.7,0.0,0,0,23,23,45,,,,,172.55988280003658,173.2106208000332,173.2106208000332,173.69496980000986,45,315,173.69496980000986,173.69496980000986,173.69496980000986,173.69496980000986,173.69496980000986,173.69496980000986,173.69496980000986,173.69496980000986,173.69496980000986,174.06151190004312,174.06151190004312,174.06151190004312,174.06151190004312,174.06151190004312,174.06151190004312,174.06151190004312,174.06151190004312,174.06151190004312,0,1,[0.0012152999988757074],[0.3673160999896936],174.06151190004312,174.26341140002478,1000,174.26341140002478,1000,1000,1000,1000,0,num_3,1.059440499986522,,23,2,2026-03-04_13h18.39.646,2026A_exp2,2022.2.4,59.87704845957008,
1000,1,3.7,0.0,0,0,24,24,2,,,,,175.34601070004283,175.99661970004672,175.99661970004672,176.49760400003288,315,315,176.49760400003288,176.49760400003288,176.49760400003288,176.49760400003288,176.49760400003288,176.49760400003288,176.49760400003288,176.49760400003288,176.49760400003288,176.84759280004073,176.84759280004073,176.84759280004073,176.84759280004073,176.84759280004073,176.84759280004073,176.84759280004073,176.84759280004073,176.84759280004073,4,3,"[0.0012452999944798648, 0.1335743999807164, 0.28389849996892735]","[0.11691489996155724, 0.23375999997369945, 0.3506817999877967]",176.84759280004073,177.0494786000345,1000,177.0494786000345,1000,1000,1000,1000,1,num_2,1.2892511000391096,,23,2,2026-03-04_13h18.39.646,2026A_exp2,2022.2.4,59.87704845957008,
1,0,0.0,3.7,0,0,25,25,35,,,,,178.36596200003987,179.01652940001804,179.01652940001804,179.50075320003089,45,315,179.50075320003089,179.50075320003089,179.50075320003089,179.50075320003089,179.50075320003089,179.50075320003089,179.50075320003089,179.50075320003089,179.50075320003089,179.8671924000373,179.8671924000373,179.8671924000373,179.8671924000373,179.8671924000373,179.8671924000373,179.8671924000373,179.8671924000373,179.8671924000373,19,1,[0.317139099992346],[0.36724839999806136],179.8671924000373,180.0674311000039,0.0,180.0674311000039,0,0.0,0,1,1000,num_1,2.000292999960948,,23,2,2026-03-04_13h18.39.646,2026A_exp2,2022.2.4,59.87704845957008,
1,0,6.1,0.0,0,0,26,26,56,,,,,182.08602310001152,182.73706840001978,182.73706840001978,183.2211373000173,315,315,183.2211373000173,183.2211373000173,183.2211373000173,183.2211373000173,183.2211373000173,183.2211373000173,183.2211373000173,183.2211373000173,183.2211373000173,183.58765500003938,183.58765500003938,183.58765500003938,183.58765500003938,183.58765500003938,183.58765500003938,183.58765500003938,183.58765500003938,183.58765500003938,20,1,[0.3339486999902874],[0.3672303999774158],183.58765500003938,183.78777290001744,6.1,183.78777290001744,1,6.1,1,1,1000,num_4,1.7358998999698088,,23,2,2026-03-04_13h18.39.646,2026A_exp2,2022.2.4,59.87704845957008,
1000,1,6.1,0.0,1,0,27,27,30,,,,,185.53950509999413,186.19000020000385,186.19000020000385,186.67446920002112,45,315,186.67446920002112,186.67446920002112,186.67446920002112,186.67446920002112,186.67446920002112,186.67446920002112,186.67446920002112,186.67446920002112,186.67446920002112,187.04101730004186,187.04101730004186,187.04101730004186,187.04101730004186,187.04101730004186,187.04101730004186,187.04101730004186,187.04101730004186,187.04101730004186,23,0,,,187.04101730004186,187.24328520003473,1000,187.24328520003473,1000,1000,1000,1000,1,num_2,1.072102400008589,,23,2,2026-03-04_13h18.39.646,2026A_exp2,2022.2.4,59.87704845957008,
1000,1,4.9,0.0,1,0,28,28,22,,,,,188.3422696000198,188.99315749999369,188.99315749999369,189.49401560000842,45,45,189.49401560000842,189.49401560000842,189.49401560000842,189.49401560000842,189.49401560000842,189.49401560000842,189.49401560000842,189.49401560000842,189.49401560000842,189.86055240000132,189.86055240000132,189.86055240000132,189.86055240000132,189.86055240000132,189.86055240000132,189.86055240000132,189.86055240000132,189.86055240000132,23,0,,,189.86055240000132,190.06294900004286,1000,190.06294900004286,1000,1000,1000,1000,0,num_3,0.7723113999818452,,23,2,2026-03-04_13h18.39.646,2026A_exp2,2022.2.4,59.87704845957008,
1000,1,0.0,6.1,1,0,29,29,62,,,,,190.8633117999998,191.51214550004806,191.51214550004806,192.01336199999787,45,45,192.01336199999787,192.01336199999787,192.01336199999787,192.01336199999787,192.01336199999787,192.01336199999787,192.01336199999787,192.01336199999787,192.01336199999787,192.37979969999287,192.37979969999287,192.37979969999287,192.37979969999287,192.37979969999287,192.37979969999287,192.37979969999287,192.37979969999287,192.37979969999287,22,1,[0.3005414000363089],[0.31720940000377595],192.37979969999287,192.58168230002047,1000,192.58168230002047,1000,1000,1000,1000,1,num_2,1.3183247999986634,,23,2,2026-03-04_13h18.39.646,2026A_exp2,2022.2.4,59.87704845957008,
1,0,0.0,0.0,0,0,30,30,29,,,,,193.93127450003522,194.58195540000452,194.58195540000452,195.0831487000105,315,315,195.0831487000105,195.0831487000105,195.0831487000105,195.0831487000105,195.0831487000105,195.0831487000105,195.0831487000105,195.0831487000105,195.0831487000105,195.43282899999758,195.43282899999758,195.43282899999758,195.43282899999758,195.43282899999758,195.43282899999758,195.43282899999758,195.43282899999758,195.43282899999758,8,4,"[0.04999230004614219, 0.10002760001225397, 0.15035130002070218, 0.3003292999928817]","[0.0669070000294596, 0.11733989999629557, 0.283679399988614, 0.3505478000151925]",195.43282899999758,195.6329776000348,0.0,195.6329776000348,0,0.0,0,1,1000,num_1,0.8578070000512525,,23,2,2026-03-04_13h18.39.646,2026A_exp2,2022.2.4,59.87704845957008,
1,0,6.1,0.0,0,0,31,31,70,,,,,196.51698000001488,197.16775880003115,197.16775880003115,197.66889130003983,315,315,197.66889130003983,197.66889130003983,197.66889130003983,197.66889130003983,197.66889130003983,197.66889130003983,197.66889130003983,197.66889130003983,197.66889130003983,198.0186601000023,198.0186601000023,198.0186601000023,198.0186601000023,198.0186601000023,198.0186601000023,198.0186601000023,198.0186601000023,198.0186601000023,11,2,"[0.06682349997572601, 0.2336100999964401]","[0.11670800001593307, 0.35032399999909103]",198.0186601000023,198.21889270003885,6.1,198.21889270003885,0,6.1,1,0,1000,num_1,0.9125560999964364,,23,2,2026-03-04_13h18.39.646,2026A_exp2,2022.2.4,59.87704845957008,
1000,1,0.0,0.0,0,0,32,32,17,,,,,199.1532131000422,199.8038950000191,199.8038950000191,200.28814650001004,45,45,200.28814650001004,200.28814650001004,200.28814650001004,200.28814650001004,200.28814650001004,200.28814650001004,200.28814650001004,200.28814650001004,200.28814650001004,200.65456480003195,200.65456480003195,200.65456480003195,200.65456480003195,200.65456480003195,200.65456480003195,200.65456480003195,200.65456480003195,200.65456480003195,23,0,,,200.65456480003195,200.85684730001958,1000,200.85684730001958,1000,1000,1000,1000,1,num_2,1.0587566000176594,,23,2,2026-03-04_13h18.39.646,2026A_exp2,2022.2.4,59.87704845957008,
1,0,3.7,0.0,0,0,33,33,42,,,,,201.9392930000322,202.5899752000114,202.5899752000114,203.09112769999774,315,45,203.09112769999774,203.09112769999774,203.09112769999774,203.09112769999774,203.09112769999774,203.09112769999774,203.09112769999774,203.09112769999774,203.09112769999774,203.45725680002943,203.45725680002943,203.45725680002943,203.45725680002943,203.45725680002943,203.45725680002943,203.45725680002943,203.45725680002943,203.45725680002943,0,2,"[0.001234399969689548, 0.35008989996276796]","[0.33371619996614754, 0.36693859996739775]",203.45725680002943,203.65766870003426,3.7,203.65766870003426,0,3.7,1,0,1000,num_1,0.8336313999607228,,23,2,2026-03-04_13h18.39.646,2026A_exp2,2022.2.4,59.87704845957008,
1000,1,0.0,3.7,0,0,34,34,78,,,,,204.50846590002766,205.1592732000281,205.1592732000281,205.64353530004155,315,315,205.64353530004155,205.64353530004155,205.64353530004155,205.64353530004155,205.64353530004155,205.64353530004155,205.64353530004155,205.64353530004155,205.64353530004155,206.010087200033,206.010087200033,206.010087200033,206.010087200033,206.010087200033,206.010087200033,206.010087200033,206.010087200033,206.010087200033,0,1,[0.001083000039216131],[0.3672863999963738],206.010087200033,206.2119992999942,1000,206.2119992999942,1000,1000,1000,1000,1,num_2,0.5430406000232324,,23,2,2026-03-04_13h18.39.646,2026A_exp2,2022.2.4,59.87704845957008,
1000,1,3.7,4.9,1,0,35,35,44,,,,,206.77731430000858,207.42813170002773,207.42813170002773,207.9292844000156,315,45,207.9292844000156,207.9292844000156,207.9292844000156,207.9292844000156,207.9292844000156,207.9292844000156,207.9292844000156,207.9292844000156,207.9292844000156,208.27898110001115,208.27898110001115,208.27898110001115,208.27898110001115,208.27898110001115,208.27898110001115,208.27898110001115,208.27898110001115,208.27898110001115,0,1,[0.0012744999839924276],[0.35034910001559183],208.27898110001115,208.48142379999626,1000,208.49590890004765,1000,1000,1000,1000,1,num_2,0.46755990001838654,,23,2,2026-03-04_13h18.39.646,2026A_exp2,2022.2.4,59.87704845957008,
1,0,0.0,6.1,1,0,36,36,52,,,,,208.9794128999929,209.630342199991,209.630342199991,210.13119040004676,45,315,210.13119040004676,210.13119040004676,210.13119040004676,210.13119040004676,210.13119040004676,210.13119040004676,210.13119040004676,210.13119040004676,210.13119040004676,210.48122200003127,210.48122200003127,210.48122200003127,210.48122200003127,210.48122200003127,210.48122200003127,210.48122200003127,210.48122200003127,210.48122200003127,0,1,[0.0013439999893307686],[0.3505968000390567],210.48122200003127,210.68145810003625,6.1,210.69812750001438,1,6.1,1,1,1000,num_4,0.6257295999675989,,23,2,2026-03-04_13h18.39.646,2026A_exp2,2022.2.4,59.87704845957008,
1,0,0.0,0.0,1,0,37,37,73,,,,,211.34860980004305,211.9993886000011,211.9993886000011,212.48368870001286,315,45,212.48368870001286,212.48368870001286,212.48368870001286,212.48368870001286,212.48368870001286,212.48368870001286,212.48368870001286,212.48368870001286,212.48368870001286,212.85019960004138,212.85019960004138,212.85019960004138,212.85019960004138,212.85019960004138,212.85019960004138,212.85019960004138,212.85019960004138,212.85019960004138,5,1,[0.08367670001462102],[0.36713830003282055],212.85019960004138,213.050488900044,0.0,213.050488900044,0,0.0,0,1,1000,num_1,2.2721484000212513,,23,2,2026-03-04_13h18.39.646,2026A_exp2,2022.2.4,59.87704845957008,
0,0,0.0,6.1,0,0,38,38,7,,,,,215.35278430004837,216.00343860004796,216.00343860004796,216.48770400002832,315,45,216.48770400002832,216.48770400002832,216.48770400002832,216.48770400002832,216.48770400002832,216.48770400002832,216.48770400002832,216.48770400002832,216.48770400002832,216.8541904000449,216.8541904000449,216.8541904000449,216.8541904000449,216.8541904000449,216.8541904000449,216.8541904000449,216.8541904000449,216.8541904000449,0,1,[0.0012501999735832214],[0.36709369998425245],216.8541904000449,217.05448150000302,6.1,217.05448150000302,1,6.1,1,1,1000,num_4,0.6691780000110157,,23,2,2026-03-04_13h18.39.646,2026A_exp2,2022.2.4,59.87704845957008,
1000,1,0.0,0.0,0,0,39,39,81,,,,,217.75502899999265,218.4057887000381,218.4057887000381,218.8985552000231,315,315,218.8985552000231,218.8985552000231,218.8985552000231,218.8985552000231,218.8985552000231,218.8985552000231,218.8985552000231,218.8985552000231,218.8985552000231,219.2566001000232,219.2566001000232,219.2566001000232,219.2566001000232,219.2566001000232,219.2566001000232,219.2566001000232,219.2566001000232,219.2566001000232,0,1,[0.0030073000234551728],[0.3654956000391394],219.2566001000232,219.45884249999654,1000,219.45884249999654,1000,1000,1000,1000,1,num_2,0.6411484000273049,,23,2,2026-03-04_13h18.39.646,2026A_exp2,2022.2.4,59.87704845957008,
1,0,0.0,6.1,1,0,40,40,36,,,,,220.1242259000428,220.77479900000617,220.77479900000617,221.2921983000124,315,45,221.2921983000124,221.2921983000124,221.2921983000124,221.2921983000124,221.2921983000124,221.2921983000124,221.2921983000124,221.2921983000124,221.2921983000124,221.62581480003428,221.62581480003428,221.62581480003428,221.62581480003428,221.62581480003428,221.62581480003428,221.62581480003428,221.62581480003428,221.62581480003428,0,1,[0.004634000011719763],[0.34866890002740547],221.62581480003428,221.82594080001581,6.1,221.82594080001581,0,6.1,1,0,1000,num_1,1.0088783000246622,,23,2,2026-03-04_13h18.39.646,2026A_exp2,2022.2.4,59.87704845957008,
1000,1,0.0,4.9,1,0,41,41,76,,,,,222.8601838000468,223.5109025000129,223.5109025000129,223.9952154000057,315,45,223.9952154000057,223.9952154000057,223.9952154000057,223.9952154000057,223.9952154000057,223.9952154000057,223.9952154000057,223.9952154000057,223.9952154000057,224.3617100000265,224.3617100000265,224.3617100000265,224.3617100000265,224.3617100000265,224.3617100000265,224.3617100000265,224.3617100000265,224.3617100000265,17,2,"[0.0012796000228263438, 0.33383939997293055]","[0.05021299998043105, 0.36719520000042394]",224.3617100000265,224.56406810000772,1000,224.56406810000772,1000,1000,1000,1000,0,num_3,1.0472358000115491,,23,2,2026-03-04_13h18.39.646,2026A_exp2,2022.2.4,59.87704845957008,
1000,1,0.0,3.7,1,0,42,42,47,,,,,225.62980590004008,226.2800749000162,226.2800749000162,226.7813482999918,45,315,226.7813482999918,226.7813482999918,226.7813482999918,226.7813482999918,226.7813482999918,226.7813482999918,226.7813482999918,226.7813482999918,226.7813482999918,227.1311765999999,227.1311765999999,227.1311765999999,227.1311765999999,227.1311765999999,227.1311765999999,227.1311765999999,227.1311765999999,227.1311765999999,22,0,,,227.1311765999999,227.33151829999406,1000,227.34793029999128,1000,1000,1000,1000,1,num_2,1.5998077999684028,,23,2,2026-03-04_13h18.39.646,2026A_exp2,2022.2.4,59.87704845957008,
1000,1,6.1,0.0,1,0,43,43,69,,,,,228.96639280003728,229.6169831000152,229.6169831000152,230.11818119999953,315,315,230.11818119999953,230.11818119999953,230.11818119999953,230.11818119999953,230.11818119999953,230.11818119999953,230.11818119999953,230.11818119999953,230.11818119999953,230.48465870000655,230.48465870000655,230.48465870000655,230.48465870000655,230.48465870000655,230.48465870000655,230.48465870000655,230.48465870000655,230.48465870000655,0,1,[0.0012574000284075737],[0.3667927000205964],230.48465870000655,230.6866079000174,1000,230.6866079000174,1000,1000,1000,1000,0,num_3,0.621015599987004,,23,2,2026-03-04_13h18.39.646,2026A_exp2,2022.2.4,59.87704845957008,
1,0,3.7,3.7,0,0,44,44,13,,,,,231.33556199999293,231.985964099993,231.985964099993,232.48757350002415,315,45,232.48757350002415,232.48757350002415,232.48757350002415,232.48757350002415,232.48757350002415,232.48757350002415,232.48757350002415,232.48757350002415,232.48757350002415,232.83693200000562,232.83693200000562,232.83693200000562,232.83693200000562,232.83693200000562,232.83693200000562,232.83693200000562,232.83693200000562,232.83693200000562,8,2,"[0.0008828999707475305, 0.10056679998524487]","[0.06709239998599514, 0.26734269998269156]",232.83693200000562,233.03709340002388,3.7,233.05369940004312,0,3.7,1,0,1000,num_1,1.2692104000016116,,23,2,2026-03-04_13h18.39.646,2026A_exp2,2022.2.4,59.87704845957008,
1000,1,0.0,0.0,0,0,45,45,15,,,,,234.35504009999568,235.0056992000318,235.0056992000318,235.49015970004257,315,45,235.49015970004257,235.49015970004257,235.49015970004257,235.49015970004257,235.49015970004257,235.49015970004257,235.49015970004257,235.49015970004257,235.49015970004257,235.85661710001295,235.85661710001295,235.85661710001295,235.85661710001295,235.85661710001295,235.85661710001295,235.85661710001295,235.85661710001295,235.85661710001295,0,1,[0.0012118000304326415],[0.36730959999840707],235.85661710001295,236.0584235000424,1000,236.0584235000424,1000,1000,1000,1000,0,num_3,1.5452248999499716,,23,2,2026-03-04_13h18.39.646,2026A_exp2,2022.2.4,59.87704845957008,
1000,1,4.9,6.1,1,0,46,46,28,,,,,237.62492870003916,238.27556720003486,238.27556720003486,238.77689870004542,315,45,238.77689870004542,238.77689870004542,238.77689870004542,238.77689870004542,238.77689870004542,238.77689870004542,238.77689870004542,238.77689870004542,238.77689870004542,239.1431486000074,239.1431486000074,239.1431486000074,239.1431486000074,239.1431486000074,239.1431486000074,239.1431486000074,239.1431486000074,239.1431486000074,0,1,[0.0007150999736040831],[0.36770880001131445],239.1431486000074,239.34511600004043,1000,239.34511600004043,1000,1000,1000,1000,1,num_2,0.5782783000031486,,23,2,2026-03-04_13h18.39.646,2026A_exp2,2022.2.4,59.87704845957008,
1000,1,3.7,6.1,0,0,47,47,0,,,,,239.9440794000402,240.59468440001365,240.59468440001365,241.09564200002933,315,315,241.09564200002933,241.09564200002933,241.09564200002933,241.09564200002933,241.09564200002933,241.09564200002933,241.09564200002933,241.09564200002933,241.09564200002933,241.4454791000462,241.4454791000462,241.4454791000462,241.4454791000462,241.4454791000462,241.4454791000462,241.4454791000462,241.4454791000462,241.4454791000462,22,0,,,241.4454791000462,241.64800089999335,1000,241.64800089999335,1000,1000,1000,1000,1,num_2,0.7310060999589041,,23,2,2026-03-04_13h18.39.646,2026A_exp2,2022.2.4,59.87704845957008,
1000,1,0.0,0.0,0,0,48,48,86,,,,,242.39631139999256,243.04691700002877,243.04691700002877,243.54814540001098,315,45,243.54814540001098,243.54814540001098,243.54814540001098,243.54814540001098,243.54814540001098,243.54814540001098,243.54814540001098,243.54814540001098,243.54814540001098,243.91456050000852,243.91456050000852,243.91456050000852,243.91456050000852,243.91456050000852,243.91456050000852,243.91456050000852,243.91456050000852,243.91456050000852,0,1,[0.0012629000120796263],[0.3673972000251524],243.91456050000852,244.1162006999948,1000,244.1162006999948,1000,1000,1000,1000,1,num_2,1.3510187999927439,,23,2,2026-03-04_13h18.39.646,2026A_exp2,2022.2.4,59.87704845957008,
0,0,0.0,0.0,1,0,49,49,71,,,,,245.482779700018,246.1334655000246,246.1334655000246,246.63453239999944,315,315,246.63453239999944,246.63453239999944,246.63453239999944,246.63453239999944,246.63453239999944,246.63453239999944,246.63453239999944,246.63453239999944,246.63453239999944,247.00092320004478,247.00092320004478,247.00092320004478,247.00092320004478,247.00092320004478,247.00092320004478,247.00092320004478,247.00092320004478,247.00092320004478,22,1,[0.2837161999777891],[0.3002423999714665],247.00092320004478,247.20123560004868,0.0,247.20123560004868,0,0.0,0,1,1000,num_1,0.9068171000108123,,23,2,2026-03-04_13h18.39.646,2026A_exp2,2022.2.4,59.87704845957008,
0,0,4.9,0.0,1,0,50,50,25,,,,,248.13580109999748,248.7862098000478,248.7862098000478,249.27067890000762,45,315,249.27067890000762,249.27067890000762,249.27067890000762,249.27067890000762,249.27067890000762,249.27067890000762,249.27067890000762,249.27067890000762,249.27067890000762,249.6370476000011,249.6370476000011,249.6370476000011,249.6370476000011,249.6370476000011,249.6370476000011,249.6370476000011,249.6370476000011,249.6370476000011,23,0,,,249.6370476000011,249.83717020001495,4.9,249.83717020001495,0,4.9,1,0,1000,num_1,0.958769399963785,,23,2,2026-03-04_13h18.39.646,2026A_exp2,2022.2.4,59.87704845957008,
1000,1,3.7,6.1,0,0,51,51,84,,,,,250.82142680004472,251.4721494000405,251.4721494000405,251.95662910002284,45,315,251.95662910002284,251.95662910002284,251.95662910002284,251.95662910002284,251.95662910002284,251.95662910002284,251.95662910002284,251.95662910002284,251.95662910002284,252.32305130001623,252.32305130001623,252.32305130001623,252.32305130001623,252.32305130001623,252.32305130001623,252.32305130001623,252.32305130001623,252.32305130001623,0,1,[0.001281399978324771],[0.367391099978704],252.32305130001623,252.52522450004471,1000,252.52522450004471,1000,1000,1000,1000,1,num_2,0.6462971000000834,,23,2,2026-03-04_13h18.39.646,2026A_exp2,2022.2.4,59.87704845957008,
1,0,0.0,4.9,0,0,52,52,4,,,,,253.19067129999166,253.84123200003523,253.84123200003523,254.34235220000846,45,315,254.34235220000846,254.34235220000846,254.34235220000846,254.34235220000846,254.34235220000846,254.34235220000846,254.34235220000846,254.34235220000846,254.34235220000846,254.70837910001865,254.70837910001865,254.70837910001865,254.70837910001865,254.70837910001865,254.70837910001865,254.70837910001865,254.70837910001865,254.70837910001865,23,0,,,254.70837910001865,254.9087069000234,0.0,254.9087069000234,0,0.0,0,1,1000,num_1,1.2626922000199556,,23,2,2026-03-04_13h18.39.646,2026A_exp2,2022.2.4,59.87704845957008,
1000,1,4.9,0.0,0,0,53,53,26,,,,,256.19354450004175,256.8441427000216,256.8441427000216,257.32861180003965,315,315,257.32861180003965,257.32861180003965,257.32861180003965,257.32861180003965,257.32861180003965,257.32861180003965,257.32861180003965,257.32861180003965,257.32861180003965,257.6950695000123,257.6950695000123,257.6950695000123,257.6950695000123,257.6950695000123,257.6950695000123,257.6950695000123,257.6950695000123,257.6950695000123,3,1,[0.05030220001935959],[0.36729180003749207],257.6950695000123,257.89566880004713,1000,257.89566880004713,1000,1000,1000,1000,0,num_3,1.3554540000041015,,23,2,2026-03-04_13h18.39.646,2026A_exp2,2022.2.4,59.87704845957008,
1000,1,0.0,0.0,1,0,54,54,23,,,,,259.27989100001287,259.93066040001577,259.93066040001577,260.4316197000444,315,45,260.4316197000444,260.4316197000444,260.4316197000444,260.4316197000444,260.4316197000444,260.4316197000444,260.4316197000444,260.4316197000444,260.4316197000444,260.78151659999276,260.78151659999276,260.78151659999276,260.78151659999276,260.78151659999276,260.78151659999276,260.78151659999276,260.78151659999276,260.78151659999276,22,0,,,260.78151659999276,260.98406099999556,1000,260.98406099999556,1000,1000,1000,1000,1,num_2,0.571597300004214,,23,2,2026-03-04_13h18.39.646,2026A_exp2,2022.2.4,59.87704845957008,
1000,1,0.0,3.7,0,0,55,55,51,,,,,261.58236390003003,262.2329285000451,262.2329285000451,262.7340498000267,315,45,262.7340498000267,262.7340498000267,262.7340498000267,262.7340498000267,262.7340498000267,262.7340498000267,262.7340498000267,262.7340498000267,262.7340498000267,263.08373280003434,263.08373280003434,263.08373280003434,263.08373280003434,263.08373280003434,263.08373280003434,263.08373280003434,263.08373280003434,263.08373280003434,22,0,,,263.08373280003434,263.28589060000377,1000,263.28589060000377,1000,1000,1000,1000,0,num_3,2.8687624000012875,,23,2,2026-03-04_13h18.39.646,2026A_exp2,2022.2.4,59.87704845957008,
1000,1,4.9,0.0,1,0,56,56,72,,,,,266.17049789999146,266.8208582000225,266.8208582000225,267.3218757000286,45,45,267.3218757000286,267.3218757000286,267.3218757000286,267.3218757000286,267.3218757000286,267.3218757000286,267.3218757000286,267.3218757000286,267.3218757000286,267.6889910000027,267.6889910000027,267.6889910000027,267.6889910000027,267.6889910000027,267.6889910000027,267.6889910000027,267.6889910000027,267.6889910000027,6,1,[0.10027029999764636],[0.36714559997199103],267.6889910000027,267.89072810002835,1000,267.89072810002835,1000,1000,1000,1000,0,num_3,1.2409472999861464,,23,2,2026-03-04_13h18.39.646,2026A_exp2,2022.2.4,59.87704845957008,
1000,1,0.0,4.9,1,0,57,57,59,,,,,269.156429500028,269.80721930001164,269.80721930001164,270.32512240001233,315,45,270.32512240001233,270.32512240001233,270.32512240001233,270.32512240001233,270.32512240001233,270.32512240001233,270.32512240001233,270.32512240001233,270.32512240001233,270.67474280000897,270.67474280000897,270.67474280000897,270.67474280000897,270.67474280000897,270.67474280000897,270.67474280000897,270.67474280000897,270.67474280000897,0,1,[0.004468100029043853],[0.3643650999874808],270.67474280000897,270.8784244999988,1000,270.8784244999988,1000,1000,1000,1000,1,num_2,1.3162684999988414,,23,2,2026-03-04_13h18.39.646,2026A_exp2,2022.2.4,59.87704845957008,
1,0,0.0,3.7,1,0,58,58,66,,,,,272.22644620004576,272.8769423000049,272.8769423000049,273.37790200003656,45,315,273.37790200003656,273.37790200003656,273.37790200003656,273.37790200003656,273.37790200003656,273.37790200003656,273.37790200003656,273.37790200003656,273.37790200003656,273.7276028000051,273.7276028000051,273.7276028000051,273.7276028000051,273.7276028000051,273.7276028000051,273.7276028000051,273.7276028000051,273.7276028000051,4,1,[0.00119270000141114],[0.3005939000286162],273.7276028000051,273.9277737000375,3.7,273.9277737000375,0,3.7,1,0,1000,num_1,1.027583900024183,,23,2,2026-03-04_13h18.39.646,2026A_exp2,2022.2.4,59.87704845957008,
1000,1,0.0,6.1,1,0,59,59,88,,,,,274.9788194000139,275.6296110000112,275.6296110000112,276.11409300001105,315,45,276.11409300001105,276.11409300001105,276.11409300001105,276.11409300001105,276.11409300001105,276.11409300001105,276.11409300001105,276.11409300001105,276.11409300001105,276.4803396000061,276.4803396000061,276.4803396000061,276.4803396000061,276.4803396000061,276.4803396000061,276.4803396000061,276.4803396000061,276.4803396000061,23,0,,,276.4803396000061,276.68295970000327,1000,276.68295970000327,1000,1000,1000,1000,0,num_3,1.823930200014729,,23,2,2026-03-04_13h18.39.646,2026A_exp2,2022.2.4,59.87704845957008,
1,0,4.9,0.0,1,0,60,60,38,,,,,278.5324496999965,279.18325390003156,279.18325390003156,279.68428390001645,315,45,279.68428390001645,279.68428390001645,279.68428390001645,279.68428390001645,279.68428390001645,279.68428390001645,279.68428390001645,279.68428390001645,279.68428390001645,280.05070820002584,280.05070820002584,280.05070820002584,280.05070820002584,280.05070820002584,280.05070820002584,280.05070820002584,280.05070820002584,280.05070820002584,0,1,[0.0012701000086963177],[0.3670670000137761],280.05070820002584,280.2508094999939,0.0,280.2508094999939,1,0.0,0,0,1000,num_4,1.0160427000373602,,23,2,2026-03-04_13h18.39.646,2026A_exp2,2022.2.4,59.87704845957008,
1000,1,0.0,6.1,0,0,61,61,37,,,,,281.28552330000093,281.935925400001,281.935925400001,282.4203570000245,315,315,282.4203570000245,282.4203570000245,282.4203570000245,282.4203570000245,282.4203570000245,282.4203570000245,282.4203570000245,282.4203570000245,282.4203570000245,282.78679770004237,282.78679770004237,282.78679770004237,282.78679770004237,282.78679770004237,282.78679770004237,282.78679770004237,282.78679770004237,282.78679770004237,13,2,"[0.001180000021122396, 0.2505477000377141]","[0.03342910000355914, 0.36705360002815723]",282.78679770004237,282.9889283000375,1000,282.9889283000375,1000,1000,1000,1000,0,num_3,1.510339800035581,,23,2,2026-03-04_13h18.39.646,2026A_exp2,2022.2.4,59.87704845957008,
1,0,0.0,6.1,0,0,62,62,11,,,,,284.5218371000374,285.1725221000379,285.1725221000379,285.67363780003507,45,315,285.67363780003507,285.67363780003507,285.67363780003507,285.67363780003507,285.67363780003507,285.67363780003507,285.67363780003507,285.67363780003507,285.67363780003507,286.02324750000844,286.02324750000844,286.02324750000844,286.02324750000844,286.02324750000844,286.02324750000844,286.02324750000844,286.02324750000844,286.02324750000844,0,1,[0.0013902999926358461],[0.3503144000424072],286.02324750000844,286.2236580000026,0.0,286.24030360003235,1,0.0,0,0,1000,num_4,1.5231580000254326,,23,2,2026-03-04_13h18.39.646,2026A_exp2,2022.2.4,59.87704845957008,
1000,1,0.0,0.0,1,0,63,63,33,,,,,287.79170290002367,288.42587790003745,288.42587790003745,288.926954900031,45,45,288.926954900031,288.926954900031,288.926954900031,288.926954900031,288.926954900031,288.926954900031,288.926954900031,288.926954900031,288.926954900031,289.2932894999976,289.2932894999976,289.2932894999976,289.2932894999976,289.2932894999976,289.2932894999976,289.2932894999976,289.2932894999976,289.2932894999976,0,1,[0.0011890000314451754],[0.3672818000195548],289.2932894999976,289.49535129999276,1000,289.49535129999276,1000,1000,1000,1000,1,num_2,1.4196203000028618,,23,2,2026-03-04_13h18.39.646,2026A_exp2,2022.2.4,59.87704845957008,
1000,1,0.0,6.1,0,0,64,64,9,,,,,290.93193110002903,291.58873890002724,291.58873890002724,292.0956581000355,45,315,292.0956581000355,292.0956581000355,292.0956581000355,292.0956581000355,292.0956581000355,292.0956581000355,292.0956581000355,292.0956581000355,292.0956581000355,292.4464931000257,292.4464931000257,292.4464931000257,292.4464931000257,292.4464931000257,292.4464931000257,292.4464931000257,292.4464931000257,292.4464931000257,11,2,"[0.08657360001234338, 0.29847129998961464]","[0.19838329998310655, 0.3655272999894805]",292.4464931000257,292.64665370003786,1000,292.64665370003786,1000,1000,1000,1000,0,num_3,2.076181499985978,,23,2,2026-03-04_13h18.39.646,2026A_exp2,2022.2.4,59.87704845957008,
0,0,6.1,3.7,1,0,65,65,49,,,,,294.752009799995,295.41014210000867,295.41014210000867,295.90041590004694,315,45,295.90041590004694,295.90041590004694,295.90041590004694,295.90041590004694,295.90041590004694,295.90041590004694,295.90041590004694,295.90041590004694,295.90041590004694,296.2669272000203,296.2669272000203,296.2669272000203,296.2669272000203,296.2669272000203,296.2669272000203,296.2669272000203,296.2669272000203,296.2669272000203,9,3,"[0.0011957999668084085, 0.3003825999912806, 0.35057439998490736]","[0.16684039996471256, 0.3336827000021003, 0.3671681999694556]",296.2669272000203,296.4671990000061,6.1,296.4671990000061,0,6.1,1,0,1000,num_1,1.0328167999978177,,23,2,2026-03-04_13h18.39.646,2026A_exp2,2022.2.4,59.87704845957008,
1,0,3.7,0.0,1,0,66,66,50,,,,,297.5184893000405,298.1692207000451,298.1692207000451,298.66993930004537,45,45,298.66993930004537,298.66993930004537,298.66993930004537,298.66993930004537,298.66993930004537,298.66993930004537,298.66993930004537,298.66993930004537,298.66993930004537,299.0368652000325,299.0368652000325,299.0368652000325,299.0368652000325,299.0368652000325,299.0368652000325,299.0368652000325,299.0368652000325,299.0368652000325,0,1,[0.0012054999824613333],[0.3665381000027992],299.0368652000325,299.23664260003716,0.0,299.23664260003716,1,0.0,0,0,1000,num_4,1.2469925000332296,,23,2,2026-03-04_13h18.39.646,2026A_exp2,2022.2.4,59.87704845957008,
1000,1,0.0,0.0,0,0,67,67,80,,,,,300.50437780003995,301.16706880001584,301.16706880001584,301.63950720004505,315,315,301.63950720004505,301.63950720004505,301.63950720004505,301.63950720004505,301.63950720004505,301.63950720004505,301.63950720004505,301.63950720004505,301.63950720004505,302.00596120004775,302.00596120004775,302.00596120004775,302.00596120004775,302.00596120004775,302.00596120004775,302.00596120004775,302.00596120004775,302.00596120004775,0,1,[0.0011918999953195453],[0.3671975000179373],302.00596120004775,302.2079015999916,1000,302.2079015999916,1000,1000,1000,1000,1,num_2,1.467794700001832,,23,2,2026-03-04_13h18.39.646,2026A_exp2,2022.2.4,59.87704845957008,
1,0,3.7,0.0,0,0,68,68,3,,,,,303.69110320002073,304.3416566000087,304.3416566000087,304.84261640004115,45,315,304.84261640004115,304.84261640004115,304.84261640004115,304.84261640004115,304.84261640004115,304.84261640004115,304.84261640004115,304.84261640004115,304.84261640004115,305.2092358000227,305.2092358000227,305.2092358000227,305.2092358000227,305.2092358000227,305.2092358000227,305.2092358000227,305.2092358000227,305.2092358000227,0,1,[0.001607899961527437],[0.3668116999906488],305.2092358000227,305.4094918000046,3.7,305.4094918000046,0,3.7,1,0,1000,num_1,1.7782119999756105,,23,2,2026-03-04_13h18.39.646,2026A_exp2,2022.2.4,59.87704845957008,
1,0,3.7,6.1,0,0,69,69,55,,,,,307.2115996000357,307.861943099997,307.861943099997,308.34625430003507,45,315,308.34625430003507,308.34625430003507,308.34625430003507,308.34625430003507,308.34625430003507,308.34625430003507,308.34625430003507,308.34625430003507,308.34625430003507,308.7127104999963,308.7127104999963,308.7127104999963,308.7127104999963,308.7127104999963,308.7127104999963,308.7127104999963,308.7127104999963,308.7127104999963,23,0,,,308.7127104999963,308.9128198000253,3.7,308.9128198000253,0,3.7,1,0,1000,num_1,0.9861165000475012,,23,2,2026-03-04_13h18.39.646,2026A_exp2,2022.2.4,59.87704845957008,
1000,1,0.0,4.9,1,0,70,70,31,,,,,309.93046980001964,310.5812424000469,310.5812424000469,311.0655936000403,45,45,311.0655936000403,311.0655936000403,311.0655936000403,311.0655936000403,311.0655936000403,311.0655936000403,311.0655936000403,311.0655936000403,311.0655936000403,311.43213359999936,311.43213359999936,311.43213359999936,311.43213359999936,311.43213359999936,311.43213359999936,311.43213359999936,311.43213359999936,311.43213359999936,2,1,[0.03337170003214851],[0.36691500002052635],311.43213359999936,311.6339926000219,1000,311.6339926000219,1000,1000,1000,1000,1,num_2,1.9295451999641955,,23,2,2026-03-04_13h18.39.646,2026A_exp2,2022.2.4,59.87704845957008,
1000,1,3.7,0.0,1,0,71,71,48,,,,,313.5842041000142,314.2349418000085,314.2349418000085,314.7364009000012,315,315,314.7364009000012,314.7364009000012,314.7364009000012,314.7364009000012,314.7364009000012,314.7364009000012,314.7364009000012,314.7364009000012,314.7364009000012,315.10245820001,315.10245820001,315.10245820001,315.10245820001,315.10245820001,315.10245820001,315.10245820001,315.10245820001,315.10245820001,0,1,[0.0007273999508470297],[0.367406299978029],315.10245820001,315.3042270000442,1000,315.3042270000442,1000,1000,1000,1000,1,num_2,1.57952629995998,,23,2,2026-03-04_13h18.39.646,2026A_exp2,2022.2.4,59.87704845957008,
1000,1,0.0,0.0,0,0,72,72,18,,,,,316.9042051000288,317.55486100004055,317.55486100004055,318.05602240003645,45,45,318.05602240003645,318.05602240003645,318.05602240003645,318.05602240003645,318.05602240003645,318.05602240003645,318.05602240003645,318.05602240003645,318.05602240003645,318.4056498000282,318.4056498000282,318.4056498000282,318.4056498000282,318.4056498000282,318.4056498000282,318.4056498000282,318.4056498000282,318.4056498000282,22,0,,,318.4056498000282,318.6078225999954,1000,318.6078225999954,1000,1000,1000,1000,0,num_3,2.6352355999988504,,23,2,2026-03-04_13h18.39.646,2026A_exp2,2022.2.4,59.87704845957008,
1000,1,4.9,0.0,1,0,73,73,5,,,,,321.2585714000161,321.9093190000276,321.9093190000276,322.41028390004067,45,315,322.41028390004067,322.41028390004067,322.41028390004067,322.41028390004067,322.41028390004067,322.41028390004067,322.41028390004067,322.41028390004067,322.41028390004067,322.7767031000112,322.7767031000112,322.7767031000112,322.7767031000112,322.7767031000112,322.7767031000112,322.7767031000112,322.7767031000112,322.7767031000112,4,2,"[0.01757030002772808, 0.2839292000280693]","[0.26713130000280216, 0.35069600003771484]",322.7767031000112,322.97862650000025,1000,322.97862650000025,1000,1000,1000,1000,1,num_2,0.9287291000364348,,23,2,2026-03-04_13h18.39.646,2026A_exp2,2022.2.4,59.87704845957008,
1000,1,3.7,0.0,0,0,74,74,57,,,,,323.9278849000111,324.57866430003196,324.57866430003196,325.07974469999317,315,45,325.07974469999317,325.07974469999317,325.07974469999317,325.07974469999317,325.07974469999317,325.07974469999317,325.07974469999317,325.07974469999317,325.07974469999317,325.4294925000286,325.4294925000286,325.4294925000286,325.4294925000286,325.4294925000286,325.4294925000286,325.4294925000286,325.4294925000286,325.4294925000286,15,3,"[0.1669936000253074, 0.2671362000401132, 0.30036390002351254]","[0.2503683000104502, 0.28380710002966225, 0.31717829999979585]",325.4294925000286,325.6313264000346,1000,325.6313264000346,1000,1000,1000,1000,1,num_2,0.8115048999898136,,23,2,2026-03-04_13h18.39.646,2026A_exp2,2022.2.4,59.87704845957008,
1000,1,0.0,0.0,1,0,75,75,67,,,,,326.46376060001785,327.1144918000209,327.1144918000209,327.6156095000333,315,45,327.6156095000333,327.6156095000333,327.6156095000333,327.6156095000333,327.6156095000333,327.6156095000333,327.6156095000333,327.6156095000333,327.6156095000333,327.98203240003204,327.98203240003204,327.98203240003204,327.98203240003204,327.98203240003204,327.98203240003204,327.98203240003204,327.98203240003204,327.98203240003204,6,2,"[0.0011686999932862818, 0.23380819999147207]","[0.13368929998250678, 0.3673080999869853]",327.98203240003204,328.18469170003664,1000,328.18469170003664,1000,1000,1000,1000,0,num_3,1.323290599975735,,23,2,2026-03-04_13h18.39.646,2026A_exp2,2022.2.4,59.87704845957008,
1000,1,0.0,0.0,1,0,76,76,27,,,,,329.5334261000389,330.1841585999937,330.1841585999937,330.6853583000484,315,45,330.6853583000484,330.6853583000484,330.6853583000484,330.6853583000484,330.6853583000484,330.6853583000484,330.6853583000484,330.6853583000484,330.6853583000484,331.03491089999443,331.03491089999443,331.03491089999443,331.03491089999443,331.03491089999443,331.03491089999443,331.03491089999443,331.03491089999443,331.03491089999443,0,1,[0.001323400007095188],[0.35064560000319034],331.03491089999443,331.2371936000418,1000,331.2517930000322,1000,1000,1000,1000,1,num_2,0.6070388999651186,,23,2,2026-03-04_13h18.39.646,2026A_exp2,2022.2.4,59.87704845957008,
1000,1,6.1,0.0,1,0,77,77,75,,,,,331.8858342000167,332.53662520000944,332.53662520000944,333.0377267000149,315,315,333.0377267000149,333.0377267000149,333.0377267000149,333.0377267000149,333.0377267000149,333.0377267000149,333.0377267000149,333.0377267000149,333.0377267000149,333.404015600041,333.404015600041,333.404015600041,333.404015600041,333.404015600041,333.404015600041,333.404015600041,333.404015600041,333.404015600041,10,2,"[0.0012449999921955168, 0.30035989999305457]","[0.150182000012137, 0.3504040999687277]",333.404015600041,333.60623140004463,1000,333.60623140004463,1000,1000,1000,1000,0,num_3,1.0687579000368714,,23,2,2026-03-04_13h18.39.646,2026A_exp2,2022.2.4,59.87704845957008,
1000,1,0.0,0.0,1,0,78,78,12,,,,,334.70528260001447,335.3560362000135,335.3560362000135,335.85706060001394,315,315,335.85706060001394,335.85706060001394,335.85706060001394,335.85706060001394,335.85706060001394,335.85706060001394,335.85706060001394,335.85706060001394,335.85706060001394,336.2235631000367,336.2235631000367,336.2235631000367,336.2235631000367,336.2235631000367,336.2235631000367,336.2235631000367,336.2235631000367,336.2235631000367,6,2,"[0.06694580003386363, 0.11714050004957244]","[0.08347980002872646, 0.36750620004022494]",336.2235631000367,336.42539920000127,1000,336.42539920000127,1000,1000,1000,1000,1,num_2,1.8013097000075504,,23,2,2026-03-04_13h18.39.646,2026A_exp2,2022.2.4,59.87704845957008,
1,0,0.0,3.7,1,0,79,79,41,,,,,338.24215940001886,338.89284630003385,338.89284630003385,339.39411100000143,45,45,339.39411100000143,339.39411100000143,339.39411100000143,339.39411100000143,339.39411100000143,339.39411100000143,339.39411100000143,339.39411100000143,339.39411100000143,339.7605506000109,339.7605506000109,339.7605506000109,339.7605506000109,339.7605506000109,339.7605506000109,339.7605506000109,339.7605506000109,339.7605506000109,17,4,"[0.01737800001865253, 0.15061680000508204, 0.20066799997584894, 0.23405610001645982]","[0.06693279999308288, 0.16719429998192936, 0.21733880002284423, 0.25077310000779107]",339.7605506000109,339.9606935000047,3.7,339.9606935000047,0,3.7,1,0,1000,num_1,1.6660754000185989,,23,2,2026-03-04_13h18.39.646,2026A_exp2,2022.2.4,59.87704845957008,
1,0,0.0,0.0,0,0,80,80,63,,,,,341.645390700025,342.29619910003385,342.29619910003385,342.7807929000119,45,315,342.7807929000119,342.7807929000119,342.7807929000119,342.7807929000119,342.7807929000119,342.7807929000119,342.7807929000119,342.7807929000119,342.7807929000119,343.1471403000178,343.1471403000178,343.1471403000178,343.1471403000178,343.1471403000178,343.1471403000178,343.1471403000178,343.1471403000178,343.1471403000178,4,2,"[0.001288199971895665, 0.08362549997400492]","[0.017439600022044033, 0.36719000001903623]",343.1471403000178,343.3474022000446,0.0,343.3474022000446,0,0.0,0,1,1000,num_1,1.3923538000090048,,23,2,2026-03-04_13h18.39.646,2026A_exp2,2022.2.4,59.87704845957008,
1000,1,3.7,4.9,1,0,81,81,43,,,,,344.7655963000143,345.3995286000427,345.3995286000427,345.900445300038,315,315,345.900445300038,345.900445300038,345.900445300038,345.900445300038,345.900445300038,345.900445300038,345.900445300038,345.900445300038,345.900445300038,346.2668749000295,346.2668749000295,346.2668749000295,346.2668749000295,346.2668749000295,346.2668749000295,346.2668749000295,346.2668749000295,346.2668749000295,9,2,"[0.001202800020109862, 0.2004933999851346]","[0.05029590002959594, 0.3673651000135578]",346.2668749000295,346.46889730001567,1000,346.46889730001567,1000,1000,1000,1000,0,num_3,1.8069772000308149,,23,2,2026-03-04_13h18.39.646,2026A_exp2,2022.2.4,59.87704845957008,
1000,1,6.1,0.0,0,0,82,82,82,,,,,348.3022769000381,348.95300480001606,348.95300480001606,349.45407880004495,45,315,349.45407880004495,349.45407880004495,349.45407880004495,349.45407880004495,349.45407880004495,349.45407880004495,349.45407880004495,349.45407880004495,349.45407880004495,349.82044410001254,349.82044410001254,349.82044410001254,349.82044410001254,349.82044410001254,349.82044410001254,349.82044410001254,349.82044410001254,349.82044410001254,23,0,,,349.82044410001254,350.02233030000934,1000,350.02233030000934,1000,1000,1000,1000,0,num_3,0.7645026000100188,,23,2,2026-03-04_13h18.39.646,2026A_exp2,2022.2.4,59.87704845957008,
1,0,0.0,6.1,0,0,83,83,34,,,,,350.804724799993,351.455345400027,351.455345400027,351.95647690002806,45,45,351.95647690002806,351.95647690002806,351.95647690002806,351.95647690002806,351.95647690002806,351.95647690002806,351.95647690002806,351.95647690002806,351.95647690002806,352.30633420002414,352.30633420002414,352.30633420002414,352.30633420002414,352.30633420002414,352.30633420002414,352.30633420002414,352.30633420002414,352.30633420002414,22,0,,,352.30633420002414,352.5065773000242,0.0,352.5065773000242,1,0.0,0,0,1000,num_4,1.9361678999848664,,23,2,2026-03-04_13h18.39.646,2026A_exp2,2022.2.4,59.87704845957008,
1,0,0.0,6.1,1,0,84,84,40,,,,,354.4583835999947,355.10918890003813,355.10918890003813,355.5934996000142,315,45,355.5934996000142,355.5934996000142,355.5934996000142,355.5934996000142,355.5934996000142,355.5934996000142,355.5934996000142,355.5934996000142,355.5934996000142,355.95987330004573,355.95987330004573,355.95987330004573,355.95987330004573,355.95987330004573,355.95987330004573,355.95987330004573,355.95987330004573,355.95987330004573,23,0,,,355.95987330004573,356.16002910002135,6.1,356.16002910002135,1,6.1,1,1,1000,num_4,1.1080373000004329,,23,2,2026-03-04_13h18.39.646,2026A_exp2,2022.2.4,59.87704845957008,
1000,1,0.0,0.0,0,0,85,85,64,,,,,357.2947307000286,357.94524020003155,357.94524020003155,358.4297713999986,315,45,358.4297713999986,358.4297713999986,358.4297713999986,358.4297713999986,358.4297713999986,358.4297713999986,358.4297713999986,358.4297713999986,358.4297713999986,358.79615770000964,358.79615770000964,358.79615770000964,358.79615770000964,358.79615770000964,358.79615770000964,358.79615770000964,358.79615770000964,358.79615770000964,23,0,,,358.79615770000964,358.9979537000181,1000,358.9979537000181,1000,1000,1000,1000,0,num_3,0.9968618999700993,,23,2,2026-03-04_13h18.39.646,2026A_exp2,2022.2.4,59.87704845957008,
1000,1,4.9,3.7,0,0,86,86,32,,,,,360.0139330000384,360.6647041999968,360.6647041999968,361.16567740001483,315,45,361.16567740001483,361.16567740001483,361.16567740001483,361.16567740001483,361.16567740001483,361.16567740001483,361.16567740001483,361.16567740001483,361.16567740001483,361.532193800027,361.532193800027,361.532193800027,361.532193800027,361.532193800027,361.532193800027,361.532193800027,361.532193800027,361.532193800027,5,2,"[0.04996979999123141, 0.2667755999718793]","[0.23333690001163632, 0.3668372000101954]",361.532193800027,361.7341012000106,1000,361.7341012000106,1000,1000,1000,1000,1,num_2,0.9576509000035003,,23,2,2026-03-04_13h18.39.646,2026A_exp2,2022.2.4,59.87704845957008,
0,0,0.0,0.0,1,0,87,87,89,,,,,362.7166121000191,363.36738350003725,363.36738350003725,363.86854570003925,45,45,363.86854570003925,363.86854570003925,363.86854570003925,363.86854570003925,363.86854570003925,363.86854570003925,363.86854570003925,363.86854570003925,363.86854570003925,364.2347574000014,364.2347574000014,364.2347574000014,364.2347574000014,364.2347574000014,364.2347574000014,364.2347574000014,364.2347574000014,364.2347574000014,0,1,[0.0007329999934881926],[0.36758029996417463],364.2347574000014,364.4350679999916,0.0,364.4350679999916,0,0.0,0,1,1000,num_1,1.8799489000230096,,23,2,2026-03-04_13h18.39.646,2026A_exp2,2022.2.4,59.87704845957008,
1,0,0.0,4.9,1,0,88,88,53,,,,,366.3368776999996,366.9876528000459,366.9876528000459,367.47213870001724,315,315,367.47213870001724,367.47213870001724,367.47213870001724,367.47213870001724,367.47213870001724,367.47213870001724,367.47213870001724,367.47213870001724,367.47213870001724,367.83821439999156,367.83821439999156,367.83821439999156,367.83821439999156,367.83821439999156,367.83821439999156,367.83821439999156,367.83821439999156,367.83821439999156,18,2,"[0.0011922999983653426, 0.08357830002205446]","[0.0668879000004381, 0.10027980001177639]",367.83821439999156,368.03858920000494,4.9,368.03858920000494,1,4.9,1,1,1000,num_4,1.3161918999976479,,23,2,2026-03-04_13h18.39.646,2026A_exp2,2022.2.4,59.87704845957008,
1,0,4.9,0.0,0,0,89,89,58,,,,,369.373244300019,370.0239130000118,370.0239130000118,370.5085017000092,45,45,370.5085017000092,370.5085017000092,370.5085017000092,370.5085017000092,370.5085017000092,370.5085017000092,370.5085017000092,370.5085017000092,370.5085017000092,370.87494970002444,370.87494970002444,370.87494970002444,370.87494970002444,370.87494970002444,370.87494970002444,370.87494970002444,370.87494970002444,370.87494970002444,1,1,[0.017606600013095886],[0.36733610002556816],370.87494970002444,371.07505540002603,4.9,371.07505540002603,1,4.9,1,1,1000,num_4,1.3515763000468723,,23,2,2026-03-04_13h18.39.646,2026A_exp2,2022.2.4,59.87704845957008,
,,,,,,,,,,,,,,,,,,,,,,,,,,,,,,,,,,,,,,,,,,,,,,,,,,,,372.452225200017,,,,,,,
