validity,detectorcomp,contrastCW,contrastCCW,precueCWorCCW,block_80trials.thisRepN,block_80trials.thisTrialN,block_80trials.thisN,block_80trials.thisIndex,etRecord.started,etRecord.stopped,text.started,text.stopped,text_4.started,text_4.stopped,text_6.started,text_6.stopped,oriCW,oriCCW,roi_2.started,grating_UR.started,grating_UL.started,grating_LR.started,grating_LL.started,noise_UR.started,noise_UL.started,noise_LR.started,noise_LL.started,roi_2.stopped,grating_UR.stopped,grating_UL.stopped,grating_LR.stopped,grating_LL.stopped,noise_UR.stopped,noise_UL.stopped,noise_LR.stopped,noise_LL.stopped,outframe,roi_2.numLooks,roi_2.timesOn,roi_2.timesOff,text_2.started,text_2.stopped,probedcontrast,key_resp.started,respdetect,relevantContrast,correctDetect,TorFdetect,respCWorCCW,key_resp.keys,key_resp.rt,feedback_display_.started,participantNo,blockNo,date,expName,psychopyVersion,frameRate,
1,0,4.9,0.0,0,0,0,0,4,7.850001566112041e-05,7.850001566112041e-05,54.73635320016183,56.73899730015546,56.73899730015546,57.373020300175995,57.373020300175995,57.895146999973804,315,315,57.895146999973804,57.895146999973804,57.895146999973804,57.895146999973804,57.895146999973804,57.895146999973804,57.895146999973804,57.895146999973804,57.895146999973804,58.24073820002377,58.24073820002377,58.24073820002377,58.24073820002377,58.24073820002377,58.24073820002377,58.24073820002377,58.24073820002377,58.24073820002377,0,1,[0.0010542001109570265],[0.36600879998877645],58.24073820002377,58.44103049999103,4.9,58.44103049999103,1,4.9,1,1,1000,num_4,0.7774894998874515,,34,9,2026-03-13_10h52.28.747,2026A_exp2,2022.2.4,59.76818309934589,
1,0,0.0,0.0,0,0,1,1,17,,,,,59.24177900003269,59.87561820005067,59.87561820005067,60.37680770014413,45,315,60.37680770014413,60.37680770014413,60.37680770014413,60.37680770014413,60.37680770014413,60.37680770014413,60.37680770014413,60.37680770014413,60.37680770014413,60.74325529998168,60.74325529998168,60.74325529998168,60.74325529998168,60.74325529998168,60.74325529998168,60.74325529998168,60.74325529998168,60.74325529998168,0,1,[0.0012165000662207603],[0.36713410005904734],60.74325529998168,60.943417200120166,0.0,60.943417200120166,0,0.0,0,1,1000,num_1,0.61176129989326,,34,9,2026-03-13_10h52.28.747,2026A_exp2,2022.2.4,59.76818309934589,
1000,1,0.0,4.9,1,0,2,2,79,,,,,61.577264399966225,62.22795910015702,62.22795910015702,62.71247130003758,45,315,62.71247130003758,62.71247130003758,62.71247130003758,62.71247130003758,62.71247130003758,62.71247130003758,62.71247130003758,62.71247130003758,62.71247130003758,63.07864239998162,63.07864239998162,63.07864239998162,63.07864239998162,63.07864239998162,63.07864239998162,63.07864239998162,63.07864239998162,63.07864239998162,0,1,[0.0012469999492168427],[0.3668539000209421],63.07864239998162,63.28391420003027,1000,63.28391420003027,1000,1000,1000,1000,1,num_2,0.6627533999271691,,34,9,2026-03-13_10h52.28.747,2026A_exp2,2022.2.4,59.76818309934589,
0,0,0.0,0.0,1,0,3,3,38,,,,,63.96327539999038,64.61361999996006,64.61361999996006,65.11463780002668,45,45,65.11463780002668,65.11463780002668,65.11463780002668,65.11463780002668,65.11463780002668,65.11463780002668,65.11463780002668,65.11463780002668,65.11463780002668,65.46454630000517,65.46454630000517,65.46454630000517,65.46454630000517,65.46454630000517,65.46454630000517,65.46454630000517,65.46454630000517,65.46454630000517,0,1,[0.0012297998182475567],[0.35080110002309084],65.46454630000517,65.66465579997748,0.0,65.66465579997748,0,0.0,0,1,1000,num_1,0.6172992999199778,,34,9,2026-03-13_10h52.28.747,2026A_exp2,2022.2.4,59.76818309934589,
1000,1,3.7,0.0,0,0,4,4,66,,,,,66.29875289998017,66.94916520011611,66.94916520011611,67.43378249998204,315,45,67.43378249998204,67.43378249998204,67.43378249998204,67.43378249998204,67.43378249998204,67.43378249998204,67.43378249998204,67.43378249998204,67.43378249998204,67.80089820013382,67.80089820013382,67.80089820013382,67.80089820013382,67.80089820013382,67.80089820013382,67.80089820013382,67.80089820013382,67.80089820013382,0,1,[0.0007533999159932137],[0.3688996999990195],67.80089820013382,68.00018670014106,1000,68.00018670014106,1000,1000,1000,1000,0,num_3,0.4985931997653097,,34,9,2026-03-13_10h52.28.747,2026A_exp2,2022.2.4,59.76818309934589,
1000,1,0.0,4.9,0,0,5,5,74,,,,,68.51749680005014,69.16786140017211,69.16786140017211,69.65392000018619,315,45,69.65392000018619,69.65392000018619,69.65392000018619,69.65392000018619,69.65392000018619,69.65392000018619,69.65392000018619,69.65392000018619,69.65392000018619,70.01976560009643,70.01976560009643,70.01976560009643,70.01976560009643,70.01976560009643,70.01976560009643,70.01976560009643,70.01976560009643,70.01976560009643,0,1,[0.0007493000011891127],[0.3664906998164952],70.01976560009643,70.22110750013962,1000,70.22110750013962,1000,1000,1000,1000,1,num_2,0.6293195998296142,,34,9,2026-03-13_10h52.28.747,2026A_exp2,2022.2.4,59.76818309934589,
1,0,0.0,6.1,0,0,6,6,82,,,,,70.87000200012699,71.50521169998683,71.50521169998683,72.00504499999806,45,315,72.00504499999806,72.00504499999806,72.00504499999806,72.00504499999806,72.00504499999806,72.00504499999806,72.00504499999806,72.00504499999806,72.00504499999806,72.37145870015956,72.37145870015956,72.37145870015956,72.37145870015956,72.37145870015956,72.37145870015956,72.37145870015956,72.37145870015956,72.37145870015956,0,1,[0.0007015999872237444],[0.36718109995126724],72.37145870015956,72.57187149999663,0.0,72.57187149999663,0,0.0,0,1,1000,num_1,0.6460716999135911,,34,9,2026-03-13_10h52.28.747,2026A_exp2,2022.2.4,59.76818309934589,
1000,1,6.1,4.9,0,0,7,7,68,,,,,73.23883479996584,73.88952520000748,73.88952520000748,74.37413320015185,45,45,74.37413320015185,74.37413320015185,74.37413320015185,74.37413320015185,74.37413320015185,74.37413320015185,74.37413320015185,74.37413320015185,74.37413320015185,74.74058330012485,74.74058330012485,74.74058330012485,74.74058330012485,74.74058330012485,74.74058330012485,74.74058330012485,74.74058330012485,74.74058330012485,0,1,[0.0012179999612271786],[0.3669302000198513],74.74058330012485,74.94259860017337,1000,74.94259860017337,1000,1000,1000,1000,0,num_3,0.5240239996928722,,34,9,2026-03-13_10h52.28.747,2026A_exp2,2022.2.4,59.76818309934589,
1000,1,3.7,4.9,0,0,8,8,80,,,,,75.49116330011748,76.14196839998476,76.14196839998476,76.64309380017221,45,315,76.64309380017221,76.64309380017221,76.64309380017221,76.64309380017221,76.64309380017221,76.64309380017221,76.64309380017221,76.64309380017221,76.64309380017221,76.99276669998653,76.99276669998653,76.99276669998653,76.99276669998653,76.99276669998653,76.99276669998653,76.99276669998653,76.99276669998653,76.99276669998653,0,1,[0.0012040999718010426],[0.35050699999555945],76.99276669998653,77.19506580010056,1000,77.19506580010056,1000,1000,1000,1000,1,num_2,0.5514626998919994,,34,9,2026-03-13_10h52.28.747,2026A_exp2,2022.2.4,59.76818309934589,
1000,1,6.1,0.0,0,0,9,9,89,,,,,77.77688200003468,78.42757010017522,78.42757010017522,78.94489610008895,45,315,78.94489610008895,78.94489610008895,78.94489610008895,78.94489610008895,78.94489610008895,78.94489610008895,78.94489610008895,78.94489610008895,78.94489610008895,79.2947522001341,79.2947522001341,79.2947522001341,79.2947522001341,79.2947522001341,79.2947522001341,79.2947522001341,79.2947522001341,79.2947522001341,21,1,[0.34873580001294613],[0.36516720009967685],79.2947522001341,79.4971799000632,1000,79.4971799000632,1000,1000,1000,1000,0,num_3,0.5608454998582602,,34,9,2026-03-13_10h52.28.747,2026A_exp2,2022.2.4,59.76818309934589,
1000,1,0.0,0.0,1,0,10,10,23,,,,,80.07899600011297,80.72985120001249,80.72985120001249,81.23104220000096,45,45,81.23104220000096,81.23104220000096,81.23104220000096,81.23104220000096,81.23104220000096,81.23104220000096,81.23104220000096,81.23104220000096,81.23104220000096,81.59741759998724,81.59741759998724,81.59741759998724,81.59741759998724,81.59741759998724,81.59741759998724,81.59741759998724,81.59741759998724,81.59741759998724,23,0,,,81.59741759998724,81.79942620010115,1000,81.79942620010115,1000,1000,1000,1000,0,num_3,0.8183947000652552,,34,9,2026-03-13_10h52.28.747,2026A_exp2,2022.2.4,59.76818309934589,
1000,1,3.7,0.0,1,0,11,11,54,,,,,82.64839030010626,83.29911610018462,83.29911610018462,83.79994449997321,315,45,83.79994449997321,83.79994449997321,83.79994449997321,83.79994449997321,83.79994449997321,83.79994449997321,83.79994449997321,83.79994449997321,83.79994449997321,84.16661880002357,84.16661880002357,84.16661880002357,84.16661880002357,84.16661880002357,84.16661880002357,84.16661880002357,84.16661880002357,84.16661880002357,23,0,,,84.16661880002357,84.3687619001139,1000,84.3687619001139,1000,1000,1000,1000,0,num_3,0.44141880003735423,,34,9,2026-03-13_10h52.28.747,2026A_exp2,2022.2.4,59.76818309934589,
1,0,3.7,4.9,0,0,12,12,76,,,,,84.83386610005982,85.48450000002049,85.48450000002049,85.98562479997054,315,45,85.98562479997054,85.98562479997054,85.98562479997054,85.98562479997054,85.98562479997054,85.98562479997054,85.98562479997054,85.98562479997054,85.98562479997054,86.35216829995625,86.35216829995625,86.35216829995625,86.35216829995625,86.35216829995625,86.35216829995625,86.35216829995625,86.35216829995625,86.35216829995625,0,1,[0.0012110001407563686],[0.36719180014915764],86.35216829995625,86.55222130008042,3.7,86.55222130008042,1,3.7,1,1,1000,num_4,0.7219228998292238,,34,9,2026-03-13_10h52.28.747,2026A_exp2,2022.2.4,59.76818309934589,
1,0,4.9,4.9,0,0,13,13,39,,,,,87.30307630007155,87.95353920012712,87.95353920012712,88.43819590006024,315,315,88.43819590006024,88.43819590006024,88.43819590006024,88.43819590006024,88.43819590006024,88.43819590006024,88.43819590006024,88.43819590006024,88.43819590006024,88.80460190004669,88.80460190004669,88.80460190004669,88.80460190004669,88.80460190004669,88.80460190004669,88.80460190004669,88.80460190004669,88.80460190004669,7,3,"[0.06690570013597608, 0.15034390008077025, 0.20026710000820458]","[0.11693140002898872, 0.18362050014548004, 0.3670606000814587]",88.80460190004669,89.0047117001377,4.9,89.0047117001377,0,4.9,1,0,1000,num_1,0.68584999977611,,34,9,2026-03-13_10h52.28.747,2026A_exp2,2022.2.4,59.76818309934589,
1,0,6.1,6.1,0,0,14,14,27,,,,,89.72199099999852,90.35607700003311,90.35607700003311,90.85712780011818,45,315,90.85712780011818,90.85712780011818,90.85712780011818,90.85712780011818,90.85712780011818,90.85712780011818,90.85712780011818,90.85712780011818,90.85712780011818,91.22370010009035,91.22370010009035,91.22370010009035,91.22370010009035,91.22370010009035,91.22370010009035,91.22370010009035,91.22370010009035,91.22370010009035,0,1,[0.0012482998427003622],[0.36702119978144765],91.22370010009035,91.4239472001791,6.1,91.4239472001791,1,6.1,1,1,1000,num_4,0.9147498998790979,,34,9,2026-03-13_10h52.28.747,2026A_exp2,2022.2.4,59.76818309934589,
1000,1,0.0,0.0,1,0,15,15,60,,,,,92.35800030012615,93.00878620008007,93.00878620008007,93.49327640002593,45,315,93.49327640002593,93.49327640002593,93.49327640002593,93.49327640002593,93.49327640002593,93.49327640002593,93.49327640002593,93.49327640002593,93.49327640002593,93.85971230012365,93.85971230012365,93.85971230012365,93.85971230012365,93.85971230012365,93.85971230012365,93.85971230012365,93.85971230012365,93.85971230012365,23,0,,,93.85971230012365,94.05970900016837,1000,94.05970900016837,1000,1000,1000,1000,1,num_2,0.7033551000058651,,34,9,2026-03-13_10h52.28.747,2026A_exp2,2022.2.4,59.76818309934589,
1000,1,0.0,0.0,0,0,16,16,72,,,,,94.78111360012554,95.42796080000699,95.42796080000699,95.92904790001921,315,315,95.92904790001921,95.92904790001921,95.92904790001921,95.92904790001921,95.92904790001921,95.92904790001921,95.92904790001921,95.92904790001921,95.92904790001921,96.29537330009043,96.29537330009043,96.29537330009043,96.29537330009043,96.29537330009043,96.29537330009043,96.29537330009043,96.29537330009043,96.29537330009043,0,1,[0.0013073000591248274],[0.36697940016165376],96.29537330009043,96.49723910004832,1000,96.49723910004832,1000,1000,1000,1000,1,num_2,0.5448360999580473,,34,9,2026-03-13_10h52.28.747,2026A_exp2,2022.2.4,59.76818309934589,
1000,1,0.0,6.1,0,0,17,17,35,,,,,97.06274130009115,97.71344810002483,97.71344810002483,98.21453960007057,45,315,98.21453960007057,98.21453960007057,98.21453960007057,98.21453960007057,98.21453960007057,98.21453960007057,98.21453960007057,98.21453960007057,98.21453960007057,98.58105490007438,98.58105490007438,98.58105490007438,98.58105490007438,98.58105490007438,98.58105490007438,98.58105490007438,98.58105490007438,98.58105490007438,23,0,,,98.58105490007438,98.78332240018062,1000,98.78332240018062,1000,1000,1000,1000,1,num_2,0.6105260998010635,,34,9,2026-03-13_10h52.28.747,2026A_exp2,2022.2.4,59.76818309934589,
1000,1,3.7,4.9,0,0,18,18,64,,,,,99.41507180011831,100.06568050011992,100.06568050011992,100.5669879000634,315,45,100.5669879000634,100.5669879000634,100.5669879000634,100.5669879000634,100.5669879000634,100.5669879000634,100.5669879000634,100.5669879000634,100.5669879000634,100.93343259999529,100.93343259999529,100.93343259999529,100.93343259999529,100.93343259999529,100.93343259999529,100.93343259999529,100.93343259999529,100.93343259999529,0,1,[0.0011168001219630241],[0.3672225000336766],100.93343259999529,101.13515740004368,1000,101.13515740004368,1000,1000,1000,1000,1,num_2,0.5149445997085422,,34,9,2026-03-13_10h52.28.747,2026A_exp2,2022.2.4,59.76818309934589,
1,0,4.9,6.1,0,0,19,19,33,,,,,101.66749670007266,102.31804360006936,102.31804360006936,102.81937639997341,315,315,102.81937639997341,102.81937639997341,102.81937639997341,102.81937639997341,102.81937639997341,102.81937639997341,102.81937639997341,102.81937639997341,102.81937639997341,103.18560870015062,103.18560870015062,103.18560870015062,103.18560870015062,103.18560870015062,103.18560870015062,103.18560870015062,103.18560870015062,103.18560870015062,4,1,[0.0012209999840706587],[0.31689390004612505],103.18560870015062,103.38592900009826,4.9,103.38592900009826,0,4.9,1,0,1000,num_1,0.5772010998334736,,34,9,2026-03-13_10h52.28.747,2026A_exp2,2022.2.4,59.76818309934589,
1000,1,0.0,3.7,0,0,20,20,57,,,,,103.98634409997612,104.63717090012506,104.63717090012506,105.1216068000067,315,45,105.1216068000067,105.1216068000067,105.1216068000067,105.1216068000067,105.1216068000067,105.1216068000067,105.1216068000067,105.1216068000067,105.1216068000067,105.48808080004528,105.48808080004528,105.48808080004528,105.48808080004528,105.48808080004528,105.48808080004528,105.48808080004528,105.48808080004528,105.48808080004528,23,0,,,105.48808080004528,105.68929060013033,1000,105.68929060013033,1000,1000,1000,1000,1,num_2,0.504990000044927,,34,9,2026-03-13_10h52.28.747,2026A_exp2,2022.2.4,59.76818309934589,
1,0,4.9,4.9,0,0,21,21,84,,,,,106.22185089997947,106.87265789997764,106.87265789997764,107.37368630012497,45,45,107.37368630012497,107.37368630012497,107.37368630012497,107.37368630012497,107.37368630012497,107.37368630012497,107.37368630012497,107.37368630012497,107.37368630012497,107.72339250007644,107.72339250007644,107.72339250007644,107.72339250007644,107.72339250007644,107.72339250007644,107.72339250007644,107.72339250007644,107.72339250007644,22,0,,,107.72339250007644,107.9237967999652,4.9,107.9237967999652,0,4.9,1,0,1000,num_1,0.5990134999155998,,34,9,2026-03-13_10h52.28.747,2026A_exp2,2022.2.4,59.76818309934589,
1,0,0.0,4.9,1,0,22,22,1,,,,,108.54092810000293,109.17489650007337,109.17489650007337,109.67601300007664,315,315,109.67601300007664,109.67601300007664,109.67601300007664,109.67601300007664,109.67601300007664,109.67601300007664,109.67601300007664,109.67601300007664,109.67601300007664,110.04255490005016,110.04255490005016,110.04255490005016,110.04255490005016,110.04255490005016,110.04255490005016,110.04255490005016,110.04255490005016,110.04255490005016,0,1,[0.001474600052461028],[0.36692880000919104],110.04255490005016,110.24262180016376,4.9,110.24262180016376,1,4.9,1,1,1000,num_4,0.5361778999213129,,34,9,2026-03-13_10h52.28.747,2026A_exp2,2022.2.4,59.76818309934589,
1000,1,3.7,0.0,0,0,23,23,32,,,,,110.80984620004892,111.46054640016519,111.46054640016519,111.94487710017711,315,315,111.94487710017711,111.94487710017711,111.94487710017711,111.94487710017711,111.94487710017711,111.94487710017711,111.94487710017711,111.94487710017711,111.94487710017711,112.31147249997593,112.31147249997593,112.31147249997593,112.31147249997593,112.31147249997593,112.31147249997593,112.31147249997593,112.31147249997593,112.31147249997593,0,1,[0.001217900076881051],[0.36711689992807806],112.31147249997593,112.5135103999637,1000,112.5135103999637,1000,1000,1000,1000,0,num_3,0.5444282998796552,,34,9,2026-03-13_10h52.28.747,2026A_exp2,2022.2.4,59.76818309934589,
1,0,0.0,0.0,0,0,24,24,51,,,,,113.07876159995794,113.72943940013647,113.72943940013647,114.23065440007485,315,315,114.23065440007485,114.23065440007485,114.23065440007485,114.23065440007485,114.23065440007485,114.23065440007485,114.23065440007485,114.23065440007485,114.23065440007485,114.59690480004065,114.59690480004065,114.59690480004065,114.59690480004065,114.59690480004065,114.59690480004065,114.59690480004065,114.59690480004065,114.59690480004065,23,0,,,114.59690480004065,114.79718150012195,0.0,114.79718150012195,0,0.0,0,1,1000,num_1,0.5979529998730868,,34,9,2026-03-13_10h52.28.747,2026A_exp2,2022.2.4,59.76818309934589,
1,0,3.7,0.0,1,0,25,25,11,,,,,115.41443310002796,116.0652381000109,116.0652381000109,116.54975750017911,315,315,116.54975750017911,116.54975750017911,116.54975750017911,116.54975750017911,116.54975750017911,116.54975750017911,116.54975750017911,116.54975750017911,116.54975750017911,116.91626900015399,116.91626900015399,116.91626900015399,116.91626900015399,116.91626900015399,116.91626900015399,116.91626900015399,116.91626900015399,116.91626900015399,23,0,,,116.91626900015399,117.11638140003197,0.0,117.11638140003197,1,0.0,0,0,1000,num_4,0.862320400075987,,34,9,2026-03-13_10h52.28.747,2026A_exp2,2022.2.4,59.76818309934589,
1,0,4.9,3.7,1,0,26,26,10,,,,,118.00022380007431,118.65113990008831,118.65113990008831,119.13554419996217,315,315,119.13554419996217,119.13554419996217,119.13554419996217,119.13554419996217,119.13554419996217,119.13554419996217,119.13554419996217,119.13554419996217,119.13554419996217,119.50199060002342,119.50199060002342,119.50199060002342,119.50199060002342,119.50199060002342,119.50199060002342,119.50199060002342,119.50199060002342,119.50199060002342,1,1,[0.0012170001864433289],[0.36710360017605126],119.50199060002342,119.70231670001522,3.7,119.70231670001522,0,3.7,1,0,1000,num_1,0.6129645998589694,,34,9,2026-03-13_10h52.28.747,2026A_exp2,2022.2.4,59.76818309934589,
1000,1,0.0,4.9,0,0,27,27,5,,,,,120.3359140001703,120.98680560011417,120.98680560011417,121.4711029001046,45,315,121.4711029001046,121.4711029001046,121.4711029001046,121.4711029001046,121.4711029001046,121.4711029001046,121.4711029001046,121.4711029001046,121.4711029001046,121.83764140005223,121.83764140005223,121.83764140005223,121.83764140005223,121.83764140005223,121.83764140005223,121.83764140005223,121.83764140005223,121.83764140005223,12,1,[0.2001819999422878],[0.3670411999337375],121.83764140005223,122.0399303000886,1000,122.0399303000886,1000,1000,1000,1000,0,num_3,0.6107359998859465,,34,9,2026-03-13_10h52.28.747,2026A_exp2,2022.2.4,59.76818309934589,
0,0,0.0,0.0,0,0,28,28,22,,,,,122.67167380009778,123.32245470001362,123.32245470001362,123.82356559997424,315,315,123.82356559997424,123.82356559997424,123.82356559997424,123.82356559997424,123.82356559997424,123.82356559997424,123.82356559997424,123.82356559997424,123.82356559997424,124.18982780002989,124.18982780002989,124.18982780002989,124.18982780002989,124.18982780002989,124.18982780002989,124.18982780002989,124.18982780002989,124.18982780002989,2,2,"[0.0012083998881280422, 0.18368509993888438]","[0.15047349990345538, 0.3674159999936819]",124.18982780002989,124.39003879996017,0.0,124.39003879996017,0,0.0,0,1,1000,num_1,0.7080174000002444,,34,9,2026-03-13_10h52.28.747,2026A_exp2,2022.2.4,59.76818309934589,
1000,1,3.7,4.9,1,0,29,29,20,,,,,125.12411039997824,125.77493540011346,125.77493540011346,126.25934570003301,45,45,126.25934570003301,126.25934570003301,126.25934570003301,126.25934570003301,126.25934570003301,126.25934570003301,126.25934570003301,126.25934570003301,126.25934570003301,126.62556650000624,126.62556650000624,126.62556650000624,126.62556650000624,126.62556650000624,126.62556650000624,126.62556650000624,126.62556650000624,126.62556650000624,0,1,[0.0011980000417679548],[0.3672525999136269],126.62556650000624,126.82612850004807,1000,126.82612850004807,1000,1000,1000,1000,1,num_2,0.5766860998701304,,34,9,2026-03-13_10h52.28.747,2026A_exp2,2022.2.4,59.76818309934589,
1000,1,0.0,0.0,1,0,30,30,46,,,,,127.42639579996467,128.07728530000895,128.07728530000895,128.56161150010303,45,315,128.56161150010303,128.56161150010303,128.56161150010303,128.56161150010303,128.56161150010303,128.56161150010303,128.56161150010303,128.56161150010303,128.56161150010303,128.9280960999895,128.9280960999895,128.9280960999895,128.9280960999895,128.9280960999895,128.9280960999895,128.9280960999895,128.9280960999895,128.9280960999895,0,1,[0.0012143999338150024],[0.367317299824208],128.9280960999895,129.13009750004858,1000,129.13009750004858,1000,1000,1000,1000,1,num_2,0.496188499731943,,34,9,2026-03-13_10h52.28.747,2026A_exp2,2022.2.4,59.76818309934589,
1,0,0.0,0.0,1,0,31,31,24,,,,,129.64534280006774,130.2958339001052,130.2958339001052,130.79713340010494,45,45,130.79713340010494,130.79713340010494,130.79713340010494,130.79713340010494,130.79713340010494,130.79713340010494,130.79713340010494,130.79713340010494,130.79713340010494,131.14698550011963,131.14698550011963,131.14698550011963,131.14698550011963,131.14698550011963,131.14698550011963,131.14698550011963,131.14698550011963,131.14698550011963,0,1,[0.0012413000222295523],[0.35046790004707873],131.14698550011963,131.34720419999212,0.0,131.34720419999212,0,0.0,0,1,1000,num_1,0.46271179988980293,,34,9,2026-03-13_10h52.28.747,2026A_exp2,2022.2.4,59.76818309934589,
1,0,4.9,0.0,1,0,32,32,25,,,,,131.83089000009932,132.4816219001077,132.4816219001077,132.96590570011176,45,45,132.96590570011176,132.96590570011176,132.96590570011176,132.96590570011176,132.96590570011176,132.96590570011176,132.96590570011176,132.96590570011176,132.96590570011176,133.3325014000293,133.3325014000293,133.3325014000293,133.3325014000293,133.3325014000293,133.3325014000293,133.3325014000293,133.3325014000293,133.3325014000293,0,1,[0.001264600083231926],[0.36748330015689135],133.3325014000293,133.5326386000961,0.0,133.5326386000961,0,0.0,0,1,1000,num_1,0.574604099849239,,34,9,2026-03-13_10h52.28.747,2026A_exp2,2022.2.4,59.76818309934589,
1,0,3.7,3.7,1,0,33,33,86,,,,,134.13311489997432,134.78392740013078,134.78392740013078,135.26837830012664,315,315,135.26837830012664,135.26837830012664,135.26837830012664,135.26837830012664,135.26837830012664,135.26837830012664,135.26837830012664,135.26837830012664,135.26837830012664,135.63479250017554,135.63479250017554,135.63479250017554,135.63479250017554,135.63479250017554,135.63479250017554,135.63479250017554,135.63479250017554,135.63479250017554,0,1,[0.0012020999565720558],[0.3669905001297593],135.63479250017554,135.835005100118,3.7,135.835005100118,1,3.7,1,1,1000,num_4,0.6798246998805553,,34,9,2026-03-13_10h52.28.747,2026A_exp2,2022.2.4,59.76818309934589,
1000,1,6.1,4.9,0,0,34,34,49,,,,,136.53577319998294,137.16967279999517,137.16967279999517,137.67077339999378,45,315,137.67077339999378,137.67077339999378,137.67077339999378,137.67077339999378,137.67077339999378,137.67077339999378,137.67077339999378,137.67077339999378,137.67077339999378,138.03717350005172,138.03717350005172,138.03717350005172,138.03717350005172,138.03717350005172,138.03717350005172,138.03717350005172,138.03717350005172,138.03717350005172,0,1,[0.0012434001546353102],[0.36706600012257695],138.03717350005172,138.23866180004552,1000,138.23866180004552,1000,1000,1000,1000,1,num_2,0.8114818998146802,,34,9,2026-03-13_10h52.28.747,2026A_exp2,2022.2.4,59.76818309934589,
0,0,6.1,0.0,1,0,35,35,30,,,,,139.07125769997947,139.72179400012828,139.72179400012828,140.2231145000551,45,315,140.2231145000551,140.2231145000551,140.2231145000551,140.2231145000551,140.2231145000551,140.2231145000551,140.2231145000551,140.2231145000551,140.2231145000551,140.57293920009397,140.57293920009397,140.57293920009397,140.57293920009397,140.57293920009397,140.57293920009397,140.57293920009397,140.57293920009397,140.57293920009397,0,1,[0.0012026999611407518],[0.3505134000442922],140.57293920009397,140.77307550003752,6.1,140.77307550003752,1,6.1,1,1,1000,num_4,0.6296297998633236,,34,9,2026-03-13_10h52.28.747,2026A_exp2,2022.2.4,59.76818309934589,
1,0,3.7,4.9,1,0,36,36,71,,,,,141.42370750010014,142.0744038000703,142.0744038000703,142.55887160007842,45,45,142.55887160007842,142.55887160007842,142.55887160007842,142.55887160007842,142.55887160007842,142.55887160007842,142.55887160007842,142.55887160007842,142.55887160007842,142.92523000016809,142.92523000016809,142.92523000016809,142.92523000016809,142.92523000016809,142.92523000016809,142.92523000016809,142.92523000016809,142.92523000016809,0,1,[0.0013025999069213867],[0.3672456999775022],142.92523000016809,143.12546300003305,4.9,143.12546300003305,1,4.9,1,1,1000,num_4,0.5725857997313142,,34,9,2026-03-13_10h52.28.747,2026A_exp2,2022.2.4,59.76818309934589,
1,0,0.0,3.7,1,0,37,37,0,,,,,143.72613149997778,144.37679260014556,144.37679260014556,144.86124350014143,45,45,144.86124350014143,144.86124350014143,144.86124350014143,144.86124350014143,144.86124350014143,144.86124350014143,144.86124350014143,144.86124350014143,144.86124350014143,145.22769329999574,145.22769329999574,145.22769329999574,145.22769329999574,145.22769329999574,145.22769329999574,145.22769329999574,145.22769329999574,145.22769329999574,0,1,[0.001204799860715866],[0.36722549982368946],145.22769329999574,145.4279587001074,3.7,145.4279587001074,0,3.7,1,0,1000,num_1,0.5101754998322576,,34,9,2026-03-13_10h52.28.747,2026A_exp2,2022.2.4,59.76818309934589,
1000,1,0.0,6.1,1,0,38,38,62,,,,,145.96164890006185,146.61232680012472,146.61232680012472,147.09664270002395,315,315,147.09664270002395,147.09664270002395,147.09664270002395,147.09664270002395,147.09664270002395,147.09664270002395,147.09664270002395,147.09664270002395,147.09664270002395,147.4633037999738,147.4633037999738,147.4633037999738,147.4633037999738,147.4633037999738,147.4633037999738,147.4633037999738,147.4633037999738,147.4633037999738,0,1,[0.0011965001467615366],[0.3672871000599116],147.4633037999738,147.66538030002266,1000,147.66538030002266,1000,1000,1000,1000,1,num_2,0.8727642998564988,,34,9,2026-03-13_10h52.28.747,2026A_exp2,2022.2.4,59.76818309934589,
1000,1,0.0,6.1,1,0,39,39,69,,,,,148.56418780004606,149.21506260009483,149.21506260009483,149.71601640013978,315,45,149.71601640013978,149.71601640013978,149.71601640013978,149.71601640013978,149.71601640013978,149.71601640013978,149.71601640013978,149.71601640013978,149.71601640013978,150.0825273001101,150.0825273001101,150.0825273001101,150.0825273001101,150.0825273001101,150.0825273001101,150.0825273001101,150.0825273001101,150.0825273001101,0,1,[0.0012580999173223972],[0.3673592999111861],150.0825273001101,150.28449300001375,1000,150.28449300001375,1000,1000,1000,1000,1,num_2,0.6700983997434378,,34,9,2026-03-13_10h52.28.747,2026A_exp2,2022.2.4,59.76818309934589,
1000,1,0.0,6.1,0,0,40,40,85,,,,,150.983375800075,151.6341099999845,151.6341099999845,152.13522320007905,315,315,152.13522320007905,152.13522320007905,152.13522320007905,152.13522320007905,152.13522320007905,152.13522320007905,152.13522320007905,152.13522320007905,152.13522320007905,152.50166380009614,152.50166380009614,152.50166380009614,152.50166380009614,152.50166380009614,152.50166380009614,152.50166380009614,152.50166380009614,152.50166380009614,0,1,[0.0011970000341534615],[0.36723130010068417],152.50166380009614,152.70346570014954,1000,152.70346570014954,1000,1000,1000,1000,1,num_2,0.53146249987185,,34,9,2026-03-13_10h52.28.747,2026A_exp2,2022.2.4,59.76818309934589,
0,0,0.0,3.7,0,0,41,41,47,,,,,153.25226150010712,153.90304889995605,153.90304889995605,154.40412209997885,315,315,154.40412209997885,154.40412209997885,154.40412209997885,154.40412209997885,154.40412209997885,154.40412209997885,154.40412209997885,154.40412209997885,154.40412209997885,154.77059870003723,154.77059870003723,154.77059870003723,154.77059870003723,154.77059870003723,154.77059870003723,154.77059870003723,154.77059870003723,154.77059870003723,0,1,[0.0008788998238742352],[0.3675763998180628],154.77059870003723,154.97059949999675,3.7,154.97059949999675,1,3.7,1,1,1000,num_4,0.5358524997718632,,34,9,2026-03-13_10h52.28.747,2026A_exp2,2022.2.4,59.76818309934589,
1,0,3.7,0.0,0,0,42,42,8,,,,,155.53804949996993,156.17194829997607,156.17194829997607,156.67311289999634,315,315,156.67311289999634,156.67311289999634,156.67311289999634,156.67311289999634,156.67311289999634,156.67311289999634,156.67311289999634,156.67311289999634,156.67311289999634,157.03949820017442,157.03949820017442,157.03949820017442,157.03949820017442,157.03949820017442,157.03949820017442,157.03949820017442,157.03949820017442,157.03949820017442,0,1,[0.001218699850142002],[0.3675881999079138],157.03949820017442,157.23974029999226,3.7,157.23974029999226,0,3.7,1,0,1000,num_1,0.5236388999037445,,34,9,2026-03-13_10h52.28.747,2026A_exp2,2022.2.4,59.76818309934589,
0,0,3.7,6.1,0,0,43,43,73,,,,,157.78997090016492,158.4407196000684,158.4407196000684,158.92537489999086,45,45,158.92537489999086,158.92537489999086,158.92537489999086,158.92537489999086,158.92537489999086,158.92537489999086,158.92537489999086,158.92537489999086,158.92537489999086,159.29182779998519,159.29182779998519,159.29182779998519,159.29182779998519,159.29182779998519,159.29182779998519,159.29182779998519,159.29182779998519,159.29182779998519,0,1,[0.0010502999648451805],[0.3673302000388503],159.29182779998519,159.49190120003186,6.1,159.49190120003186,1,6.1,1,1,1000,num_4,0.630998799810186,,34,9,2026-03-13_10h52.28.747,2026A_exp2,2022.2.4,59.76818309934589,
1000,1,0.0,6.1,0,0,44,44,58,,,,,160.14247069996782,160.78734569996595,160.78734569996595,161.27947210008278,315,45,161.27947210008278,161.27947210008278,161.27947210008278,161.27947210008278,161.27947210008278,161.27947210008278,161.27947210008278,161.27947210008278,161.27947210008278,161.64406149997376,161.64406149997376,161.64406149997376,161.64406149997376,161.64406149997376,161.64406149997376,161.64406149997376,161.64406149997376,161.64406149997376,0,1,[0.002070399932563305],[0.3674852999392897],161.64406149997376,161.8459280000534,1000,161.8459280000534,1000,1000,1000,1000,1,num_2,0.4929829000029713,,34,9,2026-03-13_10h52.28.747,2026A_exp2,2022.2.4,59.76818309934589,
1000,1,0.0,3.7,1,0,45,45,65,,,,,162.36141340015456,163.01214900007471,163.01214900007471,163.51340240007266,45,315,163.51340240007266,163.51340240007266,163.51340240007266,163.51340240007266,163.51340240007266,163.51340240007266,163.51340240007266,163.51340240007266,163.51340240007266,163.87974520004354,163.87974520004354,163.87974520004354,163.87974520004354,163.87974520004354,163.87974520004354,163.87974520004354,163.87974520004354,163.87974520004354,0,1,[0.0007680999115109444],[0.3675531998742372],163.87974520004354,164.0814784001559,1000,164.0814784001559,1000,1000,1000,1000,1,num_2,0.48123209993354976,,34,9,2026-03-13_10h52.28.747,2026A_exp2,2022.2.4,59.76818309934589,
1000,1,0.0,0.0,0,0,46,46,7,,,,,164.58018489996903,165.2309676001314,165.2309676001314,165.73201010003686,315,45,165.73201010003686,165.73201010003686,165.73201010003686,165.73201010003686,165.73201010003686,165.73201010003686,165.73201010003686,165.73201010003686,165.73201010003686,166.0985169999767,166.0985169999767,166.0985169999767,166.0985169999767,166.0985169999767,166.0985169999767,166.0985169999767,166.0985169999767,166.0985169999767,0,1,[0.0013007000088691711],[0.3672403001692146],166.0985169999767,166.300424200017,1000,166.300424200017,1000,1000,1000,1000,1,num_2,0.5336220997851342,,34,9,2026-03-13_10h52.28.747,2026A_exp2,2022.2.4,59.76818309934589,
1000,1,0.0,0.0,0,0,47,47,36,,,,,166.84921400016174,167.49983149999753,167.49983149999753,168.0171078001149,315,45,168.0171078001149,168.0171078001149,168.0171078001149,168.0171078001149,168.0171078001149,168.0171078001149,168.0171078001149,168.0171078001149,168.0171078001149,168.36754630017094,168.36754630017094,168.36754630017094,168.36754630017094,168.36754630017094,168.36754630017094,168.36754630017094,168.36754630017094,168.36754630017094,0,1,[0.004464700119569898],[0.36416910006664693],168.36754630017094,168.5699587999843,1000,168.5699587999843,1000,1000,1000,1000,1,num_2,0.4721506000496447,,34,9,2026-03-13_10h52.28.747,2026A_exp2,2022.2.4,59.76818309934589,
1,0,4.9,3.7,0,0,48,48,63,,,,,169.06801689998247,169.7187280000653,169.7187280000653,170.22004020004533,45,315,170.22004020004533,170.22004020004533,170.22004020004533,170.22004020004533,170.22004020004533,170.22004020004533,170.22004020004533,170.22004020004533,170.22004020004533,170.5864294001367,170.5864294001367,170.5864294001367,170.5864294001367,170.5864294001367,170.5864294001367,170.5864294001367,170.5864294001367,170.5864294001367,0,1,[0.0012391998898237944],[0.36708209989592433],170.5864294001367,170.78655040008016,4.9,170.78655040008016,0,4.9,1,0,1000,num_1,0.6313575997482985,,34,9,2026-03-13_10h52.28.747,2026A_exp2,2022.2.4,59.76818309934589,
1000,1,0.0,0.0,0,0,49,49,87,,,,,171.4370615000371,172.08796140016057,172.08796140016057,172.57230900018476,315,45,172.57230900018476,172.57230900018476,172.57230900018476,172.57230900018476,172.57230900018476,172.57230900018476,172.57230900018476,172.57230900018476,172.57230900018476,172.93865280016325,172.93865280016325,172.93865280016325,172.93865280016325,172.93865280016325,172.93865280016325,172.93865280016325,172.93865280016325,172.93865280016325,0,1,[0.0012002999428659678],[0.36694430001080036],172.93865280016325,173.1407743000891,1000,173.1407743000891,1000,1000,1000,1000,1,num_2,0.4944328998681158,,34,9,2026-03-13_10h52.28.747,2026A_exp2,2022.2.4,59.76818309934589,
0,0,0.0,3.7,0,0,50,50,83,,,,,173.65603780001402,174.30669410014525,174.30669410014525,174.80782390013337,45,315,174.80782390013337,174.80782390013337,174.80782390013337,174.80782390013337,174.80782390013337,174.80782390013337,174.80782390013337,174.80782390013337,174.80782390013337,175.17426420003176,175.17426420003176,175.17426420003176,175.17426420003176,175.17426420003176,175.17426420003176,175.17426420003176,175.17426420003176,175.17426420003176,0,1,[0.0012076999992132187],[0.36717480001971126],175.17426420003176,175.3744249001611,3.7,175.3744249001611,1,3.7,1,1,1000,num_4,0.9401727998629212,,34,9,2026-03-13_10h52.28.747,2026A_exp2,2022.2.4,59.76818309934589,
1000,1,0.0,0.0,1,0,51,51,56,,,,,176.34222170012072,176.99279930000193,176.99279930000193,177.4772042001132,315,315,177.4772042001132,177.4772042001132,177.4772042001132,177.4772042001132,177.4772042001132,177.4772042001132,177.4772042001132,177.4772042001132,177.4772042001132,177.84365290007554,177.84365290007554,177.84365290007554,177.84365290007554,177.84365290007554,177.84365290007554,177.84365290007554,177.84365290007554,177.84365290007554,19,2,"[0.0012196998577564955, 0.0667899998370558]","[0.050163399893790483, 0.08364470000378788]",177.84365290007554,178.0458466000855,1000,178.0458466000855,1000,1000,1000,1000,1,num_2,0.5082944000605494,,34,9,2026-03-13_10h52.28.747,2026A_exp2,2022.2.4,59.76818309934589,
1000,1,0.0,0.0,0,0,52,52,37,,,,,178.57755500008352,179.2363716000691,179.2363716000691,179.73462920007296,315,45,179.73462920007296,179.73462920007296,179.73462920007296,179.73462920007296,179.73462920007296,179.73462920007296,179.73462920007296,179.73462920007296,179.73462920007296,180.09571220004,180.09571220004,180.09571220004,180.09571220004,180.09571220004,180.09571220004,180.09571220004,180.09571220004,180.09571220004,0,1,[0.00269029987975955],[0.3652234999462962],180.09571220004,180.29789480008185,1000,180.29789480008185,1000,1000,1000,1000,1,num_2,0.5210891999304295,,34,9,2026-03-13_10h52.28.747,2026A_exp2,2022.2.4,59.76818309934589,
1,0,0.0,6.1,0,0,53,53,43,,,,,180.8465315999929,181.49731869995594,181.49731869995594,181.9982998999767,315,315,181.9982998999767,181.9982998999767,181.9982998999767,181.9982998999767,181.9982998999767,181.9982998999767,181.9982998999767,181.9982998999767,181.9982998999767,182.3648475999944,182.3648475999944,182.3648475999944,182.3648475999944,182.3648475999944,182.3648475999944,182.3648475999944,182.3648475999944,182.3648475999944,0,1,[0.0012630000710487366],[0.36708770017139614],182.3648475999944,182.56494279997423,0.0,182.56494279997423,0,0.0,0,1,1000,num_1,0.5902924998663366,,34,9,2026-03-13_10h52.28.747,2026A_exp2,2022.2.4,59.76818309934589,
1000,1,0.0,6.1,0,0,54,54,75,,,,,183.18220579996705,183.83277760003693,183.83277760003693,184.3174453000538,315,315,184.3174453000538,184.3174453000538,184.3174453000538,184.3174453000538,184.3174453000538,184.3174453000538,184.3174453000538,184.3174453000538,184.3174453000538,184.68385390006006,184.68385390006006,184.68385390006006,184.68385390006006,184.68385390006006,184.68385390006006,184.68385390006006,184.68385390006006,184.68385390006006,0,1,[0.0011968000326305628],[0.3672332998830825],184.68385390006006,184.8860224999953,1000,184.8860224999953,1000,1000,1000,1000,1,num_2,0.5408254999201745,,34,9,2026-03-13_10h52.28.747,2026A_exp2,2022.2.4,59.76818309934589,
1,0,3.7,6.1,1,0,55,55,77,,,,,185.45138680003583,186.10194790014066,186.10194790014066,186.5863691000268,315,45,186.5863691000268,186.5863691000268,186.5863691000268,186.5863691000268,186.5863691000268,186.5863691000268,186.5863691000268,186.5863691000268,186.5863691000268,186.95274850004353,186.95274850004353,186.95274850004353,186.95274850004353,186.95274850004353,186.95274850004353,186.95274850004353,186.95274850004353,186.95274850004353,0,1,[0.0012038000859320164],[0.3672243000473827],186.95274850004353,187.1528557999991,6.1,187.1528557999991,1,6.1,1,1,1000,num_4,0.729494699742645,,34,9,2026-03-13_10h52.28.747,2026A_exp2,2022.2.4,59.76818309934589,
1,0,0.0,0.0,1,0,56,56,41,,,,,187.90344789996743,188.54788720002398,188.54788720002398,189.04911230015568,315,45,189.04911230015568,189.04911230015568,189.04911230015568,189.04911230015568,189.04911230015568,189.04911230015568,189.04911230015568,189.04911230015568,189.04911230015568,189.4051789001096,189.4051789001096,189.4051789001096,189.4051789001096,189.4051789001096,189.4051789001096,189.4051789001096,189.4051789001096,189.4051789001096,0,1,[0.0038525001145899296],[0.36701219994574785],189.4051789001096,189.60536879999563,0.0,189.60536879999563,1,0.0,0,0,1000,num_4,0.7164807999506593,,34,9,2026-03-13_10h52.28.747,2026A_exp2,2022.2.4,59.76818309934589,
1,0,6.1,4.9,0,0,57,57,81,,,,,190.3393346001394,190.97343949996866,190.97343949996866,191.47447840007953,315,315,191.47447840007953,191.47447840007953,191.47447840007953,191.47447840007953,191.47447840007953,191.47447840007953,191.47447840007953,191.47447840007953,191.47447840007953,191.8411144001875,191.8411144001875,191.8411144001875,191.8411144001875,191.8411144001875,191.8411144001875,191.8411144001875,191.8411144001875,191.8411144001875,0,1,[0.0011950000189244747],[0.3673183999489993],191.8411144001875,192.0412018999923,6.1,192.0412018999923,0,6.1,1,0,1000,num_1,0.7060790997929871,,34,9,2026-03-13_10h52.28.747,2026A_exp2,2022.2.4,59.76818309934589,
1000,1,0.0,4.9,0,0,58,58,53,,,,,192.7752372000832,193.42585810017772,193.42585810017772,193.9103208000306,45,315,193.9103208000306,193.9103208000306,193.9103208000306,193.9103208000306,193.9103208000306,193.9103208000306,193.9103208000306,193.9103208000306,193.9103208000306,194.27674390003085,194.27674390003085,194.27674390003085,194.27674390003085,194.27674390003085,194.27674390003085,194.27674390003085,194.27674390003085,194.27674390003085,0,1,[0.001325499964877963],[0.3670467999763787],194.27674390003085,194.4787485001143,1000,194.4787485001143,1000,1000,1000,1000,1,num_2,0.5318754999898374,,34,9,2026-03-13_10h52.28.747,2026A_exp2,2022.2.4,59.76818309934589,
1000,1,6.1,0.0,0,0,59,59,59,,,,,195.0273774000816,195.67801400017925,195.67801400017925,196.1791803999804,315,45,196.1791803999804,196.1791803999804,196.1791803999804,196.1791803999804,196.1791803999804,196.1791803999804,196.1791803999804,196.1791803999804,196.1791803999804,196.54566329997033,196.54566329997033,196.54566329997033,196.54566329997033,196.54566329997033,196.54566329997033,196.54566329997033,196.54566329997033,196.54566329997033,12,1,[0.0012062001042068005],[0.18348539993166924],196.54566329997033,196.74770219996572,1000,196.74770219996572,1000,1000,1000,1000,0,num_3,0.5752316999714822,,34,9,2026-03-13_10h52.28.747,2026A_exp2,2022.2.4,59.76818309934589,
1000,1,6.1,3.7,0,0,60,60,18,,,,,197.34635929996148,197.99715850013308,197.99715850013308,198.49810470012017,315,45,198.49810470012017,198.49810470012017,198.49810470012017,198.49810470012017,198.49810470012017,198.49810470012017,198.49810470012017,198.49810470012017,198.49810470012017,198.86465650005266,198.86465650005266,198.86465650005266,198.86465650005266,198.86465650005266,198.86465650005266,198.86465650005266,198.86465650005266,198.86465650005266,0,1,[0.001223200000822544],[0.36705930018797517],198.86465650005266,199.06727060000412,1000,199.06727060000412,1000,1000,1000,1000,0,num_3,0.5346287998836488,,34,9,2026-03-13_10h52.28.747,2026A_exp2,2022.2.4,59.76818309934589,
1000,1,0.0,0.0,0,0,61,61,6,,,,,199.63194380002096,200.2826932000462,200.2826932000462,200.78383300011046,315,45,200.78383300011046,200.78383300011046,200.78383300011046,200.78383300011046,200.78383300011046,200.78383300011046,200.78383300011046,200.78383300011046,200.78383300011046,201.15034399996512,201.15034399996512,201.15034399996512,201.15034399996512,201.15034399996512,201.15034399996512,201.15034399996512,201.15034399996512,201.15034399996512,0,1,[0.001202399842441082],[0.36703009996563196],201.15034399996512,201.35225890018046,1000,201.35225890018046,1000,1000,1000,1000,1,num_2,0.5542772996705025,,34,9,2026-03-13_10h52.28.747,2026A_exp2,2022.2.4,59.76818309934589,
1000,1,3.7,0.0,1,0,62,62,88,,,,,201.93426060001366,202.58508870005608,202.58508870005608,203.08600990008563,45,45,203.08600990008563,203.08600990008563,203.08600990008563,203.08600990008563,203.08600990008563,203.08600990008563,203.08600990008563,203.08600990008563,203.08600990008563,203.4526192001067,203.4526192001067,203.4526192001067,203.4526192001067,203.4526192001067,203.4526192001067,203.4526192001067,203.4526192001067,203.4526192001067,0,1,[0.0012589001562446356],[0.3668088000267744],203.4526192001067,203.65443960018456,1000,203.65443960018456,1000,1000,1000,1000,0,num_3,0.5562762001063675,,34,9,2026-03-13_10h52.28.747,2026A_exp2,2022.2.4,59.76818309934589,
1,0,4.9,3.7,1,0,63,63,26,,,,,204.2366927000694,204.88732870016247,204.88732870016247,205.3883172001224,45,315,205.3883172001224,205.3883172001224,205.3883172001224,205.3883172001224,205.3883172001224,205.3883172001224,205.3883172001224,205.3883172001224,205.3883172001224,205.75482200016268,205.75482200016268,205.75482200016268,205.75482200016268,205.75482200016268,205.75482200016268,205.75482200016268,205.75482200016268,205.75482200016268,0,1,[0.0012166998349130154],[0.36728519992902875],205.75482200016268,205.95513810007833,3.7,205.95513810007833,1,3.7,1,1,1000,num_4,0.8150975997559726,,34,9,2026-03-13_10h52.28.747,2026A_exp2,2022.2.4,59.76818309934589,
1000,1,4.9,0.0,0,0,64,64,50,,,,,206.78925839997828,207.42317920015194,207.42317920015194,207.9243565001525,45,315,207.9243565001525,207.9243565001525,207.9243565001525,207.9243565001525,207.9243565001525,207.9243565001525,207.9243565001525,207.9243565001525,207.9243565001525,208.2907859000843,208.2907859000843,208.2907859000843,208.2907859000843,208.2907859000843,208.2907859000843,208.2907859000843,208.2907859000843,208.2907859000843,0,1,[0.001209199894219637],[0.36730149993672967],208.2907859000843,208.49264020007104,1000,208.49264020007104,1000,1000,1000,1000,0,num_3,0.47739329980686307,,34,9,2026-03-13_10h52.28.747,2026A_exp2,2022.2.4,59.76818309934589,
1000,1,0.0,0.0,0,0,65,65,45,,,,,208.99123809998855,209.64192970003933,209.64192970003933,210.1433660001494,45,45,210.1433660001494,210.1433660001494,210.1433660001494,210.1433660001494,210.1433660001494,210.1433660001494,210.1433660001494,210.1433660001494,210.1433660001494,210.50945320003666,210.50945320003666,210.50945320003666,210.50945320003666,210.50945320003666,210.50945320003666,210.50945320003666,210.50945320003666,210.50945320003666,0,1,[0.0007142999675124884],[0.3675885000266135],210.50945320003666,210.7115142000839,1000,210.7115142000839,1000,1000,1000,1000,1,num_2,0.6989397997967899,,34,9,2026-03-13_10h52.28.747,2026A_exp2,2022.2.4,59.76818309934589,
0,0,6.1,6.1,0,0,66,66,42,,,,,211.4272904000245,212.0778107000515,212.0778107000515,212.56226370017976,315,315,212.56226370017976,212.56226370017976,212.56226370017976,212.56226370017976,212.56226370017976,212.56226370017976,212.56226370017976,212.56226370017976,212.56226370017976,212.92875050008297,212.92875050008297,212.92875050008297,212.92875050008297,212.92875050008297,212.92875050008297,212.92875050008297,212.92875050008297,212.92875050008297,0,1,[0.0012083000037819147],[0.3671707999892533],212.92875050008297,213.12884380016476,6.1,213.12884380016476,1,6.1,1,1,1000,num_4,1.4892645997460932,,34,9,2026-03-13_10h52.28.747,2026A_exp2,2022.2.4,59.76818309934589,
1000,1,0.0,4.9,1,0,67,67,78,,,,,214.64699180005118,215.29766200017184,215.29766200017184,215.7822019001469,315,315,215.7822019001469,215.7822019001469,215.7822019001469,215.7822019001469,215.7822019001469,215.7822019001469,215.7822019001469,215.7822019001469,215.7822019001469,216.14855900011025,216.14855900011025,216.14855900011025,216.14855900011025,216.14855900011025,216.14855900011025,216.14855900011025,216.14855900011025,216.14855900011025,0,1,[0.0011951001361012459],[0.36723540001548827],216.14855900011025,216.35054070013575,1000,216.35054070013575,1000,1000,1000,1000,1,num_2,0.6198702997062355,,34,9,2026-03-13_10h52.28.747,2026A_exp2,2022.2.4,59.76818309934589,
1000,1,0.0,0.0,0,0,68,68,15,,,,,216.9997074001003,217.6501182001084,217.6501182001084,218.13447830011137,45,315,218.13447830011137,218.13447830011137,218.13447830011137,218.13447830011137,218.13447830011137,218.13447830011137,218.13447830011137,218.13447830011137,218.13447830011137,218.50086360005662,218.50086360005662,218.50086360005662,218.50086360005662,218.50086360005662,218.50086360005662,218.50086360005662,218.50086360005662,218.50086360005662,0,1,[0.0012111999094486237],[0.36699040001258254],218.50086360005662,218.70306950015947,1000,218.70306950015947,1000,1000,1000,1000,1,num_2,0.979017699835822,,34,9,2026-03-13_10h52.28.747,2026A_exp2,2022.2.4,59.76818309934589,
1,0,3.7,0.0,1,0,69,69,13,,,,,219.70212490018457,220.35308250016533,220.35308250016533,220.85398350004107,315,45,220.85398350004107,220.85398350004107,220.85398350004107,220.85398350004107,220.85398350004107,220.85398350004107,220.85398350004107,220.85398350004107,220.85398350004107,221.20394330006093,221.20394330006093,221.20394330006093,221.20394330006093,221.20394330006093,221.20394330006093,221.20394330006093,221.20394330006093,221.20394330006093,0,1,[0.0012380999978631735],[0.35216269991360605],221.20394330006093,221.40407550008968,0.0,221.42053580004722,0,0.0,0,1,1000,num_1,0.717414999846369,,34,9,2026-03-13_10h52.28.747,2026A_exp2,2022.2.4,59.76818309934589,
1000,1,0.0,0.0,0,0,70,70,67,,,,,222.15446660015732,222.8052787000779,222.8052787000779,223.30628660018556,45,45,223.30628660018556,223.30628660018556,223.30628660018556,223.30628660018556,223.30628660018556,223.30628660018556,223.30628660018556,223.30628660018556,223.30628660018556,223.67282239999622,223.67282239999622,223.67282239999622,223.67282239999622,223.67282239999622,223.67282239999622,223.67282239999622,223.67282239999622,223.67282239999622,0,1,[0.0012421999126672745],[0.3672515999060124],223.67282239999622,223.87481550010853,1000,223.87481550010853,1000,1000,1000,1000,1,num_2,0.7519872998818755,,34,9,2026-03-13_10h52.28.747,2026A_exp2,2022.2.4,59.76818309934589,
0,0,0.0,0.0,0,0,71,71,70,,,,,224.6570347000379,225.30797820002772,225.30797820002772,225.80890209996141,315,45,225.80890209996141,225.80890209996141,225.80890209996141,225.80890209996141,225.80890209996141,225.80890209996141,225.80890209996141,225.80890209996141,225.80890209996141,226.1753104000818,226.1753104000818,226.1753104000818,226.1753104000818,226.1753104000818,226.1753104000818,226.1753104000818,226.1753104000818,226.1753104000818,0,1,[0.001201600069180131],[0.36712410021573305],226.1753104000818,226.37549510016106,0.0,226.37549510016106,0,0.0,0,1,1000,num_1,0.4906475997995585,,34,9,2026-03-13_10h52.28.747,2026A_exp2,2022.2.4,59.76818309934589,
1000,1,0.0,6.1,1,0,72,72,19,,,,,226.89273150009103,227.54331870004535,227.54331870004535,228.0277953001205,315,315,228.0277953001205,228.0277953001205,228.0277953001205,228.0277953001205,228.0277953001205,228.0277953001205,228.0277953001205,228.0277953001205,228.0277953001205,228.39402400003746,228.39402400003746,228.39402400003746,228.39402400003746,228.39402400003746,228.39402400003746,228.39402400003746,228.39402400003746,228.39402400003746,0,1,[0.0012051998637616634],[0.3672236998099834],228.39402400003746,228.5957133001648,1000,228.5957133001648,1000,1000,1000,1000,1,num_2,0.5503931997809559,,34,9,2026-03-13_10h52.28.747,2026A_exp2,2022.2.4,59.76818309934589,
1,0,0.0,3.7,0,0,73,73,61,,,,,229.16476850002073,229.8122876000125,229.8122876000125,230.31856489996426,45,45,230.31856489996426,230.31856489996426,230.31856489996426,230.31856489996426,230.31856489996426,230.31856489996426,230.31856489996426,230.31856489996426,230.31856489996426,230.6799135999754,230.6799135999754,230.6799135999754,230.6799135999754,230.6799135999754,230.6799135999754,230.6799135999754,230.6799135999754,230.6799135999754,0,1,[0.002475299872457981],[0.3654002998955548],230.6799135999754,230.88004810013808,0.0,230.88004810013808,0,0.0,0,1,1000,num_1,0.6180090997368097,,34,9,2026-03-13_10h52.28.747,2026A_exp2,2022.2.4,59.76818309934589,
1,0,0.0,0.0,0,0,74,74,34,,,,,231.513815500075,232.1646289001219,232.1646289001219,232.64866080018692,45,45,232.64866080018692,232.64866080018692,232.64866080018692,232.64866080018692,232.64866080018692,232.64866080018692,232.64866080018692,232.64866080018692,232.64866080018692,233.01552510005422,233.01552510005422,233.01552510005422,233.01552510005422,233.01552510005422,233.01552510005422,233.01552510005422,233.01552510005422,233.01552510005422,0,1,[0.0012124998029321432],[0.36714089987799525],233.01552510005422,233.2155157001689,0.0,233.2155157001689,0,0.0,0,1,1000,num_1,0.5393035998567939,,34,9,2026-03-13_10h52.28.747,2026A_exp2,2022.2.4,59.76818309934589,
1000,1,0.0,0.0,1,0,75,75,16,,,,,233.78269330016337,234.43356669996865,234.43356669996865,234.9179349001497,315,315,234.9179349001497,234.9179349001497,234.9179349001497,234.9179349001497,234.9179349001497,234.9179349001497,234.9179349001497,234.9179349001497,234.9179349001497,235.2843863000162,235.2843863000162,235.2843863000162,235.2843863000162,235.2843863000162,235.2843863000162,235.2843863000162,235.2843863000162,235.2843863000162,0,1,[0.001193000003695488],[0.3672855000477284],235.2843863000162,235.4847805001773,1000,235.4847805001773,1000,1000,1000,1000,1,num_2,0.4943453997839242,,34,9,2026-03-13_10h52.28.747,2026A_exp2,2022.2.4,59.76818309934589,
0,0,0.0,4.9,0,0,76,76,14,,,,,236.0016938999761,236.6523860001471,236.6523860001471,237.15348900016397,45,315,237.15348900016397,237.15348900016397,237.15348900016397,237.15348900016397,237.15348900016397,237.15348900016397,237.15348900016397,237.15348900016397,237.15348900016397,237.51998850004748,237.51998850004748,237.51998850004748,237.51998850004748,237.51998850004748,237.51998850004748,237.51998850004748,237.51998850004748,237.51998850004748,0,1,[0.001217300072312355],[0.3670815001241863],237.51998850004748,237.72010589996353,4.9,237.72010589996353,1,4.9,1,1,1000,num_4,0.7465526000596583,,34,9,2026-03-13_10h52.28.747,2026A_exp2,2022.2.4,59.76818309934589,
0,0,4.9,4.9,1,0,77,77,48,,,,,238.48758030007593,239.13827810017392,239.13827810017392,239.6392685000319,315,45,239.6392685000319,239.6392685000319,239.6392685000319,239.6392685000319,239.6392685000319,239.6392685000319,239.6392685000319,239.6392685000319,239.6392685000319,240.00582690001465,240.00582690001465,240.00582690001465,240.00582690001465,240.00582690001465,240.00582690001465,240.00582690001465,240.00582690001465,240.00582690001465,0,1,[0.0009901998564600945],[0.3673987998627126],240.00582690001465,240.20573700009845,4.9,240.20573700009845,0,4.9,1,0,1000,num_1,0.6364794997498393,,34,9,2026-03-13_10h52.28.747,2026A_exp2,2022.2.4,59.76818309934589,
1000,1,0.0,6.1,1,0,78,78,3,,,,,240.87316079996526,241.5239977000747,241.5239977000747,242.00839730002917,45,315,242.00839730002917,242.00839730002917,242.00839730002917,242.00839730002917,242.00839730002917,242.00839730002917,242.00839730002917,242.00839730002917,242.00839730002917,242.37464349996299,242.37464349996299,242.37464349996299,242.37464349996299,242.37464349996299,242.37464349996299,242.37464349996299,242.37464349996299,242.37464349996299,0,1,[0.0012332000769674778],[0.36707599996589124],242.37464349996299,242.57710240012966,1000,242.57710240012966,1000,1000,1000,1000,1,num_2,0.5134749000426382,,34,9,2026-03-13_10h52.28.747,2026A_exp2,2022.2.4,59.76818309934589,
1,0,3.7,0.0,1,0,79,79,12,,,,,243.1087307999842,243.75957900006324,243.75957900006324,244.26059700013138,315,315,244.26059700013138,244.26059700013138,244.26059700013138,244.26059700013138,244.26059700013138,244.26059700013138,244.26059700013138,244.26059700013138,244.26059700013138,244.627049600007,244.627049600007,244.627049600007,244.627049600007,244.627049600007,244.627049600007,244.627049600007,244.627049600007,244.627049600007,0,1,[0.0012227001134306192],[0.36698639998212457],244.627049600007,244.82726359996013,0.0,244.82726359996013,1,0.0,0,0,1000,num_4,0.7429639999754727,,34,9,2026-03-13_10h52.28.747,2026A_exp2,2022.2.4,59.76818309934589,
1000,1,0.0,0.0,1,0,80,80,40,,,,,245.59488540003076,246.22865290008485,246.22865290008485,246.72985880007036,45,315,246.72985880007036,246.72985880007036,246.72985880007036,246.72985880007036,246.72985880007036,246.72985880007036,246.72985880007036,246.72985880007036,246.72985880007036,247.09601219999604,247.09601219999604,247.09601219999604,247.09601219999604,247.09601219999604,247.09601219999604,247.09601219999604,247.09601219999604,247.09601219999604,0,1,[0.001206299988552928],[0.3671295999083668],247.09601219999604,247.29806760000065,1000,247.29806760000065,1000,1000,1000,1000,1,num_2,0.5932793999090791,,34,9,2026-03-13_10h52.28.747,2026A_exp2,2022.2.4,59.76818309934589,
1000,1,0.0,6.1,0,0,81,81,2,,,,,247.91357330000028,248.56435780017637,248.56435780017637,249.06540099997073,315,45,249.06540099997073,249.06540099997073,249.06540099997073,249.06540099997073,249.06540099997073,249.06540099997073,249.06540099997073,249.06540099997073,249.06540099997073,249.43201570003293,249.43201570003293,249.43201570003293,249.43201570003293,249.43201570003293,249.43201570003293,249.43201570003293,249.43201570003293,249.43201570003293,0,1,[0.0012775999493896961],[0.36699719983153045],249.43201570003293,249.63238389999606,1000,249.63238389999606,1000,1000,1000,1000,1,num_2,0.8662347998470068,,34,9,2026-03-13_10h52.28.747,2026A_exp2,2022.2.4,59.76818309934589,
1000,1,0.0,6.1,1,0,82,82,52,,,,,250.5162136000581,251.16687680012546,251.16687680012546,251.651262300089,45,45,251.651262300089,251.651262300089,251.651262300089,251.651262300089,251.651262300089,251.651262300089,251.651262300089,251.651262300089,251.651262300089,252.0177896001842,252.0177896001842,252.0177896001842,252.0177896001842,252.0177896001842,252.0177896001842,252.0177896001842,252.0177896001842,252.0177896001842,0,1,[0.0012433999218046665],[0.36717240000143647],252.0177896001842,252.21999080013484,1000,252.21999080013484,1000,1000,1000,1000,1,num_2,0.5271417000330985,,34,9,2026-03-13_10h52.28.747,2026A_exp2,2022.2.4,59.76818309934589,
1,0,0.0,0.0,0,0,83,83,44,,,,,252.76846220018342,253.41907760011964,253.41907760011964,253.920225400012,315,45,253.920225400012,253.920225400012,253.920225400012,253.920225400012,253.920225400012,253.920225400012,253.920225400012,253.920225400012,253.920225400012,254.2867255001329,254.2867255001329,254.2867255001329,254.2867255001329,254.2867255001329,254.2867255001329,254.2867255001329,254.2867255001329,254.2867255001329,0,1,[0.0010263000149279833],[0.3674005998764187],254.2867255001329,254.48704689997248,0.0,254.48704689997248,0,0.0,0,1,1000,num_1,0.6836057000327855,,34,9,2026-03-13_10h52.28.747,2026A_exp2,2022.2.4,59.76818309934589,
1,0,3.7,0.0,1,0,84,84,28,,,,,255.1874470000621,255.83815720002167,255.83815720002167,256.3229829000775,315,315,256.3229829000775,256.3229829000775,256.3229829000775,256.3229829000775,256.3229829000775,256.3229829000775,256.3229829000775,256.3229829000775,256.3229829000775,256.68897849996574,256.68897849996574,256.68897849996574,256.68897849996574,256.68897849996574,256.68897849996574,256.68897849996574,256.68897849996574,256.68897849996574,0,1,[0.0012302000541239977],[0.36716079991310835],256.68897849996574,256.88918150006793,0.0,256.88918150006793,1,0.0,0,0,1000,num_4,0.8338544999714941,,34,9,2026-03-13_10h52.28.747,2026A_exp2,2022.2.4,59.76818309934589,
1,0,0.0,0.0,1,0,85,85,21,,,,,257.74037340003997,258.3741353000514,258.3741353000514,258.87529999995604,315,315,258.87529999995604,258.87529999995604,258.87529999995604,258.87529999995604,258.87529999995604,258.87529999995604,258.87529999995604,258.87529999995604,258.87529999995604,259.24160129996017,259.24160129996017,259.24160129996017,259.24160129996017,259.24160129996017,259.24160129996017,259.24160129996017,259.24160129996017,259.24160129996017,0,1,[0.0011959001421928406],[0.36723370011895895],259.24160129996017,259.4418176000472,0.0,259.4418176000472,0,0.0,0,1,1000,num_1,0.9129707999527454,,34,9,2026-03-13_10h52.28.747,2026A_exp2,2022.2.4,59.76818309934589,
1,0,6.1,3.7,0,0,86,86,31,,,,,260.3759843001608,261.0268494000193,261.0268494000193,261.51113030011766,315,315,261.51113030011766,261.51113030011766,261.51113030011766,261.51113030011766,261.51113030011766,261.51113030011766,261.51113030011766,261.51113030011766,261.51113030011766,261.8775488999672,261.8775488999672,261.8775488999672,261.8775488999672,261.8775488999672,261.8775488999672,261.8775488999672,261.8775488999672,261.8775488999672,0,1,[0.001221800222992897],[0.3673745000269264],261.8775488999672,262.07768009998836,6.1,262.07768009998836,0,6.1,1,0,1000,num_1,0.9325677999295294,,34,9,2026-03-13_10h52.28.747,2026A_exp2,2022.2.4,59.76818309934589,
1000,1,3.7,6.1,1,0,87,87,29,,,,,263.028605400119,263.6794500001706,263.6794500001706,264.16367950011045,315,45,264.16367950011045,264.16367950011045,264.16367950011045,264.16367950011045,264.16367950011045,264.16367950011045,264.16367950011045,264.16367950011045,264.16367950011045,264.5303164999932,264.5303164999932,264.5303164999932,264.5303164999932,264.5303164999932,264.5303164999932,264.5303164999932,264.5303164999932,264.5303164999932,0,1,[0.0012419000267982483],[0.3670588999520987],264.5303164999932,264.7324527001474,1000,264.7324527001474,1000,1000,1000,1000,1,num_2,0.5254927999339998,,34,9,2026-03-13_10h52.28.747,2026A_exp2,2022.2.4,59.76818309934589,
1,0,4.9,3.7,0,0,88,88,9,,,,,265.2809015000239,265.93172410014085,265.93172410014085,266.4328644000925,315,45,266.4328644000925,266.4328644000925,266.4328644000925,266.4328644000925,266.4328644000925,266.4328644000925,266.4328644000925,266.4328644000925,266.4328644000925,266.7996990000829,266.7996990000829,266.7996990000829,266.7996990000829,266.7996990000829,266.7996990000829,266.7996990000829,266.7996990000829,266.7996990000829,0,1,[0.00120050017721951],[0.36723680002614856],266.7996990000829,266.99938750010915,4.9,266.99938750010915,0,4.9,1,0,1000,num_1,0.6439592998940498,,34,9,2026-03-13_10h52.28.747,2026A_exp2,2022.2.4,59.76818309934589,
1000,1,0.0,4.9,1,0,89,89,55,,,,,267.66661350009963,268.3176013000775,268.3176013000775,268.80196200008504,45,315,268.80196200008504,268.80196200008504,268.80196200008504,268.80196200008504,268.80196200008504,268.80196200008504,268.80196200008504,268.80196200008504,268.80196200008504,269.1683219000697,269.1683219000697,269.1683219000697,269.1683219000697,269.1683219000697,269.1683219000697,269.1683219000697,269.1683219000697,269.1683219000697,11,3,"[0.0012382001150399446, 0.15031570009887218, 0.2835925000254065]","[0.13346160016953945, 0.16689170012250543, 0.3337205999996513]",269.1683219000697,269.36851670010947,1000,269.36851670010947,1000,1000,1000,1000,1,num_2,0.5946595999412239,,34,9,2026-03-13_10h52.28.747,2026A_exp2,2022.2.4,59.76818309934589,
,,,,,,,,,,,,,,,,,,,,,,,,,,,,,,,,,,,,,,,,,,,,,,,,,,,,269.99379820004106,,,,,,,
