validity,detectorcomp,contrastCW,contrastCCW,precueCWorCCW,block_80trials.thisRepN,block_80trials.thisTrialN,block_80trials.thisN,block_80trials.thisIndex,etRecord.started,etRecord.stopped,text.started,text.stopped,text_4.started,text_4.stopped,text_6.started,text_6.stopped,oriCW,oriCCW,roi_2.started,grating_UR.started,grating_UL.started,grating_LR.started,grating_LL.started,noise_UR.started,noise_UL.started,noise_LR.started,noise_LL.started,roi_2.stopped,grating_UR.stopped,grating_UL.stopped,grating_LR.stopped,grating_LL.stopped,noise_UR.stopped,noise_UL.stopped,noise_LR.stopped,noise_LL.stopped,outframe,roi_2.numLooks,roi_2.timesOn,roi_2.timesOff,text_2.started,text_2.stopped,probedcontrast,key_resp.started,respdetect,relevantContrast,correctDetect,TorFdetect,respCWorCCW,key_resp.keys,key_resp.rt,feedback_display_.started,participantNo,blockNo,date,expName,psychopyVersion,frameRate,
1,0,0.0,0.0,0,0,0,0,22,5.2799994591623545e-05,5.2799994591623545e-05,59.557206600002246,61.560347199992975,61.560347199992975,62.194354300008854,62.194354300008854,62.71499889998813,45,315,62.71499889998813,62.71499889998813,62.71499889998813,62.71499889998813,62.71499889998813,62.71499889998813,62.71499889998813,62.71499889998813,62.71499889998813,63.061799999995856,63.061799999995856,63.061799999995856,63.061799999995856,63.061799999995856,63.061799999995856,63.061799999995856,63.061799999995856,63.061799999995856,0,1,[0.0009102000040002167],[0.36812250001821667],63.061799999995856,63.2620506999956,0.0,63.2620506999956,0,0.0,0,1,1000,num_1,0.8195023000007495,,21,7,2026-03-02_17h51.10.323,2026A_exp2,2022.2.4,59.885044667856825,
0,0,6.1,6.1,1,0,1,1,48,,,,,64.11292489999323,64.7636521999957,64.7636521999957,65.24779799999669,45,315,65.24779799999669,65.24779799999669,65.24779799999669,65.24779799999669,65.24779799999669,65.24779799999669,65.24779799999669,65.24779799999669,65.24779799999669,65.61446779998369,65.61446779998369,65.61446779998369,65.61446779998369,65.61446779998369,65.61446779998369,65.61446779998369,65.61446779998369,65.61446779998369,0,1,[0.0012286999844945967],[0.3673193999857176],65.61446779998369,65.81482060000417,6.1,65.81482060000417,1,6.1,1,1,1000,num_4,1.0670596999989357,,21,7,2026-03-02_17h51.10.323,2026A_exp2,2022.2.4,59.885044667856825,
1,0,4.9,0.0,0,0,2,2,47,,,,,66.89907839999069,67.5497773999814,67.5497773999814,68.03409609998926,315,315,68.03409609998926,68.03409609998926,68.03409609998926,68.03409609998926,68.03409609998926,68.03409609998926,68.03409609998926,68.03409609998926,68.03409609998926,68.40068190000602,68.40068190000602,68.40068190000602,68.40068190000602,68.40068190000602,68.40068190000602,68.40068190000602,68.40068190000602,68.40068190000602,0,1,[0.0006786000158172101],[0.3675461999955587],68.40068190000602,68.60078519998933,4.9,68.60078519998933,1,4.9,1,1,1000,num_4,3.768634900014149,,21,7,2026-03-02_17h51.10.323,2026A_exp2,2022.2.4,59.885044667856825,
1000,1,4.9,0.0,0,0,3,3,37,,,,,72.38778479999746,73.03855629998725,73.03855629998725,73.522976200009,315,315,73.522976200009,73.522976200009,73.522976200009,73.522976200009,73.522976200009,73.522976200009,73.522976200009,73.522976200009,73.522976200009,73.88940620000358,73.88940620000358,73.88940620000358,73.88940620000358,73.88940620000358,73.88940620000358,73.88940620000358,73.88940620000358,73.88940620000358,0,1,[0.001262800011318177],[0.3672593999945093],73.88940620000358,74.08959759998834,1000,74.08959759998834,1000,1000,1000,1000,0,num_3,0.7365736999781802,,21,7,2026-03-02_17h51.10.323,2026A_exp2,2022.2.4,59.885044667856825,
1000,1,0.0,0.0,1,0,4,4,35,,,,,74.85710059999838,75.50767339998856,75.50767339998856,76.00870979999308,315,315,76.00870979999308,76.00870979999308,76.00870979999308,76.00870979999308,76.00870979999308,76.00870979999308,76.00870979999308,76.00870979999308,76.00870979999308,76.35851329998695,76.35851329998695,76.35851329998695,76.35851329998695,76.35851329998695,76.35851329998695,76.35851329998695,76.35851329998695,76.35851329998695,0,1,[0.0012360000109765679],[0.3505015000118874],76.35851329998695,76.55963169998722,1000,76.57514450000599,1000,1000,1000,1000,0,num_3,0.6503439999942202,,21,7,2026-03-02_17h51.10.323,2026A_exp2,2022.2.4,59.885044667856825,
1000,1,6.1,4.9,1,0,5,5,15,,,,,77.24288669999805,77.89338409999618,77.89338409999618,78.39460739999777,315,45,78.39460739999777,78.39460739999777,78.39460739999777,78.39460739999777,78.39460739999777,78.39460739999777,78.39460739999777,78.39460739999777,78.39460739999777,78.76073320000432,78.76073320000432,78.76073320000432,78.76073320000432,78.76073320000432,78.76073320000432,78.76073320000432,78.76073320000432,78.76073320000432,0,1,[0.0008019999950192869],[0.36771130000124685],78.76073320000432,78.962729699997,1000,78.962729699997,1000,1000,1000,1000,0,num_3,0.5666543999977876,,21,7,2026-03-02_17h51.10.323,2026A_exp2,2022.2.4,59.885044667856825,
1000,1,4.9,0.0,1,0,6,6,56,,,,,79.54506440000841,80.19564359998913,80.19564359998913,80.69671240000753,45,315,80.69671240000753,80.69671240000753,80.69671240000753,80.69671240000753,80.69671240000753,80.69671240000753,80.69671240000753,80.69671240000753,80.69671240000753,81.06313649998629,81.06313649998629,81.06313649998629,81.06313649998629,81.06313649998629,81.06313649998629,81.06313649998629,81.06313649998629,81.06313649998629,0,1,[0.0012323000119067729],[0.36723599999095313],81.06313649998629,81.26541669998551,1000,81.26541669998551,1000,1000,1000,1000,0,num_3,0.4485092000104487,,21,7,2026-03-02_17h51.10.323,2026A_exp2,2022.2.4,59.885044667856825,
1,0,6.1,3.7,1,0,7,7,83,,,,,81.73047119998955,82.38137879999704,82.38137879999704,82.88235780000105,315,315,82.88235780000105,82.88235780000105,82.88235780000105,82.88235780000105,82.88235780000105,82.88235780000105,82.88235780000105,82.88235780000105,82.88235780000105,83.24879959999816,83.24879959999816,83.24879959999816,83.24879959999816,83.24879959999816,83.24879959999816,83.24879959999816,83.24879959999816,83.24879959999816,0,1,[0.0012436000106390566],[0.3673764000122901],83.24879959999816,83.44889269999112,3.7,83.44889269999112,0,3.7,1,0,1000,num_1,0.7285865999874659,,21,7,2026-03-02_17h51.10.323,2026A_exp2,2022.2.4,59.885044667856825,
0,0,4.9,6.1,1,0,8,8,70,,,,,84.19952500000363,84.85028819998843,84.85028819998843,85.33474920000299,45,45,85.33474920000299,85.33474920000299,85.33474920000299,85.33474920000299,85.33474920000299,85.33474920000299,85.33474920000299,85.33474920000299,85.33474920000299,85.70124749999377,85.70124749999377,85.70124749999377,85.70124749999377,85.70124749999377,85.70124749999377,85.70124749999377,85.70124749999377,85.70124749999377,0,1,[0.0012552000116556883],[0.36711360001936555],85.70124749999377,85.90140410000458,4.9,85.90140410000458,1,4.9,1,1,1000,num_4,0.7734170000185259,,21,7,2026-03-02_17h51.10.323,2026A_exp2,2022.2.4,59.885044667856825,
0,0,0.0,4.9,0,0,9,9,65,,,,,86.70211049998761,87.35284169999068,87.35284169999068,87.83711749999202,315,45,87.83711749999202,87.83711749999202,87.83711749999202,87.83711749999202,87.83711749999202,87.83711749999202,87.83711749999202,87.83711749999202,87.83711749999202,88.20388939999975,88.20388939999975,88.20388939999975,88.20388939999975,88.20388939999975,88.20388939999975,88.20388939999975,88.20388939999975,88.20388939999975,0,1,[0.0008700999896973372],[0.36764660000335425],88.20388939999975,88.40363630000502,4.9,88.40363630000502,0,4.9,1,0,1000,num_1,0.5345934999932069,,21,7,2026-03-02_17h51.10.323,2026A_exp2,2022.2.4,59.885044667856825,
1,0,3.7,0.0,0,0,10,10,9,,,,,88.95459889998892,89.6051637000055,89.6051637000055,90.08942209999077,45,315,90.08942209999077,90.08942209999077,90.08942209999077,90.08942209999077,90.08942209999077,90.08942209999077,90.08942209999077,90.08942209999077,90.08942209999077,90.45588160000625,90.45588160000625,90.45588160000625,90.45588160000625,90.45588160000625,90.45588160000625,90.45588160000625,90.45588160000625,90.45588160000625,0,1,[0.0013043000071775168],[0.367083699995419],90.45588160000625,90.65629029998672,3.7,90.65629029998672,0,3.7,1,0,1000,num_1,1.714445399993565,,21,7,2026-03-02_17h51.10.323,2026A_exp2,2022.2.4,59.885044667856825,
1,0,6.1,0.0,1,0,11,11,17,,,,,92.39105929998914,93.04184180000448,93.04184180000448,93.52627169998595,315,45,93.52627169998595,93.52627169998595,93.52627169998595,93.52627169998595,93.52627169998595,93.52627169998595,93.52627169998595,93.52627169998595,93.52627169998595,93.89277199999196,93.89277199999196,93.89277199999196,93.89277199999196,93.89277199999196,93.89277199999196,93.89277199999196,93.89277199999196,93.89277199999196,0,1,[0.0012243000091984868],[0.3672090999898501],93.89277199999196,94.09301509999204,0.0,94.09301509999204,0,0.0,0,1,1000,num_1,0.7323715999955311,,21,7,2026-03-02_17h51.10.323,2026A_exp2,2022.2.4,59.885044667856825,
1,0,4.9,6.1,1,0,12,12,36,,,,,94.84363560000202,95.49426390000735,95.49426390000735,95.97870669999975,315,315,95.97870669999975,95.97870669999975,95.97870669999975,95.97870669999975,95.97870669999975,95.97870669999975,95.97870669999975,95.97870669999975,95.97870669999975,96.34524960000999,96.34524960000999,96.34524960000999,96.34524960000999,96.34524960000999,96.34524960000999,96.34524960000999,96.34524960000999,96.34524960000999,17,1,[0.0012838999973610044],[0.10025620000669733],96.34524960000999,96.54527810000582,6.1,96.54527810000582,1,6.1,1,1,1000,num_4,0.49646510000457056,,21,7,2026-03-02_17h51.10.323,2026A_exp2,2022.2.4,59.885044667856825,
1000,1,3.7,3.7,1,0,13,13,54,,,,,97.06261689998792,97.69640059999074,97.69640059999074,98.19765329998336,45,315,98.19765329998336,98.19765329998336,98.19765329998336,98.19765329998336,98.19765329998336,98.19765329998336,98.19765329998336,98.19765329998336,98.19765329998336,98.56411119998666,98.56411119998666,98.56411119998666,98.56411119998666,98.56411119998666,98.56411119998666,98.56411119998666,98.56411119998666,98.56411119998666,0,1,[0.0012009000056423247],[0.3667779999959748],98.56411119998666,98.7662937999994,1000,98.7662937999994,1000,1000,1000,1000,1,num_2,1.0043732000049204,,21,7,2026-03-02_17h51.10.323,2026A_exp2,2022.2.4,59.885044667856825,
1,0,6.1,0.0,0,0,14,14,77,,,,,99.79847499998868,100.44918110000435,100.44918110000435,100.95035279999138,45,45,100.95035279999138,100.95035279999138,100.95035279999138,100.95035279999138,100.95035279999138,100.95035279999138,100.95035279999138,100.95035279999138,100.95035279999138,101.31686819999595,101.31686819999595,101.31686819999595,101.31686819999595,101.31686819999595,101.31686819999595,101.31686819999595,101.31686819999595,101.31686819999595,0,1,[0.0012411999923642725],[0.367175599996699],101.31686819999595,101.51703280000947,6.1,101.51703280000947,1,6.1,1,1,1000,num_4,0.6619267000060063,,21,7,2026-03-02_17h51.10.323,2026A_exp2,2022.2.4,59.885044667856825,
1,0,6.1,0.0,0,0,15,15,51,,,,,102.20107959999586,102.8516590000072,102.8516590000072,103.33571590000065,315,45,103.33571590000065,103.33571590000065,103.33571590000065,103.33571590000065,103.33571590000065,103.33571590000065,103.33571590000065,103.33571590000065,103.33571590000065,103.70258230000036,103.70258230000036,103.70258230000036,103.70258230000036,103.70258230000036,103.70258230000036,103.70258230000036,103.70258230000036,103.70258230000036,0,1,[0.0012486999912653118],[0.3671922000066843],103.70258230000036,103.90279930000543,6.1,103.90279930000543,1,6.1,1,1,1000,num_4,0.4513757000095211,,21,7,2026-03-02_17h51.10.323,2026A_exp2,2022.2.4,59.885044667856825,
1000,1,0.0,6.1,0,0,16,16,27,,,,,104.36974870000267,105.02051850000862,105.02051850000862,105.52167459999328,315,315,105.52167459999328,105.52167459999328,105.52167459999328,105.52167459999328,105.52167459999328,105.52167459999328,105.52167459999328,105.52167459999328,105.52167459999328,105.87125180001021,105.87125180001021,105.87125180001021,105.87125180001021,105.87125180001021,105.87125180001021,105.87125180001021,105.87125180001021,105.87125180001021,7,2,"[0.017392200010363013, 0.3171777999959886]","[0.2505156999977771, 0.3337527000112459]",105.87125180001021,106.07331410000916,1000,106.07331410000916,1000,1000,1000,1000,1,num_2,0.6482623999763746,,21,7,2026-03-02_17h51.10.323,2026A_exp2,2022.2.4,59.885044667856825,
1,0,3.7,0.0,0,0,17,17,7,,,,,106.73896180000156,107.38954149998608,107.38954149998608,107.89055079998798,45,45,107.89055079998798,107.89055079998798,107.89055079998798,107.89055079998798,107.89055079998798,107.89055079998798,107.89055079998798,107.89055079998798,107.89055079998798,108.24040479998803,108.24040479998803,108.24040479998803,108.24040479998803,108.24040479998803,108.24040479998803,108.24040479998803,108.24040479998803,108.24040479998803,20,2,"[0.15035710000665858, 0.2502804000105243]","[0.1669786000275053, 0.26693310000700876]",108.24040479998803,108.4406737999816,3.7,108.4406737999816,1,3.7,1,1,1000,num_4,1.688890999997966,,21,7,2026-03-02_17h51.10.323,2026A_exp2,2022.2.4,59.885044667856825,
1000,1,3.7,0.0,0,0,18,18,55,,,,,110.15894309998839,110.80969029999687,110.80969029999687,111.29392510000616,45,315,111.29392510000616,111.29392510000616,111.29392510000616,111.29392510000616,111.29392510000616,111.29392510000616,111.29392510000616,111.29392510000616,111.29392510000616,111.66040829999838,111.66040829999838,111.66040829999838,111.66040829999838,111.66040829999838,111.66040829999838,111.66040829999838,111.66040829999838,111.66040829999838,0,1,[0.0012666000111494213],[0.36706129999947734],111.66040829999838,111.86264569999184,1000,111.86264569999184,1000,1000,1000,1000,0,num_3,0.5792885999835562,,21,7,2026-03-02_17h51.10.323,2026A_exp2,2022.2.4,59.885044667856825,
1000,1,0.0,3.7,1,0,19,19,67,,,,,112.46116790000815,113.11189770000055,113.11189770000055,113.61304959998233,45,45,113.61304959998233,113.61304959998233,113.61304959998233,113.61304959998233,113.61304959998233,113.61304959998233,113.61304959998233,113.61304959998233,113.61304959998233,113.97937339998316,113.97937339998316,113.97937339998316,113.97937339998316,113.97937339998316,113.97937339998316,113.97937339998316,113.97937339998316,113.97937339998316,0,1,[0.001281699980609119],[0.3672303999774158],113.97937339998316,114.18105690000812,1000,114.18105690000812,1000,1000,1000,1000,0,num_3,1.0616219000075944,,21,7,2026-03-02_17h51.10.323,2026A_exp2,2022.2.4,59.885044667856825,
0,0,4.9,0.0,1,0,20,20,26,,,,,115.26399750000564,115.91476749998401,115.91476749998401,116.4159040999948,315,45,116.4159040999948,116.4159040999948,116.4159040999948,116.4159040999948,116.4159040999948,116.4159040999948,116.4159040999948,116.4159040999948,116.4159040999948,116.76554980000947,116.76554980000947,116.76554980000947,116.76554980000947,116.76554980000947,116.76554980000947,116.76554980000947,116.76554980000947,116.76554980000947,3,1,[0.001219199999468401],[0.31727020000107586],116.76554980000947,116.96574019998661,4.9,116.98252009999123,1,4.9,1,1,1000,num_4,1.6279632999794558,,21,7,2026-03-02_17h51.10.323,2026A_exp2,2022.2.4,59.885044667856825,
1000,1,6.1,0.0,0,0,21,21,21,,,,,118.63375639999867,119.26800609999918,119.26800609999918,119.76913559998502,45,45,119.76913559998502,119.76913559998502,119.76913559998502,119.76913559998502,119.76913559998502,119.76913559998502,119.76913559998502,119.76913559998502,119.76913559998502,120.13553520001005,120.13553520001005,120.13553520001005,120.13553520001005,120.13553520001005,120.13553520001005,120.13553520001005,120.13553520001005,120.13553520001005,23,0,,,120.13553520001005,120.33733039998333,1000,120.33733039998333,1000,1000,1000,1000,0,num_3,0.5840580000076443,,21,7,2026-03-02_17h51.10.323,2026A_exp2,2022.2.4,59.885044667856825,
1000,1,0.0,0.0,0,0,22,22,13,,,,,120.93634889999521,121.58711399999447,121.58711399999447,122.08820460000425,315,315,122.08820460000425,122.08820460000425,122.08820460000425,122.08820460000425,122.08820460000425,122.08820460000425,122.08820460000425,122.08820460000425,122.08820460000425,122.454579799989,122.454579799989,122.454579799989,122.454579799989,122.454579799989,122.454579799989,122.454579799989,122.454579799989,122.454579799989,23,0,,,122.454579799989,122.65654599998379,1000,122.65654599998379,1000,1000,1000,1000,0,num_3,0.5211267000122461,,21,7,2026-03-02_17h51.10.323,2026A_exp2,2022.2.4,59.885044667856825,
1,0,0.0,0.0,1,0,23,23,66,,,,,123.2053159000061,123.85573670000304,123.85573670000304,124.357148399984,45,45,124.357148399984,124.357148399984,124.357148399984,124.357148399984,124.357148399984,124.357148399984,124.357148399984,124.357148399984,124.357148399984,124.72354499998619,124.72354499998619,124.72354499998619,124.72354499998619,124.72354499998619,124.72354499998619,124.72354499998619,124.72354499998619,124.72354499998619,5,1,[0.08341669998480938],[0.367257999983849],124.72354499998619,124.92359789999318,0.0,124.92359789999318,0,0.0,0,1,1000,num_1,0.7348354999849107,,21,7,2026-03-02_17h51.10.323,2026A_exp2,2022.2.4,59.885044667856825,
1000,1,0.0,3.7,1,0,24,24,82,,,,,125.67425869998988,126.32522450000397,126.32522450000397,126.8261278999853,45,45,126.8261278999853,126.8261278999853,126.8261278999853,126.8261278999853,126.8261278999853,126.8261278999853,126.8261278999853,126.8261278999853,126.8261278999853,127.19249479999417,127.19249479999417,127.19249479999417,127.19249479999417,127.19249479999417,127.19249479999417,127.19249479999417,127.19249479999417,127.19249479999417,0,1,[0.0012094000121578574],[0.36682399999699555],127.19249479999417,127.39466970000649,1000,127.39466970000649,1000,1000,1000,1000,0,num_3,0.8473126000026241,,21,7,2026-03-02_17h51.10.323,2026A_exp2,2022.2.4,59.885044667856825,
0,0,0.0,4.9,1,0,25,25,0,,,,,128.26035560001037,128.9110198999988,128.9110198999988,129.4122020000068,45,45,129.4122020000068,129.4122020000068,129.4122020000068,129.4122020000068,129.4122020000068,129.4122020000068,129.4122020000068,129.4122020000068,129.4122020000068,129.77851249999367,129.77851249999367,129.77851249999367,129.77851249999367,129.77851249999367,129.77851249999367,129.77851249999367,129.77851249999367,129.77851249999367,0,1,[0.0012758999946527183],[0.3671555999899283],129.77851249999367,129.97878440000932,0.0,129.97878440000932,0,0.0,0,1,1000,num_1,0.7991896000166889,,21,7,2026-03-02_17h51.10.323,2026A_exp2,2022.2.4,59.885044667856825,
0,0,0.0,6.1,1,0,26,26,46,,,,,130.79613669999526,131.4469434999919,131.4469434999919,131.9312162999995,315,315,131.9312162999995,131.9312162999995,131.9312162999995,131.9312162999995,131.9312162999995,131.9312162999995,131.9312162999995,131.9312162999995,131.9312162999995,132.29764509998495,132.29764509998495,132.29764509998495,132.29764509998495,132.29764509998495,132.29764509998495,132.29764509998495,132.29764509998495,132.29764509998495,22,1,[0.10027130000526085],[0.11695179998059757],132.29764509998495,132.4979122999939,0.0,132.4979122999939,0,0.0,0,1,1000,num_1,0.6968870999990031,,21,7,2026-03-02_17h51.10.323,2026A_exp2,2022.2.4,59.885044667856825,
1,0,0.0,0.0,0,0,27,27,32,,,,,133.21522290000576,133.86589369998546,133.86589369998546,134.3504898000101,45,315,134.3504898000101,134.3504898000101,134.3504898000101,134.3504898000101,134.3504898000101,134.3504898000101,134.3504898000101,134.3504898000101,134.3504898000101,134.7168643999903,134.7168643999903,134.7168643999903,134.7168643999903,134.7168643999903,134.7168643999903,134.7168643999903,134.7168643999903,134.7168643999903,23,0,,,134.7168643999903,134.917025200004,0.0,134.917025200004,1,0.0,0,0,1000,num_4,3.077849499997683,,21,7,2026-03-02_17h51.10.323,2026A_exp2,2022.2.4,59.885044667856825,
0,0,3.7,3.7,1,0,28,28,62,,,,,138.02006539999275,138.67074420000426,138.67074420000426,139.15518309999607,45,45,139.15518309999607,139.15518309999607,139.15518309999607,139.15518309999607,139.15518309999607,139.15518309999607,139.15518309999607,139.15518309999607,139.15518309999607,139.52161409999826,139.52161409999826,139.52161409999826,139.52161409999826,139.52161409999826,139.52161409999826,139.52161409999826,139.52161409999826,139.52161409999826,23,0,,,139.52161409999826,139.7278587000037,3.7,139.7278587000037,0,3.7,1,0,1000,num_1,0.39392609999049455,,21,7,2026-03-02_17h51.10.323,2026A_exp2,2022.2.4,59.885044667856825,
1000,1,3.7,0.0,1,0,29,29,19,,,,,140.1388023000036,140.7896267999895,140.7896267999895,141.27411110000685,45,315,141.27411110000685,141.27411110000685,141.27411110000685,141.27411110000685,141.27411110000685,141.27411110000685,141.27411110000685,141.27411110000685,141.27411110000685,141.64048149998416,141.64048149998416,141.64048149998416,141.64048149998416,141.64048149998416,141.64048149998416,141.64048149998416,141.64048149998416,141.64048149998416,17,1,[0.11701350001385435],[0.21723910002037883],141.64048149998416,141.84290170000168,1000,141.84290170000168,1000,1000,1000,1000,0,num_3,0.606883900007233,,21,7,2026-03-02_17h51.10.323,2026A_exp2,2022.2.4,59.885044667856825,
1000,1,4.9,0.0,0,0,30,30,12,,,,,142.4745336000051,143.13381309999386,143.13381309999386,143.6264922999835,45,45,143.6264922999835,143.6264922999835,143.6264922999835,143.6264922999835,143.6264922999835,143.6264922999835,143.6264922999835,143.6264922999835,143.6264922999835,143.99282959999982,143.99282959999982,143.99282959999982,143.99282959999982,143.99282959999982,143.99282959999982,143.99282959999982,143.99282959999982,143.99282959999982,23,0,,,143.99282959999982,144.19496470000013,1000,144.19496470000013,1000,1000,1000,1000,0,num_3,0.47901619999902323,,21,7,2026-03-02_17h51.10.323,2026A_exp2,2022.2.4,59.885044667856825,
1,0,4.9,3.7,1,0,31,31,71,,,,,144.69362159998855,145.344196799997,145.344196799997,145.84540230000857,45,315,145.84540230000857,145.84540230000857,145.84540230000857,145.84540230000857,145.84540230000857,145.84540230000857,145.84540230000857,145.84540230000857,145.84540230000857,146.21166820000508,146.21166820000508,146.21166820000508,146.21166820000508,146.21166820000508,146.21166820000508,146.21166820000508,146.21166820000508,146.21166820000508,23,0,,,146.21166820000508,146.41176590000396,3.7,146.41176590000396,1,3.7,1,1,1000,num_4,1.8301491999882273,,21,7,2026-03-02_17h51.10.323,2026A_exp2,2022.2.4,59.885044667856825,
1,0,0.0,0.0,0,0,32,32,11,,,,,148.26344529999187,148.89786900000763,148.89786900000763,149.39868710000883,45,45,149.39868710000883,149.39868710000883,149.39868710000883,149.39868710000883,149.39868710000883,149.39868710000883,149.39868710000883,149.39868710000883,149.39868710000883,149.7652213999827,149.7652213999827,149.7652213999827,149.7652213999827,149.7652213999827,149.7652213999827,149.7652213999827,149.7652213999827,149.7652213999827,23,0,,,149.7652213999827,149.9655286000052,0.0,149.9655286000052,0,0.0,0,1,1000,num_1,0.44538289998308755,,21,7,2026-03-02_17h51.10.323,2026A_exp2,2022.2.4,59.885044667856825,
1,0,3.7,0.0,0,0,33,33,3,,,,,150.4325639999879,151.08313879999332,151.08313879999332,151.5676317999896,45,315,151.5676317999896,151.5676317999896,151.5676317999896,151.5676317999896,151.5676317999896,151.5676317999896,151.5676317999896,151.5676317999896,151.5676317999896,151.93415839999216,151.93415839999216,151.93415839999216,151.93415839999216,151.93415839999216,151.93415839999216,151.93415839999216,151.93415839999216,151.93415839999216,23,0,,,151.93415839999216,152.13418950000778,3.7,152.13418950000778,1,3.7,1,1,1000,num_4,1.651576699980069,,21,7,2026-03-02_17h51.10.323,2026A_exp2,2022.2.4,59.885044667856825,
1000,1,0.0,3.7,0,0,34,34,50,,,,,153.80251350000617,154.4533655999985,154.4533655999985,154.93741660000524,315,315,154.93741660000524,154.93741660000524,154.93741660000524,154.93741660000524,154.93741660000524,154.93741660000524,154.93741660000524,154.93741660000524,154.93741660000524,155.3041547999892,155.3041547999892,155.3041547999892,155.3041547999892,155.3041547999892,155.3041547999892,155.3041547999892,155.3041547999892,155.3041547999892,23,0,,,155.3041547999892,155.50542490000953,1000,155.52097230000072,1000,1000,1000,1000,0,num_3,1.065191900008358,,21,7,2026-03-02_17h51.10.323,2026A_exp2,2022.2.4,59.885044667856825,
1,0,0.0,4.9,1,0,35,35,41,,,,,156.6052403000067,157.25606549999793,157.25606549999793,157.7572502999974,315,45,157.7572502999974,157.7572502999974,157.7572502999974,157.7572502999974,157.7572502999974,157.7572502999974,157.7572502999974,157.7572502999974,157.7572502999974,158.12362629998825,158.12362629998825,158.12362629998825,158.12362629998825,158.12362629998825,158.12362629998825,158.12362629998825,158.12362629998825,158.12362629998825,23,0,,,158.12362629998825,158.32377250000718,4.9,158.32377250000718,1,4.9,1,1,1000,num_4,0.8389396999846213,,21,7,2026-03-02_17h51.10.323,2026A_exp2,2022.2.4,59.885044667856825,
1000,1,0.0,0.0,1,0,36,36,34,,,,,159.1912025999918,159.84189280000282,159.84189280000282,160.3264213000075,315,45,160.3264213000075,160.3264213000075,160.3264213000075,160.3264213000075,160.3264213000075,160.3264213000075,160.3264213000075,160.3264213000075,160.3264213000075,160.69285699998727,160.69285699998727,160.69285699998727,160.69285699998727,160.69285699998727,160.69285699998727,160.69285699998727,160.69285699998727,160.69285699998727,23,0,,,160.69285699998727,160.89489649998723,1000,160.89489649998723,1000,1000,1000,1000,0,num_3,0.8355120999913197,,21,7,2026-03-02_17h51.10.323,2026A_exp2,2022.2.4,59.885044667856825,
1,0,4.9,6.1,0,0,37,37,29,,,,,161.76068659999873,162.4111212999851,162.4111212999851,162.91236560000107,315,45,162.91236560000107,162.91236560000107,162.91236560000107,162.91236560000107,162.91236560000107,162.91236560000107,162.91236560000107,162.91236560000107,162.91236560000107,163.26216330000898,163.26216330000898,163.26216330000898,163.26216330000898,163.26216330000898,163.26216330000898,163.26216330000898,163.26216330000898,163.26216330000898,22,0,,,163.26216330000898,163.46229510000558,4.9,163.46229510000558,1,4.9,1,1,1000,num_4,1.3084770999848843,,21,7,2026-03-02_17h51.10.323,2026A_exp2,2022.2.4,59.885044667856825,
1000,1,0.0,0.0,1,0,38,38,44,,,,,164.7968537999841,165.44762099999934,165.44762099999934,165.93194419998326,45,315,165.93194419998326,165.93194419998326,165.93194419998326,165.93194419998326,165.93194419998326,165.93194419998326,165.93194419998326,165.93194419998326,165.93194419998326,166.2984177999897,166.2984177999897,166.2984177999897,166.2984177999897,166.2984177999897,166.2984177999897,166.2984177999897,166.2984177999897,166.2984177999897,23,0,,,166.2984177999897,166.50099259999115,1000,166.50099259999115,1000,1000,1000,1000,1,num_2,0.9011871999828145,,21,7,2026-03-02_17h51.10.323,2026A_exp2,2022.2.4,59.885044667856825,
1,0,0.0,0.0,1,0,39,39,20,,,,,167.433003299986,168.06689560000086,168.06689560000086,168.56787820000318,315,315,168.56787820000318,168.56787820000318,168.56787820000318,168.56787820000318,168.56787820000318,168.56787820000318,168.56787820000318,168.56787820000318,168.56787820000318,168.93435070000123,168.93435070000123,168.93435070000123,168.93435070000123,168.93435070000123,168.93435070000123,168.93435070000123,168.93435070000123,168.93435070000123,23,0,,,168.93435070000123,169.13464010000462,0.0,169.13464010000462,0,0.0,0,1,1000,num_1,0.3638671000080649,,21,7,2026-03-02_17h51.10.323,2026A_exp2,2022.2.4,59.885044667856825,
1,0,0.0,3.7,1,0,40,40,30,,,,,169.51802139999927,170.1688781999983,170.1688781999983,170.65345330000855,45,315,170.65345330000855,170.65345330000855,170.65345330000855,170.65345330000855,170.65345330000855,170.65345330000855,170.65345330000855,170.65345330000855,170.65345330000855,171.01968719999422,171.01968719999422,171.01968719999422,171.01968719999422,171.01968719999422,171.01968719999422,171.01968719999422,171.01968719999422,171.01968719999422,23,0,,,171.01968719999422,171.22001379998983,3.7,171.22001379998983,1,3.7,1,1,1000,num_4,1.3174504000053275,,21,7,2026-03-02_17h51.10.323,2026A_exp2,2022.2.4,59.885044667856825,
1,0,0.0,3.7,0,0,41,41,64,,,,,172.5547787999967,173.18871409998974,173.18871409998974,173.6895666999917,45,45,173.6895666999917,173.6895666999917,173.6895666999917,173.6895666999917,173.6895666999917,173.6895666999917,173.6895666999917,173.6895666999917,173.6895666999917,174.05616360000568,174.05616360000568,174.05616360000568,174.05616360000568,174.05616360000568,174.05616360000568,174.05616360000568,174.05616360000568,174.05616360000568,23,0,,,174.05616360000568,174.25628669999423,0.0,174.25628669999423,0,0.0,0,1,1000,num_1,0.3780034999945201,,21,7,2026-03-02_17h51.10.323,2026A_exp2,2022.2.4,59.885044667856825,
1000,1,3.7,0.0,1,0,42,42,78,,,,,174.65670620001038,175.30753200000618,175.30753200000618,175.79179399998975,315,315,175.79179399998975,175.79179399998975,175.79179399998975,175.79179399998975,175.79179399998975,175.79179399998975,175.79179399998975,175.79179399998975,175.79179399998975,176.1583158999856,176.1583158999856,176.1583158999856,176.1583158999856,176.1583158999856,176.1583158999856,176.1583158999856,176.1583158999856,176.1583158999856,23,0,,,176.1583158999856,176.36022939998657,1000,176.36022939998657,1000,1000,1000,1000,0,num_3,0.6175579999980982,,21,7,2026-03-02_17h51.10.323,2026A_exp2,2022.2.4,59.885044667856825,
0,0,0.0,4.9,1,0,43,43,33,,,,,177.00918590000947,177.65973109999322,177.65973109999322,178.16096109998762,315,315,178.16096109998762,178.16096109998762,178.16096109998762,178.16096109998762,178.16096109998762,178.16096109998762,178.16096109998762,178.16096109998762,178.16096109998762,178.5107319999952,178.5107319999952,178.5107319999952,178.5107319999952,178.5107319999952,178.5107319999952,178.5107319999952,178.5107319999952,178.5107319999952,0,1,[0.001269600004889071],[0.3504648000234738],178.5107319999952,178.71097039998858,0.0,178.71097039998858,0,0.0,0,1,1000,num_1,0.7399469999945723,,21,7,2026-03-02_17h51.10.323,2026A_exp2,2022.2.4,59.885044667856825,
1,0,4.9,4.9,1,0,44,44,18,,,,,179.47817580000265,180.12874590000138,180.12874590000138,180.61329310000292,45,315,180.61329310000292,180.61329310000292,180.61329310000292,180.61329310000292,180.61329310000292,180.61329310000292,180.61329310000292,180.61329310000292,180.61329310000292,180.97981769999024,180.97981769999024,180.97981769999024,180.97981769999024,180.97981769999024,180.97981769999024,180.97981769999024,180.97981769999024,180.97981769999024,23,0,,,180.97981769999024,181.17998819999048,4.9,181.17998819999048,0,4.9,1,0,1000,num_1,1.0945100999961141,,21,7,2026-03-02_17h51.10.323,2026A_exp2,2022.2.4,59.885044667856825,
1000,1,0.0,0.0,1,0,45,45,68,,,,,182.29772559998673,182.94847719999962,182.94847719999962,183.43271679998725,315,45,183.43271679998725,183.43271679998725,183.43271679998725,183.43271679998725,183.43271679998725,183.43271679998725,183.43271679998725,183.43271679998725,183.43271679998725,183.7993065000046,183.7993065000046,183.7993065000046,183.7993065000046,183.7993065000046,183.7993065000046,183.7993065000046,183.7993065000046,183.7993065000046,23,0,,,183.7993065000046,184.00114700000267,1000,184.00114700000267,1000,1000,1000,1000,0,num_3,0.9211916000058409,,21,7,2026-03-02_17h51.10.323,2026A_exp2,2022.2.4,59.885044667856825,
1000,1,4.9,0.0,1,0,46,46,74,,,,,184.9502908999857,185.60112619999563,185.60112619999563,186.10212219998357,315,45,186.10212219998357,186.10212219998357,186.10212219998357,186.10212219998357,186.10212219998357,186.10212219998357,186.10212219998357,186.10212219998357,186.10212219998357,186.45196780000697,186.45196780000697,186.45196780000697,186.45196780000697,186.45196780000697,186.45196780000697,186.45196780000697,186.45196780000697,186.45196780000697,22,0,,,186.45196780000697,186.65375040000072,1000,186.6688726999855,1000,1000,1000,1000,0,num_3,0.5175460999889765,,21,7,2026-03-02_17h51.10.323,2026A_exp2,2022.2.4,59.885044667856825,
1000,1,4.9,3.7,0,0,47,47,40,,,,,187.2025755000068,187.8534107999876,187.8534107999876,188.35446549998596,315,45,188.35446549998596,188.35446549998596,188.35446549998596,188.35446549998596,188.35446549998596,188.35446549998596,188.35446549998596,188.35446549998596,188.35446549998596,188.720822400006,188.720822400006,188.720822400006,188.720822400006,188.720822400006,188.720822400006,188.720822400006,188.720822400006,188.720822400006,23,0,,,188.720822400006,188.9229895999888,1000,188.9229895999888,1000,1000,1000,1000,0,num_3,0.48786560000735335,,21,7,2026-03-02_17h51.10.323,2026A_exp2,2022.2.4,59.885044667856825,
1,0,0.0,0.0,0,0,48,48,39,,,,,189.43818359999568,190.08888870000374,190.08888870000374,190.5899400000053,45,45,190.5899400000053,190.5899400000053,190.5899400000053,190.5899400000053,190.5899400000053,190.5899400000053,190.5899400000053,190.5899400000053,190.5899400000053,190.9563530999876,190.9563530999876,190.9563530999876,190.9563530999876,190.9563530999876,190.9563530999876,190.9563530999876,190.9563530999876,190.9563530999876,23,0,,,190.9563530999876,191.15666649999912,0.0,191.15666649999912,1,0.0,0,0,1000,num_4,1.477770800003782,,21,7,2026-03-02_17h51.10.323,2026A_exp2,2022.2.4,59.885044667856825,
1000,1,0.0,3.7,1,0,49,49,1,,,,,192.65795980000985,193.30878059999668,193.30878059999668,193.7932688999863,45,45,193.7932688999863,193.7932688999863,193.7932688999863,193.7932688999863,193.7932688999863,193.7932688999863,193.7932688999863,193.7932688999863,193.7932688999863,194.1596292000031,194.1596292000031,194.1596292000031,194.1596292000031,194.1596292000031,194.1596292000031,194.1596292000031,194.1596292000031,194.1596292000031,23,0,,,194.1596292000031,194.3603146999958,1000,194.3603146999958,1000,1000,1000,1000,0,num_3,0.8334203000122216,,21,7,2026-03-02_17h51.10.323,2026A_exp2,2022.2.4,59.885044667856825,
1,0,6.1,6.1,1,0,50,50,49,,,,,195.21083050000016,195.86131149998982,195.86131149998982,196.362252299994,45,45,196.362252299994,196.362252299994,196.362252299994,196.362252299994,196.362252299994,196.362252299994,196.362252299994,196.362252299994,196.362252299994,196.72896410000976,196.72896410000976,196.72896410000976,196.72896410000976,196.72896410000976,196.72896410000976,196.72896410000976,196.72896410000976,196.72896410000976,23,0,,,196.72896410000976,196.92913959998987,6.1,196.92913959998987,0,6.1,1,0,1000,num_1,0.8252952999901026,,21,7,2026-03-02_17h51.10.323,2026A_exp2,2022.2.4,59.885044667856825,
1000,1,0.0,0.0,0,0,51,51,79,,,,,197.77981449998333,198.43047890000162,198.43047890000162,198.91507509999792,45,45,198.91507509999792,198.91507509999792,198.91507509999792,198.91507509999792,198.91507509999792,198.91507509999792,198.91507509999792,198.91507509999792,198.91507509999792,199.28117129998282,199.28117129998282,199.28117129998282,199.28117129998282,199.28117129998282,199.28117129998282,199.28117129998282,199.28117129998282,199.28117129998282,17,5,"[0.0012404999870341271, 0.0836937999993097, 0.1666698000044562, 0.33311559999128804, 0.3666782999935094]","[0.033581199997570366, 0.10032639998826198, 0.2001309999905061, 0.3497483999817632, 0.3666810999857262]",199.28117129998282,199.48342869998305,1000,199.48342869998305,1000,1000,1000,1000,0,num_3,1.1989180000091437,,21,7,2026-03-02_17h51.10.323,2026A_exp2,2022.2.4,59.885044667856825,
1,0,3.7,3.7,0,0,52,52,8,,,,,200.69954949998646,201.3500958000077,201.3500958000077,201.85124119999819,315,315,201.85124119999819,201.85124119999819,201.85124119999819,201.85124119999819,201.85124119999819,201.85124119999819,201.85124119999819,201.85124119999819,201.85124119999819,202.21777749998728,202.21777749998728,202.21777749998728,202.21777749998728,202.21777749998728,202.21777749998728,202.21777749998728,202.21777749998728,202.21777749998728,3,3,"[0.01731999998446554, 0.050298199988901615, 0.35048209998058155]","[0.033449299982748926, 0.3339114999980666, 0.36707639999804087]",202.21777749998728,202.41791799999191,3.7,202.41791799999191,0,3.7,1,0,1000,num_1,1.34457200000179,,21,7,2026-03-02_17h51.10.323,2026A_exp2,2022.2.4,59.885044667856825,
1,0,0.0,0.0,0,0,53,53,6,,,,,203.7858120999881,204.43630989998928,204.43630989998928,204.9209697000042,315,45,204.9209697000042,204.9209697000042,204.9209697000042,204.9209697000042,204.9209697000042,204.9209697000042,204.9209697000042,204.9209697000042,204.9209697000042,205.2874205999833,205.2874205999833,205.2874205999833,205.2874205999833,205.2874205999833,205.2874205999833,205.2874205999833,205.2874205999833,205.2874205999833,23,0,,,205.2874205999833,205.4875677000091,0.0,205.4875677000091,0,0.0,0,1,1000,num_1,0.47464859997853637,,21,7,2026-03-02_17h51.10.323,2026A_exp2,2022.2.4,59.885044667856825,
0,0,6.1,4.9,1,0,54,54,42,,,,,205.98817920000874,206.64303420000942,206.64303420000942,207.1479665999941,45,315,207.1479665999941,207.1479665999941,207.1479665999941,207.1479665999941,207.1479665999941,207.1479665999941,207.1479665999941,207.1479665999941,207.1479665999941,207.50635049998527,207.50635049998527,207.50635049998527,207.50635049998527,207.50635049998527,207.50635049998527,207.50635049998527,207.50635049998527,207.50635049998527,23,0,,,207.50635049998527,207.7064824999834,6.1,207.7064824999834,1,6.1,1,1,1000,num_4,0.9443870999966748,,21,7,2026-03-02_17h51.10.323,2026A_exp2,2022.2.4,59.885044667856825,
1000,1,0.0,4.9,0,0,55,55,23,,,,,208.674025299988,209.32435029998305,209.32435029998305,209.80935709999176,45,315,209.80935709999176,209.80935709999176,209.80935709999176,209.80935709999176,209.80935709999176,209.80935709999176,209.80935709999176,209.80935709999176,209.80935709999176,210.1756863000046,210.1756863000046,210.1756863000046,210.1756863000046,210.1756863000046,210.1756863000046,210.1756863000046,210.1756863000046,210.1756863000046,23,0,,,210.1756863000046,210.3775631999888,1000,210.3775631999888,1000,1000,1000,1000,1,num_2,0.6087662999925669,,21,7,2026-03-02_17h51.10.323,2026A_exp2,2022.2.4,59.885044667856825,
1,0,0.0,0.0,1,0,56,56,59,,,,,211.00974770000903,211.66058840000187,211.66058840000187,212.1448354999884,45,315,212.1448354999884,212.1448354999884,212.1448354999884,212.1448354999884,212.1448354999884,212.1448354999884,212.1448354999884,212.1448354999884,212.1448354999884,212.5113022000005,212.5113022000005,212.5113022000005,212.5113022000005,212.5113022000005,212.5113022000005,212.5113022000005,212.5113022000005,212.5113022000005,10,2,"[0.0012425000022631139, 0.08372270001564175]","[0.050207499996759, 0.23373139998875558]",212.5113022000005,212.7115255999961,0.0,212.7115255999961,0,0.0,0,1,1000,num_1,0.707332599995425,,21,7,2026-03-02_17h51.10.323,2026A_exp2,2022.2.4,59.885044667856825,
1000,1,3.7,0.0,1,0,57,57,38,,,,,213.44549119999283,214.09624169999734,214.09624169999734,214.58065240000724,315,45,214.58065240000724,214.58065240000724,214.58065240000724,214.58065240000724,214.58065240000724,214.58065240000724,214.58065240000724,214.58065240000724,214.58065240000724,214.94698720000451,214.94698720000451,214.94698720000451,214.94698720000451,214.94698720000451,214.94698720000451,214.94698720000451,214.94698720000451,214.94698720000451,18,2,"[0.0012311000027693808, 0.08312519997707568]","[0.06670409999787807, 0.09994029998779297]",214.94698720000451,215.14761119999457,1000,215.14761119999457,1000,1000,1000,1000,0,num_3,0.5740682000177912,,21,7,2026-03-02_17h51.10.323,2026A_exp2,2022.2.4,59.885044667856825,
1,0,0.0,0.0,0,0,58,58,61,,,,,215.74774950000574,216.39860809998936,216.39860809998936,216.89970789998188,315,315,216.89970789998188,216.89970789998188,216.89970789998188,216.89970789998188,216.89970789998188,216.89970789998188,216.89970789998188,216.89970789998188,216.89970789998188,217.26607909999439,217.26607909999439,217.26607909999439,217.26607909999439,217.26607909999439,217.26607909999439,217.26607909999439,217.26607909999439,217.26607909999439,19,4,"[0.2505218000151217, 0.2836010000028182, 0.31663340001250617, 0.3503555000061169]","[0.2671498999989126, 0.30001910001737997, 0.33329560002312064, 0.36736350000137463]",217.26607909999439,217.46628160000546,0.0,217.46628160000546,0,0.0,0,1,1000,num_1,0.911931899987394,,21,7,2026-03-02_17h51.10.323,2026A_exp2,2022.2.4,59.885044667856825,
1000,1,3.7,0.0,0,0,59,59,81,,,,,218.40044810000109,219.0511758000066,219.0511758000066,219.5356555999897,45,45,219.5356555999897,219.5356555999897,219.5356555999897,219.5356555999897,219.5356555999897,219.5356555999897,219.5356555999897,219.5356555999897,219.5356555999897,219.90207229999942,219.90207229999942,219.90207229999942,219.90207229999942,219.90207229999942,219.90207229999942,219.90207229999942,219.90207229999942,219.90207229999942,17,6,"[0.20039969999925233, 0.23379739999654703, 0.26705399999627843, 0.3005756000056863, 0.3338854000030551, 0.36722449999069795]","[0.21693880000384524, 0.2503723000118043, 0.2837633999879472, 0.31692219999968074, 0.3504489999904763, 0.3672292999981437]",219.90207229999942,220.1046617999964,1000,220.1046617999964,1000,1000,1000,1000,0,num_3,0.5618208000087179,,21,7,2026-03-02_17h51.10.323,2026A_exp2,2022.2.4,59.885044667856825,
1,0,6.1,3.7,1,0,60,60,16,,,,,220.68608179999865,221.3366573000094,221.3366573000094,221.83759999999893,45,45,221.83759999999893,221.83759999999893,221.83759999999893,221.83759999999893,221.83759999999893,221.83759999999893,221.83759999999893,221.83759999999893,221.83759999999893,222.20445799999288,222.20445799999288,222.20445799999288,222.20445799999288,222.20445799999288,222.20445799999288,222.20445799999288,222.20445799999288,222.20445799999288,22,1,[0.049991400010185316],[0.06665689998771995],222.20445799999288,222.40475260000676,3.7,222.40475260000676,0,3.7,1,0,1000,num_1,0.6767807000142056,,21,7,2026-03-02_17h51.10.323,2026A_exp2,2022.2.4,59.885044667856825,
1,0,0.0,3.7,0,0,61,61,76,,,,,223.10551329998998,223.7557150000066,223.7557150000066,224.24009010000736,315,45,224.24009010000736,224.24009010000736,224.24009010000736,224.24009010000736,224.24009010000736,224.24009010000736,224.24009010000736,224.24009010000736,224.24009010000736,224.60883290000493,224.60883290000493,224.60883290000493,224.60883290000493,224.60883290000493,224.60883290000493,224.60883290000493,224.60883290000493,224.60883290000493,23,0,,,224.60883290000493,,0.0,224.82381689999602,1,0.0,0,0,1000,num_4,1.3136515999794938,,21,7,2026-03-02_17h51.10.323,2026A_exp2,2022.2.4,59.885044667856825,
1,0,3.7,3.7,0,0,62,62,60,,,,,226.15801990000182,226.8086473000003,226.8086473000003,227.29330319998553,45,315,227.29330319998553,227.29330319998553,227.29330319998553,227.29330319998553,227.29330319998553,227.29330319998553,227.29330319998553,227.29330319998553,227.29330319998553,227.65951880000648,227.65951880000648,227.65951880000648,227.65951880000648,227.65951880000648,227.65951880000648,227.65951880000648,227.65951880000648,227.65951880000648,23,0,,,227.65951880000648,227.8602447999874,3.7,227.8602447999874,1,3.7,1,1,1000,num_4,2.605395699996734,,21,7,2026-03-02_17h51.10.323,2026A_exp2,2022.2.4,59.885044667856825,
1000,1,0.0,4.9,1,0,63,63,72,,,,,230.49586490000365,231.14663800000562,231.14663800000562,231.64755639998475,45,45,231.64755639998475,231.64755639998475,231.64755639998475,231.64755639998475,231.64755639998475,231.64755639998475,231.64755639998475,231.64755639998475,231.64755639998475,231.9979699999967,231.9979699999967,231.9979699999967,231.9979699999967,231.9979699999967,231.9979699999967,231.9979699999967,231.9979699999967,231.9979699999967,22,0,,,231.9979699999967,232.19938929998898,1000,232.19938929998898,1000,1000,1000,1000,0,num_3,0.8112558999855537,,21,7,2026-03-02_17h51.10.323,2026A_exp2,2022.2.4,59.885044667856825,
1000,1,3.7,6.1,1,0,64,64,43,,,,,233.0317281000025,233.68212059998768,233.68212059998768,234.18363739998313,315,315,234.18363739998313,234.18363739998313,234.18363739998313,234.18363739998313,234.18363739998313,234.18363739998313,234.18363739998313,234.18363739998313,234.18363739998313,234.54987200000323,234.54987200000323,234.54987200000323,234.54987200000323,234.54987200000323,234.54987200000323,234.54987200000323,234.54987200000323,234.54987200000323,23,0,,,234.54987200000323,234.7524746999843,1000,234.7524746999843,1000,1000,1000,1000,1,num_2,0.6495147999958135,,21,7,2026-03-02_17h51.10.323,2026A_exp2,2022.2.4,59.885044667856825,
1,0,4.9,4.9,0,0,65,65,28,,,,,235.41749419999542,236.06826410000212,236.06826410000212,236.56923160000588,315,45,236.56923160000588,236.56923160000588,236.56923160000588,236.56923160000588,236.56923160000588,236.56923160000588,236.56923160000588,236.56923160000588,236.56923160000588,236.93560409999918,236.93560409999918,236.93560409999918,236.93560409999918,236.93560409999918,236.93560409999918,236.93560409999918,236.93560409999918,236.93560409999918,23,0,,,236.93560409999918,237.13581489998614,4.9,237.13581489998614,1,4.9,1,1,1000,num_4,2.4667963000247255,,21,7,2026-03-02_17h51.10.323,2026A_exp2,2022.2.4,59.885044667856825,
1,0,0.0,0.0,1,0,66,66,58,,,,,239.62168399998336,240.2723404999997,240.2723404999997,240.75689240000793,315,315,240.75689240000793,240.75689240000793,240.75689240000793,240.75689240000793,240.75689240000793,240.75689240000793,240.75689240000793,240.75689240000793,240.75689240000793,241.12326069999835,241.12326069999835,241.12326069999835,241.12326069999835,241.12326069999835,241.12326069999835,241.12326069999835,241.12326069999835,241.12326069999835,23,0,,,241.12326069999835,241.3233515000029,0.0,241.3233515000029,0,0.0,0,1,1000,num_1,0.5902689999784343,,21,7,2026-03-02_17h51.10.323,2026A_exp2,2022.2.4,59.885044667856825,
1,0,6.1,6.1,0,0,67,67,89,,,,,241.94069299998228,242.59140919998754,242.59140919998754,243.07572329998948,45,45,243.07572329998948,243.07572329998948,243.07572329998948,243.07572329998948,243.07572329998948,243.07572329998948,243.07572329998948,243.07572329998948,243.07572329998948,243.44225709998864,243.44225709998864,243.44225709998864,243.44225709998864,243.44225709998864,243.44225709998864,243.44225709998864,243.44225709998864,243.44225709998864,23,0,,,243.44225709998864,243.64236559998244,6.1,243.64236559998244,1,6.1,1,1,1000,num_4,0.46357529997476377,,21,7,2026-03-02_17h51.10.323,2026A_exp2,2022.2.4,59.885044667856825,
1000,1,0.0,4.9,1,0,68,68,57,,,,,244.12623920000624,244.77068560000043,244.77068560000043,245.26118949998636,45,315,245.26118949998636,245.26118949998636,245.26118949998636,245.26118949998636,245.26118949998636,245.26118949998636,245.26118949998636,245.26118949998636,245.26118949998636,245.62776279999525,245.62776279999525,245.62776279999525,245.62776279999525,245.62776279999525,245.62776279999525,245.62776279999525,245.62776279999525,245.62776279999525,23,0,,,245.62776279999525,245.8298647000047,1000,245.8298647000047,1000,1000,1000,1000,1,num_2,0.5886249000031967,,21,7,2026-03-02_17h51.10.323,2026A_exp2,2022.2.4,59.885044667856825,
1000,1,3.7,4.9,0,0,69,69,25,,,,,246.4455803000019,247.09578269999474,247.09578269999474,247.58028580000973,315,315,247.58028580000973,247.58028580000973,247.58028580000973,247.58028580000973,247.58028580000973,247.58028580000973,247.58028580000973,247.58028580000973,247.58028580000973,247.9466948999907,247.9466948999907,247.9466948999907,247.9466948999907,247.9466948999907,247.9466948999907,247.9466948999907,247.9466948999907,247.9466948999907,15,5,"[0.11696079999092035, 0.1503526999731548, 0.25030519999563694, 0.28376349998870865, 0.35063639999134466]","[0.13376449997304007, 0.1670064999780152, 0.26708859999780543, 0.33375529997283593, 0.3671382999746129]",247.9466948999907,248.14882020000368,1000,248.14882020000368,1000,1000,1000,1000,1,num_2,1.917161000019405,,21,7,2026-03-02_17h51.10.323,2026A_exp2,2022.2.4,59.885044667856825,
1000,1,0.0,0.0,0,0,70,70,24,,,,,250.08228159998544,250.73292670000228,250.73292670000228,251.23397729999851,315,45,251.23397729999851,251.23397729999851,251.23397729999851,251.23397729999851,251.23397729999851,251.23397729999851,251.23397729999851,251.23397729999851,251.23397729999851,251.60035649998463,251.60035649998463,251.60035649998463,251.60035649998463,251.60035649998463,251.60035649998463,251.60035649998463,251.60035649998463,251.60035649998463,15,6,"[0.0012380999978631735, 0.03361199999926612, 0.102320600009989, 0.16661409998778254, 0.2503429999924265, 0.300513599999249]","[0.017366699990816414, 0.05022780000581406, 0.11649990000296384, 0.18340249999891967, 0.28386210001190193, 0.3337325000029523]",251.60035649998463,251.80260719999205,1000,251.80260719999205,1000,1000,1000,1000,1,num_2,0.8793259999947622,,21,7,2026-03-02_17h51.10.323,2026A_exp2,2022.2.4,59.885044667856825,
1000,1,0.0,0.0,1,0,71,71,88,,,,,252.7015182999894,253.35176009999122,253.35176009999122,253.85326850001002,45,45,253.85326850001002,253.85326850001002,253.85326850001002,253.85326850001002,253.85326850001002,253.85326850001002,253.85326850001002,253.85326850001002,253.85326850001002,254.21965879999334,254.21965879999334,254.21965879999334,254.21965879999334,254.21965879999334,254.21965879999334,254.21965879999334,254.21965879999334,254.21965879999334,10,3,"[0.05036740002105944, 0.18390950001776218, 0.21724510000785813]","[0.08383190000313334, 0.20050340000307187, 0.3673484000028111]",254.21965879999334,254.42207400000188,1000,254.42207400000188,1000,1000,1000,1000,0,num_3,1.1875147999962792,,21,7,2026-03-02_17h51.10.323,2026A_exp2,2022.2.4,59.885044667856825,
1,0,0.0,0.0,0,0,72,72,85,,,,,255.63770590000786,256.2885134999815,256.2885134999815,256.78952130000107,45,45,256.78952130000107,256.78952130000107,256.78952130000107,256.78952130000107,256.78952130000107,256.78952130000107,256.78952130000107,256.78952130000107,256.78952130000107,257.1558909000014,257.1558909000014,257.1558909000014,257.1558909000014,257.1558909000014,257.1558909000014,257.1558909000014,257.1558909000014,257.1558909000014,21,2,"[0.1001795000047423, 0.13367640000069514]","[0.11708609998458996, 0.15027630000258796]",257.1558909000014,257.35611960000824,0.0,257.35611960000824,0,0.0,0,1,1000,num_1,0.55745520000346,,21,7,2026-03-02_17h51.10.323,2026A_exp2,2022.2.4,59.885044667856825,
1000,1,6.1,4.9,1,0,73,73,86,,,,,257.9399551000097,258.59065860000555,258.59065860000555,259.07764080000925,315,45,259.07764080000925,259.07764080000925,259.07764080000925,259.07764080000925,259.07764080000925,259.07764080000925,259.07764080000925,259.07764080000925,259.07764080000925,259.44147469999734,259.44147469999734,259.44147469999734,259.44147469999734,259.44147469999734,259.44147469999734,259.44147469999734,259.44147469999734,259.44147469999734,23,0,,,259.44147469999734,259.64363569999114,1000,259.64363569999114,1000,1000,1000,1000,0,num_3,0.6386595999938436,,21,7,2026-03-02_17h51.10.323,2026A_exp2,2022.2.4,59.885044667856825,
1000,1,4.9,0.0,1,0,74,74,84,,,,,260.3092168000003,260.95987580000656,260.95987580000656,261.46079589999863,315,45,261.46079589999863,261.46079589999863,261.46079589999863,261.46079589999863,261.46079589999863,261.46079589999863,261.46079589999863,261.46079589999863,261.46079589999863,261.82721699998365,261.82721699998365,261.82721699998365,261.82721699998365,261.82721699998365,261.82721699998365,261.82721699998365,261.82721699998365,261.82721699998365,23,0,,,261.82721699998365,262.02955810001004,1000,262.02955810001004,1000,1000,1000,1000,0,num_3,0.5960215000086464,,21,7,2026-03-02_17h51.10.323,2026A_exp2,2022.2.4,59.885044667856825,
1000,1,0.0,0.0,1,0,75,75,63,,,,,262.64472700000624,263.29529849998653,263.29529849998653,263.7965869999898,45,315,263.7965869999898,263.7965869999898,263.7965869999898,263.7965869999898,263.7965869999898,263.7965869999898,263.7965869999898,263.7965869999898,263.7965869999898,264.1628039999923,264.1628039999923,264.1628039999923,264.1628039999923,264.1628039999923,264.1628039999923,264.1628039999923,264.1628039999923,264.1628039999923,7,6,"[0.0012233000015839934, 0.03346820001024753, 0.06693790000281297, 0.1670190000149887, 0.2670242000021972, 0.300896400003694]","[0.01736420000088401, 0.050284800003282726, 0.11680740001611412, 0.25042490000487305, 0.2837014000106137, 0.3505038000002969]",264.1628039999923,264.3652648999996,1000,264.3652648999996,1000,1000,1000,1000,0,num_3,0.8287408000032883,,21,7,2026-03-02_17h51.10.323,2026A_exp2,2022.2.4,59.885044667856825,
1,0,0.0,6.1,1,0,76,76,5,,,,,265.2149989999889,265.8647086999845,265.8647086999845,266.36582519998774,315,45,266.36582519998774,266.36582519998774,266.36582519998774,266.36582519998774,266.36582519998774,266.36582519998774,266.36582519998774,266.36582519998774,266.36582519998774,266.73223080000025,266.73223080000025,266.73223080000025,266.73223080000025,266.73223080000025,266.73223080000025,266.73223080000025,266.73223080000025,266.73223080000025,23,0,,,266.73223080000025,266.93252999999095,6.1,266.93252999999095,1,6.1,1,1,1000,num_4,0.7736789000045974,,21,7,2026-03-02_17h51.10.323,2026A_exp2,2022.2.4,59.885044667856825,
0,0,0.0,0.0,1,0,77,77,80,,,,,267.73311309999553,268.3837765000062,268.3837765000062,268.86821039998904,315,315,268.86821039998904,268.86821039998904,268.86821039998904,268.86821039998904,268.86821039998904,268.86821039998904,268.86821039998904,268.86821039998904,268.86821039998904,269.23472209999454,269.23472209999454,269.23472209999454,269.23472209999454,269.23472209999454,269.23472209999454,269.23472209999454,269.23472209999454,269.23472209999454,20,3,"[0.001273900008527562, 0.0335557000071276, 0.16682859999127686]","[0.01728719999664463, 0.05023190000792965, 0.1833811999822501]",269.23472209999454,269.43486419998226,0.0,269.43486419998226,0,0.0,0,1,1000,num_1,0.7993264000106137,,21,7,2026-03-02_17h51.10.323,2026A_exp2,2022.2.4,59.885044667856825,
1,0,0.0,0.0,1,0,78,78,4,,,,,270.2521859999979,270.90293690000544,270.90293690000544,271.3875143000041,315,45,271.3875143000041,271.3875143000041,271.3875143000041,271.3875143000041,271.3875143000041,271.3875143000041,271.3875143000041,271.3875143000041,271.3875143000041,271.7538128999877,271.7538128999877,271.7538128999877,271.7538128999877,271.7538128999877,271.7538128999877,271.7538128999877,271.7538128999877,271.7538128999877,23,0,,,271.7538128999877,271.9541190000018,0.0,271.9541190000018,0,0.0,0,1,1000,num_1,0.3755209999799263,,21,7,2026-03-02_17h51.10.323,2026A_exp2,2022.2.4,59.885044667856825,
0,0,0.0,0.0,1,0,79,79,14,,,,,272.3543725000054,273.0051271999837,273.0051271999837,273.489445299987,315,315,273.489445299987,273.489445299987,273.489445299987,273.489445299987,273.489445299987,273.489445299987,273.489445299987,273.489445299987,273.489445299987,273.8560423000017,273.8560423000017,273.8560423000017,273.8560423000017,273.8560423000017,273.8560423000017,273.8560423000017,273.8560423000017,273.8560423000017,22,1,[0.10020920002716593],[0.11692630001925863],273.8560423000017,274.0561669000017,0.0,274.0561669000017,0,0.0,0,1,1000,num_1,3.0662642999959644,,21,7,2026-03-02_17h51.10.323,2026A_exp2,2022.2.4,59.885044667856825,
1,0,3.7,0.0,0,0,80,80,10,,,,,277.14255630000844,277.7931973999948,277.7931973999948,278.29436549998354,315,315,278.29436549998354,278.29436549998354,278.29436549998354,278.29436549998354,278.29436549998354,278.29436549998354,278.29436549998354,278.29436549998354,278.29436549998354,278.6607748999959,278.6607748999959,278.6607748999959,278.6607748999959,278.6607748999959,278.6607748999959,278.6607748999959,278.6607748999959,278.6607748999959,23,0,,,278.6607748999959,278.8609554999857,3.7,278.8609554999857,1,3.7,1,1,1000,num_4,0.532425899989903,,21,7,2026-03-02_17h51.10.323,2026A_exp2,2022.2.4,59.885044667856825,
1000,1,4.9,0.0,0,0,81,81,45,,,,,279.411549499986,280.0455152000068,280.0455152000068,280.5466707999876,315,45,280.5466707999876,280.5466707999876,280.5466707999876,280.5466707999876,280.5466707999876,280.5466707999876,280.5466707999876,280.5466707999876,280.5466707999876,280.91305440000724,280.91305440000724,280.91305440000724,280.91305440000724,280.91305440000724,280.91305440000724,280.91305440000724,280.91305440000724,280.91305440000724,23,0,,,280.91305440000724,281.1150905000104,1000,281.1150905000104,1000,1000,1000,1000,0,num_3,0.6474065999791492,,21,7,2026-03-02_17h51.10.323,2026A_exp2,2022.2.4,59.885044667856825,
1000,1,6.1,6.1,1,0,82,82,53,,,,,281.78045789999305,282.4310819999955,282.4310819999955,282.9324108999863,315,315,282.9324108999863,282.9324108999863,282.9324108999863,282.9324108999863,282.9324108999863,282.9324108999863,282.9324108999863,282.9324108999863,282.9324108999863,283.28207779998775,283.28207779998775,283.28207779998775,283.28207779998775,283.28207779998775,283.28207779998775,283.28207779998775,283.28207779998775,283.28207779998775,22,0,,,283.28207779998775,283.48403099999996,1000,283.48403099999996,1000,1000,1000,1000,1,num_2,0.542094200005522,,21,7,2026-03-02_17h51.10.323,2026A_exp2,2022.2.4,59.885044667856825,
1,0,3.7,6.1,1,0,83,83,75,,,,,284.04945099999895,284.70018079999136,284.70018079999136,285.20134999998845,45,315,285.20134999998845,285.20134999998845,285.20134999998845,285.20134999998845,285.20134999998845,285.20134999998845,285.20134999998845,285.20134999998845,285.20134999998845,285.5674963000056,285.5674963000056,285.5674963000056,285.5674963000056,285.5674963000056,285.5674963000056,285.5674963000056,285.5674963000056,285.5674963000056,23,0,,,285.5674963000056,285.76797590000206,6.1,285.76797590000206,1,6.1,1,1,1000,num_4,0.618150099995546,,21,7,2026-03-02_17h51.10.323,2026A_exp2,2022.2.4,59.885044667856825,
1000,1,6.1,0.0,0,0,84,84,69,,,,,286.40179169998737,287.05255439999746,287.05255439999746,287.536895600002,45,45,287.536895600002,287.536895600002,287.536895600002,287.536895600002,287.536895600002,287.536895600002,287.536895600002,287.536895600002,287.536895600002,287.9034129999927,287.9034129999927,287.9034129999927,287.9034129999927,287.9034129999927,287.9034129999927,287.9034129999927,287.9034129999927,287.9034129999927,23,0,,,287.9034129999927,288.10539360000985,1000,288.10539360000985,1000,1000,1000,1000,0,num_3,0.5927900000242516,,21,7,2026-03-02_17h51.10.323,2026A_exp2,2022.2.4,59.885044667856825,
1,0,0.0,4.9,1,0,85,85,73,,,,,288.72074129999964,289.37153659999603,289.37153659999603,289.87230499999714,45,45,289.87230499999714,289.87230499999714,289.87230499999714,289.87230499999714,289.87230499999714,289.87230499999714,289.87230499999714,289.87230499999714,289.87230499999714,290.2390618000063,290.2390618000063,290.2390618000063,290.2390618000063,290.2390618000063,290.2390618000063,290.2390618000063,290.2390618000063,290.2390618000063,23,0,,,290.2390618000063,290.4391227999877,4.9,290.4391227999877,1,4.9,1,1,1000,num_4,0.7305195000080857,,21,7,2026-03-02_17h51.10.323,2026A_exp2,2022.2.4,59.885044667856825,
1000,1,0.0,0.0,0,0,86,86,2,,,,,291.1897682999843,291.8405502999958,291.8405502999958,292.32490420000977,45,45,292.32490420000977,292.32490420000977,292.32490420000977,292.32490420000977,292.32490420000977,292.32490420000977,292.32490420000977,292.32490420000977,292.32490420000977,292.6914154999831,292.6914154999831,292.6914154999831,292.6914154999831,292.6914154999831,292.6914154999831,292.6914154999831,292.6914154999831,292.6914154999831,23,0,,,292.6914154999831,292.89335619998747,1000,292.89335619998747,1000,1000,1000,1000,1,num_2,1.0044732999813277,,21,7,2026-03-02_17h51.10.323,2026A_exp2,2022.2.4,59.885044667856825,
1,0,0.0,3.7,0,0,87,87,31,,,,,293.92614850000245,294.5600260999927,294.5600260999927,295.0610273999919,45,45,295.0610273999919,295.0610273999919,295.0610273999919,295.0610273999919,295.0610273999919,295.0610273999919,295.0610273999919,295.0610273999919,295.0610273999919,295.4275367000082,295.4275367000082,295.4275367000082,295.4275367000082,295.4275367000082,295.4275367000082,295.4275367000082,295.4275367000082,295.4275367000082,23,0,,,295.4275367000082,295.62776949998806,0.0,295.62776949998806,0,0.0,0,1,1000,num_1,0.8783544999896549,,21,7,2026-03-02_17h51.10.323,2026A_exp2,2022.2.4,59.885044667856825,
1000,1,3.7,0.0,1,0,88,88,52,,,,,296.5285418999847,297.17918469998403,297.17918469998403,297.6636429000064,45,45,297.6636429000064,297.6636429000064,297.6636429000064,297.6636429000064,297.6636429000064,297.6636429000064,297.6636429000064,297.6636429000064,297.6636429000064,298.0302026999998,298.0302026999998,298.0302026999998,298.0302026999998,298.0302026999998,298.0302026999998,298.0302026999998,298.0302026999998,298.0302026999998,23,0,,,298.0302026999998,298.2304215999902,1000,298.2304215999902,1000,1000,1000,1000,0,num_3,0.9792408999928739,,21,7,2026-03-02_17h51.10.323,2026A_exp2,2022.2.4,59.885044667856825,
1000,1,6.1,6.1,0,0,89,89,87,,,,,299.2312208999938,299.8820693999878,299.8820693999878,300.3830633999896,315,45,300.3830633999896,300.3830633999896,300.3830633999896,300.3830633999896,300.3830633999896,300.3830633999896,300.3830633999896,300.3830633999896,300.3830633999896,300.7495032000006,300.7495032000006,300.7495032000006,300.7495032000006,300.7495032000006,300.7495032000006,300.7495032000006,300.7495032000006,300.7495032000006,23,0,,,300.7495032000006,300.9512873000058,1000,300.9512873000058,1000,1000,1000,1000,1,num_2,0.6343201999843586,,21,7,2026-03-02_17h51.10.323,2026A_exp2,2022.2.4,59.885044667856825,
,,,,,,,,,,,,,,,,,,,,,,,,,,,,,,,,,,,,,,,,,,,,,,,,,,,,301.62603919999674,,,,,,,
