validity,detectorcomp,contrastCW,contrastCCW,precueCWorCCW,block_80trials.thisRepN,block_80trials.thisTrialN,block_80trials.thisN,block_80trials.thisIndex,etRecord.started,etRecord.stopped,text.started,text.stopped,text_4.started,text_4.stopped,text_6.started,text_6.stopped,oriCW,oriCCW,roi_2.started,grating_UR.started,grating_UL.started,grating_LR.started,grating_LL.started,noise_UR.started,noise_UL.started,noise_LR.started,noise_LL.started,roi_2.stopped,grating_UR.stopped,grating_UL.stopped,grating_LR.stopped,grating_LL.stopped,noise_UR.stopped,noise_UL.stopped,noise_LR.stopped,noise_LL.stopped,outframe,roi_2.numLooks,roi_2.timesOn,roi_2.timesOff,text_2.started,text_2.stopped,probedcontrast,key_resp.started,respdetect,relevantContrast,correctDetect,TorFdetect,respCWorCCW,key_resp.keys,key_resp.rt,feedback_display_.started,participantNo,blockNo,date,expName,psychopyVersion,frameRate,
1000,1,0.0,3.7,0,0,0,0,32,3.9499951526522636e-05,3.9499951526522636e-05,52.367418999783695,54.37096119998023,54.37096119998023,55.00505819986574,55.00505819986574,55.52525319997221,45,315,55.52525319997221,55.52525319997221,55.52525319997221,55.52525319997221,55.52525319997221,55.52525319997221,55.52525319997221,55.52525319997221,55.52525319997221,55.87282199994661,55.87282199994661,55.87282199994661,55.87282199994661,55.87282199994661,55.87282199994661,55.87282199994661,55.87282199994661,55.87282199994661,23,0,,,55.87282199994661,56.07951630000025,1000,56.07951630000025,1000,1000,1000,1000,0,num_3,0.8026761999353766,,32,16,2026-03-12_16h37.06.032,2026A_exp2,2022.2.4,59.86030994839696,
1,0,0.0,3.7,1,0,1,1,25,,,,,56.90719159995206,57.55774699989706,57.55774699989706,58.05878319987096,315,315,58.05878319987096,58.05878319987096,58.05878319987096,58.05878319987096,58.05878319987096,58.05878319987096,58.05878319987096,58.05878319987096,58.05878319987096,58.42533839982934,58.42533839982934,58.42533839982934,58.42533839982934,58.42533839982934,58.42533839982934,58.42533839982934,58.42533839982934,58.42533839982934,7,1,[0.0012293001636862755],[0.26692210021428764],58.42533839982934,58.62541879992932,3.7,58.62541879992932,1,3.7,1,1,1000,num_4,0.6479291999712586,,32,16,2026-03-12_16h37.06.032,2026A_exp2,2022.2.4,59.86030994839696,
1,0,3.7,3.7,1,0,2,2,64,,,,,59.29278439981863,59.9434622998815,59.9434622998815,60.427802899852395,315,315,60.427802899852395,60.427802899852395,60.427802899852395,60.427802899852395,60.427802899852395,60.427802899852395,60.427802899852395,60.427802899852395,60.427802899852395,60.794315399834886,60.794315399834886,60.794315399834886,60.794315399834886,60.794315399834886,60.794315399834886,60.794315399834886,60.794315399834886,60.794315399834886,21,1,[0.10008420003578067],[0.13339950004592538],60.794315399834886,60.994535699952394,3.7,60.994535699952394,1,3.7,1,1,1000,num_4,0.43145220004953444,,32,16,2026-03-12_16h37.06.032,2026A_exp2,2022.2.4,59.86030994839696,
1000,1,4.9,4.9,1,0,3,3,85,,,,,61.445064699975774,62.09551329980604,62.09551329980604,62.58015799988061,315,315,62.58015799988061,62.58015799988061,62.58015799988061,62.58015799988061,62.58015799988061,62.58015799988061,62.58015799988061,62.58015799988061,62.58015799988061,62.94661009986885,62.94661009986885,62.94661009986885,62.94661009986885,62.94661009986885,62.94661009986885,62.94661009986885,62.94661009986885,62.94661009986885,5,1,[0.0013131999876350164],[0.30000189994461834],62.94661009986885,63.148516999790445,1000,63.148516999790445,1000,1000,1000,1000,0,num_3,0.4609924000687897,,32,16,2026-03-12_16h37.06.032,2026A_exp2,2022.2.4,59.86030994839696,
1000,1,0.0,0.0,1,0,4,4,62,,,,,63.63061250001192,64.28123059985228,64.28123059985228,64.78234429983422,315,315,64.78234429983422,64.78234429983422,64.78234429983422,64.78234429983422,64.78234429983422,64.78234429983422,64.78234429983422,64.78234429983422,64.78234429983422,65.14875909988768,65.14875909988768,65.14875909988768,65.14875909988768,65.14875909988768,65.14875909988768,65.14875909988768,65.14875909988768,65.14875909988768,1,1,[0.017361899837851524],[0.36703579989261925],65.14875909988768,65.3488036999479,1000,65.3488036999479,1000,1000,1000,1000,1,num_2,0.6290396999102086,,32,16,2026-03-12_16h37.06.032,2026A_exp2,2022.2.4,59.86030994839696,
0,0,3.7,3.7,0,0,5,5,63,,,,,65.99972319998778,66.64453549985774,66.64453549985774,67.13468029978685,315,315,67.13468029978685,67.13468029978685,67.13468029978685,67.13468029978685,67.13468029978685,67.13468029978685,67.13468029978685,67.13468029978685,67.13468029978685,67.50097269983962,67.50097269983962,67.50097269983962,67.50097269983962,67.50097269983962,67.50097269983962,67.50097269983962,67.50097269983962,67.50097269983962,23,0,,,67.50097269983962,67.70133339986205,3.7,67.70133339986205,1,3.7,1,1,1000,num_4,0.6771223999094218,,32,16,2026-03-12_16h37.06.032,2026A_exp2,2022.2.4,59.86030994839696,
1000,1,3.7,3.7,1,0,6,6,46,,,,,68.40190900000744,69.05271640000865,69.05271640000865,69.53706399980001,45,45,69.53706399980001,69.53706399980001,69.53706399980001,69.53706399980001,69.53706399980001,69.53706399980001,69.53706399980001,69.53706399980001,69.53706399980001,69.90328409988433,69.90328409988433,69.90328409988433,69.90328409988433,69.90328409988433,69.90328409988433,69.90328409988433,69.90328409988433,69.90328409988433,23,0,,,69.90328409988433,70.11186309996992,1000,70.11186309996992,1000,1000,1000,1000,1,num_2,0.6175702000036836,,32,16,2026-03-12_16h37.06.032,2026A_exp2,2022.2.4,59.86030994839696,
1000,1,6.1,6.1,0,0,7,7,50,,,,,70.75421269983053,71.4050592998974,71.4050592998974,71.90596619993448,315,315,71.90596619993448,71.90596619993448,71.90596619993448,71.90596619993448,71.90596619993448,71.90596619993448,71.90596619993448,71.90596619993448,71.90596619993448,72.2725600998383,72.2725600998383,72.2725600998383,72.2725600998383,72.2725600998383,72.2725600998383,72.2725600998383,72.2725600998383,72.2725600998383,0,1,[0.0012127000372856855],[0.3670944001059979],72.2725600998383,72.47459109988995,1000,72.47459109988995,1000,1000,1000,1000,0,num_3,0.40694289980456233,,32,16,2026-03-12_16h37.06.032,2026A_exp2,2022.2.4,59.86030994839696,
1000,1,6.1,4.9,1,0,8,8,76,,,,,72.90633579995483,73.55714499996975,73.55714499996975,74.05800609989092,45,45,74.05800609989092,74.05800609989092,74.05800609989092,74.05800609989092,74.05800609989092,74.05800609989092,74.05800609989092,74.05800609989092,74.05800609989092,74.4246994999703,74.4246994999703,74.4246994999703,74.4246994999703,74.4246994999703,74.4246994999703,74.4246994999703,74.4246994999703,74.4246994999703,23,0,,,74.4246994999703,74.62659899983555,1000,74.62659899983555,1000,1000,1000,1000,1,num_2,0.5032067000865936,,32,16,2026-03-12_16h37.06.032,2026A_exp2,2022.2.4,59.86030994839696,
1000,1,6.1,0.0,0,0,9,9,80,,,,,75.1589828999713,75.80929879983887,75.80929879983887,76.29369089985266,315,315,76.29369089985266,76.29369089985266,76.29369089985266,76.29369089985266,76.29369089985266,76.29369089985266,76.29369089985266,76.29369089985266,76.29369089985266,76.6602389998734,76.6602389998734,76.6602389998734,76.6602389998734,76.6602389998734,76.6602389998734,76.6602389998734,76.6602389998734,76.6602389998734,11,2,"[0.0011326998937875032, 0.23369399993680418]","[0.16714819986373186, 0.26718239998444915]",76.6602389998734,76.86175129981712,1000,76.86175129981712,1000,1000,1000,1000,0,num_3,0.2199999000877142,,32,16,2026-03-12_16h37.06.032,2026A_exp2,2022.2.4,59.86030994839696,
1,0,0.0,3.7,0,0,10,10,22,,,,,77.11062429985031,77.76126259984449,77.76126259984449,78.26232449989766,45,45,78.26232449989766,78.26232449989766,78.26232449989766,78.26232449989766,78.26232449989766,78.26232449989766,78.26232449989766,78.26232449989766,78.26232449989766,78.62888429989107,78.62888429989107,78.62888429989107,78.62888429989107,78.62888429989107,78.62888429989107,78.62888429989107,78.62888429989107,78.62888429989107,23,0,,,78.62888429989107,78.82899639988318,0.0,78.82899639988318,0,0.0,0,1,1000,num_1,0.5243917000479996,,32,16,2026-03-12_16h37.06.032,2026A_exp2,2022.2.4,59.86030994839696,
1000,1,0.0,0.0,0,0,11,11,5,,,,,79.37958109984174,80.03014809987508,80.03014809987508,80.51469029998407,315,315,80.51469029998407,80.51469029998407,80.51469029998407,80.51469029998407,80.51469029998407,80.51469029998407,80.51469029998407,80.51469029998407,80.51469029998407,80.88104070001282,80.88104070001282,80.88104070001282,80.88104070001282,80.88104070001282,80.88104070001282,80.88104070001282,80.88104070001282,80.88104070001282,23,0,,,80.88104070001282,81.08301279996522,1000,81.08301279996522,1000,1000,1000,1000,1,num_2,0.6631567000877112,,32,16,2026-03-12_16h37.06.032,2026A_exp2,2022.2.4,59.86030994839696,
1000,1,4.9,6.1,1,0,12,12,18,,,,,81.76512399991043,82.41636759997346,82.41636759997346,82.91714189993218,315,45,82.91714189993218,82.91714189993218,82.91714189993218,82.91714189993218,82.91714189993218,82.91714189993218,82.91714189993218,82.91714189993218,82.91714189993218,83.28353519993834,83.28353519993834,83.28353519993834,83.28353519993834,83.28353519993834,83.28353519993834,83.28353519993834,83.28353519993834,83.28353519993834,23,0,,,83.28353519993834,83.48575160000473,1000,83.48575160000473,1000,1000,1000,1000,1,num_2,1.235981300007552,,32,16,2026-03-12_16h37.06.032,2026A_exp2,2022.2.4,59.86030994839696,
1,0,4.9,0.0,0,0,13,13,87,,,,,84.75157799990848,85.40217499993742,85.40217499993742,85.90352629986592,315,45,85.90352629986592,85.90352629986592,85.90352629986592,85.90352629986592,85.90352629986592,85.90352629986592,85.90352629986592,85.90352629986592,85.90352629986592,86.26981839979999,86.26981839979999,86.26981839979999,86.26981839979999,86.26981839979999,86.26981839979999,86.26981839979999,86.26981839979999,86.26981839979999,20,2,"[0.18363800016231835, 0.3506444999948144]","[0.20033670007251203, 0.36726139998063445]",86.26981839979999,86.46988180000335,4.9,86.46988180000335,1,4.9,1,1,1000,num_4,0.5239315000362694,,32,16,2026-03-12_16h37.06.032,2026A_exp2,2022.2.4,59.86030994839696,
1,0,0.0,0.0,0,0,14,14,19,,,,,87.02048999979161,87.65460989996791,87.65460989996791,88.15546299982816,315,315,88.15546299982816,88.15546299982816,88.15546299982816,88.15546299982816,88.15546299982816,88.15546299982816,88.15546299982816,88.15546299982816,88.15546299982816,88.52187810000032,88.52187810000032,88.52187810000032,88.52187810000032,88.52187810000032,88.52187810000032,88.52187810000032,88.52187810000032,88.52187810000032,23,0,,,88.52187810000032,88.72223549988121,0.0,88.72223549988121,0,0.0,0,1,1000,num_1,1.1195241000968963,,32,16,2026-03-12_16h37.06.032,2026A_exp2,2022.2.4,59.86030994839696,
1,0,0.0,0.0,1,0,15,15,53,,,,,89.87337199994363,90.52410829998553,90.52410829998553,91.00842069997452,45,45,91.00842069997452,91.00842069997452,91.00842069997452,91.00842069997452,91.00842069997452,91.00842069997452,91.00842069997452,91.00842069997452,91.00842069997452,91.37473169993609,91.37473169993609,91.37473169993609,91.37473169993609,91.37473169993609,91.37473169993609,91.37473169993609,91.37473169993609,91.37473169993609,23,0,,,91.37473169993609,91.574978799792,0.0,91.574978799792,0,0.0,0,1,1000,num_1,1.227402999997139,,32,16,2026-03-12_16h37.06.032,2026A_exp2,2022.2.4,59.86030994839696,
1000,1,6.1,3.7,1,0,16,16,45,,,,,92.82621679990552,93.47685709991492,93.47685709991492,93.96146879997104,315,315,93.96146879997104,93.96146879997104,93.96146879997104,93.96146879997104,93.96146879997104,93.96146879997104,93.96146879997104,93.96146879997104,93.96146879997104,94.3278669998981,94.3278669998981,94.3278669998981,94.3278669998981,94.3278669998981,94.3278669998981,94.3278669998981,94.3278669998981,94.3278669998981,23,0,,,94.3278669998981,94.52987059997395,1000,94.52987059997395,1000,1000,1000,1000,1,num_2,0.4957785001024604,,32,16,2026-03-12_16h37.06.032,2026A_exp2,2022.2.4,59.86030994839696,
1000,1,0.0,0.0,1,0,17,17,39,,,,,95.04520429996774,95.69579789997078,95.69579789997078,96.19707419979386,45,45,96.19707419979386,96.19707419979386,96.19707419979386,96.19707419979386,96.19707419979386,96.19707419979386,96.19707419979386,96.19707419979386,96.19707419979386,96.56345709995367,96.56345709995367,96.56345709995367,96.56345709995367,96.56345709995367,96.56345709995367,96.56345709995367,96.56345709995367,96.56345709995367,23,0,,,96.56345709995367,96.76551329996437,1000,96.76551329996437,1000,1000,1000,1000,1,num_2,0.7565205998253077,,32,16,2026-03-12_16h37.06.032,2026A_exp2,2022.2.4,59.86030994839696,
1,0,6.1,4.9,0,0,18,18,30,,,,,97.54789159982465,98.19846539990976,98.19846539990976,98.68288889992982,45,315,98.68288889992982,98.68288889992982,98.68288889992982,98.68288889992982,98.68288889992982,98.68288889992982,98.68288889992982,98.68288889992982,98.68288889992982,99.04922889987938,99.04922889987938,99.04922889987938,99.04922889987938,99.04922889987938,99.04922889987938,99.04922889987938,99.04922889987938,99.04922889987938,23,0,,,99.04922889987938,99.24930159980431,6.1,99.24930159980431,0,6.1,1,0,1000,num_1,2.2093378000427037,,32,16,2026-03-12_16h37.06.032,2026A_exp2,2022.2.4,59.86030994839696,
1000,1,0.0,0.0,0,0,19,19,47,,,,,101.48487979988568,102.13562269997783,102.13562269997783,102.6199420997873,45,45,102.6199420997873,102.6199420997873,102.6199420997873,102.6199420997873,102.6199420997873,102.6199420997873,102.6199420997873,102.6199420997873,102.6199420997873,102.98656170000322,102.98656170000322,102.98656170000322,102.98656170000322,102.98656170000322,102.98656170000322,102.98656170000322,102.98656170000322,102.98656170000322,16,5,"[0.0012050000950694084, 0.05010359990410507, 0.10009429999627173, 0.21688459999859333, 0.2837439998984337]","[0.03348129987716675, 0.06678400002419949, 0.13362449989654124, 0.2335649998858571, 0.30035210005007684]",102.98656170000322,103.18861599988304,1000,103.18861599988304,1000,1000,1000,1000,1,num_2,0.5419695000164211,,32,16,2026-03-12_16h37.06.032,2026A_exp2,2022.2.4,59.86030994839696,
1,0,6.1,0.0,0,0,20,20,24,,,,,103.75381699996069,104.40450349985622,104.40450349985622,104.88909149984829,45,315,104.88909149984829,104.88909149984829,104.88909149984829,104.88909149984829,104.88909149984829,104.88909149984829,104.88909149984829,104.88909149984829,104.88909149984829,105.25561110000126,105.25561110000126,105.25561110000126,105.25561110000126,105.25561110000126,105.25561110000126,105.25561110000126,105.25561110000126,105.25561110000126,18,4,"[0.001215500058606267, 0.050319400150328875, 0.10025140014477074, 0.20000190008431673]","[0.017414100002497435, 0.06688369996845722, 0.13374090008437634, 0.21694099996238947]",105.25561110000126,105.45562509982847,6.1,105.45562509982847,1,6.1,1,1,1000,num_4,0.5387786999344826,,32,16,2026-03-12_16h37.06.032,2026A_exp2,2022.2.4,59.86030994839696,
1000,1,4.9,0.0,1,0,21,21,7,,,,,106.02278589992784,106.67354649980552,106.67354649980552,107.15811189985834,315,315,107.15811189985834,107.15811189985834,107.15811189985834,107.15811189985834,107.15811189985834,107.15811189985834,107.15811189985834,107.15811189985834,107.15811189985834,107.5243838999886,107.5243838999886,107.5243838999886,107.5243838999886,107.5243838999886,107.5243838999886,107.5243838999886,107.5243838999886,107.5243838999886,23,0,,,107.5243838999886,107.72639299998991,1000,107.72639299998991,1000,1000,1000,1000,0,num_3,0.4198710999917239,,32,16,2026-03-12_16h37.06.032,2026A_exp2,2022.2.4,59.86030994839696,
1,0,6.1,0.0,1,0,22,22,38,,,,,108.17499339999631,108.82558669988066,108.82558669988066,109.32683369982988,45,45,109.32683369982988,109.32683369982988,109.32683369982988,109.32683369982988,109.32683369982988,109.32683369982988,109.32683369982988,109.32683369982988,109.32683369982988,109.6932423999533,109.6932423999533,109.6932423999533,109.6932423999533,109.6932423999533,109.6932423999533,109.6932423999533,109.6932423999533,109.6932423999533,16,1,[0.06697510019876063],[0.18369520013220608],109.6932423999533,109.89329229993746,0.0,109.89329229993746,0,0.0,0,1,1000,num_1,0.5413323999382555,,32,16,2026-03-12_16h37.06.032,2026A_exp2,2022.2.4,59.86030994839696,
1000,1,3.7,3.7,1,0,23,23,88,,,,,110.4605467999354,111.11136289988644,111.11136289988644,111.5958794998005,315,315,111.5958794998005,111.5958794998005,111.5958794998005,111.5958794998005,111.5958794998005,111.5958794998005,111.5958794998005,111.5958794998005,111.5958794998005,111.96222789981402,111.96222789981402,111.96222789981402,111.96222789981402,111.96222789981402,111.96222789981402,111.96222789981402,111.96222789981402,111.96222789981402,20,2,"[0.0012004999443888664, 0.050292199943214655]","[0.017607899848371744, 0.08364659990184009]",111.96222789981402,112.1781953999307,1000,112.1781953999307,1000,1000,1000,1000,1,num_2,0.41543509997427464,,32,16,2026-03-12_16h37.06.032,2026A_exp2,2022.2.4,59.86030994839696,
1000,1,0.0,4.9,0,0,24,24,9,,,,,112.6128426999785,113.26352479984052,113.26352479984052,113.78063900000416,315,315,113.78063900000416,113.78063900000416,113.78063900000416,113.78063900000416,113.78063900000416,113.78063900000416,113.78063900000416,113.78063900000416,113.78063900000416,114.13104989985004,114.13104989985004,114.13104989985004,114.13104989985004,114.13104989985004,114.13104989985004,114.13104989985004,114.13104989985004,114.13104989985004,23,0,,,114.13104989985004,114.34736189991236,1000,114.34736189991236,1000,1000,1000,1000,1,num_2,0.2785777000244707,,32,16,2026-03-12_16h37.06.032,2026A_exp2,2022.2.4,59.86030994839696,
1000,1,0.0,3.7,1,0,25,25,75,,,,,114.64789829985239,115.29872999992222,115.29872999992222,115.78332759998739,315,45,115.78332759998739,115.78332759998739,115.78332759998739,115.78332759998739,115.78332759998739,115.78332759998739,115.78332759998739,115.78332759998739,115.78332759998739,116.16644049994648,116.16644049994648,116.16644049994648,116.16644049994648,116.16644049994648,116.16644049994648,116.16644049994648,116.16644049994648,116.16644049994648,24,0,,,116.16644049994648,116.36840619985014,1000,116.36840619985014,1000,1000,1000,1000,1,num_2,0.3062481000088155,,32,16,2026-03-12_16h37.06.032,2026A_exp2,2022.2.4,59.86030994839696,
1,0,0.0,3.7,1,0,26,26,12,,,,,116.70039019989781,117.35089219990186,117.35089219990186,117.83538449998014,45,45,117.83538449998014,117.83538449998014,117.83538449998014,117.83538449998014,117.83538449998014,117.83538449998014,117.83538449998014,117.83538449998014,117.83538449998014,118.20176959992386,118.20176959992386,118.20176959992386,118.20176959992386,118.20176959992386,118.20176959992386,118.20176959992386,118.20176959992386,118.20176959992386,18,4,"[0.0013347999192774296, 0.11690809996798635, 0.21712910011410713, 0.36729590012691915]","[0.0337137000169605, 0.13345919991843402, 0.2337480999995023, 0.36730060004629195]",118.20176959992386,118.40197399980389,3.7,118.40197399980389,1,3.7,1,1,1000,num_4,0.4153783998917788,,32,16,2026-03-12_16h37.06.032,2026A_exp2,2022.2.4,59.86030994839696,
1000,1,3.7,0.0,1,0,27,27,33,,,,,118.8356090998277,119.48637049994431,119.48637049994431,119.97084599989466,315,315,119.97084599989466,119.97084599989466,119.97084599989466,119.97084599989466,119.97084599989466,119.97084599989466,119.97084599989466,119.97084599989466,119.97084599989466,120.33718659984879,120.33718659984879,120.33718659984879,120.33718659984879,120.33718659984879,120.33718659984879,120.33718659984879,120.33718659984879,120.33718659984879,23,0,,,120.33718659984879,120.53915139986202,1000,120.53915139986202,1000,1000,1000,1000,0,num_3,0.33442529989406466,,32,16,2026-03-12_16h37.06.032,2026A_exp2,2022.2.4,59.86030994839696,
1000,1,0.0,0.0,1,0,28,28,40,,,,,120.90464769979008,121.55520729999989,121.55520729999989,122.0561329999473,45,315,122.0561329999473,122.0561329999473,122.0561329999473,122.0561329999473,122.0561329999473,122.0561329999473,122.0561329999473,122.0561329999473,122.0561329999473,122.42262339987792,122.42262339987792,122.42262339987792,122.42262339987792,122.42262339987792,122.42262339987792,122.42262339987792,122.42262339987792,122.42262339987792,22,1,[0.13338600005954504],[0.15024250000715256],122.42262339987792,122.62466849992052,1000,122.62466849992052,1000,1000,1000,1000,0,num_3,0.4645584998652339,,32,16,2026-03-12_16h37.06.032,2026A_exp2,2022.2.4,59.86030994839696,
1,0,4.9,0.0,1,0,29,29,48,,,,,123.10662019997835,123.75714449980296,123.75714449980296,124.25848519988358,315,315,124.25848519988358,124.25848519988358,124.25848519988358,124.25848519988358,124.25848519988358,124.25848519988358,124.25848519988358,124.25848519988358,124.25848519988358,124.60818380001001,124.60818380001001,124.60818380001001,124.60818380001001,124.60818380001001,124.60818380001001,124.60818380001001,124.60818380001001,124.60818380001001,16,4,"[0.001235299976542592, 0.05022830003872514, 0.1001796000637114, 0.15017629996873438]","[0.01740010012872517, 0.06674450007267296, 0.133568299934268, 0.1836739000864327]",124.60818380001001,124.80837869993411,0.0,124.80837869993411,0,0.0,0,1,1000,num_1,0.4734267999883741,,32,16,2026-03-12_16h37.06.032,2026A_exp2,2022.2.4,59.86030994839696,
1,0,3.7,6.1,0,0,30,30,55,,,,,125.30873089982197,125.94301059981808,125.94301059981808,126.44405029993504,315,45,126.44405029993504,126.44405029993504,126.44405029993504,126.44405029993504,126.44405029993504,126.44405029993504,126.44405029993504,126.44405029993504,126.44405029993504,126.81027339980938,126.81027339980938,126.81027339980938,126.81027339980938,126.81027339980938,126.81027339980938,126.81027339980938,126.81027339980938,126.81027339980938,11,1,[0.1837452999316156],[0.3673415998928249],126.81027339980938,127.01076699979603,3.7,127.01076699979603,0,3.7,1,0,1000,num_1,0.5429815000388771,,32,16,2026-03-12_16h37.06.032,2026A_exp2,2022.2.4,59.86030994839696,
1000,1,6.1,0.0,1,0,31,31,79,,,,,127.57767329993658,128.2284265998751,128.2284265998751,128.71297299978323,45,45,128.71297299978323,128.71297299978323,128.71297299978323,128.71297299978323,128.71297299978323,128.71297299978323,128.71297299978323,128.71297299978323,128.71297299978323,129.07932269992307,129.07932269992307,129.07932269992307,129.07932269992307,129.07932269992307,129.07932269992307,129.07932269992307,129.07932269992307,129.07932269992307,23,0,,,129.07932269992307,129.28120889980346,1000,129.28120889980346,1000,1000,1000,1000,0,num_3,0.36839890014380217,,32,16,2026-03-12_16h37.06.032,2026A_exp2,2022.2.4,59.86030994839696,
1000,1,3.7,0.0,0,0,32,32,37,,,,,129.67986429994926,130.33043510001153,130.33043510001153,130.8315918999724,315,315,130.8315918999724,130.8315918999724,130.8315918999724,130.8315918999724,130.8315918999724,130.8315918999724,130.8315918999724,130.8315918999724,130.8315918999724,131.19811899983324,131.19811899983324,131.19811899983324,131.19811899983324,131.19811899983324,131.19811899983324,131.19811899983324,131.19811899983324,131.19811899983324,21,1,[0.28374180011451244],[0.3173674999270588],131.19811899983324,131.40044999984093,1000,131.40044999984093,1000,1000,1000,1000,0,num_3,0.2333066000137478,,32,16,2026-03-12_16h37.06.032,2026A_exp2,2022.2.4,59.86030994839696,
1000,1,0.0,0.0,1,0,33,33,71,,,,,131.64842320000753,132.29919659998268,132.29919659998268,132.80032049980946,315,315,132.80032049980946,132.80032049980946,132.80032049980946,132.80032049980946,132.80032049980946,132.80032049980946,132.80032049980946,132.80032049980946,132.80032049980946,133.16672209999524,133.16672209999524,133.16672209999524,133.16672209999524,133.16672209999524,133.16672209999524,133.16672209999524,133.16672209999524,133.16672209999524,21,2,"[0.1166854000184685, 0.2335127000696957]","[0.1334452999290079, 0.2501727999188006]",133.16672209999524,133.36873709992506,1000,133.36873709992506,1000,1000,1000,1000,1,num_2,1.681612699991092,,32,16,2026-03-12_16h37.06.032,2026A_exp2,2022.2.4,59.86030994839696,
1000,1,6.1,3.7,0,0,34,34,61,,,,,135.06846400001086,135.71916249999776,135.71916249999776,136.22034469991922,315,45,136.22034469991922,136.22034469991922,136.22034469991922,136.22034469991922,136.22034469991922,136.22034469991922,136.22034469991922,136.22034469991922,136.22034469991922,136.58662169985473,136.58662169985473,136.58662169985473,136.58662169985473,136.58662169985473,136.58662169985473,136.58662169985473,136.58662169985473,136.58662169985473,18,4,"[0.10000109998509288, 0.21722089988179505, 0.30042859981767833, 0.33391319983638823]","[0.11676189978606999, 0.25055819982662797, 0.317096299957484, 0.3504834999330342]",136.58662169985473,136.78891169978306,1000,136.78891169978306,1000,1000,1000,1000,0,num_3,0.268867600010708,,32,16,2026-03-12_16h37.06.032,2026A_exp2,2022.2.4,59.86030994839696,
1,0,0.0,0.0,1,0,35,35,82,,,,,137.087240899913,137.73801079997793,137.73801079997793,138.23898199992254,315,45,138.23898199992254,138.23898199992254,138.23898199992254,138.23898199992254,138.23898199992254,138.23898199992254,138.23898199992254,138.23898199992254,138.23898199992254,138.605531899957,138.605531899957,138.605531899957,138.605531899957,138.605531899957,138.605531899957,138.605531899957,138.605531899957,138.605531899957,19,3,"[0.08308949996717274, 0.13332879985682666, 0.3004536998923868]","[0.09963799989782274, 0.15022680000402033, 0.333743599941954]",138.605531899957,138.80552889988758,0.0,138.80552889988758,0,0.0,0,1,1000,num_1,0.7398685000371188,,32,16,2026-03-12_16h37.06.032,2026A_exp2,2022.2.4,59.86030994839696,
1,0,0.0,6.1,0,0,36,36,57,,,,,139.5729816998355,140.22372899996117,140.22372899996117,140.7082241999451,315,45,140.7082241999451,140.7082241999451,140.7082241999451,140.7082241999451,140.7082241999451,140.7082241999451,140.7082241999451,140.7082241999451,140.7082241999451,141.0745294999797,141.0745294999797,141.0745294999797,141.0745294999797,141.0745294999797,141.0745294999797,141.0745294999797,141.0745294999797,141.0745294999797,23,0,,,141.0745294999797,141.27480829996057,0.0,141.27480829996057,0,0.0,0,1,1000,num_1,0.6310437000356615,,32,16,2026-03-12_16h37.06.032,2026A_exp2,2022.2.4,59.86030994839696,
1000,1,6.1,0.0,1,0,37,37,52,,,,,141.92544319992885,142.57613089983352,142.57613089983352,143.06038009980693,315,315,143.06038009980693,143.06038009980693,143.06038009980693,143.06038009980693,143.06038009980693,143.06038009980693,143.06038009980693,143.06038009980693,143.06038009980693,143.42705719987862,143.42705719987862,143.42705719987862,143.42705719987862,143.42705719987862,143.42705719987862,143.42705719987862,143.42705719987862,143.42705719987862,23,0,,,143.42705719987862,143.62889499985613,1000,143.62889499985613,1000,1000,1000,1000,0,num_3,0.43645289982669055,,32,16,2026-03-12_16h37.06.032,2026A_exp2,2022.2.4,59.86030994839696,
1000,1,6.1,6.1,0,0,38,38,74,,,,,144.09426669985987,144.74493179982528,144.74493179982528,145.24597799987532,315,315,145.24597799987532,145.24597799987532,145.24597799987532,145.24597799987532,145.24597799987532,145.24597799987532,145.24597799987532,145.24597799987532,145.24597799987532,145.61251239990816,145.61251239990816,145.61251239990816,145.61251239990816,145.61251239990816,145.61251239990816,145.61251239990816,145.61251239990816,145.61251239990816,21,2,"[0.13355200015939772, 0.21695610019378364]","[0.15026500006206334, 0.23375420016236603]",145.61251239990816,145.81448119995184,1000,145.81448119995184,1000,1000,1000,1000,1,num_2,0.5157204000279307,,32,16,2026-03-12_16h37.06.032,2026A_exp2,2022.2.4,59.86030994839696,
1000,1,6.1,0.0,0,0,39,39,58,,,,,146.34646359994076,146.99723139987327,146.99723139987327,147.4982117000036,45,45,147.4982117000036,147.4982117000036,147.4982117000036,147.4982117000036,147.4982117000036,147.4982117000036,147.4982117000036,147.4982117000036,147.4982117000036,147.8646133998409,147.8646133998409,147.8646133998409,147.8646133998409,147.8646133998409,147.8646133998409,147.8646133998409,147.8646133998409,147.8646133998409,23,0,,,147.8646133998409,148.06670929980464,1000,148.06670929980464,1000,1000,1000,1000,0,num_3,0.3037000000476837,,32,16,2026-03-12_16h37.06.032,2026A_exp2,2022.2.4,59.86030994839696,
0,0,3.7,6.1,1,0,40,40,17,,,,,148.39853219990619,149.04928859998472,149.04928859998472,149.55030449992046,315,315,149.55030449992046,149.55030449992046,149.55030449992046,149.55030449992046,149.55030449992046,149.55030449992046,149.55030449992046,149.55030449992046,149.55030449992046,149.91680819983594,149.91680819983594,149.91680819983594,149.91680819983594,149.91680819983594,149.91680819983594,149.91680819983594,149.91680819983594,149.91680819983594,21,2,"[0.13359800004400313, 0.1837400000076741]","[0.1503989000339061, 0.20036090002395213]",149.91680819983594,150.1233417999465,3.7,150.1233417999465,0,3.7,1,0,1000,num_1,0.5497787999920547,,32,16,2026-03-12_16h37.06.032,2026A_exp2,2022.2.4,59.86030994839696,
1,0,0.0,3.7,1,0,41,41,10,,,,,150.70083359978162,151.3515851998236,151.3515851998236,151.836059599882,45,315,151.836059599882,151.836059599882,151.836059599882,151.836059599882,151.836059599882,151.836059599882,151.836059599882,151.836059599882,151.836059599882,152.20239059999585,152.20239059999585,152.20239059999585,152.20239059999585,152.20239059999585,152.20239059999585,152.20239059999585,152.20239059999585,152.20239059999585,22,1,[0.1669054999947548],[0.18371469993144274],152.20239059999585,152.40259869978763,3.7,152.40259869978763,1,3.7,1,1,1000,num_4,0.5515066999942064,,32,16,2026-03-12_16h37.06.032,2026A_exp2,2022.2.4,59.86030994839696,
1000,1,4.9,0.0,0,0,42,42,78,,,,,152.9697977998294,153.6204160999041,153.6204160999041,154.1048496000003,45,45,154.1048496000003,154.1048496000003,154.1048496000003,154.1048496000003,154.1048496000003,154.1048496000003,154.1048496000003,154.1048496000003,154.1048496000003,154.47136729978956,154.47136729978956,154.47136729978956,154.47136729978956,154.47136729978956,154.47136729978956,154.47136729978956,154.47136729978956,154.47136729978956,23,0,,,154.47136729978956,154.67315719998442,1000,154.67315719998442,1000,1000,1000,1000,0,num_3,0.248599800048396,,32,16,2026-03-12_16h37.06.032,2026A_exp2,2022.2.4,59.86030994839696,
1,0,0.0,0.0,0,0,43,43,66,,,,,154.93853869987652,155.58881419990212,155.58881419990212,156.07345939986408,315,315,156.07345939986408,156.07345939986408,156.07345939986408,156.07345939986408,156.07345939986408,156.07345939986408,156.07345939986408,156.07345939986408,156.07345939986408,156.43985729990527,156.43985729990527,156.43985729990527,156.43985729990527,156.43985729990527,156.43985729990527,156.43985729990527,156.43985729990527,156.43985729990527,23,0,,,156.43985729990527,156.6401860998012,0.0,156.6401860998012,1,0.0,0,0,1000,num_4,0.9051349998917431,,32,16,2026-03-12_16h37.06.032,2026A_exp2,2022.2.4,59.86030994839696,
1000,1,3.7,6.1,0,0,44,44,81,,,,,157.57430269988254,158.2251408000011,158.2251408000011,158.70954839978367,45,315,158.70954839978367,158.70954839978367,158.70954839978367,158.70954839978367,158.70954839978367,158.70954839978367,158.70954839978367,158.70954839978367,158.70954839978367,159.07592619978823,159.07592619978823,159.07592619978823,159.07592619978823,159.07592619978823,159.07592619978823,159.07592619978823,159.07592619978823,159.07592619978823,23,0,,,159.07592619978823,159.27818829985335,1000,159.27818829985335,1000,1000,1000,1000,1,num_2,0.571548700099811,,32,16,2026-03-12_16h37.06.032,2026A_exp2,2022.2.4,59.86030994839696,
1000,1,3.7,4.9,0,0,45,45,13,,,,,159.87675509997644,160.52708799997345,160.52708799997345,161.0284310998395,315,315,161.0284310998395,161.0284310998395,161.0284310998395,161.0284310998395,161.0284310998395,161.0284310998395,161.0284310998395,161.0284310998395,161.0284310998395,161.3949316998478,161.3949316998478,161.3949316998478,161.3949316998478,161.3949316998478,161.3949316998478,161.3949316998478,161.3949316998478,161.3949316998478,17,3,"[0.001232400070875883, 0.18394559994339943, 0.35079260007478297]","[0.03375219996087253, 0.20072640012949705, 0.36759859998710454]",161.3949316998478,161.59716059989296,1000,161.59716059989296,1000,1000,1000,1000,1,num_2,0.3480419998522848,,32,16,2026-03-12_16h37.06.032,2026A_exp2,2022.2.4,59.86030994839696,
1,0,0.0,3.7,0,0,46,46,2,,,,,161.9621715999674,162.61292919982225,162.61292919982225,163.11372749996372,45,315,163.11372749996372,163.11372749996372,163.11372749996372,163.11372749996372,163.11372749996372,163.11372749996372,163.11372749996372,163.11372749996372,163.11372749996372,163.48040549992584,163.48040549992584,163.48040549992584,163.48040549992584,163.48040549992584,163.48040549992584,163.48040549992584,163.48040549992584,163.48040549992584,23,0,,,163.48040549992584,163.68051909981295,0.0,163.68051909981295,0,0.0,0,1,1000,num_1,0.4977956998627633,,32,16,2026-03-12_16h37.06.032,2026A_exp2,2022.2.4,59.86030994839696,
1,0,0.0,4.9,0,0,47,47,35,,,,,164.19761049980298,164.8482946997974,164.8482946997974,165.33273729984649,45,315,165.33273729984649,165.33273729984649,165.33273729984649,165.33273729984649,165.33273729984649,165.33273729984649,165.33273729984649,165.33273729984649,165.33273729984649,165.69926909985952,165.69926909985952,165.69926909985952,165.69926909985952,165.69926909985952,165.69926909985952,165.69926909985952,165.69926909985952,165.69926909985952,23,0,,,165.69926909985952,165.89950579986908,0.0,165.89950579986908,0,0.0,0,1,1000,num_1,0.45506399986334145,,32,16,2026-03-12_16h37.06.032,2026A_exp2,2022.2.4,59.86030994839696,
1000,1,3.7,0.0,1,0,48,48,21,,,,,166.38317249994725,167.033938099863,167.033938099863,167.51842839992605,45,315,167.51842839992605,167.51842839992605,167.51842839992605,167.51842839992605,167.51842839992605,167.51842839992605,167.51842839992605,167.51842839992605,167.51842839992605,167.88457759981975,167.88457759981975,167.88457759981975,167.88457759981975,167.88457759981975,167.88457759981975,167.88457759981975,167.88457759981975,167.88457759981975,23,0,,,167.88457759981975,168.08660469995812,1000,168.08660469995812,1000,1000,1000,1000,0,num_3,0.2827606999780983,,32,16,2026-03-12_16h37.06.032,2026A_exp2,2022.2.4,59.86030994839696,
1,0,3.7,0.0,1,0,49,49,59,,,,,168.38524839980528,169.03599169990048,169.03599169990048,169.5368389999494,315,315,169.5368389999494,169.5368389999494,169.5368389999494,169.5368389999494,169.5368389999494,169.5368389999494,169.5368389999494,169.5368389999494,169.5368389999494,169.90329599985853,169.90329599985853,169.90329599985853,169.90329599985853,169.90329599985853,169.90329599985853,169.90329599985853,169.90329599985853,169.90329599985853,23,0,,,169.90329599985853,170.10351709998213,0.0,170.10351709998213,0,0.0,0,1,1000,num_1,0.7705212000291795,,32,16,2026-03-12_16h37.06.032,2026A_exp2,2022.2.4,59.86030994839696,
1,0,3.7,6.1,1,0,50,50,6,,,,,170.90449049999006,171.53849999979138,171.53849999979138,172.03964470000938,45,45,172.03964470000938,172.03964470000938,172.03964470000938,172.03964470000938,172.03964470000938,172.03964470000938,172.03964470000938,172.03964470000938,172.03964470000938,172.4059513998218,172.4059513998218,172.4059513998218,172.4059513998218,172.4059513998218,172.4059513998218,172.4059513998218,172.4059513998218,172.4059513998218,23,0,,,172.4059513998218,172.60622189985588,6.1,172.60622189985588,1,6.1,1,1,1000,num_4,0.3069979001302272,,32,16,2026-03-12_16h37.06.032,2026A_exp2,2022.2.4,59.86030994839696,
1,0,0.0,0.0,0,0,51,51,49,,,,,172.9396038998384,173.5904050997924,173.5904050997924,174.07474919990636,315,315,174.07474919990636,174.07474919990636,174.07474919990636,174.07474919990636,174.07474919990636,174.07474919990636,174.07474919990636,174.07474919990636,174.07474919990636,174.44132849993184,174.44132849993184,174.44132849993184,174.44132849993184,174.44132849993184,174.44132849993184,174.44132849993184,174.44132849993184,174.44132849993184,23,0,,,174.44132849993184,174.6415656998288,0.0,174.6415656998288,1,0.0,0,0,1000,num_4,0.7361698001623154,,32,16,2026-03-12_16h37.06.032,2026A_exp2,2022.2.4,59.86030994839696,
0,0,0.0,0.0,0,0,52,52,69,,,,,175.40891709993593,176.05956449988298,176.05956449988298,176.54408729984425,315,315,176.54408729984425,176.54408729984425,176.54408729984425,176.54408729984425,176.54408729984425,176.54408729984425,176.54408729984425,176.54408729984425,176.54408729984425,176.91009879997,176.91009879997,176.91009879997,176.91009879997,176.91009879997,176.91009879997,176.91009879997,176.91009879997,176.91009879997,23,0,,,176.91009879997,177.12333439989015,0.0,177.12333439989015,0,0.0,0,1,1000,num_1,1.0783865000121295,,32,16,2026-03-12_16h37.06.032,2026A_exp2,2022.2.4,59.86030994839696,
1000,1,0.0,0.0,0,0,53,53,41,,,,,178.22843219991773,178.87908039987087,178.87908039987087,179.36357439984567,315,45,179.36357439984567,179.36357439984567,179.36357439984567,179.36357439984567,179.36357439984567,179.36357439984567,179.36357439984567,179.36357439984567,179.36357439984567,179.72966549987905,179.72966549987905,179.72966549987905,179.72966549987905,179.72966549987905,179.72966549987905,179.72966549987905,179.72966549987905,179.72966549987905,23,0,,,179.72966549987905,179.93016449990682,1000,179.93016449990682,1000,1000,1000,1000,0,num_3,0.5913040000014007,,32,16,2026-03-12_16h37.06.032,2026A_exp2,2022.2.4,59.86030994839696,
1000,1,0.0,6.1,0,0,54,54,83,,,,,180.54733789991587,181.19809049996547,181.19809049996547,181.69913789979182,315,45,181.69913789979182,181.69913789979182,181.69913789979182,181.69913789979182,181.69913789979182,181.69913789979182,181.69913789979182,181.69913789979182,181.69913789979182,182.04897059989162,182.04897059989162,182.04897059989162,182.04897059989162,182.04897059989162,182.04897059989162,182.04897059989162,182.04897059989162,182.04897059989162,18,4,"[0.033572500105947256, 0.1000651998911053, 0.15023760008625686, 0.33372860006056726]","[0.05011539999395609, 0.11645679990760982, 0.16701370012015104, 0.35050490009598434]",182.04897059989162,182.25108869979158,1000,182.26585769979283,1000,1000,1000,1000,1,num_2,0.8566640000790358,,32,16,2026-03-12_16h37.06.032,2026A_exp2,2022.2.4,59.86030994839696,
1,0,3.7,4.9,0,0,55,55,31,,,,,183.15010019997135,183.80075139994733,183.80075139994733,184.30185529985465,315,315,184.30185529985465,184.30185529985465,184.30185529985465,184.30185529985465,184.30185529985465,184.30185529985465,184.30185529985465,184.30185529985465,184.30185529985465,184.66824909998104,184.66824909998104,184.66824909998104,184.66824909998104,184.66824909998104,184.66824909998104,184.66824909998104,184.66824909998104,184.66824909998104,20,3,"[0.11689980002120137, 0.26707950001582503, 0.3171705000568181]","[0.13356230012141168, 0.28380500013008714, 0.3338071999605745]",184.66824909998104,184.86840999987908,3.7,184.86840999987908,1,3.7,1,1,1000,num_4,1.317545099882409,,32,16,2026-03-12_16h37.06.032,2026A_exp2,2022.2.4,59.86030994839696,
1000,1,6.1,6.1,0,0,56,56,56,,,,,186.2029753997922,186.85366499982774,186.85366499982774,187.33820239990018,315,315,187.33820239990018,187.33820239990018,187.33820239990018,187.33820239990018,187.33820239990018,187.33820239990018,187.33820239990018,187.33820239990018,187.33820239990018,187.70459669991396,187.70459669991396,187.70459669991396,187.70459669991396,187.70459669991396,187.70459669991396,187.70459669991396,187.70459669991396,187.70459669991396,23,0,,,187.70459669991396,187.90650909999385,1000,187.90650909999385,1000,1000,1000,1000,0,num_3,0.7757772000040859,,32,16,2026-03-12_16h37.06.032,2026A_exp2,2022.2.4,59.86030994839696,
1,0,6.1,3.7,0,0,57,57,86,,,,,188.7055287999101,189.3561912998557,189.3561912998557,189.8572735998314,315,315,189.8572735998314,189.8572735998314,189.8572735998314,189.8572735998314,189.8572735998314,189.8572735998314,189.8572735998314,189.8572735998314,189.8572735998314,190.22374709998257,190.22374709998257,190.22374709998257,190.22374709998257,190.22374709998257,190.22374709998257,190.22374709998257,190.22374709998257,190.22374709998257,23,0,,,190.22374709998257,190.4240241998341,6.1,190.4240241998341,1,6.1,1,1,1000,num_4,0.7379256000276655,,32,16,2026-03-12_16h37.06.032,2026A_exp2,2022.2.4,59.86030994839696,
0,0,0.0,0.0,0,0,58,58,67,,,,,191.19145289994776,191.8419222999364,191.8419222999364,192.326539499918,45,315,192.326539499918,192.326539499918,192.326539499918,192.326539499918,192.326539499918,192.326539499918,192.326539499918,192.326539499918,192.326539499918,192.69307029992342,192.69307029992342,192.69307029992342,192.69307029992342,192.69307029992342,192.69307029992342,192.69307029992342,192.69307029992342,192.69307029992342,21,1,[0.25040660006925464],[0.26705060014501214],192.69307029992342,192.8930253998842,0.0,192.8930253998842,1,0.0,0,0,1000,num_4,0.8369773000013083,,32,16,2026-03-12_16h37.06.032,2026A_exp2,2022.2.4,59.86030994839696,
1000,1,3.7,0.0,1,0,59,59,44,,,,,193.76055449992418,194.41134899994358,194.41134899994358,194.89575859997422,315,315,194.89575859997422,194.89575859997422,194.89575859997422,194.89575859997422,194.89575859997422,194.89575859997422,194.89575859997422,194.89575859997422,194.89575859997422,195.2620454998687,195.2620454998687,195.2620454998687,195.2620454998687,195.2620454998687,195.2620454998687,195.2620454998687,195.2620454998687,195.2620454998687,23,0,,,195.2620454998687,195.46403319993988,1000,195.46403319993988,1000,1000,1000,1000,0,num_3,0.4260488001164049,,32,16,2026-03-12_16h37.06.032,2026A_exp2,2022.2.4,59.86030994839696,
1000,1,4.9,3.7,1,0,60,60,14,,,,,195.91276489989832,196.5631842999719,196.5631842999719,197.08121949993074,315,315,197.08121949993074,197.08121949993074,197.08121949993074,197.08121949993074,197.08121949993074,197.08121949993074,197.08121949993074,197.08121949993074,197.08121949993074,197.43101019994356,197.43101019994356,197.43101019994356,197.43101019994356,197.43101019994356,197.43101019994356,197.43101019994356,197.43101019994356,197.43101019994356,23,0,,,197.43101019994356,197.63330799993128,1000,197.63330799993128,1000,1000,1000,1000,1,num_2,0.42532690009102225,,32,16,2026-03-12_16h37.06.032,2026A_exp2,2022.2.4,59.86030994839696,
1000,1,0.0,6.1,1,0,61,61,3,,,,,198.08157959999517,198.73229219997302,198.73229219997302,199.23344009998254,315,315,199.23344009998254,199.23344009998254,199.23344009998254,199.23344009998254,199.23344009998254,199.23344009998254,199.23344009998254,199.23344009998254,199.23344009998254,199.58310179994442,199.58310179994442,199.58310179994442,199.58310179994442,199.58310179994442,199.58310179994442,199.58310179994442,199.58310179994442,199.58310179994442,18,2,"[0.050218699965626, 0.1671181998681277]","[0.10020129987969995, 0.18389869993552566]",199.58310179994442,199.78529849997722,1000,199.78529849997722,1000,1000,1000,1000,1,num_2,0.2800175999291241,,32,16,2026-03-12_16h37.06.032,2026A_exp2,2022.2.4,59.86030994839696,
1000,1,6.1,4.9,0,0,62,62,77,,,,,200.0834036997985,200.734300899785,200.734300899785,201.2354204999283,315,315,201.2354204999283,201.2354204999283,201.2354204999283,201.2354204999283,201.2354204999283,201.2354204999283,201.2354204999283,201.2354204999283,201.2354204999283,201.60149929998443,201.60149929998443,201.60149929998443,201.60149929998443,201.60149929998443,201.60149929998443,201.60149929998443,201.60149929998443,201.60149929998443,23,0,,,201.60149929998443,201.80181339988485,1000,201.80181339988485,1000,1000,1000,1000,1,num_2,0.48005950008518994,,32,16,2026-03-12_16h37.06.032,2026A_exp2,2022.2.4,59.86030994839696,
1,0,6.1,6.1,1,0,63,63,89,,,,,202.3023901998531,202.9531727998983,202.9531727998983,203.4543080998119,45,45,203.4543080998119,203.4543080998119,203.4543080998119,203.4543080998119,203.4543080998119,203.4543080998119,203.4543080998119,203.4543080998119,203.4543080998119,203.8206001999788,203.8206001999788,203.8206001999788,203.8206001999788,203.8206001999788,203.8206001999788,203.8206001999788,203.8206001999788,203.8206001999788,23,0,,,203.8206001999788,204.02088709990494,6.1,204.02088709990494,0,6.1,1,0,1000,num_1,0.4929310001898557,,32,16,2026-03-12_16h37.06.032,2026A_exp2,2022.2.4,59.86030994839696,
1000,1,4.9,4.9,0,0,64,64,34,,,,,204.5378125999123,205.18877869984135,205.18877869984135,205.6783596999012,45,45,205.6783596999012,205.6783596999012,205.6783596999012,205.6783596999012,205.6783596999012,205.6783596999012,205.6783596999012,205.6783596999012,205.6783596999012,206.03965629986487,206.03965629986487,206.03965629986487,206.03965629986487,206.03965629986487,206.03965629986487,206.03965629986487,206.03965629986487,206.03965629986487,23,0,,,206.03965629986487,206.25534229981713,1000,206.25534229981713,1000,1000,1000,1000,1,num_2,0.3617746999952942,,32,16,2026-03-12_16h37.06.032,2026A_exp2,2022.2.4,59.86030994839696,
1,0,0.0,0.0,0,0,65,65,29,,,,,206.64054389996454,207.29085889994167,207.29085889994167,207.79174869996496,45,315,207.79174869996496,207.79174869996496,207.79174869996496,207.79174869996496,207.79174869996496,207.79174869996496,207.79174869996496,207.79174869996496,207.79174869996496,208.14167759986594,208.14167759986594,208.14167759986594,208.14167759986594,208.14167759986594,208.14167759986594,208.14167759986594,208.14167759986594,208.14167759986594,16,2,"[0.08326700003817677, 0.21680149994790554]","[0.1335217000450939, 0.250308700138703]",208.14167759986594,208.34192589996383,0.0,208.34192589996383,1,0.0,0,0,1000,num_4,0.7482978999614716,,32,16,2026-03-12_16h37.06.032,2026A_exp2,2022.2.4,59.86030994839696,
1000,1,0.0,0.0,1,0,66,66,70,,,,,209.1091467998922,209.76003759982996,209.76003759982996,210.2443276999984,45,45,210.2443276999984,210.2443276999984,210.2443276999984,210.2443276999984,210.2443276999984,210.2443276999984,210.2443276999984,210.2443276999984,210.2443276999984,210.6110599997919,210.6110599997919,210.6110599997919,210.6110599997919,210.6110599997919,210.6110599997919,210.6110599997919,210.6110599997919,210.6110599997919,23,1,[0.13355330005288124],[0.15023849997669458],210.6110599997919,210.81071749981493,1000,210.81071749981493,1000,1000,1000,1000,0,num_3,0.37576709990389645,,32,16,2026-03-12_16h37.06.032,2026A_exp2,2022.2.4,59.86030994839696,
1000,1,0.0,0.0,1,0,67,67,42,,,,,211.21138519980013,211.86214869981632,211.86214869981632,212.3632208998315,45,315,212.3632208998315,212.3632208998315,212.3632208998315,212.3632208998315,212.3632208998315,212.3632208998315,212.3632208998315,212.3632208998315,212.3632208998315,212.71298419986852,212.71298419986852,212.71298419986852,212.71298419986852,212.71298419986852,212.71298419986852,212.71298419986852,212.71298419986852,212.71298419986852,22,0,,,212.71298419986852,212.91337059997022,1000,212.91337059997022,1000,1000,1000,1000,1,num_2,0.5770413000136614,,32,16,2026-03-12_16h37.06.032,2026A_exp2,2022.2.4,59.86030994839696,
1000,1,4.9,4.9,1,0,68,68,26,,,,,213.51391559978947,214.16429859981872,214.16429859981872,214.6655480999034,45,315,214.6655480999034,214.6655480999034,214.6655480999034,214.6655480999034,214.6655480999034,214.6655480999034,214.6655480999034,214.6655480999034,214.6655480999034,215.03170029981993,215.03170029981993,215.03170029981993,215.03170029981993,215.03170029981993,215.03170029981993,215.03170029981993,215.03170029981993,215.03170029981993,23,0,,,215.03170029981993,215.23360829986632,1000,215.23360829986632,1000,1000,1000,1000,0,num_3,0.3916941999923438,,32,16,2026-03-12_16h37.06.032,2026A_exp2,2022.2.4,59.86030994839696,
1,0,0.0,3.7,0,0,69,69,1,,,,,215.6489732998889,216.2997465999797,216.2997465999797,216.78434169990942,315,315,216.78434169990942,216.78434169990942,216.78434169990942,216.78434169990942,216.78434169990942,216.78434169990942,216.78434169990942,216.78434169990942,216.78434169990942,217.15085049998015,217.15085049998015,217.15085049998015,217.15085049998015,217.15085049998015,217.15085049998015,217.15085049998015,217.15085049998015,217.15085049998015,18,4,"[0.08371170004829764, 0.11723030009306967, 0.23384610004723072, 0.31749990000389516]","[0.10046009998768568, 0.1339136001188308, 0.26699739997275174, 0.3341986001469195]",217.15085049998015,217.35079139983281,0.0,217.35079139983281,0,0.0,0,1,1000,num_1,0.4911823000293225,,32,16,2026-03-12_16h37.06.032,2026A_exp2,2022.2.4,59.86030994839696,
1000,1,0.0,3.7,1,0,70,70,43,,,,,217.86799820000306,218.51875819987617,218.51875819987617,219.0030536998529,45,315,219.0030536998529,219.0030536998529,219.0030536998529,219.0030536998529,219.0030536998529,219.0030536998529,219.0030536998529,219.0030536998529,219.0030536998529,219.36958849988878,219.36958849988878,219.36958849988878,219.36958849988878,219.36958849988878,219.36958849988878,219.36958849988878,219.36958849988878,219.36958849988878,21,2,"[0.11654990003444254, 0.21674660011194646]","[0.1332537999842316, 0.2335950001142919]",219.36958849988878,219.57168879988603,1000,219.57168879988603,1000,1000,1000,1000,1,num_2,0.37491009989753366,,32,16,2026-03-12_16h37.06.032,2026A_exp2,2022.2.4,59.86030994839696,
1,0,0.0,0.0,0,0,71,71,0,,,,,219.9699170999229,220.62079069996253,220.62079069996253,221.12163669988513,315,315,221.12163669988513,221.12163669988513,221.12163669988513,221.12163669988513,221.12163669988513,221.12163669988513,221.12163669988513,221.12163669988513,221.12163669988513,221.48824229999445,221.48824229999445,221.48824229999445,221.48824229999445,221.48824229999445,221.48824229999445,221.48824229999445,221.48824229999445,221.48824229999445,23,0,,,221.48824229999445,221.68859209981747,0.0,221.68859209981747,0,0.0,0,1,1000,num_1,1.1931227999739349,,32,16,2026-03-12_16h37.06.032,2026A_exp2,2022.2.4,59.86030994839696,
1000,1,4.9,4.9,1,0,72,72,60,,,,,222.90640939981677,223.54007549979724,223.54007549979724,224.04126559989527,315,315,224.04126559989527,224.04126559989527,224.04126559989527,224.04126559989527,224.04126559989527,224.04126559989527,224.04126559989527,224.04126559989527,224.04126559989527,224.40828769979998,224.40828769979998,224.40828769979998,224.40828769979998,224.40828769979998,224.40828769979998,224.40828769979998,224.40828769979998,224.40828769979998,23,0,,,224.40828769979998,224.6081063998863,1000,224.6081063998863,1000,1000,1000,1000,1,num_2,0.29805839993059635,,32,16,2026-03-12_16h37.06.032,2026A_exp2,2022.2.4,59.86030994839696,
1,0,4.9,0.0,0,0,73,73,23,,,,,224.92674299981445,225.57566510001197,225.57566510001197,226.07678479980677,45,315,226.07678479980677,226.07678479980677,226.07678479980677,226.07678479980677,226.07678479980677,226.07678479980677,226.07678479980677,226.07678479980677,226.07678479980677,226.44316229992546,226.44316229992546,226.44316229992546,226.44316229992546,226.44316229992546,226.44316229992546,226.44316229992546,226.44316229992546,226.44316229992546,20,4,"[0.06713640014640987, 0.10022870008833706, 0.18345040013082325, 0.25031630019657314]","[0.08414170006290078, 0.11681570019572973, 0.20066630002111197, 0.2670382000505924]",226.44316229992546,226.64312519994564,4.9,226.64312519994564,1,4.9,1,1,1000,num_4,0.4860455000307411,,32,16,2026-03-12_16h37.06.032,2026A_exp2,2022.2.4,59.86030994839696,
1000,1,3.7,3.7,0,0,74,74,16,,,,,227.16028780001216,227.79430409986526,227.79430409986526,228.295503199799,315,45,228.295503199799,228.295503199799,228.295503199799,228.295503199799,228.295503199799,228.295503199799,228.295503199799,228.295503199799,228.295503199799,228.6619775998406,228.6619775998406,228.6619775998406,228.6619775998406,228.6619775998406,228.6619775998406,228.6619775998406,228.6619775998406,228.6619775998406,22,1,[0.23394929990172386],[0.25066399993374944],228.6619775998406,228.86223159986548,1000,228.86223159986548,1000,1000,1000,1000,0,num_3,0.787402399815619,,32,16,2026-03-12_16h37.06.032,2026A_exp2,2022.2.4,59.86030994839696,
1,0,6.1,0.0,1,0,75,75,54,,,,,229.67980889999308,230.33049889979884,230.33049889979884,230.83165459986776,45,45,230.83165459986776,230.83165459986776,230.83165459986776,230.83165459986776,230.83165459986776,230.83165459986776,230.83165459986776,230.83165459986776,230.83165459986776,231.1979268998839,231.1979268998839,231.1979268998839,231.1979268998839,231.1979268998839,231.1979268998839,231.1979268998839,231.1979268998839,231.1979268998839,23,0,,,231.1979268998839,231.39819949981757,0.0,231.39819949981757,0,0.0,0,1,1000,num_1,0.451227999990806,,32,16,2026-03-12_16h37.06.032,2026A_exp2,2022.2.4,59.86030994839696,
1000,1,6.1,0.0,0,0,76,76,8,,,,,231.86572189978324,232.51611149986275,232.51611149986275,233.00046319980174,45,315,233.00046319980174,233.00046319980174,233.00046319980174,233.00046319980174,233.00046319980174,233.00046319980174,233.00046319980174,233.00046319980174,233.00046319980174,233.36692579998635,233.36692579998635,233.36692579998635,233.36692579998635,233.36692579998635,233.36692579998635,233.36692579998635,233.36692579998635,233.36692579998635,23,0,,,233.36692579998635,233.56718139979057,1000,233.56718139979057,1000,1000,1000,1000,0,num_3,0.28248150018043816,,32,16,2026-03-12_16h37.06.032,2026A_exp2,2022.2.4,59.86030994839696,
1,0,3.7,4.9,0,0,77,77,84,,,,,233.86736189993098,234.51809249981306,234.51809249981306,235.0192610998638,315,45,235.0192610998638,235.0192610998638,235.0192610998638,235.0192610998638,235.0192610998638,235.0192610998638,235.0192610998638,235.0192610998638,235.0192610998638,235.38541619991884,235.38541619991884,235.38541619991884,235.38541619991884,235.38541619991884,235.38541619991884,235.38541619991884,235.38541619991884,235.38541619991884,22,1,[0.31680200016126037],[0.333385500125587],235.38541619991884,235.58553659985773,3.7,235.58553659985773,0,3.7,1,0,1000,num_1,0.47286569979041815,,32,16,2026-03-12_16h37.06.032,2026A_exp2,2022.2.4,59.86030994839696,
1000,1,0.0,4.9,1,0,78,78,73,,,,,236.08632229990326,236.7369619999081,236.7369619999081,237.2213325998746,45,315,237.2213325998746,237.2213325998746,237.2213325998746,237.2213325998746,237.2213325998746,237.2213325998746,237.2213325998746,237.2213325998746,237.2213325998746,237.58789899991825,237.58789899991825,237.58789899991825,237.58789899991825,237.58789899991825,237.58789899991825,237.58789899991825,237.58789899991825,237.58789899991825,23,0,,,237.58789899991825,237.7893806998618,1000,237.7893806998618,1000,1000,1000,1000,1,num_2,0.5732686999253929,,32,16,2026-03-12_16h37.06.032,2026A_exp2,2022.2.4,59.86030994839696,
1,0,0.0,4.9,1,0,79,79,36,,,,,238.3887266998645,239.0392541999463,239.0392541999463,239.54042679979466,315,315,239.54042679979466,239.54042679979466,239.54042679979466,239.54042679979466,239.54042679979466,239.54042679979466,239.54042679979466,239.54042679979466,239.54042679979466,239.88998829992488,239.88998829992488,239.88998829992488,239.88998829992488,239.88998829992488,239.88998829992488,239.88998829992488,239.88998829992488,239.88998829992488,22,0,,,239.88998829992488,240.09030589996837,4.9,240.10697619989514,1,4.9,1,1,1000,num_4,0.4630226001609117,,32,16,2026-03-12_16h37.06.032,2026A_exp2,2022.2.4,59.86030994839696,
1,0,0.0,4.9,1,0,80,80,65,,,,,240.59074559994042,241.24138859985396,241.24138859985396,241.72593519999646,315,315,241.72593519999646,241.72593519999646,241.72593519999646,241.72593519999646,241.72593519999646,241.72593519999646,241.72593519999646,241.72593519999646,241.72593519999646,242.09236169978976,242.09236169978976,242.09236169978976,242.09236169978976,242.09236169978976,242.09236169978976,242.09236169978976,242.09236169978976,242.09236169978976,22,1,[0.00072640017606318],[0.017859400017187],242.09236169978976,242.29239439987577,4.9,242.29239439987577,1,4.9,1,1,1000,num_4,0.3498647001106292,,32,16,2026-03-12_16h37.06.032,2026A_exp2,2022.2.4,59.86030994839696,
1,0,4.9,0.0,1,0,81,81,15,,,,,242.65941379987635,243.31008509988897,243.31008509988897,243.7945510998834,45,45,243.7945510998834,243.7945510998834,243.7945510998834,243.7945510998834,243.7945510998834,243.7945510998834,243.7945510998834,243.7945510998834,243.7945510998834,244.16077139996924,244.16077139996924,244.16077139996924,244.16077139996924,244.16077139996924,244.16077139996924,244.16077139996924,244.16077139996924,244.16077139996924,23,0,,,244.16077139996924,244.36127959983423,0.0,244.36127959983423,0,0.0,0,1,1000,num_1,0.473307800013572,,32,16,2026-03-12_16h37.06.032,2026A_exp2,2022.2.4,59.86030994839696,
1000,1,4.9,0.0,0,0,82,82,20,,,,,244.86176439980045,245.51211929996498,245.51211929996498,245.99687069980428,45,315,245.99687069980428,245.99687069980428,245.99687069980428,245.99687069980428,245.99687069980428,245.99687069980428,245.99687069980428,245.99687069980428,245.99687069980428,246.36326399981044,246.36326399981044,246.36326399981044,246.36326399981044,246.36326399981044,246.36326399981044,246.36326399981044,246.36326399981044,246.36326399981044,23,0,,,246.36326399981044,246.56548529979773,1000,246.56548529979773,1000,1000,1000,1000,0,num_3,0.3876833999529481,,32,16,2026-03-12_16h37.06.032,2026A_exp2,2022.2.4,59.86030994839696,
0,0,0.0,0.0,0,0,83,83,4,,,,,246.98151259985752,247.6310397000052,247.6310397000052,248.13233679998666,45,45,248.13233679998666,248.13233679998666,248.13233679998666,248.13233679998666,248.13233679998666,248.13233679998666,248.13233679998666,248.13233679998666,248.13233679998666,248.49868629989214,248.49868629989214,248.49868629989214,248.49868629989214,248.49868629989214,248.49868629989214,248.49868629989214,248.49868629989214,248.49868629989214,23,0,,,248.49868629989214,248.69883879995905,0.0,248.69883879995905,1,0.0,0,0,1000,num_4,0.622555100126192,,32,16,2026-03-12_16h37.06.032,2026A_exp2,2022.2.4,59.86030994839696,
1,0,0.0,6.1,0,0,84,84,72,,,,,249.3496325998567,249.99998429999687,249.99998429999687,250.4847179998178,315,315,250.4847179998178,250.4847179998178,250.4847179998178,250.4847179998178,250.4847179998178,250.4847179998178,250.4847179998178,250.4847179998178,250.4847179998178,250.85101149999537,250.85101149999537,250.85101149999537,250.85101149999537,250.85101149999537,250.85101149999537,250.85101149999537,250.85101149999537,250.85101149999537,23,0,,,250.85101149999537,251.0512253998313,0.0,251.0512253998313,0,0.0,0,1,1000,num_1,0.48713780008256435,,32,16,2026-03-12_16h37.06.032,2026A_exp2,2022.2.4,59.86030994839696,
1000,1,0.0,4.9,0,0,85,85,27,,,,,251.568472399842,252.21926049981266,252.21926049981266,252.70359199983068,315,45,252.70359199983068,252.70359199983068,252.70359199983068,252.70359199983068,252.70359199983068,252.70359199983068,252.70359199983068,252.70359199983068,252.70359199983068,253.0699959998019,253.0699959998019,253.0699959998019,253.0699959998019,253.0699959998019,253.0699959998019,253.0699959998019,253.0699959998019,253.0699959998019,22,0,,,253.0699959998019,253.27234839997254,1000,253.27234839997254,1000,1000,1000,1000,1,num_2,0.5381664999295026,,32,16,2026-03-12_16h37.06.032,2026A_exp2,2022.2.4,59.86030994839696,
1000,1,4.9,0.0,1,0,86,86,28,,,,,253.83742109988816,254.48808269994333,254.48808269994333,254.98919599992223,315,315,254.98919599992223,254.98919599992223,254.98919599992223,254.98919599992223,254.98919599992223,254.98919599992223,254.98919599992223,254.98919599992223,254.98919599992223,255.35556529997848,255.35556529997848,255.35556529997848,255.35556529997848,255.35556529997848,255.35556529997848,255.35556529997848,255.35556529997848,255.35556529997848,23,0,,,255.35556529997848,255.55766940000467,1000,255.55766940000467,1000,1000,1000,1000,0,num_3,0.2758460999466479,,32,16,2026-03-12_16h37.06.032,2026A_exp2,2022.2.4,59.86030994839696,
1,0,6.1,6.1,0,0,87,87,11,,,,,255.85612319991924,256.5066546997987,256.5066546997987,257.0077831998933,45,45,257.0077831998933,257.0077831998933,257.0077831998933,257.0077831998933,257.0077831998933,257.0077831998933,257.0077831998933,257.0077831998933,257.0077831998933,257.37421929999255,257.37421929999255,257.37421929999255,257.37421929999255,257.37421929999255,257.37421929999255,257.37421929999255,257.37421929999255,257.37421929999255,23,0,,,257.37421929999255,257.57442349987105,6.1,257.57442349987105,1,6.1,1,1,1000,num_4,0.6670715999789536,,32,16,2026-03-12_16h37.06.032,2026A_exp2,2022.2.4,59.86030994839696,
1,0,6.1,6.1,0,0,88,88,51,,,,,258.25831349985674,258.9090392999351,258.9090392999351,259.3934638998471,45,315,259.3934638998471,259.3934638998471,259.3934638998471,259.3934638998471,259.3934638998471,259.3934638998471,259.3934638998471,259.3934638998471,259.3934638998471,259.7599283999298,259.7599283999298,259.7599283999298,259.7599283999298,259.7599283999298,259.7599283999298,259.7599283999298,259.7599283999298,259.7599283999298,23,0,,,259.7599283999298,259.96002719993703,6.1,259.96002719993703,1,6.1,1,1,1000,num_4,0.6412778000812978,,32,16,2026-03-12_16h37.06.032,2026A_exp2,2022.2.4,59.86030994839696,
1000,1,6.1,0.0,0,0,89,89,68,,,,,260.6274989999365,261.278301499784,261.278301499784,261.76226599980146,45,45,261.76226599980146,261.76226599980146,261.76226599980146,261.76226599980146,261.76226599980146,261.76226599980146,261.76226599980146,261.76226599980146,261.76226599980146,262.1290137998294,262.1290137998294,262.1290137998294,262.1290137998294,262.1290137998294,262.1290137998294,262.1290137998294,262.1290137998294,262.1290137998294,23,0,,,262.1290137998294,262.33074859995395,1000,262.33074859995395,1000,1000,1000,1000,0,num_3,0.5034610000438988,,32,16,2026-03-12_16h37.06.032,2026A_exp2,2022.2.4,59.86030994839696,
,,,,,,,,,,,,,,,,,,,,,,,,,,,,,,,,,,,,,,,,,,,,,,,,,,,,262.86788329994306,,,,,,,
