validity,detectorcomp,contrastCW,contrastCCW,precueCWorCCW,block_80trials.thisRepN,block_80trials.thisTrialN,block_80trials.thisN,block_80trials.thisIndex,etRecord.started,etRecord.stopped,text.started,text.stopped,text_4.started,text_4.stopped,text_6.started,text_6.stopped,oriCW,oriCCW,roi_2.started,grating_UR.started,grating_UL.started,grating_LR.started,grating_LL.started,noise_UR.started,noise_UL.started,noise_LR.started,noise_LL.started,roi_2.stopped,grating_UR.stopped,grating_UL.stopped,grating_LR.stopped,grating_LL.stopped,noise_UR.stopped,noise_UL.stopped,noise_LR.stopped,noise_LL.stopped,outframe,roi_2.numLooks,roi_2.timesOn,roi_2.timesOff,text_2.started,text_2.stopped,probedcontrast,key_resp.started,respdetect,relevantContrast,correctDetect,TorFdetect,respCWorCCW,key_resp.keys,key_resp.rt,feedback_display_.started,participantNo,blockNo,date,expName,psychopyVersion,frameRate,
1,0,6.1,4.9,0,0,0,0,39,4.7999899834394455e-05,4.7999899834394455e-05,49.24350710003637,51.25006980006583,51.25006980006583,51.88007430010475,51.88007430010475,52.3989312001504,315,315,52.3989312001504,52.3989312001504,52.3989312001504,52.3989312001504,52.3989312001504,52.3989312001504,52.3989312001504,52.3989312001504,52.3989312001504,52.747562900185585,52.747562900185585,52.747562900185585,52.747562900185585,52.747562900185585,52.747562900185585,52.747562900185585,52.747562900185585,52.747562900185585,0,1,[0.001028900034725666],[0.36807750002481043],52.747562900185585,52.94769409997389,6.1,52.94769409997389,1,6.1,1,1,1000,num_4,0.8535990999080241,,33,2,2026-03-12_17h15.54.424,2026A_exp2,2022.2.4,59.9362278145724,
1000,1,6.1,0.0,0,0,1,1,82,,,,,53.83203160017729,54.482524499995634,54.482524499995634,54.983706400031224,315,45,54.983706400031224,54.983706400031224,54.983706400031224,54.983706400031224,54.983706400031224,54.983706400031224,54.983706400031224,54.983706400031224,54.983706400031224,55.33348760008812,55.33348760008812,55.33348760008812,55.33348760008812,55.33348760008812,55.33348760008812,55.33348760008812,55.33348760008812,55.33348760008812,0,1,[0.0012628999538719654],[0.3506896998733282],55.33348760008812,55.53822310012765,1000,55.550328199984506,1000,1000,1000,1000,0,num_3,1.0107730999588966,,33,2,2026-03-12_17h15.54.424,2026A_exp2,2022.2.4,59.9362278145724,
1,0,0.0,4.9,0,0,2,2,4,,,,,56.584703700151294,57.235425899969414,57.235425899969414,57.719903600169346,315,45,57.719903600169346,57.719903600169346,57.719903600169346,57.719903600169346,57.719903600169346,57.719903600169346,57.719903600169346,57.719903600169346,57.719903600169346,58.086017600027844,58.086017600027844,58.086017600027844,58.086017600027844,58.086017600027844,58.086017600027844,58.086017600027844,58.086017600027844,58.086017600027844,0,1,[0.0012399000115692616],[0.36709389998577535],58.086017600027844,58.28647579997778,0.0,58.28647579997778,0,0.0,0,1,1000,num_1,1.7787152000237256,,33,2,2026-03-12_17h15.54.424,2026A_exp2,2022.2.4,59.9362278145724,
1000,1,4.9,0.0,0,0,3,3,26,,,,,60.08828590018675,60.726031800033525,60.726031800033525,61.23122000019066,315,45,61.23122000019066,61.23122000019066,61.23122000019066,61.23122000019066,61.23122000019066,61.23122000019066,61.23122000019066,61.23122000019066,61.23122000019066,61.58975480007939,61.58975480007939,61.58975480007939,61.58975480007939,61.58975480007939,61.58975480007939,61.58975480007939,61.58975480007939,61.58975480007939,0,1,[0.002976100193336606],[0.3649939000606537],61.58975480007939,61.79154360014945,1000,61.79154360014945,1000,1000,1000,1000,0,num_3,0.8813845999538898,,33,2,2026-03-12_17h15.54.424,2026A_exp2,2022.2.4,59.9362278145724,
1,0,0.0,6.1,1,0,4,4,40,,,,,62.69094600016251,63.34139920002781,63.34139920002781,63.842580400174484,315,45,63.842580400174484,63.842580400174484,63.842580400174484,63.842580400174484,63.842580400174484,63.842580400174484,63.842580400174484,63.842580400174484,63.842580400174484,64.20898400014266,64.20898400014266,64.20898400014266,64.20898400014266,64.20898400014266,64.20898400014266,64.20898400014266,64.20898400014266,64.20898400014266,2,1,[0.03325960016809404],[0.366991100134328],64.20898400014266,64.40913230017759,6.1,64.40913230017759,1,6.1,1,1,1000,num_4,0.680887300055474,,33,2,2026-03-12_17h15.54.424,2026A_exp2,2022.2.4,59.9362278145724,
0,0,0.0,3.7,1,0,5,5,10,,,,,65.10996320005506,65.76060520019382,65.76060520019382,66.2451709001325,315,315,66.2451709001325,66.2451709001325,66.2451709001325,66.2451709001325,66.2451709001325,66.2451709001325,66.2451709001325,66.2451709001325,66.2451709001325,66.61143080005422,66.61143080005422,66.61143080005422,66.61143080005422,66.61143080005422,66.61143080005422,66.61143080005422,66.61143080005422,66.61143080005422,0,1,[0.0011974000371992588],[0.3668051001150161],66.61143080005422,66.81145470007323,0.0,66.81145470007323,1,0.0,0,0,1000,num_4,0.9415883000474423,,33,2,2026-03-12_17h15.54.424,2026A_exp2,2022.2.4,59.9362278145724,
1000,1,6.1,0.0,1,0,6,6,75,,,,,67.77910380018875,68.42980220005848,68.42980220005848,68.91440500016324,315,315,68.91440500016324,68.91440500016324,68.91440500016324,68.91440500016324,68.91440500016324,68.91440500016324,68.91440500016324,68.91440500016324,68.91440500016324,69.2807310000062,69.2807310000062,69.2807310000062,69.2807310000062,69.2807310000062,69.2807310000062,69.2807310000062,69.2807310000062,69.2807310000062,0,1,[0.0012101999018341303],[0.3672269999515265],69.2807310000062,69.48277280014008,1000,69.48277280014008,1000,1000,1000,1000,0,num_3,0.6067618001252413,,33,2,2026-03-12_17h15.54.424,2026A_exp2,2022.2.4,59.9362278145724,
1000,1,0.0,3.7,0,0,7,7,51,,,,,70.11481000017375,70.76554290018976,70.76554290018976,71.26677129999734,45,45,71.26677129999734,71.26677129999734,71.26677129999734,71.26677129999734,71.26677129999734,71.26677129999734,71.26677129999734,71.26677129999734,71.26677129999734,71.63310970016755,71.63310970016755,71.63310970016755,71.63310970016755,71.63310970016755,71.63310970016755,71.63310970016755,71.63310970016755,71.63310970016755,0,1,[0.001202200073748827],[0.36724309995770454],71.63310970016755,71.83508860017173,1000,71.83508860017173,1000,1000,1000,1000,1,num_2,0.8698923999909312,,33,2,2026-03-12_17h15.54.424,2026A_exp2,2022.2.4,59.9362278145724,
1,0,3.7,3.7,0,0,8,8,13,,,,,72.73424660018645,73.3681717000436,73.3681717000436,73.86915650009178,45,45,73.86915650009178,73.86915650009178,73.86915650009178,73.86915650009178,73.86915650009178,73.86915650009178,73.86915650009178,73.86915650009178,73.86915650009178,74.23572039999999,74.23572039999999,74.23572039999999,74.23572039999999,74.23572039999999,74.23572039999999,74.23572039999999,74.23572039999999,74.23572039999999,4,5,"[0.001226500142365694, 0.0836593999993056, 0.2173429001122713, 0.2504909001290798, 0.317196800140664]","[0.06712340004742146, 0.2004941999912262, 0.23386340006254613, 0.3005199001636356, 0.36731680016964674]",74.23572039999999,74.43598240008578,3.7,74.43598240008578,0,3.7,1,0,1000,num_1,1.0374906999059021,,33,2,2026-03-12_17h15.54.424,2026A_exp2,2022.2.4,59.9362278145724,
1,0,0.0,6.1,0,0,9,9,60,,,,,75.50363530009054,76.15442390018143,76.15442390018143,76.63863450009376,45,315,76.63863450009376,76.63863450009376,76.63863450009376,76.63863450009376,76.63863450009376,76.63863450009376,76.63863450009376,76.63863450009376,76.63863450009376,77.00494470004924,77.00494470004924,77.00494470004924,77.00494470004924,77.00494470004924,77.00494470004924,77.00494470004924,77.00494470004924,77.00494470004924,3,3,"[0.0012028999626636505, 0.30033669993281364, 0.3500397000461817]","[0.26716109993867576, 0.33360260003246367, 0.36692980001680553]",77.00494470004924,77.2051361000631,0.0,77.2051361000631,0,0.0,0,1,1000,num_1,0.8203980999533087,,33,2,2026-03-12_17h15.54.424,2026A_exp2,2022.2.4,59.9362278145724,
1,0,0.0,3.7,1,0,10,10,41,,,,,78.05598650011234,78.70666320016608,78.70666320016608,79.1913121000398,315,315,79.1913121000398,79.1913121000398,79.1913121000398,79.1913121000398,79.1913121000398,79.1913121000398,79.1913121000398,79.1913121000398,79.1913121000398,79.55774730001576,79.55774730001576,79.55774730001576,79.55774730001576,79.55774730001576,79.55774730001576,79.55774730001576,79.55774730001576,79.55774730001576,0,1,[0.0012481999583542347],[0.3669801000505686],79.55774730001576,79.75795470015146,3.7,79.75795470015146,0,3.7,1,0,1000,num_1,1.4110717999283224,,33,2,2026-03-12_17h15.54.424,2026A_exp2,2022.2.4,59.9362278145724,
1000,1,3.7,4.9,1,0,11,11,46,,,,,81.19244200014509,81.84325060015544,81.84325060015544,82.3278135000728,315,315,82.3278135000728,82.3278135000728,82.3278135000728,82.3278135000728,82.3278135000728,82.3278135000728,82.3278135000728,82.3278135000728,82.3278135000728,82.69413760001771,82.69413760001771,82.69413760001771,82.69413760001771,82.69413760001771,82.69413760001771,82.69413760001771,82.69413760001771,82.69413760001771,0,1,[0.0012374999932944775],[0.36719390004873276],82.69413760001771,82.89630680019036,1000,82.89630680019036,1000,1000,1000,1000,1,num_2,0.7767723000142723,,33,2,2026-03-12_17h15.54.424,2026A_exp2,2022.2.4,59.9362278145724,
1000,1,0.0,4.9,1,0,12,12,59,,,,,83.69504120014608,84.34590549999848,84.34590549999848,84.84681450016797,45,45,84.84681450016797,84.84681450016797,84.84681450016797,84.84681450016797,84.84681450016797,84.84681450016797,84.84681450016797,84.84681450016797,84.84681450016797,85.21338020008989,85.21338020008989,85.21338020008989,85.21338020008989,85.21338020008989,85.21338020008989,85.21338020008989,85.21338020008989,85.21338020008989,0,1,[0.0012498002033680677],[0.36682270001620054],85.21338020008989,85.41539360000752,1000,85.41539360000752,1000,1000,1000,1000,1,num_2,0.6821088001597673,,33,2,2026-03-12_17h15.54.424,2026A_exp2,2022.2.4,59.9362278145724,
1000,1,4.9,0.0,0,0,13,13,54,,,,,86.11422410001978,86.7649358001072,86.7649358001072,87.26598560018465,45,315,87.26598560018465,87.26598560018465,87.26598560018465,87.26598560018465,87.26598560018465,87.26598560018465,87.26598560018465,87.26598560018465,87.26598560018465,87.63199480017647,87.63199480017647,87.63199480017647,87.63199480017647,87.63199480017647,87.63199480017647,87.63199480017647,87.63199480017647,87.63199480017647,16,2,"[0.25042270007543266, 0.30083189997822046]","[0.28415980003774166, 0.36700600013136864]",87.63199480017647,87.83425569999963,1000,87.83425569999963,1000,1000,1000,1000,0,num_3,0.5687335000839084,,33,2,2026-03-12_17h15.54.424,2026A_exp2,2022.2.4,59.9362278145724,
1000,1,3.7,4.9,1,0,14,14,43,,,,,88.43341160006821,89.08390210010111,89.08390210010111,89.56837830017321,45,45,89.56837830017321,89.56837830017321,89.56837830017321,89.56837830017321,89.56837830017321,89.56837830017321,89.56837830017321,89.56837830017321,89.56837830017321,89.93467440013774,89.93467440013774,89.93467440013774,89.93467440013774,89.93467440013774,89.93467440013774,89.93467440013774,89.93467440013774,89.93467440013774,0,1,[0.0012991998810321093],[0.36728279991075397],89.93467440013774,90.13687260006554,1000,90.13687260006554,1000,1000,1000,1000,1,num_2,1.1367152000311762,,33,2,2026-03-12_17h15.54.424,2026A_exp2,2022.2.4,59.9362278145724,
1000,1,6.1,0.0,1,0,15,15,68,,,,,91.30270710005425,91.95309900003485,91.95309900003485,92.45444120001048,315,45,92.45444120001048,92.45444120001048,92.45444120001048,92.45444120001048,92.45444120001048,92.45444120001048,92.45444120001048,92.45444120001048,92.45444120001048,92.8210031001363,92.8210031001363,92.8210031001363,92.8210031001363,92.8210031001363,92.8210031001363,92.8210031001363,92.8210031001363,92.8210031001363,0,1,[0.001233300194144249],[0.36719190003350377],92.8210031001363,93.02267100010067,1000,93.02267100010067,1000,1000,1000,1000,0,num_3,0.6430120000150055,,33,2,2026-03-12_17h15.54.424,2026A_exp2,2022.2.4,59.9362278145724,
1,0,0.0,6.1,1,0,16,16,52,,,,,93.68838390009478,94.32238809997216,94.32238809997216,94.82359930011444,45,45,94.82359930011444,94.82359930011444,94.82359930011444,94.82359930011444,94.82359930011444,94.82359930011444,94.82359930011444,94.82359930011444,94.82359930011444,95.19001620006748,95.19001620006748,95.19001620006748,95.19001620006748,95.19001620006748,95.19001620006748,95.19001620006748,95.19001620006748,95.19001620006748,6,2,"[0.06693560001440346, 0.11696000001393259]","[0.08364810002967715, 0.3672571999486536]",95.19001620006748,95.39009740017354,6.1,95.39009740017354,1,6.1,1,1,1000,num_4,1.0513361000921577,,33,2,2026-03-12_17h15.54.424,2026A_exp2,2022.2.4,59.9362278145724,
1000,1,4.9,6.1,1,0,17,17,28,,,,,96.45781150017865,97.10868629999459,97.10868629999459,97.59303029999137,45,45,97.59303029999137,97.59303029999137,97.59303029999137,97.59303029999137,97.59303029999137,97.59303029999137,97.59303029999137,97.59303029999137,97.59303029999137,97.95940070017241,97.95940070017241,97.95940070017241,97.95940070017241,97.95940070017241,97.95940070017241,97.95940070017241,97.95940070017241,97.95940070017241,19,2,"[0.000717999879270792, 0.1503375000320375]","[0.033550099935382605, 0.1837607000488788]",97.95940070017241,98.16131000011228,1000,98.16131000011228,1000,1000,1000,1000,1,num_2,0.8087551000062376,,33,2,2026-03-12_17h15.54.424,2026A_exp2,2022.2.4,59.9362278145724,
1000,1,0.0,6.1,0,0,18,18,37,,,,,98.99365040007979,99.6443031001836,99.6443031001836,100.14547200012021,315,45,100.14547200012021,100.14547200012021,100.14547200012021,100.14547200012021,100.14547200012021,100.14547200012021,100.14547200012021,100.14547200012021,100.14547200012021,100.51202600006945,100.51202600006945,100.51202600006945,100.51202600006945,100.51202600006945,100.51202600006945,100.51202600006945,100.51202600006945,100.51202600006945,0,1,[0.001218999968841672],[0.36721360008232296],100.51202600006945,100.71253340016119,1000,100.71253340016119,1000,1000,1000,1000,1,num_2,0.6416142000816762,,33,2,2026-03-12_17h15.54.424,2026A_exp2,2022.2.4,59.9362278145724,
1000,1,0.0,0.0,0,0,19,19,74,,,,,101.37932320008986,102.03013800014742,102.03013800014742,102.53121730010025,315,315,102.53121730010025,102.53121730010025,102.53121730010025,102.53121730010025,102.53121730010025,102.53121730010025,102.53121730010025,102.53121730010025,102.53121730010025,102.89774610009044,102.89774610009044,102.89774610009044,102.89774610009044,102.89774610009044,102.89774610009044,102.89774610009044,102.89774610009044,102.89774610009044,0,1,[0.0012076999992132187],[0.3672462000977248],102.89774610009044,103.10031810007058,1000,103.10031810007058,1000,1000,1000,1000,1,num_2,0.7247888999991119,,33,2,2026-03-12_17h15.54.424,2026A_exp2,2022.2.4,59.9362278145724,
1000,1,0.0,6.1,1,0,20,20,88,,,,,103.84883540007286,104.49923690012656,104.49923690012656,104.98358140001073,315,315,104.98358140001073,104.98358140001073,104.98358140001073,104.98358140001073,104.98358140001073,104.98358140001073,104.98358140001073,104.98358140001073,104.98358140001073,105.35000720014796,105.35000720014796,105.35000720014796,105.35000720014796,105.35000720014796,105.35000720014796,105.35000720014796,105.35000720014796,105.35000720014796,0,1,[0.0016836000140756369],[0.36678899987600744],105.35000720014796,105.55198790016584,1000,105.55198790016584,1000,1000,1000,1000,1,num_2,0.6495802998542786,,33,2,2026-03-12_17h15.54.424,2026A_exp2,2022.2.4,59.9362278145724,
1,0,4.9,0.0,1,0,21,21,38,,,,,106.21749479998834,106.86836720001884,106.86836720001884,107.36918210005388,315,315,107.36918210005388,107.36918210005388,107.36918210005388,107.36918210005388,107.36918210005388,107.36918210005388,107.36918210005388,107.36918210005388,107.36918210005388,107.73554880009033,107.73554880009033,107.73554880009033,107.73554880009033,107.73554880009033,107.73554880009033,107.73554880009033,107.73554880009033,107.73554880009033,0,1,[0.0007982999086380005],[0.36762409983202815],107.73554880009033,107.93615920003504,0.0,107.93615920003504,0,0.0,0,1,1000,num_1,0.7291615998838097,,33,2,2026-03-12_17h15.54.424,2026A_exp2,2022.2.4,59.9362278145724,
1000,1,0.0,0.0,1,0,22,22,27,,,,,108.68660760018975,109.33740389999002,109.33740389999002,109.82192900008522,45,45,109.82192900008522,109.82192900008522,109.82192900008522,109.82192900008522,109.82192900008522,109.82192900008522,109.82192900008522,109.82192900008522,109.82192900008522,110.18834350001998,110.18834350001998,110.18834350001998,110.18834350001998,110.18834350001998,110.18834350001998,110.18834350001998,110.18834350001998,110.18834350001998,0,1,[0.0012775999493896961],[0.36703659989871085],110.18834350001998,110.39043610007502,1000,110.39043610007502,1000,1000,1000,1000,0,num_3,0.9144181997980922,,33,2,2026-03-12_17h15.54.424,2026A_exp2,2022.2.4,59.9362278145724,
1000,1,4.9,0.0,1,0,23,23,22,,,,,111.32273630006239,111.97379710013047,111.97379710013047,112.47452770010568,315,315,112.47452770010568,112.47452770010568,112.47452770010568,112.47452770010568,112.47452770010568,112.47452770010568,112.47452770010568,112.47452770010568,112.47452770010568,112.8409444000572,112.8409444000572,112.8409444000572,112.8409444000572,112.8409444000572,112.8409444000572,112.8409444000572,112.8409444000572,112.8409444000572,0,1,[0.0007162999827414751],[0.36774719995446503],112.8409444000572,113.04298160015605,1000,113.04298160015605,1000,1000,1000,1000,0,num_3,0.5506168999709189,,33,2,2026-03-12_17h15.54.424,2026A_exp2,2022.2.4,59.9362278145724,
1000,1,0.0,4.9,1,0,24,24,76,,,,,113.62515139998868,114.27570750005543,114.27570750005543,114.77690190006979,45,45,114.77690190006979,114.77690190006979,114.77690190006979,114.77690190006979,114.77690190006979,114.77690190006979,114.77690190006979,114.77690190006979,114.77690190006979,115.14333320013247,115.14333320013247,115.14333320013247,115.14333320013247,115.14333320013247,115.14333320013247,115.14333320013247,115.14333320013247,115.14333320013247,0,1,[0.0011996999382972717],[0.36730249994434416],115.14333320013247,115.34536650008522,1000,115.34536650008522,1000,1000,1000,1000,1,num_2,0.5196581000927836,,33,2,2026-03-12_17h15.54.424,2026A_exp2,2022.2.4,59.9362278145724,
1,0,4.9,0.0,1,0,25,25,8,,,,,115.89387170015834,116.54475100012496,116.54475100012496,117.04588130000047,315,45,117.04588130000047,117.04588130000047,117.04588130000047,117.04588130000047,117.04588130000047,117.04588130000047,117.04588130000047,117.04588130000047,117.04588130000047,117.41210800013505,117.41210800013505,117.41210800013505,117.41210800013505,117.41210800013505,117.41210800013505,117.41210800013505,117.41210800013505,117.41210800013505,0,1,[0.001216700067743659],[0.3673210998531431],117.41210800013505,117.61265920009464,0.0,117.61265920009464,0,0.0,0,1,1000,num_1,0.636640900047496,,33,2,2026-03-12_17h15.54.424,2026A_exp2,2022.2.4,59.9362278145724,
1,0,6.1,4.9,0,0,26,26,24,,,,,118.27984570013359,118.91376700019464,118.91376700019464,119.41488660010509,315,45,119.41488660010509,119.41488660010509,119.41488660010509,119.41488660010509,119.41488660010509,119.41488660010509,119.41488660010509,119.41488660010509,119.41488660010509,119.78130710008554,119.78130710008554,119.78130710008554,119.78130710008554,119.78130710008554,119.78130710008554,119.78130710008554,119.78130710008554,119.78130710008554,0,1,[0.0012515999842435122],[0.3671719999983907],119.78130710008554,119.98151830001734,6.1,119.98151830001734,1,6.1,1,1,1000,num_4,1.7956606999505311,,33,2,2026-03-12_17h15.54.424,2026A_exp2,2022.2.4,59.9362278145724,
1000,1,3.7,6.1,0,0,27,27,84,,,,,121.79982970003039,122.45071770017967,122.45071770017967,122.95159339997917,315,315,122.95159339997917,122.95159339997917,122.95159339997917,122.95159339997917,122.95159339997917,122.95159339997917,122.95159339997917,122.95159339997917,122.95159339997917,123.31815639999695,123.31815639999695,123.31815639999695,123.31815639999695,123.31815639999695,123.31815639999695,123.31815639999695,123.31815639999695,123.31815639999695,0,1,[0.0013300999999046326],[0.367308699991554],123.31815639999695,123.51992020010948,1000,123.51992020010948,1000,1000,1000,1000,1,num_2,0.6572929001413286,,33,2,2026-03-12_17h15.54.424,2026A_exp2,2022.2.4,59.9362278145724,
1,0,0.0,6.1,0,0,28,28,34,,,,,124.20221020001918,124.8529863001313,124.8529863001313,125.35416520014405,315,45,125.35416520014405,125.35416520014405,125.35416520014405,125.35416520014405,125.35416520014405,125.35416520014405,125.35416520014405,125.35416520014405,125.35416520014405,125.7205624000635,125.7205624000635,125.7205624000635,125.7205624000635,125.7205624000635,125.7205624000635,125.7205624000635,125.7205624000635,125.7205624000635,0,1,[0.0012395998928695917],[0.36733099981211126],125.7205624000635,125.9206479000859,0.0,125.9206479000859,0,0.0,0,1,1000,num_1,0.6736243001651019,,33,2,2026-03-12_17h15.54.424,2026A_exp2,2022.2.4,59.9362278145724,
1,0,3.7,0.0,1,0,29,29,50,,,,,126.62143200007267,127.25530960015021,127.25530960015021,127.75656970008276,315,315,127.75656970008276,127.75656970008276,127.75656970008276,127.75656970008276,127.75656970008276,127.75656970008276,127.75656970008276,127.75656970008276,127.75656970008276,128.12304130010307,128.12304130010307,128.12304130010307,128.12304130010307,128.12304130010307,128.12304130010307,128.12304130010307,128.12304130010307,128.12304130010307,0,1,[0.0011927001178264618],[0.36721440008841455],128.12304130010307,128.32312920014374,0.0,128.32312920014374,1,0.0,0,0,1000,num_4,0.9990249001421034,,33,2,2026-03-12_17h15.54.424,2026A_exp2,2022.2.4,59.9362278145724,
1000,1,4.9,0.0,1,0,30,30,72,,,,,129.34139519999735,129.99340570019558,129.99340570019558,130.49765380006284,45,45,130.49765380006284,130.49765380006284,130.49765380006284,130.49765380006284,130.49765380006284,130.49765380006284,130.49765380006284,130.49765380006284,130.49765380006284,130.8589872000739,130.8589872000739,130.8589872000739,130.8589872000739,130.8589872000739,130.8589872000739,130.8589872000739,130.8589872000739,130.8589872000739,0,1,[0.0025830999948084354],[0.3660804000683129],130.8589872000739,131.0610111001879,1000,131.0610111001879,1000,1000,1000,1000,0,num_3,0.5085328000131994,,33,2,2026-03-12_17h15.54.424,2026A_exp2,2022.2.4,59.9362278145724,
1,0,3.7,0.0,0,0,31,31,42,,,,,131.5928978000302,132.24374340008944,132.24374340008944,132.74490100005642,315,315,132.74490100005642,132.74490100005642,132.74490100005642,132.74490100005642,132.74490100005642,132.74490100005642,132.74490100005642,132.74490100005642,132.74490100005642,133.1111895001959,133.1111895001959,133.1111895001959,133.1111895001959,133.1111895001959,133.1111895001959,133.1111895001959,133.1111895001959,133.1111895001959,13,3,"[0.017366799991577864, 0.18311340012587607, 0.2665210000704974]","[0.03288580011576414, 0.216551500139758, 0.3668035001028329]",133.1111895001959,133.31149070011452,3.7,133.31149070011452,0,3.7,1,0,1000,num_1,1.5217903000302613,,33,2,2026-03-12_17h15.54.424,2026A_exp2,2022.2.4,59.9362278145724,
1000,1,4.9,3.7,0,0,32,32,32,,,,,134.86282270005904,135.51366810011677,135.51366810011677,135.9980182000436,315,315,135.9980182000436,135.9980182000436,135.9980182000436,135.9980182000436,135.9980182000436,135.9980182000436,135.9980182000436,135.9980182000436,135.9980182000436,136.3645556999836,136.3645556999836,136.3645556999836,136.3645556999836,136.3645556999836,136.3645556999836,136.3645556999836,136.3645556999836,136.3645556999836,0,1,[0.0012458001729100943],[0.3673727000132203],136.3645556999836,136.56650259997696,1000,136.56650259997696,1000,1000,1000,1000,0,num_3,0.5388170999940485,,33,2,2026-03-12_17h15.54.424,2026A_exp2,2022.2.4,59.9362278145724,
1000,1,0.0,0.0,0,0,33,33,64,,,,,137.1316539000254,137.76601870008744,137.76601870008744,138.2669169001747,45,45,138.2669169001747,138.2669169001747,138.2669169001747,138.2669169001747,138.2669169001747,138.2669169001747,138.2669169001747,138.2669169001747,138.2669169001747,138.63347920007072,138.63347920007072,138.63347920007072,138.63347920007072,138.63347920007072,138.63347920007072,138.63347920007072,138.63347920007072,138.63347920007072,0,1,[0.0012233001179993153],[0.36727380007505417],138.63347920007072,138.83516460005194,1000,138.83516460005194,1000,1000,1000,1000,1,num_2,0.7657769999932498,,33,2,2026-03-12_17h15.54.424,2026A_exp2,2022.2.4,59.9362278145724,
0,0,0.0,0.0,1,0,34,34,89,,,,,139.61768190003932,140.26857050019316,140.26857050019316,140.76943120011128,315,45,140.76943120011128,140.76943120011128,140.76943120011128,140.76943120011128,140.76943120011128,140.76943120011128,140.76943120011128,140.76943120011128,140.76943120011128,141.1359095000662,141.1359095000662,141.1359095000662,141.1359095000662,141.1359095000662,141.1359095000662,141.1359095000662,141.1359095000662,141.1359095000662,1,2,"[0.001208700006827712, 0.13367040012963116]","[0.11685530003160238, 0.36696260003373027]",141.1359095000662,141.33610000018962,0.0,141.33610000018962,0,0.0,0,1,1000,num_1,1.138016799930483,,33,2,2026-03-12_17h15.54.424,2026A_exp2,2022.2.4,59.9362278145724,
1000,1,0.0,0.0,1,0,35,35,12,,,,,142.5037860001903,143.15473760012537,143.15473760012537,143.63903870014474,45,45,143.63903870014474,143.63903870014474,143.63903870014474,143.63903870014474,143.63903870014474,143.63903870014474,143.63903870014474,143.63903870014474,143.63903870014474,144.00553660001606,144.00553660001606,144.00553660001606,144.00553660001606,144.00553660001606,144.00553660001606,144.00553660001606,144.00553660001606,144.00553660001606,23,0,,,144.00553660001606,144.20608939998783,1000,144.20608939998783,1000,1000,1000,1000,0,num_3,0.8190307000186294,,33,2,2026-03-12_17h15.54.424,2026A_exp2,2022.2.4,59.9362278145724,
1,0,3.7,0.0,1,0,36,36,19,,,,,145.0397513001226,145.69045380013995,145.69045380013995,146.19185300008394,315,315,146.19185300008394,146.19185300008394,146.19185300008394,146.19185300008394,146.19185300008394,146.19185300008394,146.19185300008394,146.19185300008394,146.19185300008394,146.5581255001016,146.5581255001016,146.5581255001016,146.5581255001016,146.5581255001016,146.5581255001016,146.5581255001016,146.5581255001016,146.5581255001016,0,1,[0.0019108999986201525],[0.36636519990861416],146.5581255001016,146.75818680017255,0.0,146.75818680017255,0,0.0,0,1,1000,num_1,0.7230178997851908,,33,2,2026-03-12_17h15.54.424,2026A_exp2,2022.2.4,59.9362278145724,
1,0,0.0,3.7,0,0,37,37,35,,,,,147.50885760015808,148.15948879998177,148.15948879998177,148.64387550018728,315,45,148.64387550018728,148.64387550018728,148.64387550018728,148.64387550018728,148.64387550018728,148.64387550018728,148.64387550018728,148.64387550018728,148.64387550018728,149.01050240010954,149.01050240010954,149.01050240010954,149.01050240010954,149.01050240010954,149.01050240010954,149.01050240010954,149.01050240010954,149.01050240010954,0,1,[0.0012342000845819712],[0.3670465999748558],149.01050240010954,149.21066310000606,0.0,149.21066310000606,0,0.0,0,1,1000,num_1,1.0068657000083476,,33,2,2026-03-12_17h15.54.424,2026A_exp2,2022.2.4,59.9362278145724,
1,0,3.7,0.0,0,0,38,38,3,,,,,150.2449174001813,150.8957504001446,150.8957504001446,151.3801800000947,45,315,151.3801800000947,151.3801800000947,151.3801800000947,151.3801800000947,151.3801800000947,151.3801800000947,151.3801800000947,151.3801800000947,151.3801800000947,151.7465768000111,151.7465768000111,151.7465768000111,151.7465768000111,151.7465768000111,151.7465768000111,151.7465768000111,151.7465768000111,151.7465768000111,21,2,"[0.05019810004159808, 0.08331390004605055]","[0.06694380007684231, 0.1000950001180172]",151.7465768000111,151.9507269000169,3.7,151.9507269000169,1,3.7,1,1,1000,num_4,0.8273595001082867,,33,2,2026-03-12_17h15.54.424,2026A_exp2,2022.2.4,59.9362278145724,
1000,1,0.0,0.0,0,0,39,39,18,,,,,152.79746300005354,153.4482711001765,153.4482711001765,153.94946390017867,45,315,153.94946390017867,153.94946390017867,153.94946390017867,153.94946390017867,153.94946390017867,153.94946390017867,153.94946390017867,153.94946390017867,153.94946390017867,154.29905080003664,154.29905080003664,154.29905080003664,154.29905080003664,154.29905080003664,154.29905080003664,154.29905080003664,154.29905080003664,154.29905080003664,22,0,,,154.29905080003664,154.5009860000573,1000,154.5009860000573,1000,1000,1000,1000,1,num_2,2.0610975997988135,,33,2,2026-03-12_17h15.54.424,2026A_exp2,2022.2.4,59.9362278145724,
1000,1,0.0,0.0,0,0,40,40,81,,,,,156.584596300032,157.2353803999722,157.2353803999722,157.73627110011876,315,315,157.73627110011876,157.73627110011876,157.73627110011876,157.73627110011876,157.73627110011876,157.73627110011876,157.73627110011876,157.73627110011876,157.73627110011876,158.1026135000866,158.1026135000866,158.1026135000866,158.1026135000866,158.1026135000866,158.1026135000866,158.1026135000866,158.1026135000866,158.1026135000866,1,2,"[0.0012683998793363571, 0.3187910998240113]","[0.30204280000180006, 0.3669610000215471]",158.1026135000866,158.30487480014563,1000,158.30487480014563,1000,1000,1000,1000,1,num_2,0.8323426998686045,,33,2,2026-03-12_17h15.54.424,2026A_exp2,2022.2.4,59.9362278145724,
1000,1,0.0,0.0,0,0,41,41,85,,,,,159.1538043001201,159.8043698000256,159.8043698000256,160.30570320016704,45,45,160.30570320016704,160.30570320016704,160.30570320016704,160.30570320016704,160.30570320016704,160.30570320016704,160.30570320016704,160.30570320016704,160.30570320016704,160.67225770000368,160.67225770000368,160.67225770000368,160.67225770000368,160.67225770000368,160.67225770000368,160.67225770000368,160.67225770000368,160.67225770000368,0,1,[0.0012639001943171024],[0.3670012999791652],160.67225770000368,160.87410270003602,1000,160.87410270003602,1000,1000,1000,1000,1,num_2,1.8714929998386651,,33,2,2026-03-12_17h15.54.424,2026A_exp2,2022.2.4,59.9362278145724,
1000,1,6.1,0.0,0,0,42,42,14,,,,,162.7741915001534,163.42490490013734,163.42490490013734,163.9258431000635,45,315,163.9258431000635,163.9258431000635,163.9258431000635,163.9258431000635,163.9258431000635,163.9258431000635,163.9258431000635,163.9258431000635,163.9258431000635,164.29241130012088,164.29241130012088,164.29241130012088,164.29241130012088,164.29241130012088,164.29241130012088,164.29241130012088,164.29241130012088,164.29241130012088,8,2,"[0.10014449991285801, 0.16693819989450276]","[0.13358219992369413, 0.36697339988313615]",164.29241130012088,164.49402750004083,1000,164.49402750004083,1000,1000,1000,1000,0,num_3,0.5550217998679727,,33,2,2026-03-12_17h15.54.424,2026A_exp2,2022.2.4,59.9362278145724,
1000,1,0.0,0.0,0,0,43,43,86,,,,,165.07640510005876,165.72720480011776,165.72720480011776,166.22818610002287,315,45,166.22818610002287,166.22818610002287,166.22818610002287,166.22818610002287,166.22818610002287,166.22818610002287,166.22818610002287,166.22818610002287,166.22818610002287,166.5946292001754,166.5946292001754,166.5946292001754,166.5946292001754,166.5946292001754,166.5946292001754,166.5946292001754,166.5946292001754,166.5946292001754,0,1,[0.0012342999689280987],[0.36713010002858937],166.5946292001754,166.79496750002727,1000,166.79496750002727,1000,1000,1000,1000,1,num_2,0.7101121000014246,,33,2,2026-03-12_17h15.54.424,2026A_exp2,2022.2.4,59.9362278145724,
0,0,0.0,6.1,0,0,44,44,7,,,,,167.52887869998813,168.1793745001778,168.1793745001778,168.66395780001767,45,45,168.66395780001767,168.66395780001767,168.66395780001767,168.66395780001767,168.66395780001767,168.66395780001767,168.66395780001767,168.66395780001767,168.66395780001767,169.03052760008723,169.03052760008723,169.03052760008723,169.03052760008723,169.03052760008723,169.03052760008723,169.03052760008723,169.03052760008723,169.03052760008723,0,1,[0.0012160001788288355],[0.3673001001589],169.03052760008723,169.23056700010784,6.1,169.23056700010784,1,6.1,1,1,1000,num_4,0.8189543001353741,,33,2,2026-03-12_17h15.54.424,2026A_exp2,2022.2.4,59.9362278145724,
1,0,0.0,4.9,1,0,45,45,21,,,,,170.08162469998933,170.73216420016252,170.73216420016252,171.21649180003442,45,315,171.21649180003442,171.21649180003442,171.21649180003442,171.21649180003442,171.21649180003442,171.21649180003442,171.21649180003442,171.21649180003442,171.21649180003442,171.58310260018334,171.58310260018334,171.58310260018334,171.58310260018334,171.58310260018334,171.58310260018334,171.58310260018334,171.58310260018334,171.58310260018334,0,1,[0.001210999907925725],[0.3671742998994887],171.58310260018334,171.78326559998095,4.9,171.78326559998095,1,4.9,1,1,1000,num_4,0.6178957999218255,,33,2,2026-03-12_17h15.54.424,2026A_exp2,2022.2.4,59.9362278145724,
1,0,0.0,3.7,0,0,46,46,61,,,,,172.41712260013446,173.06778490007855,173.06778490007855,173.55224690004252,315,45,173.55224690004252,173.55224690004252,173.55224690004252,173.55224690004252,173.55224690004252,173.55224690004252,173.55224690004252,173.55224690004252,173.55224690004252,173.9187336000614,173.9187336000614,173.9187336000614,173.9187336000614,173.9187336000614,173.9187336000614,173.9187336000614,173.9187336000614,173.9187336000614,0,1,[0.0012152998242527246],[0.3673164998181164],173.9187336000614,174.11878090002574,0.0,174.11878090002574,0,0.0,0,1,1000,num_1,1.066350500099361,,33,2,2026-03-12_17h15.54.424,2026A_exp2,2022.2.4,59.9362278145724,
1,0,0.0,0.0,0,0,47,47,1,,,,,175.20316550019197,175.8372816001065,175.8372816001065,176.33853190019727,45,315,176.33853190019727,176.33853190019727,176.33853190019727,176.33853190019727,176.33853190019727,176.33853190019727,176.33853190019727,176.33853190019727,176.33853190019727,176.70487680006772,176.70487680006772,176.70487680006772,176.70487680006772,176.70487680006772,176.70487680006772,176.70487680006772,176.70487680006772,176.70487680006772,6,1,[0.1002188001293689],[0.3671592001337558],176.70487680006772,176.90491000004113,0.0,176.90491000004113,0,0.0,0,1,1000,num_1,1.0411805999465287,,33,2,2026-03-12_17h15.54.424,2026A_exp2,2022.2.4,59.9362278145724,
1000,1,0.0,0.0,1,0,48,48,33,,,,,177.97260099998675,178.6234562001191,178.6234562001191,179.11286560003646,315,315,179.11286560003646,179.11286560003646,179.11286560003646,179.11286560003646,179.11286560003646,179.11286560003646,179.11286560003646,179.11286560003646,179.11286560003646,179.47435420006514,179.47435420006514,179.47435420006514,179.47435420006514,179.47435420006514,179.47435420006514,179.47435420006514,179.47435420006514,179.47435420006514,0,1,[0.002473199972882867],[0.36567379999905825],179.47435420006514,179.67628889996558,1000,179.67628889996558,1000,1000,1000,1000,1,num_2,1.3010654000099748,,33,2,2026-03-12_17h15.54.424,2026A_exp2,2022.2.4,59.9362278145724,
1000,1,0.0,3.7,1,0,49,49,47,,,,,180.99237500014715,181.64311449998058,181.64311449998058,182.144225000171,315,45,182.144225000171,182.144225000171,182.144225000171,182.144225000171,182.144225000171,182.144225000171,182.144225000171,182.144225000171,182.144225000171,182.51046460005455,182.51046460005455,182.51046460005455,182.51046460005455,182.51046460005455,182.51046460005455,182.51046460005455,182.51046460005455,182.51046460005455,1,1,[0.017490899888798594],[0.3672666000202298],182.51046460005455,182.71277590002865,1000,182.71277590002865,1000,1000,1000,1000,1,num_2,0.6082502999342978,,33,2,2026-03-12_17h15.54.424,2026A_exp2,2022.2.4,59.9362278145724,
1,0,6.1,0.0,0,0,50,50,56,,,,,183.34479930019006,183.99549420014955,183.99549420014955,184.496536700055,45,45,184.496536700055,184.496536700055,184.496536700055,184.496536700055,184.496536700055,184.496536700055,184.496536700055,184.496536700055,184.496536700055,184.86281550000422,184.86281550000422,184.86281550000422,184.86281550000422,184.86281550000422,184.86281550000422,184.86281550000422,184.86281550000422,184.86281550000422,0,1,[0.0012666000984609127],[0.3669881001114845],184.86281550000422,185.06322870007716,6.1,185.06322870007716,1,6.1,1,1,1000,num_4,0.6270864000543952,,33,2,2026-03-12_17h15.54.424,2026A_exp2,2022.2.4,59.9362278145724,
1000,1,0.0,4.9,1,0,51,51,31,,,,,185.7138761000242,186.36448510014452,186.36448510014452,186.84889780008234,315,45,186.84889780008234,186.84889780008234,186.84889780008234,186.84889780008234,186.84889780008234,186.84889780008234,186.84889780008234,186.84889780008234,186.84889780008234,187.21530180005357,187.21530180005357,187.21530180005357,187.21530180005357,187.21530180005357,187.21530180005357,187.21530180005357,187.21530180005357,187.21530180005357,0,1,[0.001202800078317523],[0.3671594001352787],187.21530180005357,187.41736970003694,1000,187.41736970003694,1000,1000,1000,1000,1,num_2,0.7596549999434501,,33,2,2026-03-12_17h15.54.424,2026A_exp2,2022.2.4,59.9362278145724,
1,0,0.0,6.1,0,0,52,52,11,,,,,188.1996625000611,188.85009790002368,188.85009790002368,189.3512689000927,315,45,189.3512689000927,189.3512689000927,189.3512689000927,189.3512689000927,189.3512689000927,189.3512689000927,189.3512689000927,189.3512689000927,189.3512689000927,189.70114280004054,189.70114280004054,189.70114280004054,189.70114280004054,189.70114280004054,189.70114280004054,189.70114280004054,189.70114280004054,189.70114280004054,0,1,[0.0007700000423938036],[0.35120079992339015],189.70114280004054,189.90125620015897,0.0,189.90125620015897,0,0.0,0,1,1000,num_1,0.6037827997934073,,33,2,2026-03-12_17h15.54.424,2026A_exp2,2022.2.4,59.9362278145724,
1000,1,0.0,0.0,1,0,53,53,67,,,,,190.53518880018964,191.1860178001225,191.1860178001225,191.68709610006772,315,315,191.68709610006772,191.68709610006772,191.68709610006772,191.68709610006772,191.68709610006772,191.68709610006772,191.68709610006772,191.68709610006772,191.68709610006772,192.03688060003333,192.03688060003333,192.03688060003333,192.03688060003333,192.03688060003333,192.03688060003333,192.03688060003333,192.03688060003333,192.03688060003333,0,1,[0.0011545000597834587],[0.3507380001246929],192.03688060003333,192.23869510018267,1000,192.23869510018267,1000,1000,1000,1000,1,num_2,0.7306809998117387,,33,2,2026-03-12_17h15.54.424,2026A_exp2,2022.2.4,59.9362278145724,
1000,1,0.0,0.0,0,0,54,54,17,,,,,192.98772800015286,193.6385286001023,193.6385286001023,194.13945540017448,315,45,194.13945540017448,194.13945540017448,194.13945540017448,194.13945540017448,194.13945540017448,194.13945540017448,194.13945540017448,194.13945540017448,194.13945540017448,194.50599720003083,194.50599720003083,194.50599720003083,194.50599720003083,194.50599720003083,194.50599720003083,194.50599720003083,194.50599720003083,194.50599720003083,0,1,[0.0015974999405443668],[0.36685850005596876],194.50599720003083,194.70826650015078,1000,194.70826650015078,1000,1000,1000,1000,1,num_2,0.6377192998770624,,33,2,2026-03-12_17h15.54.424,2026A_exp2,2022.2.4,59.9362278145724,
0,0,6.1,3.7,1,0,55,55,49,,,,,195.3734430000186,196.02424060017802,196.02424060017802,196.5254734000191,315,45,196.5254734000191,196.5254734000191,196.5254734000191,196.5254734000191,196.5254734000191,196.5254734000191,196.5254734000191,196.5254734000191,196.5254734000191,196.87495570001192,196.87495570001192,196.87495570001192,196.87495570001192,196.87495570001192,196.87495570001192,196.87495570001192,196.87495570001192,196.87495570001192,0,1,[0.0011962999124079943],[0.3506229999475181],196.87495570001192,197.07496180012822,6.1,197.09172130003572,1,6.1,1,1,1000,num_4,0.629389800131321,,33,2,2026-03-12_17h15.54.424,2026A_exp2,2022.2.4,59.9362278145724,
1000,1,3.7,0.0,0,0,56,56,2,,,,,197.74268290004693,198.37938300007954,198.37938300007954,198.87750900001265,315,45,198.87750900001265,198.87750900001265,198.87750900001265,198.87750900001265,198.87750900001265,198.87750900001265,198.87750900001265,198.87750900001265,198.87750900001265,199.2439947000239,199.2439947000239,199.2439947000239,199.2439947000239,199.2439947000239,199.2439947000239,199.2439947000239,199.2439947000239,199.2439947000239,0,1,[0.0011885999701917171],[0.36685219989158213],199.2439947000239,199.44429330015555,1000,199.44429330015555,1000,1000,1000,1000,0,num_3,0.5806708999443799,,33,2,2026-03-12_17h15.54.424,2026A_exp2,2022.2.4,59.9362278145724,
1000,1,3.7,6.1,0,0,57,57,0,,,,,200.04472800018266,200.69546900014393,200.69546900014393,201.19656130019575,315,45,201.19656130019575,201.19656130019575,201.19656130019575,201.19656130019575,201.19656130019575,201.19656130019575,201.19656130019575,201.19656130019575,201.19656130019575,201.56304970011115,201.56304970011115,201.56304970011115,201.56304970011115,201.56304970011115,201.56304970011115,201.56304970011115,201.56304970011115,201.56304970011115,0,1,[0.0012038000859320164],[0.36870120000094175],201.56304970011115,201.76826450019144,1000,201.76826450019144,1000,1000,1000,1000,1,num_2,0.49703710014000535,,33,2,2026-03-12_17h15.54.424,2026A_exp2,2022.2.4,59.9362278145724,
1000,1,6.1,6.1,1,0,58,58,77,,,,,202.28029550006613,202.9310549001675,202.9310549001675,203.43210049998015,315,315,203.43210049998015,203.43210049998015,203.43210049998015,203.43210049998015,203.43210049998015,203.43210049998015,203.43210049998015,203.43210049998015,203.43210049998015,203.79862160002813,203.79862160002813,203.79862160002813,203.79862160002813,203.79862160002813,203.79862160002813,203.79862160002813,203.79862160002813,203.79862160002813,3,1,[0.05024440004490316],[0.36755029996857047],203.79862160002813,204.00052200001664,1000,204.00052200001664,1000,1000,1000,1000,1,num_2,0.9284264999441803,,33,2,2026-03-12_17h15.54.424,2026A_exp2,2022.2.4,59.9362278145724,
1,0,0.0,0.0,0,0,59,59,29,,,,,204.94962480012327,205.60042330017313,205.60042330017313,206.1015243001748,45,315,206.1015243001748,206.1015243001748,206.1015243001748,206.1015243001748,206.1015243001748,206.1015243001748,206.1015243001748,206.1015243001748,206.1015243001748,206.4679281001445,206.4679281001445,206.4679281001445,206.4679281001445,206.4679281001445,206.4679281001445,206.4679281001445,206.4679281001445,206.4679281001445,0,1,[0.0012098001316189766],[0.3671791001688689],206.4679281001445,206.66809030016884,0.0,206.66809030016884,0,0.0,0,1,1000,num_1,0.8052393000107259,,33,2,2026-03-12_17h15.54.424,2026A_exp2,2022.2.4,59.9362278145724,
1000,1,0.0,3.7,0,0,60,60,78,,,,,207.50243530003354,208.15296720014885,208.15296720014885,208.65413639997132,45,45,208.65413639997132,208.65413639997132,208.65413639997132,208.65413639997132,208.65413639997132,208.65413639997132,208.65413639997132,208.65413639997132,208.65413639997132,209.02054280019365,209.02054280019365,209.02054280019365,209.02054280019365,209.02054280019365,209.02054280019365,209.02054280019365,209.02054280019365,209.02054280019365,0,1,[0.0012378999963402748],[0.367074100067839],209.02054280019365,209.22079000016674,1000,209.22079000016674,1000,1000,1000,1000,1,num_2,0.693029599962756,,33,2,2026-03-12_17h15.54.424,2026A_exp2,2022.2.4,59.9362278145724,
1,0,0.0,0.0,0,0,61,61,63,,,,,209.93797200010158,210.58861050009727,210.58861050009727,211.08989410009235,315,315,211.08989410009235,211.08989410009235,211.08989410009235,211.08989410009235,211.08989410009235,211.08989410009235,211.08989410009235,211.08989410009235,211.08989410009235,211.45630590012297,211.45630590012297,211.45630590012297,211.45630590012297,211.45630590012297,211.45630590012297,211.45630590012297,211.45630590012297,211.45630590012297,0,1,[0.001199499936774373],[0.36687109991908073],211.45630590012297,211.65645999996923,0.0,211.65645999996923,0,0.0,0,1,1000,num_1,1.025661800056696,,33,2,2026-03-12_17h15.54.424,2026A_exp2,2022.2.4,59.9362278145724,
1000,1,3.7,4.9,1,0,62,62,44,,,,,212.70729469996877,213.35816440009512,213.35816440009512,213.85893029998988,315,45,213.85893029998988,213.85893029998988,213.85893029998988,213.85893029998988,213.85893029998988,213.85893029998988,213.85893029998988,213.85893029998988,213.85893029998988,214.2257268000394,214.2257268000394,214.2257268000394,214.2257268000394,214.2257268000394,214.2257268000394,214.2257268000394,214.2257268000394,214.2257268000394,0,1,[0.0007611000910401344],[0.3679615999571979],214.2257268000394,214.42788670002483,1000,214.42788670002483,1000,1000,1000,1000,1,num_2,0.6780425000470132,,33,2,2026-03-12_17h15.54.424,2026A_exp2,2022.2.4,59.9362278145724,
1,0,0.0,3.7,1,0,63,63,66,,,,,215.12651610001922,215.77713460009545,215.77713460009545,216.2784002001863,315,315,216.2784002001863,216.2784002001863,216.2784002001863,216.2784002001863,216.2784002001863,216.2784002001863,216.2784002001863,216.2784002001863,216.2784002001863,216.6446966000367,216.6446966000367,216.6446966000367,216.6446966000367,216.6446966000367,216.6446966000367,216.6446966000367,216.6446966000367,216.6446966000367,0,1,[0.001266400096938014],[0.3671955999452621],216.6446966000367,216.84484400018118,3.7,216.84484400018118,1,3.7,1,1,1000,num_4,0.7881467000115663,,33,2,2026-03-12_17h15.54.424,2026A_exp2,2022.2.4,59.9362278145724,
1000,1,0.0,0.0,0,0,64,64,83,,,,,217.66229610005394,218.30674530006945,218.30674530006945,218.7975663000252,315,315,218.7975663000252,218.7975663000252,218.7975663000252,218.7975663000252,218.7975663000252,218.7975663000252,218.7975663000252,218.7975663000252,218.7975663000252,219.16402820008807,219.16402820008807,219.16402820008807,219.16402820008807,219.16402820008807,219.16402820008807,219.16402820008807,219.16402820008807,219.16402820008807,0,1,[0.001083899987861514],[0.36730060004629195],219.16402820008807,219.3658955001738,1000,219.3658955001738,1000,1000,1000,1000,1,num_2,0.563225399935618,,33,2,2026-03-12_17h15.54.424,2026A_exp2,2022.2.4,59.9362278145724,
1000,1,0.0,0.0,1,0,65,65,23,,,,,219.94788730004802,220.59877869999036,220.59877869999036,221.09988200012594,315,315,221.09988200012594,221.09988200012594,221.09988200012594,221.09988200012594,221.09988200012594,221.09988200012594,221.09988200012594,221.09988200012594,221.09988200012594,221.46621820004657,221.46621820004657,221.46621820004657,221.46621820004657,221.46621820004657,221.46621820004657,221.46621820004657,221.46621820004657,221.46621820004657,0,1,[0.0012330000754445791],[0.3670998001471162],221.46621820004657,221.66837660013698,1000,221.66837660013698,1000,1000,1000,1000,0,num_3,0.7734044999815524,,33,2,2026-03-12_17h15.54.424,2026A_exp2,2022.2.4,59.9362278145724,
1000,1,6.1,0.0,1,0,66,66,16,,,,,222.46713630016893,223.11796000017785,223.11796000017785,223.61904580006376,315,315,223.61904580006376,223.61904580006376,223.61904580006376,223.61904580006376,223.61904580006376,223.61904580006376,223.61904580006376,223.61904580006376,223.61904580006376,223.9856298000086,223.9856298000086,223.9856298000086,223.9856298000086,223.9856298000086,223.9856298000086,223.9856298000086,223.9856298000086,223.9856298000086,0,1,[0.0011861000675708055],[0.3672462999820709],223.9856298000086,224.1877660001628,1000,224.1877660001628,1000,1000,1000,1000,0,num_3,0.4459584001451731,,33,2,2026-03-12_17h15.54.424,2026A_exp2,2022.2.4,59.9362278145724,
1000,1,6.1,0.0,1,0,67,67,69,,,,,224.65270490013063,225.30345610016957,225.30345610016957,225.80456240009516,315,45,225.80456240009516,225.80456240009516,225.80456240009516,225.80456240009516,225.80456240009516,225.80456240009516,225.80456240009516,225.80456240009516,225.80456240009516,226.17107500019483,226.17107500019483,226.17107500019483,226.17107500019483,226.17107500019483,226.17107500019483,226.17107500019483,226.17107500019483,226.17107500019483,0,1,[0.0011851999443024397],[0.3670941998716444],226.17107500019483,226.37325730011798,1000,226.37325730011798,1000,1000,1000,1000,0,num_3,0.42056800005957484,,33,2,2026-03-12_17h15.54.424,2026A_exp2,2022.2.4,59.9362278145724,
1000,1,0.0,0.0,0,0,68,68,80,,,,,226.82154910010286,227.4720682001207,227.4720682001207,227.9733999001328,315,45,227.9733999001328,227.9733999001328,227.9733999001328,227.9733999001328,227.9733999001328,227.9733999001328,227.9733999001328,227.9733999001328,227.9733999001328,228.32305750017986,228.32305750017986,228.32305750017986,228.32305750017986,228.32305750017986,228.32305750017986,228.32305750017986,228.32305750017986,228.32305750017986,0,1,[0.0012141000479459763],[0.3506201000418514],228.32305750017986,228.5481087001972,1000,228.5481087001972,1000,1000,1000,1000,1,num_2,0.6369358999654651,,33,2,2026-03-12_17h15.54.424,2026A_exp2,2022.2.4,59.9362278145724,
1000,1,0.0,0.0,0,0,69,69,15,,,,,229.20715919998474,229.8581479000859,229.8581479000859,230.35914030019194,45,315,230.35914030019194,230.35914030019194,230.35914030019194,230.35914030019194,230.35914030019194,230.35914030019194,230.35914030019194,230.35914030019194,230.35914030019194,230.7255508999806,230.7255508999806,230.7255508999806,230.7255508999806,230.7255508999806,230.7255508999806,230.7255508999806,230.7255508999806,230.7255508999806,0,1,[0.0012507999781519175],[0.36713330005295575],230.7255508999806,230.92746879998595,1000,230.92746879998595,1000,1000,1000,1000,0,num_3,0.5548423998989165,,33,2,2026-03-12_17h15.54.424,2026A_exp2,2022.2.4,59.9362278145724,
1000,1,4.9,6.1,0,0,70,70,20,,,,,231.50969019997865,232.16027280013077,232.16027280013077,232.64443590003066,315,315,232.64443590003066,232.64443590003066,232.64443590003066,232.64443590003066,232.64443590003066,232.64443590003066,232.64443590003066,232.64443590003066,232.64443590003066,233.01113940007053,233.01113940007053,233.01113940007053,233.01113940007053,233.01113940007053,233.01113940007053,233.01113940007053,233.01113940007053,233.01113940007053,0,1,[0.0011940000113099813],[0.36759930010885],233.01113940007053,233.21303850016557,1000,233.21303850016557,1000,1000,1000,1000,1,num_2,0.6205301000736654,,33,2,2026-03-12_17h15.54.424,2026A_exp2,2022.2.4,59.9362278145724,
1,0,0.0,0.0,1,0,71,71,6,,,,,233.86193050001748,234.5125335000921,234.5125335000921,234.997119900072,45,315,234.997119900072,234.997119900072,234.997119900072,234.997119900072,234.997119900072,234.997119900072,234.997119900072,234.997119900072,234.997119900072,235.36345910001546,235.36345910001546,235.36345910001546,235.36345910001546,235.36345910001546,235.36345910001546,235.36345910001546,235.36345910001546,235.36345910001546,20,3,"[0.25041359988972545, 0.28389299986884, 0.3172432999126613]","[0.26697329990565777, 0.3005368998274207, 0.33380289981141686]",235.36345910001546,235.56362090003677,0.0,235.56362090003677,0,0.0,0,1,1000,num_1,1.542234699940309,,33,2,2026-03-12_17h15.54.424,2026A_exp2,2022.2.4,59.9362278145724,
1000,1,4.9,0.0,1,0,72,72,5,,,,,237.13176580006257,237.78264840017073,237.78264840017073,238.26696480019018,45,45,238.26696480019018,238.26696480019018,238.26696480019018,238.26696480019018,238.26696480019018,238.26696480019018,238.26696480019018,238.26696480019018,238.26696480019018,238.6333530000411,238.6333530000411,238.6333530000411,238.6333530000411,238.6333530000411,238.6333530000411,238.6333530000411,238.6333530000411,238.6333530000411,3,1,[0.0013134998735040426],[0.3334329999051988],238.6333530000411,238.83371240017004,1000,238.83371240017004,1000,1000,1000,1000,0,num_3,0.559808999998495,,33,2,2026-03-12_17h15.54.424,2026A_exp2,2022.2.4,59.9362278145724,
1,0,0.0,0.0,1,0,73,73,73,,,,,239.41738170012832,240.068228200078,240.068228200078,240.56919960002415,315,45,240.56919960002415,240.56919960002415,240.56919960002415,240.56919960002415,240.56919960002415,240.56919960002415,240.56919960002415,240.56919960002415,240.56919960002415,240.93571029999293,240.93571029999293,240.93571029999293,240.93571029999293,240.93571029999293,240.93571029999293,240.93571029999293,240.93571029999293,240.93571029999293,0,1,[0.0011879999656230211],[0.36719979997724295],240.93571029999293,241.13603250007145,0.0,241.13603250007145,0,0.0,0,1,1000,num_1,0.9930084000807256,,33,2,2026-03-12_17h15.54.424,2026A_exp2,2022.2.4,59.9362278145724,
1000,1,3.7,0.0,1,0,74,74,48,,,,,242.15345560014248,242.80404550000094,242.80404550000094,243.28854940016754,45,45,243.28854940016754,243.28854940016754,243.28854940016754,243.28854940016754,243.28854940016754,243.28854940016754,243.28854940016754,243.28854940016754,243.28854940016754,243.6551248000469,243.6551248000469,243.6551248000469,243.6551248000469,243.6551248000469,243.6551248000469,243.6551248000469,243.6551248000469,243.6551248000469,0,1,[0.0012024000752717257],[0.366981300059706],243.6551248000469,243.85731200012378,1000,243.85731200012378,1000,1000,1000,1000,0,num_3,0.5436979001387954,,33,2,2026-03-12_17h15.54.424,2026A_exp2,2022.2.4,59.9362278145724,
0,0,4.9,0.0,1,0,75,75,25,,,,,244.42245980002917,245.07327280007303,245.07327280007303,245.57435810007155,315,45,245.57435810007155,245.57435810007155,245.57435810007155,245.57435810007155,245.57435810007155,245.57435810007155,245.57435810007155,245.57435810007155,245.57435810007155,245.92396800010465,245.92396800010465,245.92396800010465,245.92396800010465,245.92396800010465,245.92396800010465,245.92396800010465,245.92396800010465,245.92396800010465,0,1,[0.0011309001129120588],[0.3504524000454694],245.92396800010465,246.12421960011125,4.9,246.12421960011125,1,4.9,1,1,1000,num_4,0.6459687000606209,,33,2,2026-03-12_17h15.54.424,2026A_exp2,2022.2.4,59.9362278145724,
1,0,3.7,0.0,0,0,76,76,65,,,,,246.79141960013658,247.42552600009367,247.42552600009367,247.9267072000075,45,315,247.9267072000075,247.9267072000075,247.9267072000075,247.9267072000075,247.9267072000075,247.9267072000075,247.9267072000075,247.9267072000075,247.9267072000075,248.29316110000946,248.29316110000946,248.29316110000946,248.29316110000946,248.29316110000946,248.29316110000946,248.29316110000946,248.29316110000946,248.29316110000946,0,1,[0.0012014999520033598],[0.36715870001353323],248.29316110000946,248.49316569999792,3.7,248.49316569999792,1,3.7,1,1,1000,num_4,0.7161641998682171,,33,2,2026-03-12_17h15.54.424,2026A_exp2,2022.2.4,59.9362278145724,
1,0,3.7,6.1,0,0,77,77,55,,,,,249.22717120009474,249.87804720015265,249.87804720015265,250.36245280015282,45,315,250.36245280015282,250.36245280015282,250.36245280015282,250.36245280015282,250.36245280015282,250.36245280015282,250.36245280015282,250.36245280015282,250.36245280015282,250.72881670016795,250.72881670016795,250.72881670016795,250.72881670016795,250.72881670016795,250.72881670016795,250.72881670016795,250.72881670016795,250.72881670016795,0,1,[0.0012012999504804611],[0.3671909999102354],250.72881670016795,250.92897050012834,3.7,250.92897050012834,0,3.7,1,0,1000,num_1,0.9611154000740498,,33,2,2026-03-12_17h15.54.424,2026A_exp2,2022.2.4,59.9362278145724,
1,0,0.0,4.9,1,0,78,78,53,,,,,251.91326500009745,252.56404369999655,252.56404369999655,253.04826040007174,315,315,253.04826040007174,253.04826040007174,253.04826040007174,253.04826040007174,253.04826040007174,253.04826040007174,253.04826040007174,253.04826040007174,253.04826040007174,253.41488460008986,253.41488460008986,253.41488460008986,253.41488460008986,253.41488460008986,253.41488460008986,253.41488460008986,253.41488460008986,253.41488460008986,11,5,"[0.0012043998576700687, 0.06687329988926649, 0.1836971000302583, 0.317094000056386, 0.35046670003794134]","[0.03348540002480149, 0.0837034999858588, 0.30051860003732145, 0.33377839997410774, 0.36721950001083314]",253.41488460008986,253.61501440010034,4.9,253.61501440010034,1,4.9,1,1,1000,num_4,1.3071327998768538,,33,2,2026-03-12_17h15.54.424,2026A_exp2,2022.2.4,59.9362278145724,
1000,1,3.7,0.0,0,0,79,79,57,,,,,254.94958740007132,255.60026250011288,255.60026250011288,256.10108499997295,45,315,256.10108499997295,256.10108499997295,256.10108499997295,256.10108499997295,256.10108499997295,256.10108499997295,256.10108499997295,256.10108499997295,256.10108499997295,256.4512742999941,256.4512742999941,256.4512742999941,256.4512742999941,256.4512742999941,256.4512742999941,256.4512742999941,256.4512742999941,256.4512742999941,0,1,[0.004297700012102723],[0.3641607000026852],256.4512742999941,256.65358400018886,1000,256.65358400018886,1000,1000,1000,1000,0,num_3,0.603883899981156,,33,2,2026-03-12_17h15.54.424,2026A_exp2,2022.2.4,59.9362278145724,
1000,1,6.1,0.0,1,0,80,80,30,,,,,257.285217900062,257.92992749996483,257.92992749996483,258.4204059999902,45,45,258.4204059999902,258.4204059999902,258.4204059999902,258.4204059999902,258.4204059999902,258.4204059999902,258.4204059999902,258.4204059999902,258.4204059999902,258.7868678001687,258.7868678001687,258.7868678001687,258.7868678001687,258.7868678001687,258.7868678001687,258.7868678001687,258.7868678001687,258.7868678001687,0,1,[0.0016024000942707062],[0.3668370000086725],258.7868678001687,258.9875150001608,1000,258.9875150001608,1000,1000,1000,1000,0,num_3,0.4545479998923838,,33,2,2026-03-12_17h15.54.424,2026A_exp2,2022.2.4,59.9362278145724,
1000,1,3.7,0.0,0,0,81,81,45,,,,,259.4710509001743,260.1215719000902,260.1215719000902,260.6060599000193,45,45,260.6060599000193,260.6060599000193,260.6060599000193,260.6060599000193,260.6060599000193,260.6060599000193,260.6060599000193,260.6060599000193,260.6060599000193,260.97246500011533,260.97246500011533,260.97246500011533,260.97246500011533,260.97246500011533,260.97246500011533,260.97246500011533,260.97246500011533,260.97246500011533,0,1,[0.0011148001067340374],[0.3671417001169175],260.97246500011533,261.17433000006713,1000,261.17433000006713,1000,1000,1000,1000,0,num_3,0.45094819995574653,,33,2,2026-03-12_17h15.54.424,2026A_exp2,2022.2.4,59.9362278145724,
1,0,4.9,0.0,0,0,82,82,58,,,,,261.6565039001871,262.3070469000377,262.3070469000377,262.80813290015794,45,315,262.80813290015794,262.80813290015794,262.80813290015794,262.80813290015794,262.80813290015794,262.80813290015794,262.80813290015794,262.80813290015794,262.80813290015794,263.15786770009436,263.15786770009436,263.15786770009436,263.15786770009436,263.15786770009436,263.15786770009436,263.15786770009436,263.15786770009436,263.15786770009436,0,1,[0.0012032000813633204],[0.35032099997624755],263.15786770009436,263.3581446001772,4.9,263.3581446001772,1,4.9,1,1,1000,num_4,0.6826931000687182,,33,2,2026-03-12_17h15.54.424,2026A_exp2,2022.2.4,59.9362278145724,
1000,1,0.0,4.9,1,0,83,83,79,,,,,264.0588165000081,264.7093464001082,264.7093464001082,265.1938326000236,315,45,265.1938326000236,265.1938326000236,265.1938326000236,265.1938326000236,265.1938326000236,265.1938326000236,265.1938326000236,265.1938326000236,265.1938326000236,265.560219099978,265.560219099978,265.560219099978,265.560219099978,265.560219099978,265.560219099978,265.560219099978,265.560219099978,265.560219099978,0,1,[0.001224899897351861],[0.3668018998578191],265.560219099978,265.76225210004486,1000,265.76225210004486,1000,1000,1000,1000,1,num_2,0.6156168000306934,,33,2,2026-03-12_17h15.54.424,2026A_exp2,2022.2.4,59.9362278145724,
1000,1,0.0,6.1,0,0,84,84,9,,,,,266.39440440014005,267.04523040005006,267.04523040005006,267.5463217999786,45,315,267.5463217999786,267.5463217999786,267.5463217999786,267.5463217999786,267.5463217999786,267.5463217999786,267.5463217999786,267.5463217999786,267.5463217999786,267.91262700012885,267.91262700012885,267.91262700012885,267.91262700012885,267.91262700012885,267.91262700012885,267.91262700012885,267.91262700012885,267.91262700012885,0,1,[0.0011973001528531313],[0.3671392002142966],267.91262700012885,268.115020000143,1000,268.115020000143,1000,1000,1000,1000,1,num_2,0.7260161000303924,,33,2,2026-03-12_17h15.54.424,2026A_exp2,2022.2.4,59.9362278145724,
1,0,6.1,0.0,0,0,85,85,70,,,,,268.8638544001151,269.51427080016583,269.51427080016583,270.01545409997925,45,45,270.01545409997925,270.01545409997925,270.01545409997925,270.01545409997925,270.01545409997925,270.01545409997925,270.01545409997925,270.01545409997925,270.01545409997925,270.38188460003585,270.38188460003585,270.38188460003585,270.38188460003585,270.38188460003585,270.38188460003585,270.38188460003585,270.38188460003585,270.38188460003585,0,1,[0.001288499915972352],[0.3671363000757992],270.38188460003585,270.58205600013025,6.1,270.58205600013025,1,6.1,1,1,1000,num_4,0.6837353999726474,,33,2,2026-03-12_17h15.54.424,2026A_exp2,2022.2.4,59.9362278145724,
1000,1,0.0,6.1,1,0,86,86,62,,,,,271.28263490018435,271.93330600019544,271.93330600019544,272.41766520007513,45,315,272.41766520007513,272.41766520007513,272.41766520007513,272.41766520007513,272.41766520007513,272.41766520007513,272.41766520007513,272.41766520007513,272.41766520007513,272.78428760007955,272.78428760007955,272.78428760007955,272.78428760007955,272.78428760007955,272.78428760007955,272.78428760007955,272.78428760007955,272.78428760007955,6,2,"[0.017136800102889538, 0.2837329001631588]","[0.26721430011093616, 0.3171012999955565]",272.78428760007955,272.98605070007034,1000,272.98605070007034,1000,1000,1000,1000,1,num_2,0.6470577998552471,,33,2,2026-03-12_17h15.54.424,2026A_exp2,2022.2.4,59.9362278145724,
1,0,0.0,0.0,1,0,87,87,87,,,,,273.6515311000403,274.2873635001015,274.2873635001015,274.79208200005814,315,315,274.79208200005814,274.79208200005814,274.79208200005814,274.79208200005814,274.79208200005814,274.79208200005814,274.79208200005814,274.79208200005814,274.79208200005814,275.15319130010903,275.15319130010903,275.15319130010903,275.15319130010903,275.15319130010903,275.15319130010903,275.15319130010903,275.15319130010903,275.15319130010903,0,1,[0.0025814000982791185],[0.36570730013772845],275.15319130010903,275.35345389996655,0.0,275.35345389996655,1,0.0,0,0,1000,num_4,1.23197040008381,,33,2,2026-03-12_17h15.54.424,2026A_exp2,2022.2.4,59.9362278145724,
1,0,0.0,6.1,1,0,88,88,36,,,,,276.60478379996493,277.25538510014303,277.25538510014303,277.73965650005266,45,45,277.73965650005266,277.73965650005266,277.73965650005266,277.73965650005266,277.73965650005266,277.73965650005266,277.73965650005266,277.73965650005266,277.73965650005266,278.1063712001778,278.1063712001778,278.1063712001778,278.1063712001778,278.1063712001778,278.1063712001778,278.1063712001778,278.1063712001778,278.1063712001778,0,1,[0.0012040999718010426],[0.36673140013590455],278.1063712001778,278.3063881001435,6.1,278.3063881001435,1,6.1,1,1,1000,num_4,0.44765820004977286,,33,2,2026-03-12_17h15.54.424,2026A_exp2,2022.2.4,59.9362278145724,
0,0,0.0,0.0,1,0,89,89,71,,,,,278.7737118001096,279.4242041001562,279.4242041001562,279.9086831000168,45,315,279.9086831000168,279.9086831000168,279.9086831000168,279.9086831000168,279.9086831000168,279.9086831000168,279.9086831000168,279.9086831000168,279.9086831000168,280.27511000004597,280.27511000004597,280.27511000004597,280.27511000004597,280.27511000004597,280.27511000004597,280.27511000004597,280.27511000004597,280.27511000004597,9,4,"[0.0012382999993860722, 0.08368989988230169, 0.16700789984315634, 0.2003151997923851]","[0.03351069986820221, 0.11697370000183582, 0.18380189989693463, 0.3671093999873847]",280.27511000004597,280.4752158001065,0.0,280.4752158001065,1,0.0,0,0,1000,num_4,0.8540600000414997,,33,2,2026-03-12_17h15.54.424,2026A_exp2,2022.2.4,59.9362278145724,
,,,,,,,,,,,,,,,,,,,,,,,,,,,,,,,,,,,,,,,,,,,,,,,,,,,,281.3686025000643,,,,,,,
