validity,detectorcomp,contrastCW,contrastCCW,precueCWorCCW,block_80trials.thisRepN,block_80trials.thisTrialN,block_80trials.thisN,block_80trials.thisIndex,etRecord.started,etRecord.stopped,text.started,text.stopped,text_4.started,text_4.stopped,text_6.started,text_6.stopped,oriCW,oriCCW,roi_2.started,grating_UR.started,grating_UL.started,grating_LR.started,grating_LL.started,noise_UR.started,noise_UL.started,noise_LR.started,noise_LL.started,roi_2.stopped,grating_UR.stopped,grating_UL.stopped,grating_LR.stopped,grating_LL.stopped,noise_UR.stopped,noise_UL.stopped,noise_LR.stopped,noise_LL.stopped,outframe,roi_2.numLooks,roi_2.timesOn,roi_2.timesOff,text_2.started,text_2.stopped,probedcontrast,key_resp.started,respdetect,relevantContrast,correctDetect,TorFdetect,respCWorCCW,key_resp.keys,key_resp.rt,feedback_display_.started,participantNo,blockNo,date,expName,psychopyVersion,frameRate,
1000,1,3.7,4.9,1,0,0,0,44,7.029995322227478e-05,7.029995322227478e-05,56.5053402998019,58.51900009997189,58.51900009997189,59.14119799993932,59.14119799993932,59.65954129979946,315,45,59.65954129979946,59.65954129979946,59.65954129979946,59.65954129979946,59.65954129979946,59.65954129979946,59.65954129979946,59.65954129979946,59.65954129979946,60.008803399978206,60.008803399978206,60.008803399978206,60.008803399978206,60.008803399978206,60.008803399978206,60.008803399978206,60.008803399978206,60.008803399978206,23,0,,,60.008803399978206,60.21220039995387,1000,60.21220039995387,1000,1000,1000,1000,1,num_2,2.6837333000730723,,37,2,2026-03-13_17h20.43.990,2026A_exp2,2022.2.4,59.94535376229228,
1,0,6.1,0.0,0,0,1,1,56,,,,,62.91175329987891,63.56222840002738,63.56222840002738,64.05311859981157,45,315,64.05311859981157,64.05311859981157,64.05311859981157,64.05311859981157,64.05311859981157,64.05311859981157,64.05311859981157,64.05311859981157,64.05311859981157,64.41306169983,64.41306169983,64.41306169983,64.41306169983,64.41306169983,64.41306169983,64.41306169983,64.41306169983,64.41306169983,23,0,,,64.41306169983,64.61322909989394,6.1,64.61322909989394,1,6.1,1,1,1000,num_4,1.1387052002828568,,37,2,2026-03-13_17h20.43.990,2026A_exp2,2022.2.4,59.94535376229228,
0,0,0.0,0.0,1,0,2,2,71,,,,,65.7811321998015,66.43184489989653,66.43184489989653,66.91617129999213,45,45,66.91617129999213,66.91617129999213,66.91617129999213,66.91617129999213,66.91617129999213,66.91617129999213,66.91617129999213,66.91617129999213,66.91617129999213,67.28268599999137,67.28268599999137,67.28268599999137,67.28268599999137,67.28268599999137,67.28268599999137,67.28268599999137,67.28268599999137,67.28268599999137,1,2,"[0.0012122998014092445, 0.30046199983917177]","[0.2836964000016451, 0.3671752999071032]",67.28268599999137,67.48280259990133,0.0,67.48280259990133,0,0.0,0,1,1000,num_1,2.3103690000716597,,37,2,2026-03-13_17h20.43.990,2026A_exp2,2022.2.4,59.94535376229228,
1000,1,6.1,0.0,1,0,3,3,30,,,,,69.81850459985435,70.46917829988524,70.46917829988524,70.95352779980749,315,315,70.95352779980749,70.95352779980749,70.95352779980749,70.95352779980749,70.95352779980749,70.95352779980749,70.95352779980749,70.95352779980749,70.95352779980749,71.32000770000741,71.32000770000741,71.32000770000741,71.32000770000741,71.32000770000741,71.32000770000741,71.32000770000741,71.32000770000741,71.32000770000741,4,2,"[0.001249799970537424, 0.28379080002196133]","[0.26710349996574223, 0.3339348998852074]",71.32000770000741,71.52217429992743,1000,71.52217429992743,1000,1000,1000,1000,0,num_3,0.7428896999917924,,37,2,2026-03-13_17h20.43.990,2026A_exp2,2022.2.4,59.94535376229228,
1,0,0.0,4.9,1,0,4,4,21,,,,,72.28769489983097,72.93829860002734,72.93829860002734,73.45534159988165,315,45,73.45534159988165,73.45534159988165,73.45534159988165,73.45534159988165,73.45534159988165,73.45534159988165,73.45534159988165,73.45534159988165,73.45534159988165,73.78914789995179,73.78914789995179,73.78914789995179,73.78914789995179,73.78914789995179,73.78914789995179,73.78914789995179,73.78914789995179,73.78914789995179,0,1,[0.004677799995988607],[0.3489010001067072],73.78914789995179,73.98928209999576,4.9,74.00609539984725,1,4.9,1,1,1000,num_4,0.8423981000669301,,37,2,2026-03-13_17h20.43.990,2026A_exp2,2022.2.4,59.94535376229228,
1000,1,0.0,3.7,1,0,5,5,47,,,,,74.87364230002277,75.5241406999994,75.5241406999994,76.00851449999027,45,45,76.00851449999027,76.00851449999027,76.00851449999027,76.00851449999027,76.00851449999027,76.00851449999027,76.00851449999027,76.00851449999027,76.00851449999027,76.37508399994113,76.37508399994113,76.37508399994113,76.37508399994113,76.37508399994113,76.37508399994113,76.37508399994113,76.37508399994113,76.37508399994113,0,1,[0.0012493000831454992],[0.3670628000982106],76.37508399994113,76.57725510001183,1000,76.57725510001183,1000,1000,1000,1000,1,num_2,2.0153245001565665,,37,2,2026-03-13_17h20.43.990,2026A_exp2,2022.2.4,59.94535376229228,
1000,1,0.0,4.9,1,0,6,6,59,,,,,78.61077889986336,79.26124019990675,79.26124019990675,79.762414699886,315,45,79.762414699886,79.762414699886,79.762414699886,79.762414699886,79.762414699886,79.762414699886,79.762414699886,79.762414699886,79.762414699886,80.12851860001683,80.12851860001683,80.12851860001683,80.12851860001683,80.12851860001683,80.12851860001683,80.12851860001683,80.12851860001683,80.12851860001683,0,1,[0.0012626999523490667],[0.36625780002214015],80.12851860001683,80.32905959989876,1000,80.32905959989876,1000,1000,1000,1000,1,num_2,0.6401227000169456,,37,2,2026-03-13_17h20.43.990,2026A_exp2,2022.2.4,59.94535376229228,
1,0,3.7,0.0,1,0,7,7,19,,,,,80.99951289989986,81.6469776998274,81.6469776998274,82.14817319996655,45,45,82.14817319996655,82.14817319996655,82.14817319996655,82.14817319996655,82.14817319996655,82.14817319996655,82.14817319996655,82.14817319996655,82.14817319996655,82.51440520002507,82.51440520002507,82.51440520002507,82.51440520002507,82.51440520002507,82.51440520002507,82.51440520002507,82.51440520002507,82.51440520002507,0,1,[0.001324100187048316],[0.3674008999951184],82.51440520002507,82.71482359990478,0.0,82.71482359990478,1,0.0,0,0,1000,num_4,2.333038300042972,,37,2,2026-03-13_17h20.43.990,2026A_exp2,2022.2.4,59.94535376229228,
1,0,6.1,4.9,0,0,8,8,39,,,,,85.06715949997306,85.72439119988121,85.72439119988121,86.2189227999188,315,315,86.2189227999188,86.2189227999188,86.2189227999188,86.2189227999188,86.2189227999188,86.2189227999188,86.2189227999188,86.2189227999188,86.2189227999188,86.56860739993863,86.56860739993863,86.56860739993863,86.56860739993863,86.56860739993863,86.56860739993863,86.56860739993863,86.56860739993863,86.56860739993863,4,3,"[0.0011217000428587198, 0.06655590003356338, 0.16711490019224584]","[0.0331923000048846, 0.15039200009778142, 0.35066790017299354]",86.56860739993863,86.76884639984928,6.1,86.76884639984928,1,6.1,1,1,1000,num_4,1.5510313000995666,,37,2,2026-03-13_17h20.43.990,2026A_exp2,2022.2.4,59.94535376229228,
1,0,3.7,0.0,0,0,9,9,65,,,,,88.3369291999843,88.98773239995353,88.98773239995353,89.47215049993247,315,315,89.47215049993247,89.47215049993247,89.47215049993247,89.47215049993247,89.47215049993247,89.47215049993247,89.47215049993247,89.47215049993247,89.47215049993247,89.83852089988068,89.83852089988068,89.83852089988068,89.83852089988068,89.83852089988068,89.83852089988068,89.83852089988068,89.83852089988068,89.83852089988068,0,1,[0.0012097000144422054],[0.3671011000405997],89.83852089988068,90.03858929988928,3.7,90.03858929988928,1,3.7,1,1,1000,num_4,0.7058288000989705,,37,2,2026-03-13_17h20.43.990,2026A_exp2,2022.2.4,59.94535376229228,
1000,1,3.7,6.1,0,0,10,10,84,,,,,90.77270590001717,91.4234932998661,91.4234932998661,91.90773410000838,45,45,91.90773410000838,91.90773410000838,91.90773410000838,91.90773410000838,91.90773410000838,91.90773410000838,91.90773410000838,91.90773410000838,91.90773410000838,92.27413209993392,92.27413209993392,92.27413209993392,92.27413209993392,92.27413209993392,92.27413209993392,92.27413209993392,92.27413209993392,92.27413209993392,23,0,,,92.27413209993392,92.47660809988156,1000,92.47660809988156,1000,1000,1000,1000,1,num_2,0.9553721002303064,,37,2,2026-03-13_17h20.43.990,2026A_exp2,2022.2.4,59.94535376229228,
1,0,0.0,4.9,1,0,11,11,53,,,,,93.45871379994787,94.10946039995179,94.10946039995179,94.61051759985276,315,315,94.61051759985276,94.61051759985276,94.61051759985276,94.61051759985276,94.61051759985276,94.61051759985276,94.61051759985276,94.61051759985276,94.61051759985276,94.97702649980783,94.97702649980783,94.97702649980783,94.97702649980783,94.97702649980783,94.97702649980783,94.97702649980783,94.97702649980783,94.97702649980783,0,1,[0.0013707000762224197],[0.3672042000107467],94.97702649980783,95.17721319990233,4.9,95.17721319990233,1,4.9,1,1,1000,num_4,2.67921210010536,,37,2,2026-03-13_17h20.43.990,2026A_exp2,2022.2.4,59.94535376229228,
1000,1,6.1,0.0,1,0,12,12,75,,,,,97.87964960001409,98.53045580000617,98.53045580000617,99.0148901999928,315,45,99.0148901999928,99.0148901999928,99.0148901999928,99.0148901999928,99.0148901999928,99.0148901999928,99.0148901999928,99.0148901999928,99.0148901999928,99.38141479995102,99.38141479995102,99.38141479995102,99.38141479995102,99.38141479995102,99.38141479995102,99.38141479995102,99.38141479995102,99.38141479995102,12,4,"[0.001208599889650941, 0.11695229983888566, 0.26699789986014366, 0.317060399800539]","[0.06682759989053011, 0.2002004999667406, 0.28371239989064634, 0.35045299981720746]",99.38141479995102,99.58157859998755,1000,99.58157859998755,1000,1000,1000,1000,0,num_3,0.7544273000676185,,37,2,2026-03-13_17h20.43.990,2026A_exp2,2022.2.4,59.94535376229228,
0,0,0.0,3.7,1,0,13,13,10,,,,,100.36563759995624,101.01626659999602,101.01626659999602,101.51753650000319,315,315,101.51753650000319,101.51753650000319,101.51753650000319,101.51753650000319,101.51753650000319,101.51753650000319,101.51753650000319,101.51753650000319,101.51753650000319,101.88396819983609,101.88396819983609,101.88396819983609,101.88396819983609,101.88396819983609,101.88396819983609,101.88396819983609,101.88396819983609,101.88396819983609,7,4,"[0.0013425000943243504, 0.1163979999255389, 0.16662500007078052, 0.3340318000409752]","[0.05008079996332526, 0.13335040002129972, 0.3170322999358177, 0.36702760006301105]",101.88396819983609,102.08398259989917,0.0,102.08398259989917,0,0.0,0,1,1000,num_1,1.4285530000925064,,37,2,2026-03-13_17h20.43.990,2026A_exp2,2022.2.4,59.94535376229228,
1,0,0.0,6.1,1,0,14,14,40,,,,,103.53721019998193,104.18618469987996,104.18618469987996,104.68740129983053,45,315,104.68740129983053,104.68740129983053,104.68740129983053,104.68740129983053,104.68740129983053,104.68740129983053,104.68740129983053,104.68740129983053,104.68740129983053,105.05380310001783,105.05380310001783,105.05380310001783,105.05380310001783,105.05380310001783,105.05380310001783,105.05380310001783,105.05380310001783,105.05380310001783,23,0,,,105.05380310001783,105.25397059996612,6.1,105.25397059996612,1,6.1,1,1,1000,num_4,1.0981125000398606,,37,2,2026-03-13_17h20.43.990,2026A_exp2,2022.2.4,59.94535376229228,
1,0,3.7,0.0,1,0,15,15,50,,,,,106.37397630000487,107.02243559993804,107.02243559993804,107.52362509979866,45,45,107.52362509979866,107.52362509979866,107.52362509979866,107.52362509979866,107.52362509979866,107.52362509979866,107.52362509979866,107.52362509979866,107.52362509979866,107.89002739987336,107.89002739987336,107.89002739987336,107.89002739987336,107.89002739987336,107.89002739987336,107.89002739987336,107.89002739987336,107.89002739987336,16,3,"[0.04999969992786646, 0.23348009982146323, 0.26676389994099736]","[0.13341020001098514, 0.2501701000146568, 0.2835526999551803]",107.89002739987336,108.09406949998811,0.0,108.09406949998811,0,0.0,0,1,1000,num_1,1.243059600237757,,37,2,2026-03-13_17h20.43.990,2026A_exp2,2022.2.4,59.94535376229228,
1000,1,4.9,6.1,1,0,16,16,28,,,,,109.3579066998791,110.00857629999518,110.00857629999518,110.50984329986386,45,45,110.50984329986386,110.50984329986386,110.50984329986386,110.50984329986386,110.50984329986386,110.50984329986386,110.50984329986386,110.50984329986386,110.50984329986386,110.87613959982991,110.87613959982991,110.87613959982991,110.87613959982991,110.87613959982991,110.87613959982991,110.87613959982991,110.87613959982991,110.87613959982991,5,4,"[0.0012771999463438988, 0.03348430013284087, 0.15042570000514388, 0.35055639990605414]","[0.017427199985831976, 0.10026010009460151, 0.33399170008488, 0.367318999953568]",110.87613959982991,111.0784008000046,1000,111.0784008000046,1000,1000,1000,1000,1,num_2,0.7780358002055436,,37,2,2026-03-13_17h20.43.990,2026A_exp2,2022.2.4,59.94535376229228,
1,0,4.9,0.0,0,0,17,17,58,,,,,111.87712409999222,112.52798639982939,112.52798639982939,113.03138329996727,45,315,113.03138329996727,113.03138329996727,113.03138329996727,113.03138329996727,113.03138329996727,113.03138329996727,113.03138329996727,113.03138329996727,113.03138329996727,113.3956100998912,113.3956100998912,113.3956100998912,113.3956100998912,113.3956100998912,113.3956100998912,113.3956100998912,113.3956100998912,113.3956100998912,17,4,"[0.03286949987523258, 0.06628179992549121, 0.11618349980562925, 0.1496542999520898]","[0.049459500005468726, 0.09960970003157854, 0.13295200001448393, 0.18318439996801317]",113.3956100998912,113.59557689982466,4.9,113.59557689982466,1,4.9,1,1,1000,num_4,1.0861158000770956,,37,2,2026-03-13_17h20.43.990,2026A_exp2,2022.2.4,59.94535376229228,
1,0,4.9,0.0,1,0,18,18,8,,,,,114.71359769999981,115.34733089990914,115.34733089990914,115.84840239980258,45,315,115.84840239980258,115.84840239980258,115.84840239980258,115.84840239980258,115.84840239980258,115.84840239980258,115.84840239980258,115.84840239980258,115.84840239980258,116.21502529992722,116.21502529992722,116.21502529992722,116.21502529992722,116.21502529992722,116.21502529992722,116.21502529992722,116.21502529992722,116.21502529992722,13,4,"[0.00124409981071949, 0.05011169984936714, 0.15016349987126887, 0.3501015999354422]","[0.03353559994138777, 0.1335253999568522, 0.16701560001820326, 0.36710489983670413]",116.21502529992722,116.42917209980078,0.0,116.42917209980078,0,0.0,0,1,1000,num_1,1.5710162001196295,,37,2,2026-03-13_17h20.43.990,2026A_exp2,2022.2.4,59.94535376229228,
1000,1,4.9,0.0,1,0,19,19,72,,,,,118.0169585000258,118.65314379986376,118.65314379986376,119.15173839987256,45,45,119.15173839987256,119.15173839987256,119.15173839987256,119.15173839987256,119.15173839987256,119.15173839987256,119.15173839987256,119.15173839987256,119.15173839987256,119.51816969993524,119.51816969993524,119.51816969993524,119.51816969993524,119.51816969993524,119.51816969993524,119.51816969993524,119.51816969993524,119.51816969993524,6,3,"[0.017307400004938245, 0.10017829993739724, 0.1501935999840498]","[0.06686669983901083, 0.11695549986325204, 0.36731469980441034]",119.51816969993524,119.72052469989285,1000,119.72052469989285,1000,1000,1000,1000,0,num_3,0.6961139000486583,,37,2,2026-03-13_17h20.43.990,2026A_exp2,2022.2.4,59.94535376229228,
1000,1,3.7,0.0,0,0,20,20,57,,,,,120.43838769989088,121.08647549990565,121.08647549990565,121.58755799988285,315,315,121.58755799988285,121.58755799988285,121.58755799988285,121.58755799988285,121.58755799988285,121.58755799988285,121.58755799988285,121.58755799988285,121.58755799988285,121.95401300000958,121.95401300000958,121.95401300000958,121.95401300000958,121.95401300000958,121.95401300000958,121.95401300000958,121.95401300000958,121.95401300000958,17,3,"[0.08367020008154213, 0.23381630005314946, 0.3169706000480801]","[0.10015420010313392, 0.28380610002204776, 0.3504504000302404]",121.95401300000958,122.1566610999871,1000,122.1566610999871,1000,1000,1000,1000,0,num_3,0.6430856001097709,,37,2,2026-03-13_17h20.43.990,2026A_exp2,2022.2.4,59.94535376229228,
1000,1,0.0,0.0,0,0,21,21,15,,,,,122.82128979987465,123.47208509990014,123.47208509990014,123.97332859993912,315,45,123.97332859993912,123.97332859993912,123.97332859993912,123.97332859993912,123.97332859993912,123.97332859993912,123.97332859993912,123.97332859993912,123.97332859993912,124.33965449989773,124.33965449989773,124.33965449989773,124.33965449989773,124.33965449989773,124.33965449989773,124.33965449989773,124.33965449989773,124.33965449989773,23,0,,,124.33965449989773,124.54162329994142,1000,124.54162329994142,1000,1000,1000,1000,1,num_2,2.2024189000949264,,37,2,2026-03-13_17h20.43.990,2026A_exp2,2022.2.4,59.94535376229228,
1000,1,0.0,0.0,0,0,22,22,81,,,,,126.77561429981142,127.4260670999065,127.4260670999065,127.9272934999317,315,315,127.9272934999317,127.9272934999317,127.9272934999317,127.9272934999317,127.9272934999317,127.9272934999317,127.9272934999317,127.9272934999317,127.9272934999317,128.27701029996388,128.27701029996388,128.27701029996388,128.27701029996388,128.27701029996388,128.27701029996388,128.27701029996388,128.27701029996388,128.27701029996388,10,6,"[0.0013111999724060297, 0.11721739987842739, 0.1671604998409748, 0.25058679981157184, 0.2839293999131769, 0.3172039999626577]","[0.10044989991001785, 0.13367919996380806, 0.2004167998675257, 0.26724629988893867, 0.3005223998334259, 0.33392749982886016]",128.27701029996388,128.47908419999294,1000,128.47908419999294,1000,1000,1000,1000,1,num_2,0.842111200094223,,37,2,2026-03-13_17h20.43.990,2026A_exp2,2022.2.4,59.94535376229228,
1000,1,0.0,6.1,0,0,23,23,9,,,,,129.34460069984198,129.9953244999051,129.9953244999051,130.4963684999384,315,45,130.4963684999384,130.4963684999384,130.4963684999384,130.4963684999384,130.4963684999384,130.4963684999384,130.4963684999384,130.4963684999384,130.4963684999384,130.86295640002936,130.86295640002936,130.86295640002936,130.86295640002936,130.86295640002936,130.86295640002936,130.86295640002936,130.86295640002936,130.86295640002936,17,5,"[0.0836831999476999, 0.11696669994853437, 0.1833720998838544, 0.30048309988342226, 0.3339803998824209]","[0.10032560001127422, 0.13383289985358715, 0.217099400004372, 0.3173359998036176, 0.3505631999578327]",130.86295640002936,131.0646438000258,1000,131.0646438000258,1000,1000,1000,1000,1,num_2,0.7196213002316654,,37,2,2026-03-13_17h20.43.990,2026A_exp2,2022.2.4,59.94535376229228,
0,0,0.0,0.0,1,0,24,24,89,,,,,131.81373629998416,132.46459699980915,132.46459699980915,132.96550439996645,315,45,132.96550439996645,132.96550439996645,132.96550439996645,132.96550439996645,132.96550439996645,132.96550439996645,132.96550439996645,132.96550439996645,132.96550439996645,133.33209219994023,133.33209219994023,133.33209219994023,133.33209219994023,133.33209219994023,133.33209219994023,133.33209219994023,133.33209219994023,133.33209219994023,20,2,"[0.0011571000795811415, 0.3507290000561625]","[0.03367440006695688, 0.36727410019375384]",133.33209219994023,133.53208369994536,0.0,133.53208369994536,0,0.0,0,1,1000,num_1,1.8521034002769738,,37,2,2026-03-13_17h20.43.990,2026A_exp2,2022.2.4,59.94535376229228,
1,0,3.7,0.0,0,0,25,25,42,,,,,135.40072419983335,136.05144950002432,136.05144950002432,136.55239630001597,45,45,136.55239630001597,136.55239630001597,136.55239630001597,136.55239630001597,136.55239630001597,136.55239630001597,136.55239630001597,136.55239630001597,136.55239630001597,136.91873129992746,136.91873129992746,136.91873129992746,136.91873129992746,136.91873129992746,136.91873129992746,136.91873129992746,136.91873129992746,136.91873129992746,17,1,[0.001201600069180131],[0.08363670017570257],136.91873129992746,137.13251509983093,3.7,137.13251509983093,1,3.7,1,1,1000,num_4,0.9882751000113785,,37,2,2026-03-13_17h20.43.990,2026A_exp2,2022.2.4,59.94535376229228,
1,0,0.0,6.1,1,0,26,26,36,,,,,138.1367269998882,138.78752989997156,138.78752989997156,139.2718100999482,315,45,139.2718100999482,139.2718100999482,139.2718100999482,139.2718100999482,139.2718100999482,139.2718100999482,139.2718100999482,139.2718100999482,139.2718100999482,139.63828209997155,139.63828209997155,139.63828209997155,139.63828209997155,139.63828209997155,139.63828209997155,139.63828209997155,139.63828209997155,139.63828209997155,13,7,"[0.0009463001042604446, 0.050225700018927455, 0.1172923999838531, 0.2174071001354605, 0.2673016001936048, 0.3175473001319915, 0.3507799000944942]","[0.01714370003901422, 0.10049560014158487, 0.13385900016874075, 0.23400140018202364, 0.30067710019648075, 0.3342027000617236, 0.3675230999942869]",139.63828209997155,139.83858389989473,6.1,139.83858389989473,1,6.1,1,1,1000,num_4,1.0416129000950605,,37,2,2026-03-13_17h20.43.990,2026A_exp2,2022.2.4,59.94535376229228,
1000,1,3.7,6.1,0,0,27,27,0,,,,,140.90626759990118,141.54016729979776,141.54016729979776,142.04137169988826,315,315,142.04137169988826,142.04137169988826,142.04137169988826,142.04137169988826,142.04137169988826,142.04137169988826,142.04137169988826,142.04137169988826,142.04137169988826,142.40777109982446,142.40777109982446,142.40777109982446,142.40777109982446,142.40777109982446,142.40777109982446,142.40777109982446,142.40777109982446,142.40777109982446,23,0,,,142.40777109982446,142.60995509987697,1000,142.60995509987697,1000,1000,1000,1000,1,num_2,0.8698036000132561,,37,2,2026-03-13_17h20.43.990,2026A_exp2,2022.2.4,59.94535376229228,
1000,1,3.7,0.0,0,0,28,28,2,,,,,143.50874469988048,144.1677251998335,144.1677251998335,144.67401989991777,45,45,144.67401989991777,144.67401989991777,144.67401989991777,144.67401989991777,144.67401989991777,144.67401989991777,144.67401989991777,144.67401989991777,144.67401989991777,145.02718580001965,145.02718580001965,145.02718580001965,145.02718580001965,145.02718580001965,145.02718580001965,145.02718580001965,145.02718580001965,145.02718580001965,15,5,"[0.003935999935492873, 0.06334019987843931, 0.2322688999120146, 0.31562869995832443, 0.3657442999538034]","[0.04745689989067614, 0.07978369994089007, 0.28244069986976683, 0.33236179989762604, 0.3657539999112487]",145.02718580001965,145.22718539997004,1000,145.22718539997004,1000,1000,1000,1000,1,num_2,2.252947200089693,,37,2,2026-03-13_17h20.43.990,2026A_exp2,2022.2.4,59.94535376229228,
1,0,0.0,6.1,0,0,29,29,11,,,,,147.4960778998211,148.14703969983384,148.14703969983384,148.6478798999451,45,315,148.6478798999451,148.6478798999451,148.6478798999451,148.6478798999451,148.6478798999451,148.6478798999451,148.6478798999451,148.6478798999451,148.6478798999451,149.01441819989122,149.01441819989122,149.01441819989122,149.01441819989122,149.01441819989122,149.01441819989122,149.01441819989122,149.01441819989122,149.01441819989122,23,0,,,149.01441819989122,149.21450129989535,0.0,149.21450129989535,0,0.0,0,1,1000,num_1,1.0264304000884295,,37,2,2026-03-13_17h20.43.990,2026A_exp2,2022.2.4,59.94535376229228,
1,0,0.0,0.0,0,0,30,30,63,,,,,150.26567529980093,150.9163094998803,150.9163094998803,151.40066759986803,315,315,151.40066759986803,151.40066759986803,151.40066759986803,151.40066759986803,151.40066759986803,151.40066759986803,151.40066759986803,151.40066759986803,151.40066759986803,151.76717459992506,151.76717459992506,151.76717459992506,151.76717459992506,151.76717459992506,151.76717459992506,151.76717459992506,151.76717459992506,151.76717459992506,0,1,[0.0012866000179201365],[0.3674974001478404],151.76717459992506,151.9672363998834,0.0,151.9672363998834,1,0.0,0,0,1000,num_4,2.232958600157872,,37,2,2026-03-13_17h20.43.990,2026A_exp2,2022.2.4,59.94535376229228,
1,0,0.0,6.1,0,0,31,31,60,,,,,154.21990429982543,154.87178279994987,154.87178279994987,155.37676779995672,315,315,155.37676779995672,155.37676779995672,155.37676779995672,155.37676779995672,155.37676779995672,155.37676779995672,155.37676779995672,155.37676779995672,155.37676779995672,155.73779569985345,155.73779569985345,155.73779569985345,155.73779569985345,155.73779569985345,155.73779569985345,155.73779569985345,155.73779569985345,155.73779569985345,8,4,"[0.02304240013472736, 0.0837228000164032, 0.23235950013622642, 0.31591180013492703]","[0.06702680001035333, 0.2154500000178814, 0.28240320016629994, 0.3325306000187993]",155.73779569985345,155.94977509998716,0.0,155.94977509998716,0,0.0,0,1,1000,num_1,3.187200500164181,,37,2,2026-03-13_17h20.43.990,2026A_exp2,2022.2.4,59.94535376229228,
1000,1,0.0,0.0,0,0,32,32,74,,,,,159.15778319980018,159.8197653000243,159.8197653000243,160.2953766998835,315,45,160.2953766998835,160.2953766998835,160.2953766998835,160.2953766998835,160.2953766998835,160.2953766998835,160.2953766998835,160.2953766998835,160.2953766998835,160.65931899985299,160.65931899985299,160.65931899985299,160.65931899985299,160.65931899985299,160.65931899985299,160.65931899985299,160.65931899985299,160.65931899985299,23,0,,,160.65931899985299,160.87033239984885,1000,160.87033239984885,1000,1000,1000,1000,1,num_2,1.393542499979958,,37,2,2026-03-13_17h20.43.990,2026A_exp2,2022.2.4,59.94535376229228,
1,0,3.7,3.7,0,0,33,33,13,,,,,162.2776639999356,162.92827209993266,162.92827209993266,163.42922029993497,315,315,163.42922029993497,163.42922029993497,163.42922029993497,163.42922029993497,163.42922029993497,163.42922029993497,163.42922029993497,163.42922029993497,163.42922029993497,163.79649729980156,163.79649729980156,163.79649729980156,163.79649729980156,163.79649729980156,163.79649729980156,163.79649729980156,163.79649729980156,163.79649729980156,23,0,,,163.79649729980156,163.9958101999946,3.7,163.9958101999946,0,3.7,1,0,1000,num_1,1.781267800135538,,37,2,2026-03-13_17h20.43.990,2026A_exp2,2022.2.4,59.94535376229228,
1000,1,6.1,0.0,0,0,34,34,82,,,,,165.79771289997734,166.44044879986905,166.44044879986905,166.93273229990155,315,45,166.93273229990155,166.93273229990155,166.93273229990155,166.93273229990155,166.93273229990155,166.93273229990155,166.93273229990155,166.93273229990155,166.93273229990155,167.29916219995357,167.29916219995357,167.29916219995357,167.29916219995357,167.29916219995357,167.29916219995357,167.29916219995357,167.29916219995357,167.29916219995357,20,2,"[0.1334772000554949, 0.3170505999587476]","[0.15009390003979206, 0.35019639995880425]",167.29916219995357,167.50093149999157,1000,167.50093149999157,1000,1000,1000,1000,0,num_3,1.0121217002160847,,37,2,2026-03-13_17h20.43.990,2026A_exp2,2022.2.4,59.94535376229228,
0,0,4.9,0.0,1,0,35,35,25,,,,,168.53796719992533,169.18656119983643,169.18656119983643,169.68571589980274,315,45,169.68571589980274,169.68571589980274,169.68571589980274,169.68571589980274,169.68571589980274,169.68571589980274,169.68571589980274,169.68571589980274,169.68571589980274,170.05182189983316,170.05182189983316,170.05182189983316,170.05182189983316,170.05182189983316,170.05182189983316,170.05182189983316,170.05182189983316,170.05182189983316,23,0,,,170.05182189983316,170.2522499000188,4.9,170.2522499000188,1,4.9,1,1,1000,num_4,4.0119104001205415,,37,2,2026-03-13_17h20.43.990,2026A_exp2,2022.2.4,59.94535376229228,
1000,1,0.0,3.7,0,0,36,36,51,,,,,174.2895348998718,174.92392809991725,174.92392809991725,175.42489389982074,45,315,175.42489389982074,175.42489389982074,175.42489389982074,175.42489389982074,175.42489389982074,175.42489389982074,175.42489389982074,175.42489389982074,175.42489389982074,175.7917575999163,175.7917575999163,175.7917575999163,175.7917575999163,175.7917575999163,175.7917575999163,175.7917575999163,175.7917575999163,175.7917575999163,23,0,,,175.7917575999163,175.99122179998085,1000,175.99122179998085,1000,1000,1000,1000,1,num_2,0.7450113000813872,,37,2,2026-03-13_17h20.43.990,2026A_exp2,2022.2.4,59.94535376229228,
1000,1,4.9,0.0,0,0,37,37,26,,,,,176.75842079985887,177.40919519984163,177.40919519984163,177.89358679996803,45,315,177.89358679996803,177.89358679996803,177.89358679996803,177.89358679996803,177.89358679996803,177.89358679996803,177.89358679996803,177.89358679996803,177.89358679996803,178.26025079982355,178.26025079982355,178.26025079982355,178.26025079982355,178.26025079982355,178.26025079982355,178.26025079982355,178.26025079982355,178.26025079982355,7,4,"[0.0012652999721467495, 0.0486502000130713, 0.23237470001913607, 0.2832184999715537]","[0.01611540000885725, 0.16547899995930493, 0.2669857998844236, 0.3664770000614226]",178.26025079982355,178.46246690000407,1000,178.46246690000407,1000,1000,1000,1000,0,num_3,1.4577217001933604,,37,2,2026-03-13_17h20.43.990,2026A_exp2,2022.2.4,59.94535376229228,
1000,1,0.0,6.1,1,0,38,38,88,,,,,179.9455519998446,180.59023089986295,180.59023089986295,181.08591839997098,45,315,181.08591839997098,181.08591839997098,181.08591839997098,181.08591839997098,181.08591839997098,181.08591839997098,181.08591839997098,181.08591839997098,181.08591839997098,181.44682169985026,181.44682169985026,181.44682169985026,181.44682169985026,181.44682169985026,181.44682169985026,181.44682169985026,181.44682169985026,181.44682169985026,23,0,,,181.44682169985026,181.64890279993415,1000,181.64890279993415,1000,1000,1000,1000,1,num_2,3.118809500010684,,37,2,2026-03-13_17h20.43.990,2026A_exp2,2022.2.4,59.94535376229228,
1000,1,4.9,0.0,1,0,39,39,5,,,,,184.7834138998296,185.43407459999435,185.43407459999435,185.93507119989954,315,45,185.93507119989954,185.93507119989954,185.93507119989954,185.93507119989954,185.93507119989954,185.93507119989954,185.93507119989954,185.93507119989954,185.93507119989954,186.3016180000268,186.3016180000268,186.3016180000268,186.3016180000268,186.3016180000268,186.3016180000268,186.3016180000268,186.3016180000268,186.3016180000268,23,0,,,186.3016180000268,186.50371969980188,1000,186.50371969980188,1000,1000,1000,1000,0,num_3,16.04105220013298,,37,2,2026-03-13_17h20.43.990,2026A_exp2,2022.2.4,59.94535376229228,
1,0,0.0,3.7,0,0,40,40,35,,,,,202.56778099993244,203.21831929986365,203.21831929986365,203.7195623998996,315,45,203.7195623998996,203.7195623998996,203.7195623998996,203.7195623998996,203.7195623998996,203.7195623998996,203.7195623998996,203.7195623998996,203.7195623998996,204.0693613998592,204.0693613998592,204.0693613998592,204.0693613998592,204.0693613998592,204.0693613998592,204.0693613998592,204.0693613998592,204.0693613998592,9,5,"[0.0332977999933064, 0.08320450014434755, 0.16671680007129908, 0.23343520006164908, 0.28342630015686154]","[0.04990920005366206, 0.13329190015792847, 0.2167650000192225, 0.2500839000567794, 0.35036109993234277]",204.0693613998592,204.26959889987484,0.0,204.26959889987484,0,0.0,0,1,1000,num_1,1.8431267999112606,,37,2,2026-03-13_17h20.43.990,2026A_exp2,2022.2.4,59.94535376229228,
1000,1,3.7,0.0,0,0,41,41,45,,,,,206.13807350001298,206.78885489981622,206.78885489981622,207.2732692998834,315,45,207.2732692998834,207.2732692998834,207.2732692998834,207.2732692998834,207.2732692998834,207.2732692998834,207.2732692998834,207.2732692998834,207.2732692998834,207.6396407999564,207.6396407999564,207.6396407999564,207.6396407999564,207.6396407999564,207.6396407999564,207.6396407999564,207.6396407999564,207.6396407999564,23,0,,,207.6396407999564,207.84161180001684,1000,207.84161180001684,1000,1000,1000,1000,1,num_2,14.086748500121757,,37,2,2026-03-13_17h20.43.990,2026A_exp2,2022.2.4,59.94535376229228,
1000,1,0.0,0.0,0,0,42,42,64,,,,,221.95388229982927,222.61208749981597,222.61208749981597,223.08900379994884,315,315,223.08900379994884,223.08900379994884,223.08900379994884,223.08900379994884,223.08900379994884,223.08900379994884,223.08900379994884,223.08900379994884,223.08900379994884,223.4554949000012,223.4554949000012,223.4554949000012,223.4554949000012,223.4554949000012,223.4554949000012,223.4554949000012,223.4554949000012,223.4554949000012,23,0,,,223.4554949000012,223.65869039995596,1000,223.65869039995596,1000,1000,1000,1000,0,num_3,0.6783234002068639,,37,2,2026-03-13_17h20.43.990,2026A_exp2,2022.2.4,59.94535376229228,
1000,1,6.1,0.0,0,0,43,43,14,,,,,224.35647269990295,225.00692199985497,225.00692199985497,225.5081691998057,315,45,225.5081691998057,225.5081691998057,225.5081691998057,225.5081691998057,225.5081691998057,225.5081691998057,225.5081691998057,225.5081691998057,225.5081691998057,225.874630499864,225.874630499864,225.874630499864,225.874630499864,225.874630499864,225.874630499864,225.874630499864,225.874630499864,225.874630499864,23,0,,,225.874630499864,226.07633369998075,1000,226.07633369998075,1000,1000,1000,1000,0,num_3,0.5088098000269383,,37,2,2026-03-13_17h20.43.990,2026A_exp2,2022.2.4,59.94535376229228,
1000,1,4.9,0.0,1,0,44,44,22,,,,,226.60859319986776,227.260976199992,227.260976199992,227.7667459999211,315,45,227.7667459999211,227.7667459999211,227.7667459999211,227.7667459999211,227.7667459999211,227.7667459999211,227.7667459999211,227.7667459999211,227.7667459999211,228.1101078998763,228.1101078998763,228.1101078998763,228.1101078998763,228.1101078998763,228.1101078998763,228.1101078998763,228.1101078998763,228.1101078998763,0,1,[0.0026110000908374786],[0.3488396001048386],228.1101078998763,228.31043349998072,1000,228.32728989981115,1000,1000,1000,1000,0,num_3,0.5607011001557112,,37,2,2026-03-13_17h20.43.990,2026A_exp2,2022.2.4,59.94535376229228,
1000,1,6.1,6.1,1,0,45,45,77,,,,,228.9109530998394,229.5615928999614,229.5615928999614,230.06823370000347,315,315,230.06823370000347,230.06823370000347,230.06823370000347,230.06823370000347,230.06823370000347,230.06823370000347,230.06823370000347,230.06823370000347,230.06823370000347,230.42908599996008,230.42908599996008,230.42908599996008,230.42908599996008,230.42908599996008,230.42908599996008,230.42908599996008,230.42908599996008,230.42908599996008,23,0,,,230.42908599996008,230.6312076000031,1000,230.6312076000031,1000,1000,1000,1000,1,num_2,14.193273600190878,,37,2,2026-03-13_17h20.43.990,2026A_exp2,2022.2.4,59.94535376229228,
1000,1,0.0,6.1,1,0,46,46,62,,,,,244.84367229999043,245.49417979991995,245.49417979991995,245.97849599993788,315,315,245.97849599993788,245.97849599993788,245.97849599993788,245.97849599993788,245.97849599993788,245.97849599993788,245.97849599993788,245.97849599993788,245.97849599993788,246.34502659994178,246.34502659994178,246.34502659994178,246.34502659994178,246.34502659994178,246.34502659994178,246.34502659994178,246.34502659994178,246.34502659994178,23,0,,,246.34502659994178,246.54709629993886,1000,246.54709629993886,1000,1000,1000,1000,1,num_2,0.7966520001646131,,37,2,2026-03-13_17h20.43.990,2026A_exp2,2022.2.4,59.94535376229228,
1000,1,6.1,0.0,1,0,47,47,16,,,,,247.36279189982451,248.01337199984118,248.01337199984118,248.5145796998404,315,45,248.5145796998404,248.5145796998404,248.5145796998404,248.5145796998404,248.5145796998404,248.5145796998404,248.5145796998404,248.5145796998404,248.5145796998404,248.88096609991044,248.88096609991044,248.88096609991044,248.88096609991044,248.88096609991044,248.88096609991044,248.88096609991044,248.88096609991044,248.88096609991044,23,0,,,248.88096609991044,249.10871309996583,1000,249.10871309996583,1000,1000,1000,1000,0,num_3,0.5473768000956625,,37,2,2026-03-13_17h20.43.990,2026A_exp2,2022.2.4,59.94535376229228,
1000,1,0.0,0.0,0,0,48,48,80,,,,,249.68169009988196,250.336583300028,250.336583300028,250.834122199798,45,315,250.834122199798,250.834122199798,250.834122199798,250.834122199798,250.834122199798,250.834122199798,250.834122199798,250.834122199798,250.834122199798,251.199828799814,251.199828799814,251.199828799814,251.199828799814,251.199828799814,251.199828799814,251.199828799814,251.199828799814,251.199828799814,23,0,,,251.199828799814,251.39998059999198,1000,251.39998059999198,1000,1000,1000,1000,1,num_2,0.6172035001218319,,37,2,2026-03-13_17h20.43.990,2026A_exp2,2022.2.4,59.94535376229228,
1000,1,0.0,0.0,1,0,49,49,67,,,,,252.03635760000907,252.68472809996456,252.68472809996456,253.1857098999899,315,45,253.1857098999899,253.1857098999899,253.1857098999899,253.1857098999899,253.1857098999899,253.1857098999899,253.1857098999899,253.1857098999899,253.1857098999899,253.55224029999226,253.55224029999226,253.55224029999226,253.55224029999226,253.55224029999226,253.55224029999226,253.55224029999226,253.55224029999226,253.55224029999226,23,0,,,253.55224029999226,253.75445929984562,1000,253.75445929984562,1000,1000,1000,1000,0,num_3,21.246575300116092,,37,2,2026-03-13_17h20.43.990,2026A_exp2,2022.2.4,59.94535376229228,
1,0,0.0,3.7,0,0,50,50,61,,,,,275.023657299811,275.6743341998663,275.6743341998663,276.1735743000172,45,315,276.1735743000172,276.1735743000172,276.1735743000172,276.1735743000172,276.1735743000172,276.1735743000172,276.1735743000172,276.1735743000172,276.1735743000172,276.5253476998769,276.5253476998769,276.5253476998769,276.5253476998769,276.5253476998769,276.5253476998769,276.5253476998769,276.5253476998769,276.5253476998769,23,0,,,276.5253476998769,276.7254488999024,0.0,276.7254488999024,0,0.0,0,1,1000,num_1,1.546562900301069,,37,2,2026-03-13_17h20.43.990,2026A_exp2,2022.2.4,59.94535376229228,
1000,1,6.1,0.0,1,0,51,51,68,,,,,278.29353519994766,278.94415609980933,278.94415609980933,279.4288323998917,45,315,279.4288323998917,279.4288323998917,279.4288323998917,279.4288323998917,279.4288323998917,279.4288323998917,279.4288323998917,279.4288323998917,279.4288323998917,279.7950555998832,279.7950555998832,279.7950555998832,279.7950555998832,279.7950555998832,279.7950555998832,279.7950555998832,279.7950555998832,279.7950555998832,23,0,,,279.7950555998832,279.9954100998584,1000,279.9954100998584,1000,1000,1000,1000,0,num_3,1.493136800127104,,37,2,2026-03-13_17h20.43.990,2026A_exp2,2022.2.4,59.94535376229228,
1000,1,0.0,0.0,0,0,52,52,18,,,,,281.5133566998411,282.16439939988777,282.16439939988777,282.6753586998675,45,45,282.6753586998675,282.6753586998675,282.6753586998675,282.6753586998675,282.6753586998675,282.6753586998675,282.6753586998675,282.6753586998675,282.6753586998675,283.03168679983355,283.03168679983355,283.03168679983355,283.03168679983355,283.03168679983355,283.03168679983355,283.03168679983355,283.03168679983355,283.03168679983355,23,0,,,283.03168679983355,283.23368399986066,1000,283.23368399986066,1000,1000,1000,1000,1,num_2,0.9742507000919431,,37,2,2026-03-13_17h20.43.990,2026A_exp2,2022.2.4,59.94535376229228,
1000,1,0.0,0.0,1,0,53,53,33,,,,,284.2329059999902,284.8835030000191,284.8835030000191,285.3846273999661,45,45,285.3846273999661,285.3846273999661,285.3846273999661,285.3846273999661,285.3846273999661,285.3846273999661,285.3846273999661,285.3846273999661,285.3846273999661,285.75107719982043,285.75107719982043,285.75107719982043,285.75107719982043,285.75107719982043,285.75107719982043,285.75107719982043,285.75107719982043,285.75107719982043,23,0,,,285.75107719982043,285.9530843999237,1000,285.9530843999237,1000,1000,1000,1000,0,num_3,11.174652900081128,,37,2,2026-03-13_17h20.43.990,2026A_exp2,2022.2.4,59.94535376229228,
1000,1,0.0,4.9,1,0,54,54,31,,,,,297.14577919989824,297.7963968999684,297.7963968999684,298.29762699990533,315,45,298.29762699990533,298.29762699990533,298.29762699990533,298.29762699990533,298.29762699990533,298.29762699990533,298.29762699990533,298.29762699990533,298.29762699990533,298.6474193998147,298.6474193998147,298.6474193998147,298.6474193998147,298.6474193998147,298.6474193998147,298.6474193998147,298.6474193998147,298.6474193998147,22,0,,,298.6474193998147,298.84894479997456,1000,298.8642735998146,1000,1000,1000,1000,1,num_2,0.7606693000998348,,37,2,2026-03-13_17h20.43.990,2026A_exp2,2022.2.4,59.94535376229228,
0,0,6.1,3.7,1,0,55,55,49,,,,,299.6482169998344,300.29911669995636,300.29911669995636,300.799750499893,45,45,300.799750499893,300.799750499893,300.799750499893,300.799750499893,300.799750499893,300.799750499893,300.799750499893,300.799750499893,300.799750499893,301.1663710998837,301.1663710998837,301.1663710998837,301.1663710998837,301.1663710998837,301.1663710998837,301.1663710998837,301.1663710998837,301.1663710998837,24,0,,,301.1663710998837,301.3667128998786,6.1,301.3667128998786,1,6.1,1,1,1000,num_4,1.985915900208056,,37,2,2026-03-13_17h20.43.990,2026A_exp2,2022.2.4,59.94535376229228,
1,0,4.9,0.0,1,0,56,56,38,,,,,303.36863749986514,304.0192398999352,304.0192398999352,304.50373269990087,315,315,304.50373269990087,304.50373269990087,304.50373269990087,304.50373269990087,304.50373269990087,304.50373269990087,304.50373269990087,304.50373269990087,304.50373269990087,304.8701851000078,304.8701851000078,304.8701851000078,304.8701851000078,304.8701851000078,304.8701851000078,304.8701851000078,304.8701851000078,304.8701851000078,0,1,[0.0012217001058161259],[0.3667391000781208],304.8701851000078,305.0703838998452,0.0,305.0703838998452,0,0.0,0,1,1000,num_1,1.457472400041297,,37,2,2026-03-13_17h20.43.990,2026A_exp2,2022.2.4,59.94535376229228,
1,0,0.0,0.0,0,0,57,57,1,,,,,306.5550993999932,307.20585309993476,307.20585309993476,307.6903336998075,315,45,307.6903336998075,307.6903336998075,307.6903336998075,307.6903336998075,307.6903336998075,307.6903336998075,307.6903336998075,307.6903336998075,307.6903336998075,308.05662229983136,308.05662229983136,308.05662229983136,308.05662229983136,308.05662229983136,308.05662229983136,308.05662229983136,308.05662229983136,308.05662229983136,23,0,,,308.05662229983136,308.256976199802,0.0,308.256976199802,0,0.0,0,1,1000,num_1,0.9668148001655936,,37,2,2026-03-13_17h20.43.990,2026A_exp2,2022.2.4,59.94535376229228,
1000,1,0.0,3.7,0,0,58,58,78,,,,,309.24108569999225,309.89179419982247,309.89179419982247,310.37630709982477,45,315,310.37630709982477,310.37630709982477,310.37630709982477,310.37630709982477,310.37630709982477,310.37630709982477,310.37630709982477,310.37630709982477,310.37630709982477,310.7427791999653,310.7427791999653,310.7427791999653,310.7427791999653,310.7427791999653,310.7427791999653,310.7427791999653,310.7427791999653,310.7427791999653,23,0,,,310.7427791999653,310.94476949982345,1000,310.94476949982345,1000,1000,1000,1000,1,num_2,1.2240398002322763,,37,2,2026-03-13_17h20.43.990,2026A_exp2,2022.2.4,59.94535376229228,
1,0,0.0,0.0,1,0,59,59,87,,,,,312.1940919999033,312.84480439987965,312.84480439987965,313.3460106998682,315,315,313.3460106998682,313.3460106998682,313.3460106998682,313.3460106998682,313.3460106998682,313.3460106998682,313.3460106998682,313.3460106998682,313.3460106998682,313.7124308999628,313.7124308999628,313.7124308999628,313.7124308999628,313.7124308999628,313.7124308999628,313.7124308999628,313.7124308999628,313.7124308999628,21,2,"[0.3002136000432074, 0.36711749993264675]","[0.3171042001340538, 0.3671222000848502]",313.7124308999628,313.9125518000219,0.0,313.9125518000219,0,0.0,0,1,1000,num_1,196.57531660003588,,37,2,2026-03-13_17h20.43.990,2026A_exp2,2022.2.4,59.94535376229228,
1000,1,0.0,0.0,0,0,60,60,85,,,,,510.5090212998912,511.1597709998023,511.1597709998023,511.6442719998304,315,315,511.6442719998304,511.6442719998304,511.6442719998304,511.6442719998304,511.6442719998304,511.6442719998304,511.6442719998304,511.6442719998304,511.6442719998304,512.0106071999762,512.0106071999762,512.0106071999762,512.0106071999762,512.0106071999762,512.0106071999762,512.0106071999762,512.0106071999762,512.0106071999762,23,0,,,512.0106071999762,512.2124331998639,1000,512.2124331998639,1000,1000,1000,1000,0,num_3,1.9725788000505418,,37,2,2026-03-13_17h20.43.990,2026A_exp2,2022.2.4,59.94535376229228,
1000,1,0.0,0.0,1,0,61,61,12,,,,,514.2127785999328,514.869517999934,514.869517999934,515.3747748997994,315,315,515.3747748997994,515.3747748997994,515.3747748997994,515.3747748997994,515.3747748997994,515.3747748997994,515.3747748997994,515.3747748997994,515.3747748997994,515.731105200015,515.731105200015,515.731105200015,515.731105200015,515.731105200015,515.731105200015,515.731105200015,515.731105200015,515.731105200015,23,0,,,515.731105200015,515.933315299917,1000,515.933315299917,1000,1000,1000,1000,1,num_2,1.7067460000980645,,37,2,2026-03-13_17h20.43.990,2026A_exp2,2022.2.4,59.94535376229228,
1,0,0.0,0.0,1,0,62,62,73,,,,,517.6662122998387,518.3165788999759,518.3165788999759,518.8183385999873,315,45,518.8183385999873,518.8183385999873,518.8183385999873,518.8183385999873,518.8183385999873,518.8183385999873,518.8183385999873,518.8183385999873,518.8183385999873,519.1846107000019,519.1846107000019,519.1846107000019,519.1846107000019,519.1846107000019,519.1846107000019,519.1846107000019,519.1846107000019,519.1846107000019,23,0,,,519.1846107000019,519.3847238000017,0.0,519.3847238000017,0,0.0,0,1,1000,num_1,1.936085100285709,,37,2,2026-03-13_17h20.43.990,2026A_exp2,2022.2.4,59.94535376229228,
1000,1,4.9,6.1,0,0,63,63,20,,,,,521.3365398999304,521.987333299825,521.987333299825,522.471789599862,45,315,522.471789599862,522.471789599862,522.471789599862,522.471789599862,522.471789599862,522.471789599862,522.471789599862,522.471789599862,522.471789599862,522.8382124998607,522.8382124998607,522.8382124998607,522.8382124998607,522.8382124998607,522.8382124998607,522.8382124998607,522.8382124998607,522.8382124998607,3,4,"[0.0010041999630630016, 0.05049079982563853, 0.23379660001955926, 0.36739199981093407]","[0.03350949985906482, 0.2169979999307543, 0.350871599977836, 0.3673972999677062]",522.8382124998607,523.0405759999994,1000,523.0405759999994,1000,1000,1000,1000,0,num_3,1.0639289999380708,,37,2,2026-03-13_17h20.43.990,2026A_exp2,2022.2.4,59.94535376229228,
1000,1,4.9,3.7,0,0,64,64,32,,,,,524.1229139999487,524.7733985998202,524.7733985998202,525.2578904000111,45,315,525.2578904000111,525.2578904000111,525.2578904000111,525.2578904000111,525.2578904000111,525.2578904000111,525.2578904000111,525.2578904000111,525.2578904000111,525.6241192999296,525.6241192999296,525.6241192999296,525.6241192999296,525.6241192999296,525.6241192999296,525.6241192999296,525.6241192999296,525.6241192999296,23,0,,,525.6241192999296,525.8263987998944,1000,525.8263987998944,1000,1000,1000,1000,1,num_2,0.7813426000066102,,37,2,2026-03-13_17h20.43.990,2026A_exp2,2022.2.4,59.94535376229228,
1000,1,0.0,4.9,1,0,65,65,76,,,,,526.6252056998201,527.2758906998206,527.2758906998206,527.7771538000088,45,45,527.7771538000088,527.7771538000088,527.7771538000088,527.7771538000088,527.7771538000088,527.7771538000088,527.7771538000088,527.7771538000088,527.7771538000088,528.1435002998915,528.1435002998915,528.1435002998915,528.1435002998915,528.1435002998915,528.1435002998915,528.1435002998915,528.1435002998915,528.1435002998915,23,0,,,528.1435002998915,528.3454946998972,1000,528.3454946998972,1000,1000,1000,1000,1,num_2,0.9833075001370162,,37,2,2026-03-13_17h20.43.990,2026A_exp2,2022.2.4,59.94535376229228,
1,0,0.0,3.7,1,0,66,66,66,,,,,529.3445629999042,529.9952368999366,529.9952368999366,530.4964738998096,315,45,530.4964738998096,530.4964738998096,530.4964738998096,530.4964738998096,530.4964738998096,530.4964738998096,530.4964738998096,530.4964738998096,530.4964738998096,530.8628376999404,530.8628376999404,530.8628376999404,530.8628376999404,530.8628376999404,530.8628376999404,530.8628376999404,530.8628376999404,530.8628376999404,23,0,,,530.8628376999404,531.0631056998391,3.7,531.0631056998391,1,3.7,1,1,1000,num_4,1.6095634000375867,,37,2,2026-03-13_17h20.43.990,2026A_exp2,2022.2.4,59.94535376229228,
1000,1,0.0,6.1,0,0,67,67,37,,,,,532.698066300014,533.3486468999181,533.3486468999181,533.8330643998925,45,45,533.8330643998925,533.8330643998925,533.8330643998925,533.8330643998925,533.8330643998925,533.8330643998925,533.8330643998925,533.8330643998925,533.8330643998925,534.1994227999821,534.1994227999821,534.1994227999821,534.1994227999821,534.1994227999821,534.1994227999821,534.1994227999821,534.1994227999821,534.1994227999821,23,0,,,534.1994227999821,534.4017201999668,1000,534.4017201999668,1000,1000,1000,1000,1,num_2,0.6062260000035167,,37,2,2026-03-13_17h20.43.990,2026A_exp2,2022.2.4,59.94535376229228,
1000,1,3.7,0.0,1,0,68,68,48,,,,,535.033488099929,535.6843574999366,535.6843574999366,536.1852881999221,45,315,536.1852881999221,536.1852881999221,536.1852881999221,536.1852881999221,536.1852881999221,536.1852881999221,536.1852881999221,536.1852881999221,536.1852881999221,536.5352465999313,536.5352465999313,536.5352465999313,536.5352465999313,536.5352465999313,536.5352465999313,536.5352465999313,536.5352465999313,536.5352465999313,16,6,"[0.01722649997100234, 0.06696580001153052, 0.13398590008728206, 0.21702049998566508, 0.28377009998075664, 0.3339370999019593]","[0.033529199892655015, 0.08367959992028773, 0.15042950003407896, 0.23388079996220767, 0.30052129994146526, 0.3504983000457287]",536.5352465999313,536.73745279992,1000,536.7521232999861,1000,1000,1000,1000,0,num_3,1.1046705001499504,,37,2,2026-03-13_17h20.43.990,2026A_exp2,2022.2.4,59.94535376229228,
1000,1,0.0,0.0,1,0,69,69,23,,,,,537.8864291999489,538.5370592998806,538.5370592998806,539.038209100021,315,45,539.038209100021,539.038209100021,539.038209100021,539.038209100021,539.038209100021,539.038209100021,539.038209100021,539.038209100021,539.038209100021,539.4047291998286,539.4047291998286,539.4047291998286,539.4047291998286,539.4047291998286,539.4047291998286,539.4047291998286,539.4047291998286,539.4047291998286,23,0,,,539.4047291998286,539.6068505998701,1000,539.6068505998701,1000,1000,1000,1000,0,num_3,1.098012300208211,,37,2,2026-03-13_17h20.43.990,2026A_exp2,2022.2.4,59.94535376229228,
1000,1,0.0,0.0,0,0,70,70,83,,,,,540.7226950998884,541.3734217998572,541.3734217998572,541.8743546998594,45,45,541.8743546998594,541.8743546998594,541.8743546998594,541.8743546998594,541.8743546998594,541.8743546998594,541.8743546998594,541.8743546998594,541.8743546998594,542.2408425998874,542.2408425998874,542.2408425998874,542.2408425998874,542.2408425998874,542.2408425998874,542.2408425998874,542.2408425998874,542.2408425998874,23,0,,,542.2408425998874,542.4430859999266,1000,542.4430859999266,1000,1000,1000,1000,1,num_2,1.3408273002132773,,37,2,2026-03-13_17h20.43.990,2026A_exp2,2022.2.4,59.94535376229228,
1000,1,0.0,0.0,0,0,71,71,86,,,,,543.8091213000007,544.4598055998795,544.4598055998795,544.9609121999238,45,315,544.9609121999238,544.9609121999238,544.9609121999238,544.9609121999238,544.9609121999238,544.9609121999238,544.9609121999238,544.9609121999238,544.9609121999238,545.3273711998481,545.3273711998481,545.3273711998481,545.3273711998481,545.3273711998481,545.3273711998481,545.3273711998481,545.3273711998481,545.3273711998481,23,0,,,545.3273711998481,545.5296651998069,1000,545.5296651998069,1000,1000,1000,1000,1,num_2,5.0389725000131875,,37,2,2026-03-13_17h20.43.990,2026A_exp2,2022.2.4,59.94535376229228,
1,0,6.1,0.0,0,0,72,72,70,,,,,550.5992677998729,551.2332977999467,551.2332977999467,551.7343944997992,45,315,551.7343944997992,551.7343944997992,551.7343944997992,551.7343944997992,551.7343944997992,551.7343944997992,551.7343944997992,551.7343944997992,551.7343944997992,552.1007902999409,552.1007902999409,552.1007902999409,552.1007902999409,552.1007902999409,552.1007902999409,552.1007902999409,552.1007902999409,552.1007902999409,2,2,"[0.0012187999673187733, 0.23387669981457293]","[0.20053399982862175, 0.36747259995900095]",552.1007902999409,552.3009930998087,6.1,552.3009930998087,1,6.1,1,1,1000,num_4,1.851697400212288,,37,2,2026-03-13_17h20.43.990,2026A_exp2,2022.2.4,59.94535376229228,
1000,1,6.1,0.0,1,0,73,73,69,,,,,554.1693102999125,554.8201958998106,554.8201958998106,555.3211520998739,315,45,555.3211520998739,555.3211520998739,555.3211520998739,555.3211520998739,555.3211520998739,555.3211520998739,555.3211520998739,555.3211520998739,555.3211520998739,555.6877108998597,555.6877108998597,555.6877108998597,555.6877108998597,555.6877108998597,555.6877108998597,555.6877108998597,555.6877108998597,555.6877108998597,23,0,,,555.6877108998597,555.8901031999849,1000,555.8901031999849,1000,1000,1000,1000,0,num_3,1.958426200086251,,37,2,2026-03-13_17h20.43.990,2026A_exp2,2022.2.4,59.94535376229228,
1,0,3.7,6.1,0,0,74,74,55,,,,,557.873160299845,558.5239768999163,558.5239768999163,559.0215451000258,315,315,559.0215451000258,559.0215451000258,559.0215451000258,559.0215451000258,559.0215451000258,559.0215451000258,559.0215451000258,559.0215451000258,559.0215451000258,559.3746294998564,559.3746294998564,559.3746294998564,559.3746294998564,559.3746294998564,559.3746294998564,559.3746294998564,559.3746294998564,559.3746294998564,23,0,,,559.3746294998564,559.5749133999925,3.7,559.5749133999925,0,3.7,1,0,1000,num_1,1.313964200206101,,37,2,2026-03-13_17h20.43.990,2026A_exp2,2022.2.4,59.94535376229228,
1,0,0.0,0.0,0,0,75,75,29,,,,,560.909427799983,561.5602128999308,561.5602128999308,562.0446685999632,45,45,562.0446685999632,562.0446685999632,562.0446685999632,562.0446685999632,562.0446685999632,562.0446685999632,562.0446685999632,562.0446685999632,562.0446685999632,562.4110903998371,562.4110903998371,562.4110903998371,562.4110903998371,562.4110903998371,562.4110903998371,562.4110903998371,562.4110903998371,562.4110903998371,23,0,,,562.4110903998371,562.6112199998461,0.0,562.6112199998461,0,0.0,0,1,1000,num_1,1.1965240000281483,,37,2,2026-03-13_17h20.43.990,2026A_exp2,2022.2.4,59.94535376229228,
1,0,3.7,0.0,0,0,76,76,3,,,,,563.8290841998532,564.4798779999837,564.4798779999837,564.9642607998103,315,315,564.9642607998103,564.9642607998103,564.9642607998103,564.9642607998103,564.9642607998103,564.9642607998103,564.9642607998103,564.9642607998103,564.9642607998103,565.3305556999985,565.3305556999985,565.3305556999985,565.3305556999985,565.3305556999985,565.3305556999985,565.3305556999985,565.3305556999985,565.3305556999985,23,0,,,565.3305556999985,565.5307928998955,3.7,565.5307928998955,1,3.7,1,1,1000,num_4,6.78986640018411,,37,2,2026-03-13_17h20.43.990,2026A_exp2,2022.2.4,59.94535376229228,
1,0,0.0,3.7,1,0,77,77,41,,,,,572.337389399996,572.9883178998716,572.9883178998716,573.4728025000077,315,45,573.4728025000077,573.4728025000077,573.4728025000077,573.4728025000077,573.4728025000077,573.4728025000077,573.4728025000077,573.4728025000077,573.4728025000077,573.8391991998069,573.8391991998069,573.8391991998069,573.8391991998069,573.8391991998069,573.8391991998069,573.8391991998069,573.8391991998069,573.8391991998069,23,0,,,573.8391991998069,574.0393900999334,3.7,574.0393900999334,1,3.7,1,1,1000,num_4,1.7130490001291037,,37,2,2026-03-13_17h20.43.990,2026A_exp2,2022.2.4,59.94535376229228,
1000,1,0.0,0.0,0,0,78,78,17,,,,,575.7742812000215,576.4250640999526,576.4250640999526,576.9094291999936,315,45,576.9094291999936,576.9094291999936,576.9094291999936,576.9094291999936,576.9094291999936,576.9094291999936,576.9094291999936,576.9094291999936,576.9094291999936,577.275883999886,577.275883999886,577.275883999886,577.275883999886,577.275883999886,577.275883999886,577.275883999886,577.275883999886,577.275883999886,23,0,,,577.275883999886,577.4778336000163,1000,577.4778336000163,1000,1000,1000,1000,0,num_3,1.3701603000517935,,37,2,2026-03-13_17h20.43.990,2026A_exp2,2022.2.4,59.94535376229228,
1000,1,0.0,0.0,1,0,79,79,27,,,,,578.8643574998714,579.5114243999124,579.5114243999124,580.012640699977,315,315,580.012640699977,580.012640699977,580.012640699977,580.012640699977,580.012640699977,580.012640699977,580.012640699977,580.012640699977,580.012640699977,580.3790634998586,580.3790634998586,580.3790634998586,580.3790634998586,580.3790634998586,580.3790634998586,580.3790634998586,580.3790634998586,580.3790634998586,23,0,,,580.3790634998586,580.5809016998392,1000,580.5809016998392,1000,1000,1000,1000,1,num_2,0.9231797002721578,,37,2,2026-03-13_17h20.43.990,2026A_exp2,2022.2.4,59.94535376229228,
1,0,0.0,6.1,1,0,80,80,52,,,,,581.5301496000029,582.18079699995,582.18079699995,582.6817956999876,315,45,582.6817956999876,582.6817956999876,582.6817956999876,582.6817956999876,582.6817956999876,582.6817956999876,582.6817956999876,582.6817956999876,582.6817956999876,583.0482983998954,583.0482983998954,583.0482983998954,583.0482983998954,583.0482983998954,583.0482983998954,583.0482983998954,583.0482983998954,583.0482983998954,21,1,[0.017291500000283122],[0.05013139988295734],583.0482983998954,583.2485203000251,6.1,583.2485203000251,1,6.1,1,1,1000,num_4,3.0323983000125736,,37,2,2026-03-13_17h20.43.990,2026A_exp2,2022.2.4,59.94535376229228,
1,0,0.0,6.1,0,0,81,81,34,,,,,586.3014737998601,586.9522835998796,586.9522835998796,587.4365399999078,315,45,587.4365399999078,587.4365399999078,587.4365399999078,587.4365399999078,587.4365399999078,587.4365399999078,587.4365399999078,587.4365399999078,587.4365399999078,587.8030660999939,587.8030660999939,587.8030660999939,587.8030660999939,587.8030660999939,587.8030660999939,587.8030660999939,587.8030660999939,587.8030660999939,23,0,,,587.8030660999939,588.0032844999805,0.0,588.0032844999805,0,0.0,0,1,1000,num_1,0.9652056000195444,,37,2,2026-03-13_17h20.43.990,2026A_exp2,2022.2.4,59.94535376229228,
0,0,0.0,6.1,0,0,82,82,7,,,,,588.9877328998409,589.6214560999069,589.6214560999069,590.1226734998636,315,315,590.1226734998636,590.1226734998636,590.1226734998636,590.1226734998636,590.1226734998636,590.1226734998636,590.1226734998636,590.1226734998636,590.1226734998636,590.4891522999387,590.4891522999387,590.4891522999387,590.4891522999387,590.4891522999387,590.4891522999387,590.4891522999387,590.4891522999387,590.4891522999387,23,0,,,590.4891522999387,590.6892150999047,6.1,590.6892150999047,1,6.1,1,1,1000,num_4,1.696274199988693,,37,2,2026-03-13_17h20.43.990,2026A_exp2,2022.2.4,59.94535376229228,
1,0,6.1,4.9,0,0,83,83,24,,,,,592.407702999888,593.058239699807,593.058239699807,593.5594523998443,45,45,593.5594523998443,593.5594523998443,593.5594523998443,593.5594523998443,593.5594523998443,593.5594523998443,593.5594523998443,593.5594523998443,593.5594523998443,593.9257902998943,593.9257902998943,593.9257902998943,593.9257902998943,593.9257902998943,593.9257902998943,593.9257902998943,593.9257902998943,593.9257902998943,23,0,,,593.9257902998943,594.1257986000273,6.1,594.1257986000273,0,6.1,1,0,1000,num_1,6.258631900185719,,37,2,2026-03-13_17h20.43.990,2026A_exp2,2022.2.4,59.94535376229228,
1000,1,3.7,4.9,1,0,84,84,46,,,,,600.4155255998485,601.0663875997998,601.0663875997998,601.5507592000067,45,315,601.5507592000067,601.5507592000067,601.5507592000067,601.5507592000067,601.5507592000067,601.5507592000067,601.5507592000067,601.5507592000067,601.5507592000067,601.9172382999677,601.9172382999677,601.9172382999677,601.9172382999677,601.9172382999677,601.9172382999677,601.9172382999677,601.9172382999677,601.9172382999677,23,0,,,601.9172382999677,602.1175182999577,1000,602.1175182999577,1000,1000,1000,1000,0,num_3,8.531717200065032,,37,2,2026-03-13_17h20.43.990,2026A_exp2,2022.2.4,59.94535376229228,
1,0,0.0,4.9,0,0,85,85,4,,,,,610.6757596998941,611.3267027998809,611.3267027998809,611.827662799973,315,45,611.827662799973,611.827662799973,611.827662799973,611.827662799973,611.827662799973,611.827662799973,611.827662799973,611.827662799973,611.827662799973,612.1775449998677,612.1775449998677,612.1775449998677,612.1775449998677,612.1775449998677,612.1775449998677,612.1775449998677,612.1775449998677,612.1775449998677,22,0,,,612.1775449998677,612.3777504998725,0.0,612.3944056998007,1,0.0,0,0,1000,num_4,2.2215027001220733,,37,2,2026-03-13_17h20.43.990,2026A_exp2,2022.2.4,59.94535376229228,
1,0,0.0,0.0,1,0,86,86,6,,,,,614.646504699951,615.2972083999775,615.2972083999775,615.7816596999764,315,45,615.7816596999764,615.7816596999764,615.7816596999764,615.7816596999764,615.7816596999764,615.7816596999764,615.7816596999764,615.7816596999764,615.7816596999764,616.1481541998219,616.1481541998219,616.1481541998219,616.1481541998219,616.1481541998219,616.1481541998219,616.1481541998219,616.1481541998219,616.1481541998219,23,0,,,616.1481541998219,616.3481915998273,0.0,616.3481915998273,1,0.0,0,0,1000,num_4,2.459734400268644,,37,2,2026-03-13_17h20.43.990,2026A_exp2,2022.2.4,59.94535376229228,
1000,1,4.9,0.0,0,0,87,87,54,,,,,618.833986699814,619.4847907999065,619.4847907999065,619.968906799797,315,315,619.968906799797,619.968906799797,619.968906799797,619.968906799797,619.968906799797,619.968906799797,619.968906799797,619.968906799797,619.968906799797,620.3352590999566,620.3352590999566,620.3352590999566,620.3352590999566,620.3352590999566,620.3352590999566,620.3352590999566,620.3352590999566,620.3352590999566,23,0,,,620.3352590999566,620.5382150998339,1000,620.5382150998339,1000,1000,1000,1000,0,num_3,2.701543800299987,,37,2,2026-03-13_17h20.43.990,2026A_exp2,2022.2.4,59.94535376229228,
1000,1,0.0,4.9,1,0,88,88,79,,,,,623.2552112999838,623.9059225998353,623.9059225998353,624.4070360998157,45,45,624.4070360998157,624.4070360998157,624.4070360998157,624.4070360998157,624.4070360998157,624.4070360998157,624.4070360998157,624.4070360998157,624.4070360998157,624.7734113999177,624.7734113999177,624.7734113999177,624.7734113999177,624.7734113999177,624.7734113999177,624.7734113999177,624.7734113999177,624.7734113999177,23,0,,,624.7734113999177,624.9756594998762,1000,624.9756594998762,1000,1000,1000,1000,1,num_2,1.1211536000482738,,37,2,2026-03-13_17h20.43.990,2026A_exp2,2022.2.4,59.94535376229228,
1000,1,3.7,4.9,1,0,89,89,43,,,,,626.1246764999814,626.7754985999782,626.7754985999782,627.2764849998057,45,315,627.2764849998057,627.2764849998057,627.2764849998057,627.2764849998057,627.2764849998057,627.2764849998057,627.2764849998057,627.2764849998057,627.2764849998057,627.6428549999837,627.6428549999837,627.6428549999837,627.6428549999837,627.6428549999837,627.6428549999837,627.6428549999837,627.6428549999837,627.6428549999837,23,0,,,627.6428549999837,627.844796899939,1000,627.844796899939,1000,1000,1000,1000,1,num_2,2.1401950002182275,,37,2,2026-03-13_17h20.43.990,2026A_exp2,2022.2.4,59.94535376229228,
,,,,,,,,,,,,,,,,,,,,,,,,,,,,,,,,,,,,,,,,,,,,,,,,,,,,630.0210704999045,,,,,,,
