validity,detectorcomp,contrastCW,contrastCCW,precueCWorCCW,block_80trials.thisRepN,block_80trials.thisTrialN,block_80trials.thisN,block_80trials.thisIndex,etRecord.started,etRecord.stopped,text.started,text.stopped,text_4.started,text_4.stopped,text_6.started,text_6.stopped,oriCW,oriCCW,roi_2.started,grating_UR.started,grating_UL.started,grating_LR.started,grating_LL.started,noise_UR.started,noise_UL.started,noise_LR.started,noise_LL.started,roi_2.stopped,grating_UR.stopped,grating_UL.stopped,grating_LR.stopped,grating_LL.stopped,noise_UR.stopped,noise_UL.stopped,noise_LR.stopped,noise_LL.stopped,outframe,roi_2.numLooks,roi_2.timesOn,roi_2.timesOff,text_2.started,text_2.stopped,probedcontrast,key_resp.started,respdetect,relevantContrast,correctDetect,TorFdetect,respCWorCCW,key_resp.keys,key_resp.rt,feedback_display_.started,participantNo,blockNo,date,expName,psychopyVersion,frameRate,
1,0,0.0,0.0,1,0,0,0,6,0.00013480009511113167,0.00013480009511113167,170.15671120001934,172.16183510003611,172.16183510003611,172.79422369995154,172.79422369995154,173.31609999993816,315,45,173.31609999993816,173.31609999993816,173.31609999993816,173.31609999993816,173.31609999993816,173.31609999993816,173.31609999993816,173.31609999993816,173.31609999993816,173.66169840004295,173.66169840004295,173.66169840004295,173.66169840004295,173.66169840004295,173.66169840004295,173.66169840004295,173.66169840004295,173.66169840004295,18,2,"[0.24890959984622896, 0.31551550002768636]","[0.2655632998794317, 0.3656200999394059]",173.66169840004295,173.86190939997323,0.0,173.86190939997323,0,0.0,0,1,1000,num_1,2.1931127002462745,,35,5,2026-03-13_13h39.05.710,2026A_exp2,2022.2.4,60.02491026190116,
1,0,3.7,0.0,0,0,1,1,10,,,,,176.08076000004075,176.71503810002469,176.71503810002469,177.21623199991882,315,315,177.21623199991882,177.21623199991882,177.21623199991882,177.21623199991882,177.21623199991882,177.21623199991882,177.21623199991882,177.21623199991882,177.21623199991882,177.58259249990806,177.58259249990806,177.58259249990806,177.58259249990806,177.58259249990806,177.58259249990806,177.58259249990806,177.58259249990806,177.58259249990806,9,6,"[0.0008578000124543905, 0.13372320006601512, 0.18351119989529252, 0.21723380009643734, 0.2506643000524491, 0.3008425000589341]","[0.10010419995523989, 0.15004609990864992, 0.20055530010722578, 0.2339290000963956, 0.2672768998891115, 0.36755049997009337]",177.58259249990806,177.78273059986532,3.7,177.78273059986532,0,3.7,1,0,1000,num_1,3.721024100203067,,35,5,2026-03-13_13h39.05.710,2026A_exp2,2022.2.4,60.02491026190116,
1000,1,0.0,3.7,0,0,2,2,21,,,,,181.51976529997773,182.17049090005457,182.17049090005457,182.65483810007572,45,45,182.65483810007572,182.65483810007572,182.65483810007572,182.65483810007572,182.65483810007572,182.65483810007572,182.65483810007572,182.65483810007572,182.65483810007572,183.02137099998072,183.02137099998072,183.02137099998072,183.02137099998072,183.02137099998072,183.02137099998072,183.02137099998072,183.02137099998072,183.02137099998072,9,4,"[0.017173000145703554, 0.20021859998814762, 0.266893400112167, 0.35036089993081987]","[0.18362800008617342, 0.21703030006028712, 0.2837929001543671, 0.3668724000453949]",183.02137099998072,183.22638839995489,1000,183.22638839995489,1000,1000,1000,1000,1,num_2,1.1409671001601964,,35,5,2026-03-13_13h39.05.710,2026A_exp2,2022.2.4,60.02491026190116,
1000,1,3.7,3.7,0,0,3,3,59,,,,,184.38934489991516,185.0400163999293,185.0400163999293,185.54098930000328,315,315,185.54098930000328,185.54098930000328,185.54098930000328,185.54098930000328,185.54098930000328,185.54098930000328,185.54098930000328,185.54098930000328,185.54098930000328,185.90759700001217,185.90759700001217,185.90759700001217,185.90759700001217,185.90759700001217,185.90759700001217,185.90759700001217,185.90759700001217,185.90759700001217,0,1,[0.00124409981071949],[0.3673194998409599],185.90759700001217,186.1095658999402,1000,186.1095658999402,1000,1000,1000,1000,1,num_2,0.4974334000144154,,35,5,2026-03-13_13h39.05.710,2026A_exp2,2022.2.4,60.02491026190116,
1,0,0.0,0.0,1,0,4,4,38,,,,,186.62498349999078,187.27564939996228,187.27564939996228,187.77661220007576,315,315,187.77661220007576,187.77661220007576,187.77661220007576,187.77661220007576,187.77661220007576,187.77661220007576,187.77661220007576,187.77661220007576,187.77661220007576,188.14315610006452,188.14315610006452,188.14315610006452,188.14315610006452,188.14315610006452,188.14315610006452,188.14315610006452,188.14315610006452,188.14315610006452,7,6,"[0.0012451999355107546, 0.08322970010340214, 0.1501881000585854, 0.20027130004018545, 0.2667115998920053, 0.35042420006357133]","[0.06673240009695292, 0.11679790006019175, 0.16693879989907146, 0.24978889990597963, 0.33367659989744425, 0.3670799999963492]",188.14315610006452,188.34338529990055,0.0,188.34338529990055,1,0.0,0,0,1000,num_4,1.6074304999783635,,35,5,2026-03-13_13h39.05.710,2026A_exp2,2022.2.4,60.02491026190116,
1000,1,4.9,6.1,0,0,5,5,36,,,,,189.9781207998749,190.62896270002238,190.62896270002238,191.1133854999207,45,45,191.1133854999207,191.1133854999207,191.1133854999207,191.1133854999207,191.1133854999207,191.1133854999207,191.1133854999207,191.1133854999207,191.1133854999207,191.4798077000305,191.4798077000305,191.4798077000305,191.4798077000305,191.4798077000305,191.4798077000305,191.4798077000305,191.4798077000305,191.4798077000305,17,4,"[0.05026949988678098, 0.11687559983693063, 0.183617000002414, 0.21707429992966354]","[0.06690860004164279, 0.1503464998677373, 0.20041919988580048, 0.2503543999046087]",191.4798077000305,191.7037363999989,1000,191.7037363999989,1000,1000,1000,1000,0,num_3,0.7200331999920309,,35,5,2026-03-13_13h39.05.710,2026A_exp2,2022.2.4,60.02491026190116,
1,0,0.0,0.0,1,0,6,6,31,,,,,192.44730979995802,193.0980398999527,193.0980398999527,193.59908329998143,45,45,193.59908329998143,193.59908329998143,193.59908329998143,193.59908329998143,193.59908329998143,193.59908329998143,193.59908329998143,193.59908329998143,193.59908329998143,193.9656666999217,193.9656666999217,193.9656666999217,193.9656666999217,193.9656666999217,193.9656666999217,193.9656666999217,193.9656666999217,193.9656666999217,3,4,"[0.0013516999315470457, 0.11657009995542467, 0.28358659986406565, 0.33372740005142987]","[0.10027950000949204, 0.2670539999380708, 0.3171097000595182, 0.367252100026235]",193.9656666999217,194.16586049995385,0.0,194.16586049995385,0,0.0,0,1,1000,num_1,1.0575647000223398,,35,5,2026-03-13_13h39.05.710,2026A_exp2,2022.2.4,60.02491026190116,
0,0,0.0,0.0,1,0,7,7,44,,,,,195.25008059991524,195.90075809997506,195.90075809997506,196.38537889998406,315,45,196.38537889998406,196.38537889998406,196.38537889998406,196.38537889998406,196.38537889998406,196.38537889998406,196.38537889998406,196.38537889998406,196.38537889998406,196.75169009994715,196.75169009994715,196.75169009994715,196.75169009994715,196.75169009994715,196.75169009994715,196.75169009994715,196.75169009994715,196.75169009994715,0,1,[0.001288499915972352],[0.36732499999925494],196.75169009994715,196.95192210003734,0.0,196.95192210003734,0,0.0,0,1,1000,num_1,1.1030234000645578,,35,5,2026-03-13_13h39.05.710,2026A_exp2,2022.2.4,60.02491026190116,
0,0,6.1,0.0,1,0,8,8,25,,,,,198.08631130005233,198.73707100003958,198.73707100003958,199.22139739990234,315,315,199.22139739990234,199.22139739990234,199.22139739990234,199.22139739990234,199.22139739990234,199.22139739990234,199.22139739990234,199.22139739990234,199.22139739990234,199.58786850003526,199.58786850003526,199.58786850003526,199.58786850003526,199.58786850003526,199.58786850003526,199.58786850003526,199.58786850003526,199.58786850003526,19,2,"[0.033667400013655424, 0.3172281999140978]","[0.06702319998294115, 0.35054720006883144]",199.58786850003526,199.78824010002427,6.1,199.78824010002427,1,6.1,1,1,1000,num_4,0.8032156000845134,,35,5,2026-03-13_13h39.05.710,2026A_exp2,2022.2.4,60.02491026190116,
1,0,4.9,6.1,0,0,9,9,82,,,,,200.62352310004644,201.25630029989406,201.25630029989406,201.7574147998821,45,315,201.7574147998821,201.7574147998821,201.7574147998821,201.7574147998821,201.7574147998821,201.7574147998821,201.7574147998821,201.7574147998821,201.7574147998821,202.12358490005136,202.12358490005136,202.12358490005136,202.12358490005136,202.12358490005136,202.12358490005136,202.12358490005136,202.12358490005136,202.12358490005136,14,3,"[0.09999980009160936, 0.16708209994249046, 0.33392010000534356]","[0.13370119989849627, 0.2501713999081403, 0.3673105000052601]",202.12358490005136,202.32402130006813,4.9,202.32402130006813,1,4.9,1,1,1000,num_4,0.6593630001880229,,35,5,2026-03-13_13h39.05.710,2026A_exp2,2022.2.4,60.02491026190116,
1000,1,0.0,3.7,0,0,10,10,23,,,,,203.0078191999346,203.65851449989714,203.65851449989714,204.1594199000392,315,315,204.1594199000392,204.1594199000392,204.1594199000392,204.1594199000392,204.1594199000392,204.1594199000392,204.1594199000392,204.1594199000392,204.1594199000392,204.50940899993293,204.50940899993293,204.50940899993293,204.50940899993293,204.50940899993293,204.50940899993293,204.50940899993293,204.50940899993293,204.50940899993293,20,1,[0.20099849998950958],[0.23443970014341176],204.50940899993293,204.7116540998686,1000,204.7116540998686,1000,1000,1000,1000,1,num_2,0.6724075002130121,,35,5,2026-03-13_13h39.05.710,2026A_exp2,2022.2.4,60.02491026190116,
1,0,4.9,4.9,1,0,11,11,9,,,,,205.41028889990412,206.06090170005336,206.06090170005336,206.56218919996172,45,45,206.56218919996172,206.56218919996172,206.56218919996172,206.56218919996172,206.56218919996172,206.56218919996172,206.56218919996172,206.56218919996172,206.56218919996172,206.91184889990836,206.91184889990836,206.91184889990836,206.91184889990836,206.91184889990836,206.91184889990836,206.91184889990836,206.91184889990836,206.91184889990836,20,1,[0.1002188001293689],[0.1336240000091493],206.91184889990836,207.11249580001459,4.9,207.11249580001459,0,4.9,1,0,1000,num_1,2.150143700186163,,35,5,2026-03-13_13h39.05.710,2026A_exp2,2022.2.4,60.02491026190116,
0,0,6.1,0.0,1,0,12,12,52,,,,,209.2807368999347,209.93153829989024,209.93153829989024,210.4159790999256,315,45,210.4159790999256,210.4159790999256,210.4159790999256,210.4159790999256,210.4159790999256,210.4159790999256,210.4159790999256,210.4159790999256,210.4159790999256,210.78248599986546,210.78248599986546,210.78248599986546,210.78248599986546,210.78248599986546,210.78248599986546,210.78248599986546,210.78248599986546,210.78248599986546,11,6,"[0.0012187999673187733, 0.06681600003503263, 0.15030370000749826, 0.25042570009827614, 0.3335754000581801, 0.36705010011792183]","[0.033437500009313226, 0.10019320016726851, 0.21698540006764233, 0.28372390009462833, 0.35038399999029934, 0.3670551001559943]",210.78248599986546,210.98249239986762,6.1,210.98249239986762,1,6.1,1,1,1000,num_4,0.6971169002354145,,35,5,2026-03-13_13h39.05.710,2026A_exp2,2022.2.4,60.02491026190116,
0,0,3.7,4.9,0,0,13,13,77,,,,,211.699823099887,212.35044190008193,212.35044190008193,212.83514109998941,315,45,212.83514109998941,212.83514109998941,212.83514109998941,212.83514109998941,212.83514109998941,212.83514109998941,212.83514109998941,212.83514109998941,212.83514109998941,213.20153600000776,213.20153600000776,213.20153600000776,213.20153600000776,213.20153600000776,213.20153600000776,213.20153600000776,213.20153600000776,213.20153600000776,23,0,,,213.20153600000776,213.4017832998652,4.9,213.4017832998652,0,4.9,1,0,1000,num_1,1.7659509000368416,,35,5,2026-03-13_13h39.05.710,2026A_exp2,2022.2.4,60.02491026190116,
1,0,3.7,0.0,0,0,14,14,26,,,,,215.18662579986267,215.82095810002647,215.82095810002647,216.32195200002752,45,315,216.32195200002752,216.32195200002752,216.32195200002752,216.32195200002752,216.32195200002752,216.32195200002752,216.32195200002752,216.32195200002752,216.32195200002752,216.6884071000386,216.6884071000386,216.6884071000386,216.6884071000386,216.6884071000386,216.6884071000386,216.6884071000386,216.6884071000386,216.6884071000386,23,0,,,216.6884071000386,216.88845940004103,3.7,216.88845940004103,1,3.7,1,1,1000,num_4,0.6545146000571549,,35,5,2026-03-13_13h39.05.710,2026A_exp2,2022.2.4,60.02491026190116,
1,0,0.0,6.1,1,0,15,15,19,,,,,217.57241560006514,218.2065657998901,218.2065657998901,218.70766279986128,45,315,218.70766279986128,218.70766279986128,218.70766279986128,218.70766279986128,218.70766279986128,218.70766279986128,218.70766279986128,218.70766279986128,218.70766279986128,219.07393319997936,219.07393319997936,219.07393319997936,219.07393319997936,219.07393319997936,219.07393319997936,219.07393319997936,219.07393319997936,219.07393319997936,10,5,"[0.0011934000067412853, 0.11709369998425245, 0.217152499826625, 0.3005372998304665, 0.3673711000010371]","[0.05048400000669062, 0.16707869991660118, 0.28364739986136556, 0.3338941000401974, 0.3673767999280244]",219.07393319997936,219.27416869997978,6.1,219.27416869997978,1,6.1,1,1,1000,num_4,0.7489979001693428,,35,5,2026-03-13_13h39.05.710,2026A_exp2,2022.2.4,60.02491026190116,
1,0,0.0,4.9,0,0,16,16,70,,,,,220.04153109993786,220.69228870002553,220.69228870002553,221.17657919996418,45,45,221.17657919996418,221.17657919996418,221.17657919996418,221.17657919996418,221.17657919996418,221.17657919996418,221.17657919996418,221.17657919996418,221.17657919996418,221.54321779985912,221.54321779985912,221.54321779985912,221.54321779985912,221.54321779985912,221.54321779985912,221.54321779985912,221.54321779985912,221.54321779985912,23,0,,,221.54321779985912,221.7433557000477,0.0,221.7433557000477,0,0.0,0,1,1000,num_1,0.4474298001732677,,35,5,2026-03-13_13h39.05.710,2026A_exp2,2022.2.4,60.02491026190116,
1000,1,4.9,0.0,1,0,17,17,48,,,,,222.21042590006255,222.84447190002538,222.84447190002538,223.34552700002678,45,315,223.34552700002678,223.34552700002678,223.34552700002678,223.34552700002678,223.34552700002678,223.34552700002678,223.34552700002678,223.34552700002678,223.34552700002678,223.71187409991398,223.71187409991398,223.71187409991398,223.71187409991398,223.71187409991398,223.71187409991398,223.71187409991398,223.71187409991398,223.71187409991398,23,0,,,223.71187409991398,223.91400719992816,1000,223.91400719992816,1000,1000,1000,1000,0,num_3,0.6533773001283407,,35,5,2026-03-13_13h39.05.710,2026A_exp2,2022.2.4,60.02491026190116,
1000,1,3.7,0.0,0,0,18,18,39,,,,,224.59611200005747,225.24689870001748,225.24689870001748,225.74794719996862,315,45,225.74794719996862,225.74794719996862,225.74794719996862,225.74794719996862,225.74794719996862,225.74794719996862,225.74794719996862,225.74794719996862,225.74794719996862,226.0975925999228,226.0975925999228,226.0975925999228,226.0975925999228,226.0975925999228,226.0975925999228,226.0975925999228,226.0975925999228,226.0975925999228,16,4,"[0.050204900093376637, 0.16704110009595752, 0.2837765000294894, 0.3504252000711858]","[0.06696700002066791, 0.18359420006163418, 0.33375749993138015, 0.3504306999966502]",226.0975925999228,226.3004932999611,1000,226.3004932999611,1000,1000,1000,1000,1,num_2,0.7469091000966728,,35,5,2026-03-13_13h39.05.710,2026A_exp2,2022.2.4,60.02491026190116,
1000,1,0.0,3.7,1,0,19,19,88,,,,,227.06530450005084,227.71601579990238,227.71601579990238,228.21699570002966,315,45,228.21699570002966,228.21699570002966,228.21699570002966,228.21699570002966,228.21699570002966,228.21699570002966,228.21699570002966,228.21699570002966,228.21699570002966,228.56671749986708,228.56671749986708,228.56671749986708,228.56671749986708,228.56671749986708,228.56671749986708,228.56671749986708,228.56671749986708,228.56671749986708,22,0,,,228.56671749986708,228.76885079988278,1000,228.76885079988278,1000,1000,1000,1000,1,num_2,0.6309047001414001,,35,5,2026-03-13_13h39.05.710,2026A_exp2,2022.2.4,60.02491026190116,
1000,1,6.1,0.0,0,0,20,20,58,,,,,229.41759569989517,230.0684211999178,230.0684211999178,230.58451349986717,315,45,230.58451349986717,230.58451349986717,230.58451349986717,230.58451349986717,230.58451349986717,230.58451349986717,230.58451349986717,230.58451349986717,230.58451349986717,230.93587150005624,230.93587150005624,230.93587150005624,230.93587150005624,230.93587150005624,230.93587150005624,230.93587150005624,230.93587150005624,230.93587150005624,23,0,,,230.93587150005624,231.13785729999654,1000,231.13785729999654,1000,1000,1000,1000,0,num_3,0.542185400146991,,35,5,2026-03-13_13h39.05.710,2026A_exp2,2022.2.4,60.02491026190116,
1,0,0.0,4.9,0,0,21,21,32,,,,,231.7031191000715,232.35373149998486,232.35373149998486,232.85494509991258,45,45,232.85494509991258,232.85494509991258,232.85494509991258,232.85494509991258,232.85494509991258,232.85494509991258,232.85494509991258,232.85494509991258,232.85494509991258,233.20467519992962,233.20467519992962,233.20467519992962,233.20467519992962,233.20467519992962,233.20467519992962,233.20467519992962,233.20467519992962,233.20467519992962,22,0,,,233.20467519992962,233.40492979995906,0.0,233.42161000007764,0,0.0,0,1,1000,num_1,0.6904874001629651,,35,5,2026-03-13_13h39.05.710,2026A_exp2,2022.2.4,60.02491026190116,
1000,1,3.7,0.0,0,0,22,22,86,,,,,234.13900629989803,234.7897534999065,234.7897534999065,235.27433969988488,45,315,235.27433969988488,235.27433969988488,235.27433969988488,235.27433969988488,235.27433969988488,235.27433969988488,235.27433969988488,235.27433969988488,235.27433969988488,235.64066959987395,235.64066959987395,235.64066959987395,235.64066959987395,235.64066959987395,235.64066959987395,235.64066959987395,235.64066959987395,235.64066959987395,23,0,,,235.64066959987395,235.84064519987442,1000,235.84064519987442,1000,1000,1000,1000,0,num_3,0.6140605001710355,,35,5,2026-03-13_13h39.05.710,2026A_exp2,2022.2.4,60.02491026190116,
0,0,3.7,0.0,0,0,23,23,18,,,,,236.47466319985688,237.12542350008152,237.12542350008152,237.6265922000166,315,45,237.6265922000166,237.6265922000166,237.6265922000166,237.6265922000166,237.6265922000166,237.6265922000166,237.6265922000166,237.6265922000166,237.6265922000166,237.99292879994027,237.99292879994027,237.99292879994027,237.99292879994027,237.99292879994027,237.99292879994027,237.99292879994027,237.99292879994027,237.99292879994027,19,2,"[0.0999169999267906, 0.21700199996121228]","[0.13365319999866188, 0.23369350004941225]",237.99292879994027,238.19304460007697,0.0,238.19304460007697,0,0.0,0,1,1000,num_1,0.606760400114581,,35,5,2026-03-13_13h39.05.710,2026A_exp2,2022.2.4,60.02491026190116,
1000,1,3.7,6.1,0,0,24,24,60,,,,,238.8272656998597,239.47776649985462,239.47776649985462,239.9622472000774,45,315,239.9622472000774,239.9622472000774,239.9622472000774,239.9622472000774,239.9622472000774,239.9622472000774,239.9622472000774,239.9622472000774,239.9622472000774,240.32854199991561,240.32854199991561,240.32854199991561,240.32854199991561,240.32854199991561,240.32854199991561,240.32854199991561,240.32854199991561,240.32854199991561,22,1,[0.08346780017018318],[0.10031270002946258],240.32854199991561,240.53076900006272,1000,240.53076900006272,1000,1000,1000,1000,1,num_2,0.6365473000332713,,35,5,2026-03-13_13h39.05.710,2026A_exp2,2022.2.4,60.02491026190116,
1000,1,0.0,6.1,1,0,25,25,74,,,,,241.19621560000814,241.8468494999688,241.8468494999688,242.347883899929,45,45,242.347883899929,242.347883899929,242.347883899929,242.347883899929,242.347883899929,242.347883899929,242.347883899929,242.347883899929,242.347883899929,242.71426189993508,242.71426189993508,242.71426189993508,242.71426189993508,242.71426189993508,242.71426189993508,242.71426189993508,242.71426189993508,242.71426189993508,23,0,,,242.71426189993508,242.91619369992986,1000,242.91619369992986,1000,1000,1000,1000,1,num_2,0.562778300140053,,35,5,2026-03-13_13h39.05.710,2026A_exp2,2022.2.4,60.02491026190116,
0,0,0.0,3.7,1,0,26,26,53,,,,,243.49845339986496,244.14911610004492,244.14911610004492,244.6459993000608,315,315,244.6459993000608,244.6459993000608,244.6459993000608,244.6459993000608,244.6459993000608,244.6459993000608,244.6459993000608,244.6459993000608,244.6459993000608,245.00009949994273,245.00009949994273,245.00009949994273,245.00009949994273,245.00009949994273,245.00009949994273,245.00009949994273,245.00009949994273,245.00009949994273,23,0,,,245.00009949994273,245.21077169990167,0.0,245.21077169990167,0,0.0,0,1,1000,num_1,0.7331654001027346,,35,5,2026-03-13_13h39.05.710,2026A_exp2,2022.2.4,60.02491026190116,
1000,1,0.0,4.9,0,0,27,27,0,,,,,245.96743109985255,246.61841350002214,246.61841350002214,247.10268979985267,315,45,247.10268979985267,247.10268979985267,247.10268979985267,247.10268979985267,247.10268979985267,247.10268979985267,247.10268979985267,247.10268979985267,247.10268979985267,247.4689517999068,247.4689517999068,247.4689517999068,247.4689517999068,247.4689517999068,247.4689517999068,247.4689517999068,247.4689517999068,247.4689517999068,21,2,"[0.033452400006353855, 0.2003836000803858]","[0.0499141002073884, 0.21702730003744364]",247.4689517999068,247.66933110007085,1000,247.66933110007085,1000,1000,1000,1000,1,num_2,0.5376866001170129,,35,5,2026-03-13_13h39.05.710,2026A_exp2,2022.2.4,60.02491026190116,
1,0,6.1,6.1,1,0,28,28,47,,,,,248.23628419986926,248.88720469991677,248.88720469991677,249.38834129995666,315,45,249.38834129995666,249.38834129995666,249.38834129995666,249.38834129995666,249.38834129995666,249.38834129995666,249.38834129995666,249.38834129995666,249.38834129995666,249.75478939991444,249.75478939991444,249.75478939991444,249.75478939991444,249.75478939991444,249.75478939991444,249.75478939991444,249.75478939991444,249.75478939991444,23,0,,,249.75478939991444,249.95508829993196,6.1,249.95508829993196,1,6.1,1,1,1000,num_4,0.7715918002650142,,35,5,2026-03-13_13h39.05.710,2026A_exp2,2022.2.4,60.02491026190116,
1000,1,0.0,0.0,0,0,29,29,57,,,,,250.75564069999382,251.40632209996693,251.40632209996693,251.89090989995748,315,315,251.89090989995748,251.89090989995748,251.89090989995748,251.89090989995748,251.89090989995748,251.89090989995748,251.89090989995748,251.89090989995748,251.89090989995748,252.2570513000246,252.2570513000246,252.2570513000246,252.2570513000246,252.2570513000246,252.2570513000246,252.2570513000246,252.2570513000246,252.2570513000246,21,1,[0.03347240015864372],[0.0666954000480473],252.2570513000246,252.45896149985492,1000,252.45896149985492,1000,1000,1000,1000,1,num_2,1.1639181000646204,,35,5,2026-03-13_13h39.05.710,2026A_exp2,2022.2.4,60.02491026190116,
1000,1,3.7,0.0,0,0,30,30,35,,,,,253.64175059995614,254.29250969993882,254.29250969993882,254.79377430002205,45,45,254.79377430002205,254.79377430002205,254.79377430002205,254.79377430002205,254.79377430002205,254.79377430002205,254.79377430002205,254.79377430002205,254.79377430002205,255.16012839996256,255.16012839996256,255.16012839996256,255.16012839996256,255.16012839996256,255.16012839996256,255.16012839996256,255.16012839996256,255.16012839996256,6,2,"[0.06714419997297227, 0.28376809996552765]","[0.267217299900949, 0.3672743998467922]",255.16012839996256,255.36257939995266,1000,255.36257939995266,1000,1000,1000,1000,0,num_3,0.5403364000376314,,35,5,2026-03-13_13h39.05.710,2026A_exp2,2022.2.4,60.02491026190116,
1000,1,0.0,6.1,1,0,31,31,13,,,,,255.92743739997968,256.57815900002606,256.57815900002606,257.07933259988204,45,45,257.07933259988204,257.07933259988204,257.07933259988204,257.07933259988204,257.07933259988204,257.07933259988204,257.07933259988204,257.07933259988204,257.07933259988204,257.4455828999635,257.4455828999635,257.4455828999635,257.4455828999635,257.4455828999635,257.4455828999635,257.4455828999635,257.4455828999635,257.4455828999635,10,3,"[0.0012560999020934105, 0.20067310007289052, 0.2506224000826478]","[0.10049339989200234, 0.23403299995698035, 0.33406320004723966]",257.4455828999635,257.6475255000405,1000,257.6475255000405,1000,1000,1000,1000,1,num_2,0.6311550000682473,,35,5,2026-03-13_13h39.05.710,2026A_exp2,2022.2.4,60.02491026190116,
1000,1,4.9,0.0,1,0,32,32,67,,,,,258.2966994999442,258.94737309985794,258.94737309985794,259.44827629998326,315,315,259.44827629998326,259.44827629998326,259.44827629998326,259.44827629998326,259.44827629998326,259.44827629998326,259.44827629998326,259.44827629998326,259.44827629998326,259.79795089992695,259.79795089992695,259.79795089992695,259.79795089992695,259.79795089992695,259.79795089992695,259.79795089992695,259.79795089992695,259.79795089992695,22,0,,,259.79795089992695,259.99988660006784,1000,259.99988660006784,1000,1000,1000,1000,1,num_2,0.5911751000676304,,35,5,2026-03-13_13h39.05.710,2026A_exp2,2022.2.4,60.02491026190116,
1000,1,0.0,0.0,0,0,33,33,45,,,,,260.6154618000146,261.2661085999571,261.2661085999571,261.7674692000728,45,315,261.7674692000728,261.7674692000728,261.7674692000728,261.7674692000728,261.7674692000728,261.7674692000728,261.7674692000728,261.7674692000728,261.7674692000728,262.1335865999572,262.1335865999572,262.1335865999572,262.1335865999572,262.1335865999572,262.1335865999572,262.1335865999572,262.1335865999572,262.1335865999572,23,0,,,262.1335865999572,262.3357148000505,1000,262.3357148000505,1000,1000,1000,1000,0,num_3,0.591236500069499,,35,5,2026-03-13_13h39.05.710,2026A_exp2,2022.2.4,60.02491026190116,
1000,1,0.0,0.0,0,0,34,34,64,,,,,262.95110729988664,263.60197319998406,263.60197319998406,264.1029693998862,45,45,264.1029693998862,264.1029693998862,264.1029693998862,264.1029693998862,264.1029693998862,264.1029693998862,264.1029693998862,264.1029693998862,264.1029693998862,264.46947930008173,264.46947930008173,264.46947930008173,264.46947930008173,264.46947930008173,264.46947930008173,264.46947930008173,264.46947930008173,264.46947930008173,7,5,"[0.001236999873071909, 0.13340869988314807, 0.18329409998841584, 0.28377399989403784, 0.3336801999248564]","[0.11707609985023737, 0.16623989981599152, 0.23345729988068342, 0.3169984999112785, 0.36710189981386065]",264.46947930008173,264.67115589999594,1000,264.67115589999594,1000,1000,1000,1000,0,num_3,0.7517704002093524,,35,5,2026-03-13_13h39.05.710,2026A_exp2,2022.2.4,60.02491026190116,
0,0,3.7,0.0,1,0,35,35,1,,,,,265.45359129994176,266.104448299855,266.104448299855,266.60545639996417,315,315,266.60545639996417,266.60545639996417,266.60545639996417,266.60545639996417,266.60545639996417,266.60545639996417,266.60545639996417,266.60545639996417,266.60545639996417,266.9718406999018,266.9718406999018,266.9718406999018,266.9718406999018,266.9718406999018,266.9718406999018,266.9718406999018,266.9718406999018,266.9718406999018,12,4,"[0.0012000000569969416, 0.10030190018005669, 0.23379800003021955, 0.3337203999981284]","[0.06693790014833212, 0.13361610006541014, 0.3005006001330912, 0.35050499998033047]",266.9718406999018,267.1721727999393,3.7,267.1721727999393,0,3.7,1,0,1000,num_1,0.7708928999491036,,35,5,2026-03-13_13h39.05.710,2026A_exp2,2022.2.4,60.02491026190116,
1,0,0.0,4.9,0,0,36,36,14,,,,,267.97297849995084,268.6069614998996,268.6069614998996,269.1079432000406,45,45,269.1079432000406,269.1079432000406,269.1079432000406,269.1079432000406,269.1079432000406,269.1079432000406,269.1079432000406,269.1079432000406,269.1079432000406,269.4744716999121,269.4744716999121,269.4744716999121,269.4744716999121,269.4744716999121,269.4744716999121,269.4744716999121,269.4744716999121,269.4744716999121,23,0,,,269.4744716999121,269.67463109991513,0.0,269.67463109991513,1,0.0,0,0,1000,num_4,0.861490200040862,,35,5,2026-03-13_13h39.05.710,2026A_exp2,2022.2.4,60.02491026190116,
1000,1,4.9,0.0,0,0,37,37,50,,,,,270.5587160999421,271.20957489986904,271.20957489986904,271.6939505999908,45,315,271.6939505999908,271.6939505999908,271.6939505999908,271.6939505999908,271.6939505999908,271.6939505999908,271.6939505999908,271.6939505999908,271.6939505999908,272.0602464999538,272.0602464999538,272.0602464999538,272.0602464999538,272.0602464999538,272.0602464999538,272.0602464999538,272.0602464999538,272.0602464999538,6,4,"[0.001201600069180131, 0.11702420003712177, 0.23377469996921718, 0.2672335000243038]","[0.06691120006144047, 0.20046990015543997, 0.2504594000056386, 0.36733720009215176]",272.0602464999538,272.2625615999568,1000,272.2625615999568,1000,1000,1000,1000,0,num_3,0.5605013000313193,,35,5,2026-03-13_13h39.05.710,2026A_exp2,2022.2.4,60.02491026190116,
1000,1,6.1,0.0,1,0,38,38,79,,,,,272.844295399962,273.4951565999072,273.4951565999072,273.9962819998618,45,315,273.9962819998618,273.9962819998618,273.9962819998618,273.9962819998618,273.9962819998618,273.9962819998618,273.9962819998618,273.9962819998618,273.9962819998618,274.3459822998848,274.3459822998848,274.3459822998848,274.3459822998848,274.3459822998848,274.3459822998848,274.3459822998848,274.3459822998848,274.3459822998848,14,6,"[0.0175010000821203, 0.0836654999293387, 0.16649050009436905, 0.23386580008082092, 0.31722360011190176, 0.3506400999613106]","[0.03361340006813407, 0.10034639993682504, 0.18337019998580217, 0.2838453999720514, 0.3338130998890847, 0.3506459998898208]",274.3459822998848,274.547964700032,1000,274.547964700032,1000,1000,1000,1000,0,num_3,0.8356042001396418,,35,5,2026-03-13_13h39.05.710,2026A_exp2,2022.2.4,60.02491026190116,
0,0,4.9,0.0,0,0,39,39,84,,,,,275.4136318999808,276.0642921999097,276.0642921999097,276.56554430001415,45,315,276.56554430001415,276.56554430001415,276.56554430001415,276.56554430001415,276.56554430001415,276.56554430001415,276.56554430001415,276.56554430001415,276.56554430001415,276.93187520001084,276.93187520001084,276.93187520001084,276.93187520001084,276.93187520001084,276.93187520001084,276.93187520001084,276.93187520001084,276.93187520001084,22,1,[0.05029459996148944],[0.06652689981274307],276.93187520001084,277.13188429991715,0.0,277.13188429991715,0,0.0,0,1,1000,num_1,0.9074639999307692,,35,5,2026-03-13_13h39.05.710,2026A_exp2,2022.2.4,60.02491026190116,
0,0,4.9,0.0,0,0,40,40,40,,,,,278.066412899876,278.7169142998755,278.7169142998755,279.2014599998947,45,315,279.2014599998947,279.2014599998947,279.2014599998947,279.2014599998947,279.2014599998947,279.2014599998947,279.2014599998947,279.2014599998947,279.2014599998947,279.56790310004726,279.56790310004726,279.56790310004726,279.56790310004726,279.56790310004726,279.56790310004726,279.56790310004726,279.56790310004726,279.56790310004726,16,6,"[0.01745759998448193, 0.1170232999138534, 0.1669864000286907, 0.21745029999874532, 0.2673333000857383, 0.31756639992818236]","[0.033335099928081036, 0.1337876000907272, 0.18422679998911917, 0.2507366999052465, 0.28391389991156757, 0.3338097999803722]",279.56790310004726,279.76807989994995,0.0,279.76807989994995,0,0.0,0,1,1000,num_1,1.0796505003236234,,35,5,2026-03-13_13h39.05.710,2026A_exp2,2022.2.4,60.02491026190116,
1000,1,6.1,4.9,0,0,41,41,81,,,,,280.8689834000543,281.5197477999609,281.5197477999609,282.00425949995406,45,45,282.00425949995406,282.00425949995406,282.00425949995406,282.00425949995406,282.00425949995406,282.00425949995406,282.00425949995406,282.00425949995406,282.00425949995406,282.3706406999845,282.3706406999845,282.3706406999845,282.3706406999845,282.3706406999845,282.3706406999845,282.3706406999845,282.3706406999845,282.3706406999845,23,0,,,282.3706406999845,282.5725171000231,1000,282.5725171000231,1000,1000,1000,1000,0,num_3,0.5303366002626717,,35,5,2026-03-13_13h39.05.710,2026A_exp2,2022.2.4,60.02491026190116,
1000,1,0.0,0.0,0,0,42,42,89,,,,,283.1212903999258,283.7721023000777,283.7721023000777,284.2732023000717,315,315,284.2732023000717,284.2732023000717,284.2732023000717,284.2732023000717,284.2732023000717,284.2732023000717,284.2732023000717,284.2732023000717,284.2732023000717,284.63959080004133,284.63959080004133,284.63959080004133,284.63959080004133,284.63959080004133,284.63959080004133,284.63959080004133,284.63959080004133,284.63959080004133,20,2,"[0.050228800158947706, 0.09968580002896488]","[0.06673349998891354, 0.1331855000462383]",284.63959080004133,284.8414836998563,1000,284.8414836998563,1000,1000,1000,1000,1,num_2,0.893540299963206,,35,5,2026-03-13_13h39.05.710,2026A_exp2,2022.2.4,60.02491026190116,
1,0,0.0,0.0,0,0,43,43,80,,,,,285.75722939986736,286.40810699993744,286.40810699993744,286.9091191999614,45,315,286.9091191999614,286.9091191999614,286.9091191999614,286.9091191999614,286.9091191999614,286.9091191999614,286.9091191999614,286.9091191999614,286.9091191999614,287.27560629998334,287.27560629998334,287.27560629998334,287.27560629998334,287.27560629998334,287.27560629998334,287.27560629998334,287.27560629998334,287.27560629998334,23,0,,,287.27560629998334,287.4758917000145,0.0,287.4758917000145,0,0.0,0,1,1000,num_1,0.7718140000943094,,35,5,2026-03-13_13h39.05.710,2026A_exp2,2022.2.4,60.02491026190116,
1000,1,0.0,0.0,0,0,44,44,65,,,,,288.2764570999425,288.92724990006536,288.92724990006536,289.41143859992735,45,315,289.41143859992735,289.41143859992735,289.41143859992735,289.41143859992735,289.41143859992735,289.41143859992735,289.41143859992735,289.41143859992735,289.41143859992735,289.7781072999351,289.7781072999351,289.7781072999351,289.7781072999351,289.7781072999351,289.7781072999351,289.7781072999351,289.7781072999351,289.7781072999351,21,2,"[0.050587099976837635, 0.08394689997658134]","[0.06704079988412559, 0.10044429986737669]",289.7781072999351,289.97993709985167,1000,289.97993709985167,1000,1000,1000,1000,1,num_2,1.0349332001060247,,35,5,2026-03-13_13h39.05.710,2026A_exp2,2022.2.4,60.02491026190116,
1000,1,0.0,0.0,1,0,45,45,55,,,,,291.04589150007814,291.6967136000749,291.6967136000749,292.19776410004124,315,315,292.19776410004124,292.19776410004124,292.19776410004124,292.19776410004124,292.19776410004124,292.19776410004124,292.19776410004124,292.19776410004124,292.19776410004124,292.5640894998796,292.5640894998796,292.5640894998796,292.5640894998796,292.5640894998796,292.5640894998796,292.5640894998796,292.5640894998796,292.5640894998796,18,4,"[0.001239399891346693, 0.16687650000676513, 0.25036579999141395, 0.3170896000228822]","[0.017286800080910325, 0.18361960002221167, 0.2671334999613464, 0.35048709996044636]",292.5640894998796,292.76642429991625,1000,292.76642429991625,1000,1000,1000,1000,0,num_3,0.7443044001702219,,35,5,2026-03-13_13h39.05.710,2026A_exp2,2022.2.4,60.02491026190116,
1,0,6.1,0.0,1,0,46,46,17,,,,,293.5316824999172,294.18242680002004,294.18242680002004,294.68363810004666,315,45,294.68363810004666,294.68363810004666,294.68363810004666,294.68363810004666,294.68363810004666,294.68363810004666,294.68363810004666,294.68363810004666,294.68363810004666,295.0500222998671,295.0500222998671,295.0500222998671,295.0500222998671,295.0500222998671,295.0500222998671,295.0500222998671,295.0500222998671,295.0500222998671,23,0,,,295.0500222998671,295.25006220000796,0.0,295.25006220000796,0,0.0,0,1,1000,num_1,0.7090623001568019,,35,5,2026-03-13_13h39.05.710,2026A_exp2,2022.2.4,60.02491026190116,
1000,1,3.7,6.1,1,0,47,47,75,,,,,295.98392680007964,296.63488380005583,296.63488380005583,297.1194112000521,315,315,297.1194112000521,297.1194112000521,297.1194112000521,297.1194112000521,297.1194112000521,297.1194112000521,297.1194112000521,297.1194112000521,297.1194112000521,297.4857397999149,297.4857397999149,297.4857397999149,297.4857397999149,297.4857397999149,297.4857397999149,297.4857397999149,297.4857397999149,297.4857397999149,23,0,,,297.4857397999149,297.6876355998684,1000,297.6876355998684,1000,1000,1000,1000,1,num_2,0.6724695002194494,,35,5,2026-03-13_13h39.05.710,2026A_exp2,2022.2.4,60.02491026190116,
1000,1,6.1,3.7,1,0,48,48,11,,,,,298.3868571999483,299.03734799986705,299.03734799986705,299.53851719992235,45,45,299.53851719992235,299.53851719992235,299.53851719992235,299.53851719992235,299.53851719992235,299.53851719992235,299.53851719992235,299.53851719992235,299.53851719992235,299.90469340002164,299.90469340002164,299.90469340002164,299.90469340002164,299.90469340002164,299.90469340002164,299.90469340002164,299.90469340002164,299.90469340002164,8,5,"[0.0009997999295592308, 0.05030660005286336, 0.16723189991898835, 0.21719869994558394, 0.3673125000204891]","[0.0174620000179857, 0.13364699995145202, 0.18391070002689958, 0.3506235000677407, 0.36731810006313026]",299.90469340002164,300.1067683000583,1000,300.1067683000583,1000,1000,1000,1000,0,num_3,0.5893185001332313,,35,5,2026-03-13_13h39.05.710,2026A_exp2,2022.2.4,60.02491026190116,
1000,1,3.7,0.0,0,0,49,49,69,,,,,300.722309499979,301.3730919000227,301.3730919000227,301.87937860004604,45,45,301.87937860004604,301.87937860004604,301.87937860004604,301.87937860004604,301.87937860004604,301.87937860004604,301.87937860004604,301.87937860004604,301.87937860004604,302.2401262000203,302.2401262000203,302.2401262000203,302.2401262000203,302.2401262000203,302.2401262000203,302.2401262000203,302.2401262000203,302.2401262000203,23,0,,,302.2401262000203,302.44299110001884,1000,302.44299110001884,1000,1000,1000,1000,0,num_3,0.5319958999752998,,35,5,2026-03-13_13h39.05.710,2026A_exp2,2022.2.4,60.02491026190116,
1000,1,0.0,0.0,1,0,50,50,29,,,,,302.9911805000156,303.64192029996775,303.64192029996775,304.14306030003354,315,45,304.14306030003354,304.14306030003354,304.14306030003354,304.14306030003354,304.14306030003354,304.14306030003354,304.14306030003354,304.14306030003354,304.14306030003354,304.49269860005006,304.49269860005006,304.49269860005006,304.49269860005006,304.49269860005006,304.49269860005006,304.49269860005006,304.49269860005006,304.49269860005006,22,0,,,304.49269860005006,304.69574099988677,1000,304.69574099988677,1000,1000,1000,1000,0,num_3,0.47976350015960634,,35,5,2026-03-13_13h39.05.710,2026A_exp2,2022.2.4,60.02491026190116,
1000,1,0.0,0.0,1,0,51,51,3,,,,,305.1933617000468,305.84422479989007,305.84422479989007,306.34520359989256,45,315,306.34520359989256,306.34520359989256,306.34520359989256,306.34520359989256,306.34520359989256,306.34520359989256,306.34520359989256,306.34520359989256,306.34520359989256,306.71172899985686,306.71172899985686,306.71172899985686,306.71172899985686,306.71172899985686,306.71172899985686,306.71172899985686,306.71172899985686,306.71172899985686,23,0,,,306.71172899985686,306.91348330001347,1000,306.91348330001347,1000,1000,1000,1000,0,num_3,0.405304100131616,,35,5,2026-03-13_13h39.05.710,2026A_exp2,2022.2.4,60.02491026190116,
1,0,3.7,6.1,1,0,52,52,68,,,,,307.34555239998735,307.9962289999239,307.9962289999239,308.49745159992017,315,315,308.49745159992017,308.49745159992017,308.49745159992017,308.49745159992017,308.49745159992017,308.49745159992017,308.49745159992017,308.49745159992017,308.49745159992017,308.84680589986965,308.84680589986965,308.84680589986965,308.84680589986965,308.84680589986965,308.84680589986965,308.84680589986965,308.84680589986965,308.84680589986965,22,0,,,308.84680589986965,309.0472099999897,6.1,309.06406440003775,1,6.1,1,1,1000,num_4,0.5353383000474423,,35,5,2026-03-13_13h39.05.710,2026A_exp2,2022.2.4,60.02491026190116,
1000,1,0.0,0.0,1,0,53,53,73,,,,,309.631251799874,310.28195669990964,310.28195669990964,310.76636460004374,315,45,310.76636460004374,310.76636460004374,310.76636460004374,310.76636460004374,310.76636460004374,310.76636460004374,310.76636460004374,310.76636460004374,310.76636460004374,311.13280349993147,311.13280349993147,311.13280349993147,311.13280349993147,311.13280349993147,311.13280349993147,311.13280349993147,311.13280349993147,311.13280349993147,23,0,,,311.13280349993147,311.3347191999201,1000,311.3347191999201,1000,1000,1000,1000,0,num_3,0.3850304002407938,,35,5,2026-03-13_13h39.05.710,2026A_exp2,2022.2.4,60.02491026190116,
1000,1,0.0,0.0,1,0,54,54,2,,,,,311.7499681999907,312.40678409999236,312.40678409999236,312.9018474998884,45,315,312.9018474998884,312.9018474998884,312.9018474998884,312.9018474998884,312.9018474998884,312.9018474998884,312.9018474998884,312.9018474998884,312.9018474998884,313.26808819989674,313.26808819989674,313.26808819989674,313.26808819989674,313.26808819989674,313.26808819989674,313.26808819989674,313.26808819989674,313.26808819989674,23,0,,,313.26808819989674,313.4703472000547,1000,313.4703472000547,1000,1000,1000,1000,0,num_3,0.44127080007456243,,35,5,2026-03-13_13h39.05.710,2026A_exp2,2022.2.4,60.02491026190116,
1000,1,0.0,0.0,0,0,55,55,7,,,,,313.93562050000764,314.58628219994716,314.58628219994716,315.07071030000225,315,315,315.07071030000225,315.07071030000225,315.07071030000225,315.07071030000225,315.07071030000225,315.07071030000225,315.07071030000225,315.07071030000225,315.07071030000225,315.43681710003875,315.43681710003875,315.43681710003875,315.43681710003875,315.43681710003875,315.43681710003875,315.43681710003875,315.43681710003875,315.43681710003875,23,0,,,315.43681710003875,315.63884659996256,1000,315.63884659996256,1000,1000,1000,1000,0,num_3,0.44006660021841526,,35,5,2026-03-13_13h39.05.710,2026A_exp2,2022.2.4,60.02491026190116,
1,0,0.0,4.9,1,0,56,56,54,,,,,316.1042913000565,316.75511429994367,316.75511429994367,317.2561647000257,45,315,317.2561647000257,317.2561647000257,317.2561647000257,317.2561647000257,317.2561647000257,317.2561647000257,317.2561647000257,317.2561647000257,317.2561647000257,317.60596459987573,317.60596459987573,317.60596459987573,317.60596459987573,317.60596459987573,317.60596459987573,317.60596459987573,317.60596459987573,317.60596459987573,22,0,,,317.60596459987573,317.80605029989965,4.9,317.80605029989965,1,4.9,1,1,1000,num_4,0.553220700006932,,35,5,2026-03-13_13h39.05.710,2026A_exp2,2022.2.4,60.02491026190116,
1000,1,6.1,4.9,0,0,57,57,51,,,,,318.3897259000223,319.0406352998689,319.0406352998689,319.52516359998845,45,45,319.52516359998845,319.52516359998845,319.52516359998845,319.52516359998845,319.52516359998845,319.52516359998845,319.52516359998845,319.52516359998845,319.52516359998845,319.891382999951,319.891382999951,319.891382999951,319.891382999951,319.891382999951,319.891382999951,319.891382999951,319.891382999951,319.891382999951,23,0,,,319.891382999951,320.0934005000163,1000,320.0934005000163,1000,1000,1000,1000,0,num_3,0.48987280018627644,,35,5,2026-03-13_13h39.05.710,2026A_exp2,2022.2.4,60.02491026190116,
1000,1,0.0,3.7,0,0,58,58,43,,,,,320.60900619998574,321.2594353000168,321.2594353000168,321.74414639989845,45,45,321.74414639989845,321.74414639989845,321.74414639989845,321.74414639989845,321.74414639989845,321.74414639989845,321.74414639989845,321.74414639989845,321.74414639989845,322.1102394000627,322.1102394000627,322.1102394000627,322.1102394000627,322.1102394000627,322.1102394000627,322.1102394000627,322.1102394000627,322.1102394000627,23,0,,,322.1102394000627,322.33294390002266,1000,322.33294390002266,1000,1000,1000,1000,1,num_2,0.49792380002327263,,35,5,2026-03-13_13h39.05.710,2026A_exp2,2022.2.4,60.02491026190116,
0,0,6.1,0.0,0,0,59,59,41,,,,,322.8608496999368,323.51177320000716,323.51177320000716,324.01308210007846,45,45,324.01308210007846,324.01308210007846,324.01308210007846,324.01308210007846,324.01308210007846,324.01308210007846,324.01308210007846,324.01308210007846,324.01308210007846,324.3791839000769,324.3791839000769,324.3791839000769,324.3791839000769,324.3791839000769,324.3791839000769,324.3791839000769,324.3791839000769,324.3791839000769,23,0,,,324.3791839000769,324.5796113999095,0.0,324.5796113999095,0,0.0,0,1,1000,num_1,0.700172700220719,,35,5,2026-03-13_13h39.05.710,2026A_exp2,2022.2.4,60.02491026190116,
1,0,4.9,0.0,0,0,60,60,66,,,,,325.2968049000483,325.94742919993587,325.94742919993587,326.4477882999927,45,315,326.4477882999927,326.4477882999927,326.4477882999927,326.4477882999927,326.4477882999927,326.4477882999927,326.4477882999927,326.4477882999927,326.4477882999927,326.80087579996325,326.80087579996325,326.80087579996325,326.80087579996325,326.80087579996325,326.80087579996325,326.80087579996325,326.80087579996325,326.80087579996325,23,0,,,326.80087579996325,327.0154846999794,4.9,327.0154846999794,1,4.9,1,1,1000,num_4,0.4478749001864344,,35,5,2026-03-13_13h39.05.710,2026A_exp2,2022.2.4,60.02491026190116,
1000,1,6.1,0.0,0,0,61,61,27,,,,,327.4822686999105,328.1331024998799,328.1331024998799,328.617404300021,45,315,328.617404300021,328.617404300021,328.617404300021,328.617404300021,328.617404300021,328.617404300021,328.617404300021,328.617404300021,328.617404300021,328.9839653999079,328.9839653999079,328.9839653999079,328.9839653999079,328.9839653999079,328.9839653999079,328.9839653999079,328.9839653999079,328.9839653999079,23,0,,,328.9839653999079,329.186473299982,1000,329.186473299982,1000,1000,1000,1000,0,num_3,0.5336045001167804,,35,5,2026-03-13_13h39.05.710,2026A_exp2,2022.2.4,60.02491026190116,
1000,1,0.0,0.0,1,0,62,62,56,,,,,329.75131809990853,330.4018230000511,330.4018230000511,330.8868151998613,315,315,330.8868151998613,330.8868151998613,330.8868151998613,330.8868151998613,330.8868151998613,330.8868151998613,330.8868151998613,330.8868151998613,330.8868151998613,331.25351099995896,331.25351099995896,331.25351099995896,331.25351099995896,331.25351099995896,331.25351099995896,331.25351099995896,331.25351099995896,331.25351099995896,23,0,,,331.25351099995896,331.4542509999592,1000,331.4542509999592,1000,1000,1000,1000,0,num_3,0.4568610000424087,,35,5,2026-03-13_13h39.05.710,2026A_exp2,2022.2.4,60.02491026190116,
1000,1,0.0,6.1,0,0,63,63,61,,,,,331.93739379988983,332.5709527998697,332.5709527998697,333.07222880003974,45,45,333.07222880003974,333.07222880003974,333.07222880003974,333.07222880003974,333.07222880003974,333.07222880003974,333.07222880003974,333.07222880003974,333.07222880003974,333.4382148999721,333.4382148999721,333.4382148999721,333.4382148999721,333.4382148999721,333.4382148999721,333.4382148999721,333.4382148999721,333.4382148999721,23,0,,,333.4382148999721,333.6403025998734,1000,333.6403025998734,1000,1000,1000,1000,1,num_2,0.7428691000677645,,35,5,2026-03-13_13h39.05.710,2026A_exp2,2022.2.4,60.02491026190116,
1000,1,0.0,3.7,0,0,64,64,63,,,,,334.4059536999557,335.05712169990875,335.05712169990875,335.5573543999344,315,315,335.5573543999344,335.5573543999344,335.5573543999344,335.5573543999344,335.5573543999344,335.5573543999344,335.5573543999344,335.5573543999344,335.5573543999344,335.9070462998934,335.9070462998934,335.9070462998934,335.9070462998934,335.9070462998934,335.9070462998934,335.9070462998934,335.9070462998934,335.9070462998934,22,0,,,335.9070462998934,336.10770189994946,1000,336.10770189994946,1000,1000,1000,1000,1,num_2,0.6589353000745177,,35,5,2026-03-13_13h39.05.710,2026A_exp2,2022.2.4,60.02491026190116,
1000,1,0.0,0.0,0,0,65,65,62,,,,,336.79168689996004,337.44230940006673,337.44230940006673,337.94334580004215,315,315,337.94334580004215,337.94334580004215,337.94334580004215,337.94334580004215,337.94334580004215,337.94334580004215,337.94334580004215,337.94334580004215,337.94334580004215,338.3099527999293,338.3099527999293,338.3099527999293,338.3099527999293,338.3099527999293,338.3099527999293,338.3099527999293,338.3099527999293,338.3099527999293,23,0,,,338.3099527999293,338.5119535999838,1000,338.5119535999838,1000,1000,1000,1000,0,num_3,0.5918031001929194,,35,5,2026-03-13_13h39.05.710,2026A_exp2,2022.2.4,60.02491026190116,
0,0,0.0,0.0,0,0,66,66,15,,,,,339.1272761998698,339.77867610007524,339.77867610007524,340.27916430006735,315,45,340.27916430006735,340.27916430006735,340.27916430006735,340.27916430006735,340.27916430006735,340.27916430006735,340.27916430006735,340.27916430006735,340.27916430006735,340.6288246999029,340.6288246999029,340.6288246999029,340.6288246999029,340.6288246999029,340.6288246999029,340.6288246999029,340.6288246999029,340.6288246999029,22,0,,,340.6288246999029,340.82900479994714,0.0,340.84590870002285,1,0.0,0,0,1000,num_4,0.6410281001590192,,35,5,2026-03-13_13h39.05.710,2026A_exp2,2022.2.4,60.02491026190116,
1,0,0.0,6.1,0,0,67,67,24,,,,,341.51301919994876,342.16366890002973,342.16366890002973,342.6481153999921,315,315,342.6481153999921,342.6481153999921,342.6481153999921,342.6481153999921,342.6481153999921,342.6481153999921,342.6481153999921,342.6481153999921,342.6481153999921,343.01465620007366,343.01465620007366,343.01465620007366,343.01465620007366,343.01465620007366,343.01465620007366,343.01465620007366,343.01465620007366,343.01465620007366,23,0,,,343.01465620007366,343.21481309994124,0.0,343.21481309994124,0,0.0,0,1,1000,num_1,0.9528614000882953,,35,5,2026-03-13_13h39.05.710,2026A_exp2,2022.2.4,60.02491026190116,
1000,1,0.0,4.9,1,0,68,68,37,,,,,344.1989861000329,344.84982759994455,344.84982759994455,345.3340948999394,45,45,345.3340948999394,345.3340948999394,345.3340948999394,345.3340948999394,345.3340948999394,345.3340948999394,345.3340948999394,345.3340948999394,345.3340948999394,345.7006313998718,345.7006313998718,345.7006313998718,345.7006313998718,345.7006313998718,345.7006313998718,345.7006313998718,345.7006313998718,345.7006313998718,23,0,,,345.7006313998718,345.90243520005606,1000,345.90243520005606,1000,1000,1000,1000,0,num_3,0.5523794002365321,,35,5,2026-03-13_13h39.05.710,2026A_exp2,2022.2.4,60.02491026190116,
1000,1,0.0,6.1,1,0,69,69,42,,,,,346.4846987000201,347.13540380005725,347.13540380005725,347.6364320998546,315,315,347.6364320998546,347.6364320998546,347.6364320998546,347.6364320998546,347.6364320998546,347.6364320998546,347.6364320998546,347.6364320998546,347.6364320998546,348.00296949991025,348.00296949991025,348.00296949991025,348.00296949991025,348.00296949991025,348.00296949991025,348.00296949991025,348.00296949991025,348.00296949991025,23,0,,,348.00296949991025,348.2161866000388,1000,348.2161866000388,1000,1000,1000,1000,1,num_2,0.598616000264883,,35,5,2026-03-13_13h39.05.710,2026A_exp2,2022.2.4,60.02491026190116,
1000,1,0.0,0.0,0,0,70,70,72,,,,,348.8372825998813,349.48781199986115,349.48781199986115,349.98886819998734,45,315,349.98886819998734,349.98886819998734,349.98886819998734,349.98886819998734,349.98886819998734,349.98886819998734,349.98886819998734,349.98886819998734,349.98886819998734,350.33848909987137,350.33848909987137,350.33848909987137,350.33848909987137,350.33848909987137,350.33848909987137,350.33848909987137,350.33848909987137,350.33848909987137,20,1,[0.15030540013685822],[0.18339960020966828],350.33848909987137,350.5406015999615,1000,350.5406015999615,1000,1000,1000,1000,0,num_3,0.7307241999078542,,35,5,2026-03-13_13h39.05.710,2026A_exp2,2022.2.4,60.02491026190116,
1000,1,6.1,6.1,1,0,71,71,22,,,,,351.2894774999004,351.94013649993576,351.94013649993576,352.44123769993894,45,315,352.44123769993894,352.44123769993894,352.44123769993894,352.44123769993894,352.44123769993894,352.44123769993894,352.44123769993894,352.44123769993894,352.44123769993894,352.80775070004165,352.80775070004165,352.80775070004165,352.80775070004165,352.80775070004165,352.80775070004165,352.80775070004165,352.80775070004165,352.80775070004165,23,0,,,352.80775070004165,353.0096314998809,1000,353.0096314998809,1000,1000,1000,1000,1,num_2,0.6373187000863254,,35,5,2026-03-13_13h39.05.710,2026A_exp2,2022.2.4,60.02491026190116,
1000,1,0.0,3.7,1,0,72,72,4,,,,,353.67522899992764,354.3259689998813,354.3259689998813,354.82712929998524,45,45,354.82712929998524,354.82712929998524,354.82712929998524,354.82712929998524,354.82712929998524,354.82712929998524,354.82712929998524,354.82712929998524,354.82712929998524,355.1935284000356,355.1935284000356,355.1935284000356,355.1935284000356,355.1935284000356,355.1935284000356,355.1935284000356,355.1935284000356,355.1935284000356,23,0,,,355.1935284000356,355.39529570005834,1000,355.39529570005834,1000,1000,1000,1000,0,num_3,0.6437956001609564,,35,5,2026-03-13_13h39.05.710,2026A_exp2,2022.2.4,60.02491026190116,
1000,1,4.9,0.0,1,0,73,73,12,,,,,356.0609174000565,356.6950244999025,356.6950244999025,357.19602439994924,315,315,357.19602439994924,357.19602439994924,357.19602439994924,357.19602439994924,357.19602439994924,357.19602439994924,357.19602439994924,357.19602439994924,357.19602439994924,357.562573999865,357.562573999865,357.562573999865,357.562573999865,357.562573999865,357.562573999865,357.562573999865,357.562573999865,357.562573999865,23,0,,,357.562573999865,357.76475349999964,1000,357.76475349999964,1000,1000,1000,1000,0,num_3,0.47460549999959767,,35,5,2026-03-13_13h39.05.710,2026A_exp2,2022.2.4,60.02491026190116,
1,0,3.7,0.0,1,0,74,74,30,,,,,358.26312220003456,358.91381859988905,358.91381859988905,359.3983432999812,45,45,359.3983432999812,359.3983432999812,359.3983432999812,359.3983432999812,359.3983432999812,359.3983432999812,359.3983432999812,359.3983432999812,359.3983432999812,359.76490399986506,359.76490399986506,359.76490399986506,359.76490399986506,359.76490399986506,359.76490399986506,359.76490399986506,359.76490399986506,359.76490399986506,23,0,,,359.76490399986506,359.966493899934,0.0,359.966493899934,0,0.0,0,1,1000,num_1,0.7610019999556243,,35,5,2026-03-13_13h39.05.710,2026A_exp2,2022.2.4,60.02491026190116,
1000,1,0.0,4.9,0,0,75,75,8,,,,,360.74890029989183,361.3995624000672,361.3995624000672,361.88410030002706,315,315,361.88410030002706,361.88410030002706,361.88410030002706,361.88410030002706,361.88410030002706,361.88410030002706,361.88410030002706,361.88410030002706,361.88410030002706,362.2503937999718,362.2503937999718,362.2503937999718,362.2503937999718,362.2503937999718,362.2503937999718,362.2503937999718,362.2503937999718,362.2503937999718,23,0,,,362.2503937999718,362.45233389991336,1000,362.45233389991336,1000,1000,1000,1000,1,num_2,0.5464691000524908,,35,5,2026-03-13_13h39.05.710,2026A_exp2,2022.2.4,60.02491026190116,
1000,1,4.9,6.1,1,0,76,76,5,,,,,363.0177253000438,363.6684749999549,363.6684749999549,364.1696661999449,45,45,364.1696661999449,364.1696661999449,364.1696661999449,364.1696661999449,364.1696661999449,364.1696661999449,364.1696661999449,364.1696661999449,364.1696661999449,364.51932929991744,364.51932929991744,364.51932929991744,364.51932929991744,364.51932929991744,364.51932929991744,364.51932929991744,364.51932929991744,364.51932929991744,22,0,,,364.51932929991744,364.721307199914,1000,364.73649689997546,1000,1000,1000,1000,0,num_3,0.5347283000592142,,35,5,2026-03-13_13h39.05.710,2026A_exp2,2022.2.4,60.02491026190116,
1000,1,0.0,6.1,0,0,77,77,16,,,,,365.2867804998532,365.93755079992115,365.93755079992115,366.43861179985106,315,315,366.43861179985106,366.43861179985106,366.43861179985106,366.43861179985106,366.43861179985106,366.43861179985106,366.43861179985106,366.43861179985106,366.43861179985106,366.80503609986044,366.80503609986044,366.80503609986044,366.80503609986044,366.80503609986044,366.80503609986044,366.80503609986044,366.80503609986044,366.80503609986044,23,0,,,366.80503609986044,367.0065897000022,1000,367.0065897000022,1000,1000,1000,1000,1,num_2,0.5050829001702368,,35,5,2026-03-13_13h39.05.710,2026A_exp2,2022.2.4,60.02491026190116,
1000,1,0.0,6.1,0,0,78,78,20,,,,,367.53904840000905,368.1899258000776,368.1899258000776,368.690896499902,315,315,368.690896499902,368.690896499902,368.690896499902,368.690896499902,368.690896499902,368.690896499902,368.690896499902,368.690896499902,368.690896499902,369.04069949989207,369.04069949989207,369.04069949989207,369.04069949989207,369.04069949989207,369.04069949989207,369.04069949989207,369.04069949989207,369.04069949989207,22,0,,,369.04069949989207,369.2408107998781,1000,369.25776709988713,1000,1000,1000,1000,1,num_2,0.5104758001398295,,35,5,2026-03-13_13h39.05.710,2026A_exp2,2022.2.4,60.02491026190116,
1,0,4.9,0.0,1,0,79,79,34,,,,,369.791536899982,370.4420801999513,370.4420801999513,370.9431191999465,45,315,370.9431191999465,370.9431191999465,370.9431191999465,370.9431191999465,370.9431191999465,370.9431191999465,370.9431191999465,370.9431191999465,370.9431191999465,371.3095559999347,371.3095559999347,371.3095559999347,371.3095559999347,371.3095559999347,371.3095559999347,371.3095559999347,371.3095559999347,371.3095559999347,23,0,,,371.3095559999347,371.50965759996325,0.0,371.50965759996325,0,0.0,0,1,1000,num_1,0.8010662000160664,,35,5,2026-03-13_13h39.05.710,2026A_exp2,2022.2.4,60.02491026190116,
1000,1,4.9,3.7,1,0,80,80,78,,,,,372.32711559999734,372.97793260007165,372.97793260007165,373.47903529996984,45,315,373.47903529996984,373.47903529996984,373.47903529996984,373.47903529996984,373.47903529996984,373.47903529996984,373.47903529996984,373.47903529996984,373.47903529996984,373.8451948000584,373.8451948000584,373.8451948000584,373.8451948000584,373.8451948000584,373.8451948000584,373.8451948000584,373.8451948000584,373.8451948000584,18,5,"[0.0668635000474751, 0.1668577000964433, 0.20039839996024966, 0.30018380004912615, 0.3664778000675142]","[0.0834264000877738, 0.1834889999590814, 0.21692669996991754, 0.31675729993730783, 0.36648140009492636]",373.8451948000584,374.0456482998561,1000,374.0456482998561,1000,1000,1000,1000,0,num_3,0.5057504000142217,,35,5,2026-03-13_13h39.05.710,2026A_exp2,2022.2.4,60.02491026190116,
1,0,0.0,6.1,1,0,81,81,46,,,,,374.5794271999039,375.2302138998639,375.2302138998639,375.7311638998799,315,45,375.7311638998799,375.7311638998799,375.7311638998799,375.7311638998799,375.7311638998799,375.7311638998799,375.7311638998799,375.7311638998799,375.7311638998799,376.0975776000414,376.0975776000414,376.0975776000414,376.0975776000414,376.0975776000414,376.0975776000414,376.0975776000414,376.0975776000414,376.0975776000414,23,0,,,376.0975776000414,376.29779749992304,6.1,376.29779749992304,0,6.1,1,0,1000,num_1,0.6528948000632226,,35,5,2026-03-13_13h39.05.710,2026A_exp2,2022.2.4,60.02491026190116,
1000,1,0.0,3.7,0,0,82,82,76,,,,,376.98200750001706,377.61593919992447,377.61593919992447,378.11698909988627,315,45,378.11698909988627,378.11698909988627,378.11698909988627,378.11698909988627,378.11698909988627,378.11698909988627,378.11698909988627,378.11698909988627,378.11698909988627,378.48338239989243,378.48338239989243,378.48338239989243,378.48338239989243,378.48338239989243,378.48338239989243,378.48338239989243,378.48338239989243,378.48338239989243,23,0,,,378.48338239989243,378.6836896999739,1000,378.6836896999739,1000,1000,1000,1000,1,num_2,0.8751984001137316,,35,5,2026-03-13_13h39.05.710,2026A_exp2,2022.2.4,60.02491026190116,
1,0,6.1,0.0,0,0,83,83,85,,,,,379.5844501000829,380.2351658998523,380.2351658998523,380.73635230003856,315,45,380.73635230003856,380.73635230003856,380.73635230003856,380.73635230003856,380.73635230003856,380.73635230003856,380.73635230003856,380.73635230003856,380.73635230003856,381.1026121999603,381.1026121999603,381.1026121999603,381.1026121999603,381.1026121999603,381.1026121999603,381.1026121999603,381.1026121999603,381.1026121999603,23,0,,,381.1026121999603,381.30283820000477,6.1,381.30283820000477,1,6.1,1,1,1000,num_4,0.9611309000756592,,35,5,2026-03-13_13h39.05.710,2026A_exp2,2022.2.4,60.02491026190116,
0,0,6.1,3.7,0,0,84,84,49,,,,,382.2870849999599,382.93795370007865,382.93795370007865,383.4223503000103,45,45,383.4223503000103,383.4223503000103,383.4223503000103,383.4223503000103,383.4223503000103,383.4223503000103,383.4223503000103,383.4223503000103,383.4223503000103,383.788388799876,383.788388799876,383.788388799876,383.788388799876,383.788388799876,383.788388799876,383.788388799876,383.788388799876,383.788388799876,23,0,,,383.788388799876,383.9889253999572,3.7,383.9889253999572,0,3.7,1,0,1000,num_1,4.338140400126576,,35,5,2026-03-13_13h39.05.710,2026A_exp2,2022.2.4,60.02491026190116,
1000,1,4.9,3.7,0,0,85,85,28,,,,,388.3432092999574,388.99398300005123,388.99398300005123,389.4783344999887,45,315,389.4783344999887,389.4783344999887,389.4783344999887,389.4783344999887,389.4783344999887,389.4783344999887,389.4783344999887,389.4783344999887,389.4783344999887,389.84482520003803,389.84482520003803,389.84482520003803,389.84482520003803,389.84482520003803,389.84482520003803,389.84482520003803,389.84482520003803,389.84482520003803,23,0,,,389.84482520003803,390.04660680005327,1000,390.04660680005327,1000,1000,1000,1000,1,num_2,0.6249927000608295,,35,5,2026-03-13_13h39.05.710,2026A_exp2,2022.2.4,60.02491026190116,
1,0,0.0,0.0,1,0,86,86,83,,,,,390.6955253998749,391.3461780999787,391.3461780999787,391.84735759999603,315,45,391.84735759999603,391.84735759999603,391.84735759999603,391.84735759999603,391.84735759999603,391.84735759999603,391.84735759999603,391.84735759999603,391.84735759999603,392.2138884998858,392.2138884998858,392.2138884998858,392.2138884998858,392.2138884998858,392.2138884998858,392.2138884998858,392.2138884998858,392.2138884998858,20,2,"[0.0012342000845819712, 0.3504343000240624]","[0.01731979986652732, 0.3671875]",392.2138884998858,392.41390380007215,0.0,392.41390380007215,0,0.0,0,1,1000,num_1,0.7773621003143489,,35,5,2026-03-13_13h39.05.710,2026A_exp2,2022.2.4,60.02491026190116,
1,0,0.0,0.0,1,0,87,87,33,,,,,393.21472659986466,393.86561099998653,393.86561099998653,394.34987389994785,315,45,394.34987389994785,394.34987389994785,394.34987389994785,394.34987389994785,394.34987389994785,394.34987389994785,394.34987389994785,394.34987389994785,394.34987389994785,394.7164030999411,394.7164030999411,394.7164030999411,394.7164030999411,394.7164030999411,394.7164030999411,394.7164030999411,394.7164030999411,394.7164030999411,23,0,,,394.7164030999411,394.91651459992863,0.0,394.91651459992863,0,0.0,0,1,1000,num_1,0.731372200185433,,35,5,2026-03-13_13h39.05.710,2026A_exp2,2022.2.4,60.02491026190116,
1,0,0.0,0.0,0,0,88,88,87,,,,,395.66714460006915,396.3179045000579,396.3179045000579,396.8022704999894,315,45,396.8022704999894,396.8022704999894,396.8022704999894,396.8022704999894,396.8022704999894,396.8022704999894,396.8022704999894,396.8022704999894,396.8022704999894,397.168722699862,397.168722699862,397.168722699862,397.168722699862,397.168722699862,397.168722699862,397.168722699862,397.168722699862,397.168722699862,23,0,,,397.168722699862,397.3688584000338,0.0,397.3688584000338,0,0.0,0,1,1000,num_1,0.5350651999469846,,35,5,2026-03-13_13h39.05.710,2026A_exp2,2022.2.4,60.02491026190116,
1000,1,3.7,4.9,1,0,89,89,71,,,,,397.9362059000414,398.5867464998737,398.5867464998737,399.07133820001036,45,45,399.07133820001036,399.07133820001036,399.07133820001036,399.07133820001036,399.07133820001036,399.07133820001036,399.07133820001036,399.07133820001036,399.07133820001036,399.43765360000543,399.43765360000543,399.43765360000543,399.43765360000543,399.43765360000543,399.43765360000543,399.43765360000543,399.43765360000543,399.43765360000543,23,0,,,399.43765360000543,399.63945099990815,1000,399.63945099990815,1000,1000,1000,1000,1,num_2,0.6319786000531167,,35,5,2026-03-13_13h39.05.710,2026A_exp2,2022.2.4,60.02491026190116,
,,,,,,,,,,,,,,,,,,,,,,,,,,,,,,,,,,,,,,,,,,,,,,,,,,,,400.292067399947,,,,,,,
