validity,detectorcomp,contrastCW,contrastCCW,precueCWorCCW,block_80trials.thisRepN,block_80trials.thisTrialN,block_80trials.thisN,block_80trials.thisIndex,etRecord.started,etRecord.stopped,text.started,text.stopped,text_4.started,text_4.stopped,text_6.started,text_6.stopped,oriCW,oriCCW,roi_2.started,grating_UR.started,grating_UL.started,grating_LR.started,grating_LL.started,noise_UR.started,noise_UL.started,noise_LR.started,noise_LL.started,roi_2.stopped,grating_UR.stopped,grating_UL.stopped,grating_LR.stopped,grating_LL.stopped,noise_UR.stopped,noise_UL.stopped,noise_LR.stopped,noise_LL.stopped,outframe,roi_2.numLooks,roi_2.timesOn,roi_2.timesOff,text_2.started,text_2.stopped,probedcontrast,key_resp.started,respdetect,relevantContrast,correctDetect,TorFdetect,respCWorCCW,key_resp.keys,key_resp.rt,feedback_display_.started,participantNo,blockNo,date,expName,psychopyVersion,frameRate,
1000,1,3.7,4.9,1,0,0,0,46,3.629992716014385e-05,3.629992716014385e-05,57.68685570009984,59.69031030009501,59.69031030009501,60.323269500164315,60.323269500164315,60.84233330003917,315,45,60.84233330003917,60.84233330003917,60.84233330003917,60.84233330003917,60.84233330003917,60.84233330003917,60.84233330003917,60.84233330003917,60.84233330003917,61.19103069999255,61.19103069999255,61.19103069999255,61.19103069999255,61.19103069999255,61.19103069999255,61.19103069999255,61.19103069999255,61.19103069999255,23,0,,,61.19103069999255,61.39834910002537,1000,61.39834910002537,1000,1000,1000,1000,0,num_3,1.967275699833408,,32,2,2026-03-12_15h15.51.528,2026A_exp2,2022.2.4,59.989621786243326,
0,0,0.0,3.7,1,0,1,1,10,,,,,63.39322640001774,64.04374880017713,64.04374880017713,64.54497520020232,315,315,64.54497520020232,64.54497520020232,64.54497520020232,64.54497520020232,64.54497520020232,64.54497520020232,64.54497520020232,64.54497520020232,64.54497520020232,64.9112854001578,64.9112854001578,64.9112854001578,64.9112854001578,64.9112854001578,64.9112854001578,64.9112854001578,64.9112854001578,64.9112854001578,23,0,,,64.9112854001578,65.1115641000215,0.0,65.1115641000215,0,0.0,0,1,1000,num_1,0.8858283997979015,,32,2,2026-03-12_15h15.51.528,2026A_exp2,2022.2.4,59.989621786243326,
1000,1,6.1,0.0,1,0,2,2,16,,,,,66.02915750001557,66.67979730013758,66.67979730013758,67.16425900021568,45,315,67.16425900021568,67.16425900021568,67.16425900021568,67.16425900021568,67.16425900021568,67.16425900021568,67.16425900021568,67.16425900021568,67.16425900021568,67.53054390009493,67.53054390009493,67.53054390009493,67.53054390009493,67.53054390009493,67.53054390009493,67.53054390009493,67.53054390009493,67.53054390009493,23,0,,,67.53054390009493,67.73378570005298,1000,67.73378570005298,1000,1000,1000,1000,0,num_3,0.6157145998440683,,32,2,2026-03-12_15h15.51.528,2026A_exp2,2022.2.4,59.989621786243326,
1000,1,6.1,0.0,1,0,3,3,30,,,,,68.36470610019751,69.01556330011226,69.01556330011226,69.51647340017371,315,45,69.51647340017371,69.51647340017371,69.51647340017371,69.51647340017371,69.51647340017371,69.51647340017371,69.51647340017371,69.51647340017371,69.51647340017371,69.86630930006504,69.86630930006504,69.86630930006504,69.86630930006504,69.86630930006504,69.86630930006504,69.86630930006504,69.86630930006504,69.86630930006504,22,0,,,69.86630930006504,70.06829400011338,1000,70.08330689999275,1000,1000,1000,1000,0,num_3,0.4109779999125749,,32,2,2026-03-12_15h15.51.528,2026A_exp2,2022.2.4,59.989621786243326,
1000,1,0.0,0.0,0,0,4,4,81,,,,,70.51701910002157,71.16762530012056,71.16762530012056,71.65193020016886,315,315,71.65193020016886,71.65193020016886,71.65193020016886,71.65193020016886,71.65193020016886,71.65193020016886,71.65193020016886,71.65193020016886,71.65193020016886,72.01841320004314,72.01841320004314,72.01841320004314,72.01841320004314,72.01841320004314,72.01841320004314,72.01841320004314,72.01841320004314,72.01841320004314,23,0,,,72.01841320004314,72.22072670003399,1000,72.22072670003399,1000,1000,1000,1000,0,num_3,2.0968487998470664,,32,2,2026-03-12_15h15.51.528,2026A_exp2,2022.2.4,59.989621786243326,
1000,1,4.9,6.1,1,0,5,5,28,,,,,74.33735000016168,74.98811460006982,74.98811460006982,75.48932100017555,45,45,75.48932100017555,75.48932100017555,75.48932100017555,75.48932100017555,75.48932100017555,75.48932100017555,75.48932100017555,75.48932100017555,75.48932100017555,75.85541590000503,75.85541590000503,75.85541590000503,75.85541590000503,75.85541590000503,75.85541590000503,75.85541590000503,75.85541590000503,75.85541590000503,23,0,,,75.85541590000503,76.05753830005415,1000,76.05753830005415,1000,1000,1000,1000,1,num_2,1.5403311997652054,,32,2,2026-03-12_15h15.51.528,2026A_exp2,2022.2.4,59.989621786243326,
1,0,4.9,0.0,1,0,6,6,38,,,,,77.6271516000852,78.27475780015811,78.27475780015811,78.77579800016247,45,315,78.77579800016247,78.77579800016247,78.77579800016247,78.77579800016247,78.77579800016247,78.77579800016247,78.77579800016247,78.77579800016247,78.77579800016247,79.14225440006703,79.14225440006703,79.14225440006703,79.14225440006703,79.14225440006703,79.14225440006703,79.14225440006703,79.14225440006703,79.14225440006703,23,0,,,79.14225440006703,79.34240399999544,0.0,79.34240399999544,0,0.0,0,1,1000,num_1,2.1507419999688864,,32,2,2026-03-12_15h15.51.528,2026A_exp2,2022.2.4,59.989621786243326,
1000,1,0.0,3.7,1,0,7,7,47,,,,,81.51108940015547,82.14544540015049,82.14544540015049,82.64622410014272,45,45,82.64622410014272,82.64622410014272,82.64622410014272,82.64622410014272,82.64622410014272,82.64622410014272,82.64622410014272,82.64622410014272,82.64622410014272,83.0127938000951,83.0127938000951,83.0127938000951,83.0127938000951,83.0127938000951,83.0127938000951,83.0127938000951,83.0127938000951,83.0127938000951,23,0,,,83.0127938000951,83.21526530012488,1000,83.21526530012488,1000,1000,1000,1000,1,num_2,1.0625448997598141,,32,2,2026-03-12_15h15.51.528,2026A_exp2,2022.2.4,59.989621786243326,
1000,1,0.0,6.1,1,0,8,8,62,,,,,84.29736270010471,84.94803010020405,84.94803010020405,85.4492480000481,45,45,85.4492480000481,85.4492480000481,85.4492480000481,85.4492480000481,85.4492480000481,85.4492480000481,85.4492480000481,85.4492480000481,85.4492480000481,85.81561300018802,85.81561300018802,85.81561300018802,85.81561300018802,85.81561300018802,85.81561300018802,85.81561300018802,85.81561300018802,85.81561300018802,23,0,,,85.81561300018802,86.01749100000598,1000,86.01749100000598,1000,1000,1000,1000,1,num_2,0.56357860006392,,32,2,2026-03-12_15h15.51.528,2026A_exp2,2022.2.4,59.989621786243326,
1000,1,6.1,0.0,1,0,9,9,75,,,,,86.59958360018209,87.25042000017129,87.25042000017129,87.7515102000907,315,45,87.7515102000907,87.7515102000907,87.7515102000907,87.7515102000907,87.7515102000907,87.7515102000907,87.7515102000907,87.7515102000907,87.7515102000907,88.11796910013072,88.11796910013072,88.11796910013072,88.11796910013072,88.11796910013072,88.11796910013072,88.11796910013072,88.11796910013072,88.11796910013072,23,0,,,88.11796910013072,88.32012760010548,1000,88.32012760010548,1000,1000,1000,1000,0,num_3,0.413478699978441,,32,2,2026-03-12_15h15.51.528,2026A_exp2,2022.2.4,59.989621786243326,
1000,1,3.7,6.1,0,0,10,10,0,,,,,88.75172440009192,89.4025156002026,89.4025156002026,89.90361970011145,315,45,89.90361970011145,89.90361970011145,89.90361970011145,89.90361970011145,89.90361970011145,89.90361970011145,89.90361970011145,89.90361970011145,89.90361970011145,90.25337110017426,90.25337110017426,90.25337110017426,90.25337110017426,90.25337110017426,90.25337110017426,90.25337110017426,90.25337110017426,90.25337110017426,22,0,,,90.25337110017426,90.45564450020902,1000,90.45564450020902,1000,1000,1000,1000,1,num_2,0.9818768999539316,,32,2,2026-03-12_15h15.51.528,2026A_exp2,2022.2.4,59.989621786243326,
1000,1,4.9,0.0,1,0,11,11,72,,,,,91.45455430005677,92.10527180018835,92.10527180018835,92.60582230007276,315,315,92.60582230007276,92.60582230007276,92.60582230007276,92.60582230007276,92.60582230007276,92.60582230007276,92.60582230007276,92.60582230007276,92.60582230007276,92.95626420015469,92.95626420015469,92.95626420015469,92.95626420015469,92.95626420015469,92.95626420015469,92.95626420015469,92.95626420015469,92.95626420015469,23,0,,,92.95626420015469,93.16903980006464,1000,93.16903980006464,1000,1000,1000,1000,0,num_3,0.3001160998828709,,32,2,2026-03-12_15h15.51.528,2026A_exp2,2022.2.4,59.989621786243326,
1,0,6.1,4.9,0,0,12,12,39,,,,,93.48982460005209,94.14028140017763,94.14028140017763,94.64163440000266,45,45,94.64163440000266,94.64163440000266,94.64163440000266,94.64163440000266,94.64163440000266,94.64163440000266,94.64163440000266,94.64163440000266,94.64163440000266,95.00781900016591,95.00781900016591,95.00781900016591,95.00781900016591,95.00781900016591,95.00781900016591,95.00781900016591,95.00781900016591,95.00781900016591,23,0,,,95.00781900016591,95.20796930021606,6.1,95.20796930021606,1,6.1,1,1,1000,num_4,1.1097217998467386,,32,2,2026-03-12_15h15.51.528,2026A_exp2,2022.2.4,59.989621786243326,
1000,1,0.0,0.0,1,0,13,13,27,,,,,96.34263090020977,96.99346890021116,96.99346890021116,97.49467960000038,315,315,97.49467960000038,97.49467960000038,97.49467960000038,97.49467960000038,97.49467960000038,97.49467960000038,97.49467960000038,97.49467960000038,97.49467960000038,97.86102100019343,97.86102100019343,97.86102100019343,97.86102100019343,97.86102100019343,97.86102100019343,97.86102100019343,97.86102100019343,97.86102100019343,23,0,,,97.86102100019343,98.06322930008173,1000,98.06322930008173,1000,1000,1000,1000,0,num_3,0.8706334999296814,,32,2,2026-03-12_15h15.51.528,2026A_exp2,2022.2.4,59.989621786243326,
1,0,0.0,6.1,1,0,14,14,52,,,,,98.96200649999082,99.61272490001284,99.61272490001284,100.11372410017066,315,45,100.11372410017066,100.11372410017066,100.11372410017066,100.11372410017066,100.11372410017066,100.11372410017066,100.11372410017066,100.11372410017066,100.11372410017066,100.46361430012621,100.46361430012621,100.46361430012621,100.46361430012621,100.46361430012621,100.46361430012621,100.46361430012621,100.46361430012621,100.46361430012621,22,0,,,100.46361430012621,100.66365470015444,6.1,100.6805323001463,1,6.1,1,1,1000,num_4,0.7653697000350803,,32,2,2026-03-12_15h15.51.528,2026A_exp2,2022.2.4,59.989621786243326,
1,0,3.7,0.0,0,0,15,15,65,,,,,101.46447180001996,102.11518040020019,102.11518040020019,102.59967200015672,45,45,102.59967200015672,102.59967200015672,102.59967200015672,102.59967200015672,102.59967200015672,102.59967200015672,102.59967200015672,102.59967200015672,102.59967200015672,102.96595250000246,102.96595250000246,102.96595250000246,102.96595250000246,102.96595250000246,102.96595250000246,102.96595250000246,102.96595250000246,102.96595250000246,23,0,,,102.96595250000246,103.16635600011796,3.7,103.16635600011796,0,3.7,1,0,1000,num_1,0.9916610999498516,,32,2,2026-03-12_15h15.51.528,2026A_exp2,2022.2.4,59.989621786243326,
1,0,3.7,3.7,0,0,16,16,13,,,,,104.18370839999989,104.83477810001932,104.83477810001932,105.33584050019272,45,315,105.33584050019272,105.33584050019272,105.33584050019272,105.33584050019272,105.33584050019272,105.33584050019272,105.33584050019272,105.33584050019272,105.33584050019272,105.70217100018635,105.70217100018635,105.70217100018635,105.70217100018635,105.70217100018635,105.70217100018635,105.70217100018635,105.70217100018635,105.70217100018635,23,0,,,105.70217100018635,105.90229300013743,3.7,105.90229300013743,1,3.7,1,1,1000,num_4,0.9109850998502225,,32,2,2026-03-12_15h15.51.528,2026A_exp2,2022.2.4,59.989621786243326,
1,0,4.9,0.0,1,0,17,17,8,,,,,106.83663150016218,107.48717690003105,107.48717690003105,107.97171740001068,315,315,107.97171740001068,107.97171740001068,107.97171740001068,107.97171740001068,107.97171740001068,107.97171740001068,107.97171740001068,107.97171740001068,107.97171740001068,108.33814280014485,108.33814280014485,108.33814280014485,108.33814280014485,108.33814280014485,108.33814280014485,108.33814280014485,108.33814280014485,108.33814280014485,23,0,,,108.33814280014485,108.5382976999972,0.0,108.5382976999972,0,0.0,0,1,1000,num_1,0.6914110998623073,,32,2,2026-03-12_15h15.51.528,2026A_exp2,2022.2.4,59.989621786243326,
1,0,3.7,0.0,0,0,18,18,3,,,,,109.25559130008332,109.90614770003594,109.90614770003594,110.39073300012387,45,315,110.39073300012387,110.39073300012387,110.39073300012387,110.39073300012387,110.39073300012387,110.39073300012387,110.39073300012387,110.39073300012387,110.39073300012387,110.75722620007582,110.75722620007582,110.75722620007582,110.75722620007582,110.75722620007582,110.75722620007582,110.75722620007582,110.75722620007582,110.75722620007582,23,0,,,110.75722620007582,110.95744780008681,3.7,110.95744780008681,1,3.7,1,1,1000,num_4,0.7924915999174118,,32,2,2026-03-12_15h15.51.528,2026A_exp2,2022.2.4,59.989621786243326,
1000,1,0.0,0.0,0,0,19,19,74,,,,,111.77473510010168,112.4256848001387,112.4256848001387,112.91017400007695,45,315,112.91017400007695,112.91017400007695,112.91017400007695,112.91017400007695,112.91017400007695,112.91017400007695,112.91017400007695,112.91017400007695,112.91017400007695,113.27644140017219,113.27644140017219,113.27644140017219,113.27644140017219,113.27644140017219,113.27644140017219,113.27644140017219,113.27644140017219,113.27644140017219,23,0,,,113.27644140017219,113.4786303001456,1000,113.4786303001456,1000,1000,1000,1000,1,num_2,1.4553714997600764,,32,2,2026-03-12_15h15.51.528,2026A_exp2,2022.2.4,59.989621786243326,
1,0,0.0,3.7,0,0,20,20,61,,,,,114.96127320011146,115.61208990006708,115.61208990006708,116.11333409999497,315,45,116.11333409999497,116.11333409999497,116.11333409999497,116.11333409999497,116.11333409999497,116.11333409999497,116.11333409999497,116.11333409999497,116.11333409999497,116.46292020007968,116.46292020007968,116.46292020007968,116.46292020007968,116.46292020007968,116.46292020007968,116.46292020007968,116.46292020007968,116.46292020007968,22,0,,,116.46292020007968,116.66317540011369,0.0,116.66317540011369,0,0.0,0,1,1000,num_1,1.1581506999209523,,32,2,2026-03-12_15h15.51.528,2026A_exp2,2022.2.4,59.989621786243326,
1,0,0.0,4.9,1,0,21,21,21,,,,,117.84753620019183,118.49833910004236,118.49833910004236,118.98259610007517,315,315,118.98259610007517,118.98259610007517,118.98259610007517,118.98259610007517,118.98259610007517,118.98259610007517,118.98259610007517,118.98259610007517,118.98259610007517,119.3491406000685,119.3491406000685,119.3491406000685,119.3491406000685,119.3491406000685,119.3491406000685,119.3491406000685,119.3491406000685,119.3491406000685,23,0,,,119.3491406000685,119.54921450000256,4.9,119.54921450000256,1,4.9,1,1,1000,num_4,0.4882091998588294,,32,2,2026-03-12_15h15.51.528,2026A_exp2,2022.2.4,59.989621786243326,
1,0,0.0,6.1,0,0,22,22,60,,,,,120.06643880018964,120.70062160002999,120.70062160002999,121.2016658000648,45,315,121.2016658000648,121.2016658000648,121.2016658000648,121.2016658000648,121.2016658000648,121.2016658000648,121.2016658000648,121.2016658000648,121.2016658000648,121.56805900018662,121.56805900018662,121.56805900018662,121.56805900018662,121.56805900018662,121.56805900018662,121.56805900018662,121.56805900018662,121.56805900018662,23,0,,,121.56805900018662,121.76818750007078,0.0,121.76818750007078,0,0.0,0,1,1000,num_1,0.6216678998898715,,32,2,2026-03-12_15h15.51.528,2026A_exp2,2022.2.4,59.989621786243326,
1,0,0.0,0.0,0,0,23,23,63,,,,,122.41881650011055,123.05287630017847,123.05287630017847,123.55391270015389,315,45,123.55391270015389,123.55391270015389,123.55391270015389,123.55391270015389,123.55391270015389,123.55391270015389,123.55391270015389,123.55391270015389,123.55391270015389,123.9204259000253,123.9204259000253,123.9204259000253,123.9204259000253,123.9204259000253,123.9204259000253,123.9204259000253,123.9204259000253,123.9204259000253,23,0,,,123.9204259000253,124.12040080013685,0.0,124.12040080013685,0,0.0,0,1,1000,num_1,1.1326397999655455,,32,2,2026-03-12_15h15.51.528,2026A_exp2,2022.2.4,59.989621786243326,
1000,1,4.9,0.0,1,0,24,24,5,,,,,125.27154940017499,125.9224228002131,125.9224228002131,126.40674720006064,315,315,126.40674720006064,126.40674720006064,126.40674720006064,126.40674720006064,126.40674720006064,126.40674720006064,126.40674720006064,126.40674720006064,126.40674720006064,126.77312050014734,126.77312050014734,126.77312050014734,126.77312050014734,126.77312050014734,126.77312050014734,126.77312050014734,126.77312050014734,126.77312050014734,23,0,,,126.77312050014734,126.97525660018437,1000,126.97525660018437,1000,1000,1000,1000,0,num_3,0.6389930997975171,,32,2,2026-03-12_15h15.51.528,2026A_exp2,2022.2.4,59.989621786243326,
1,0,0.0,0.0,0,0,25,25,29,,,,,127.64090330014005,128.29149080021307,128.29149080021307,128.7925838001538,45,45,128.7925838001538,128.7925838001538,128.7925838001538,128.7925838001538,128.7925838001538,128.7925838001538,128.7925838001538,128.7925838001538,128.7925838001538,129.1589517001994,129.1589517001994,129.1589517001994,129.1589517001994,129.1589517001994,129.1589517001994,129.1589517001994,129.1589517001994,129.1589517001994,23,0,,,129.1589517001994,129.35906330007128,0.0,129.35906330007128,1,0.0,0,0,1000,num_4,0.7503341999836266,,32,2,2026-03-12_15h15.51.528,2026A_exp2,2022.2.4,59.989621786243326,
1,0,0.0,6.1,0,0,26,26,11,,,,,130.12660050019622,130.77710660011508,130.77710660011508,131.26148120011203,315,315,131.26148120011203,131.26148120011203,131.26148120011203,131.26148120011203,131.26148120011203,131.26148120011203,131.26148120011203,131.26148120011203,131.26148120011203,131.62808000016958,131.62808000016958,131.62808000016958,131.62808000016958,131.62808000016958,131.62808000016958,131.62808000016958,131.62808000016958,131.62808000016958,23,0,,,131.62808000016958,131.82829800015315,0.0,131.82829800015315,0,0.0,0,1,1000,num_1,0.6814053996931762,,32,2,2026-03-12_15h15.51.528,2026A_exp2,2022.2.4,59.989621786243326,
1,0,4.9,0.0,0,0,27,27,58,,,,,132.52915529999882,133.1683887001127,133.1683887001127,133.67089690011926,45,45,133.67089690011926,133.67089690011926,133.67089690011926,133.67089690011926,133.67089690011926,133.67089690011926,133.67089690011926,133.67089690011926,133.67089690011926,134.03049310017377,134.03049310017377,134.03049310017377,134.03049310017377,134.03049310017377,134.03049310017377,134.03049310017377,134.03049310017377,134.03049310017377,23,0,,,134.03049310017377,134.23061270010658,4.9,134.23061270010658,1,4.9,1,1,1000,num_4,0.5591915000695735,,32,2,2026-03-12_15h15.51.528,2026A_exp2,2022.2.4,59.989621786243326,
1000,1,0.0,0.0,1,0,28,28,33,,,,,134.81438760017045,135.4485179001931,135.4485179001931,135.9497634000145,315,315,135.9497634000145,135.9497634000145,135.9497634000145,135.9497634000145,135.9497634000145,135.9497634000145,135.9497634000145,135.9497634000145,135.9497634000145,136.3160270000808,136.3160270000808,136.3160270000808,136.3160270000808,136.3160270000808,136.3160270000808,136.3160270000808,136.3160270000808,136.3160270000808,23,0,,,136.3160270000808,136.51803220016882,1000,136.51803220016882,1000,1000,1000,1000,1,num_2,0.6480515997391194,,32,2,2026-03-12_15h15.51.528,2026A_exp2,2022.2.4,59.989621786243326,
1000,1,3.7,0.0,0,0,29,29,2,,,,,137.18352820002474,137.8341290000826,137.8341290000826,138.3352278000675,45,315,138.3352278000675,138.3352278000675,138.3352278000675,138.3352278000675,138.3352278000675,138.3352278000675,138.3352278000675,138.3352278000675,138.3352278000675,138.70186550007202,138.70186550007202,138.70186550007202,138.70186550007202,138.70186550007202,138.70186550007202,138.70186550007202,138.70186550007202,138.70186550007202,23,0,,,138.70186550007202,138.90387330017984,1000,138.90387330017984,1000,1000,1000,1000,0,num_3,0.581414699787274,,32,2,2026-03-12_15h15.51.528,2026A_exp2,2022.2.4,59.989621786243326,
1000,1,0.0,0.0,0,0,30,30,18,,,,,139.50248690019362,140.1533831001725,140.1533831001725,140.63759500021115,315,315,140.63759500021115,140.63759500021115,140.63759500021115,140.63759500021115,140.63759500021115,140.63759500021115,140.63759500021115,140.63759500021115,140.63759500021115,141.0041958000511,141.0041958000511,141.0041958000511,141.0041958000511,141.0041958000511,141.0041958000511,141.0041958000511,141.0041958000511,141.0041958000511,23,0,,,141.0041958000511,141.23103940021247,1000,141.23103940021247,1000,1000,1000,1000,0,num_3,0.5503579997457564,,32,2,2026-03-12_15h15.51.528,2026A_exp2,2022.2.4,59.989621786243326,
1,0,0.0,3.7,1,0,31,31,41,,,,,141.80488000018522,142.45557550014928,142.45557550014928,142.9568142001517,315,45,142.9568142001517,142.9568142001517,142.9568142001517,142.9568142001517,142.9568142001517,142.9568142001517,142.9568142001517,142.9568142001517,142.9568142001517,143.32298300019465,143.32298300019465,143.32298300019465,143.32298300019465,143.32298300019465,143.32298300019465,143.32298300019465,143.32298300019465,143.32298300019465,23,0,,,143.32298300019465,143.52324740006588,3.7,143.52324740006588,1,3.7,1,1,1000,num_4,0.6347405000124127,,32,2,2026-03-12_15h15.51.528,2026A_exp2,2022.2.4,59.989621786243326,
1000,1,4.9,0.0,0,0,32,32,54,,,,,144.17376200016588,144.82464820006862,144.82464820006862,145.3090789001435,45,45,145.3090789001435,145.3090789001435,145.3090789001435,145.3090789001435,145.3090789001435,145.3090789001435,145.3090789001435,145.3090789001435,145.3090789001435,145.6753259000834,145.6753259000834,145.6753259000834,145.6753259000834,145.6753259000834,145.6753259000834,145.6753259000834,145.6753259000834,145.6753259000834,23,0,,,145.6753259000834,145.87676260014996,1000,145.87676260014996,1000,1000,1000,1000,0,num_3,0.5533537999726832,,32,2,2026-03-12_15h15.51.528,2026A_exp2,2022.2.4,59.989621786243326,
1,0,0.0,3.7,0,0,33,33,35,,,,,146.4594884000253,147.11021990003064,147.11021990003064,147.61141330003738,315,45,147.61141330003738,147.61141330003738,147.61141330003738,147.61141330003738,147.61141330003738,147.61141330003738,147.61141330003738,147.61141330003738,147.61141330003738,147.96107790013775,147.96107790013775,147.96107790013775,147.96107790013775,147.96107790013775,147.96107790013775,147.96107790013775,147.96107790013775,147.96107790013775,22,0,,,147.96107790013775,148.1612859000452,0.0,148.17783600022085,0,0.0,0,1,1000,num_1,0.7160813000518829,,32,2,2026-03-12_15h15.51.528,2026A_exp2,2022.2.4,59.989621786243326,
1,0,6.1,4.9,0,0,34,34,24,,,,,148.91200730018318,149.5709066002164,149.5709066002164,150.0638416002039,45,315,150.0638416002039,150.0638416002039,150.0638416002039,150.0638416002039,150.0638416002039,150.0638416002039,150.0638416002039,150.0638416002039,150.0638416002039,150.430236000102,150.430236000102,150.430236000102,150.430236000102,150.430236000102,150.430236000102,150.430236000102,150.430236000102,150.430236000102,23,0,,,150.430236000102,150.63027920015156,6.1,150.63027920015156,1,6.1,1,1,1000,num_4,0.6316301999613643,,32,2,2026-03-12_15h15.51.528,2026A_exp2,2022.2.4,59.989621786243326,
1,0,0.0,6.1,0,0,35,35,34,,,,,151.2809062001761,151.931687500095,151.931687500095,152.41605250001885,45,315,152.41605250001885,152.41605250001885,152.41605250001885,152.41605250001885,152.41605250001885,152.41605250001885,152.41605250001885,152.41605250001885,152.41605250001885,152.782487800112,152.782487800112,152.782487800112,152.782487800112,152.782487800112,152.782487800112,152.782487800112,152.782487800112,152.782487800112,23,0,,,152.782487800112,152.98269360000268,0.0,152.98269360000268,0,0.0,0,1,1000,num_1,0.6397702998947352,,32,2,2026-03-12_15h15.51.528,2026A_exp2,2022.2.4,59.989621786243326,
1,0,0.0,6.1,1,0,36,36,40,,,,,153.64995580003597,154.30067430017516,154.30067430017516,154.78522520000115,45,315,154.78522520000115,154.78522520000115,154.78522520000115,154.78522520000115,154.78522520000115,154.78522520000115,154.78522520000115,154.78522520000115,154.78522520000115,155.15142360003665,155.15142360003665,155.15142360003665,155.15142360003665,155.15142360003665,155.15142360003665,155.15142360003665,155.15142360003665,155.15142360003665,23,0,,,155.15142360003665,155.35181880020536,6.1,155.35181880020536,1,6.1,1,1,1000,num_4,0.5586452998686582,,32,2,2026-03-12_15h15.51.528,2026A_exp2,2022.2.4,59.989621786243326,
1000,1,0.0,0.0,0,0,37,37,85,,,,,155.9356897000689,156.58624860015698,156.58624860015698,157.0875297000166,315,45,157.0875297000166,157.0875297000166,157.0875297000166,157.0875297000166,157.0875297000166,157.0875297000166,157.0875297000166,157.0875297000166,157.0875297000166,157.45395440002903,157.45395440002903,157.45395440002903,157.45395440002903,157.45395440002903,157.45395440002903,157.45395440002903,157.45395440002903,157.45395440002903,23,0,,,157.45395440002903,157.6783592000138,1000,157.6783592000138,1000,1000,1000,1000,0,num_3,1.4868009998463094,,32,2,2026-03-12_15h15.51.528,2026A_exp2,2022.2.4,59.989621786243326,
1,0,0.0,3.7,1,0,38,38,66,,,,,159.18896040017717,159.83960560010746,159.83960560010746,160.34076000005007,45,315,160.34076000005007,160.34076000005007,160.34076000005007,160.34076000005007,160.34076000005007,160.34076000005007,160.34076000005007,160.34076000005007,160.34076000005007,160.69051380013116,160.69051380013116,160.69051380013116,160.69051380013116,160.69051380013116,160.69051380013116,160.69051380013116,160.69051380013116,160.69051380013116,22,0,,,160.69051380013116,160.89073610003106,3.7,160.89073610003106,1,3.7,1,1,1000,num_4,0.6905638999305665,,32,2,2026-03-12_15h15.51.528,2026A_exp2,2022.2.4,59.989621786243326,
0,0,0.0,6.1,0,0,39,39,7,,,,,161.60794620006345,162.2587422002107,162.2587422002107,162.74313260009512,45,45,162.74313260009512,162.74313260009512,162.74313260009512,162.74313260009512,162.74313260009512,162.74313260009512,162.74313260009512,162.74313260009512,162.74313260009512,163.10959840007126,163.10959840007126,163.10959840007126,163.10959840007126,163.10959840007126,163.10959840007126,163.10959840007126,163.10959840007126,163.10959840007126,23,0,,,163.10959840007126,163.31382140005007,6.1,163.31382140005007,1,6.1,1,1,1000,num_4,0.7641992999706417,,32,2,2026-03-12_15h15.51.528,2026A_exp2,2022.2.4,59.989621786243326,
1000,1,0.0,6.1,0,0,40,40,37,,,,,164.09368320018984,164.74442570004612,164.74442570004612,165.22922890004702,45,315,165.22922890004702,165.22922890004702,165.22922890004702,165.22922890004702,165.22922890004702,165.22922890004702,165.22922890004702,165.22922890004702,165.22922890004702,165.59543960005976,165.59543960005976,165.59543960005976,165.59543960005976,165.59543960005976,165.59543960005976,165.59543960005976,165.59543960005976,165.59543960005976,23,0,,,165.59543960005976,165.8163551001344,1000,165.8163551001344,1000,1000,1000,1000,1,num_2,1.1970487998332828,,32,2,2026-03-12_15h15.51.528,2026A_exp2,2022.2.4,59.989621786243326,
1000,1,4.9,6.1,0,0,41,41,20,,,,,167.03003680007532,167.68075190018862,167.68075190018862,168.19759390014224,45,45,168.19759390014224,168.19759390014224,168.19759390014224,168.19759390014224,168.19759390014224,168.19759390014224,168.19759390014224,168.19759390014224,168.19759390014224,168.548254000023,168.548254000023,168.548254000023,168.548254000023,168.548254000023,168.548254000023,168.548254000023,168.548254000023,168.548254000023,23,0,,,168.548254000023,168.7510983000975,1000,168.7510983000975,1000,1000,1000,1000,1,num_2,0.8622224999126047,,32,2,2026-03-12_15h15.51.528,2026A_exp2,2022.2.4,59.989621786243326,
0,0,0.0,0.0,1,0,42,42,71,,,,,169.63261500000954,170.26676320005208,170.26676320005208,170.76784089999273,315,45,170.76784089999273,170.76784089999273,170.76784089999273,170.76784089999273,170.76784089999273,170.76784089999273,170.76784089999273,170.76784089999273,170.76784089999273,171.1342930002138,171.1342930002138,171.1342930002138,171.1342930002138,171.1342930002138,171.1342930002138,171.1342930002138,171.1342930002138,171.1342930002138,23,0,,,171.1342930002138,171.3344170001801,0.0,171.3344170001801,0,0.0,0,1,1000,num_1,0.8319998998194933,,32,2,2026-03-12_15h15.51.528,2026A_exp2,2022.2.4,59.989621786243326,
1000,1,0.0,4.9,1,0,43,43,31,,,,,172.1871778999921,172.83601110009477,172.83601110009477,173.3371075000614,315,315,173.3371075000614,173.3371075000614,173.3371075000614,173.3371075000614,173.3371075000614,173.3371075000614,173.3371075000614,173.3371075000614,173.3371075000614,173.7033436000347,173.7033436000347,173.7033436000347,173.7033436000347,173.7033436000347,173.7033436000347,173.7033436000347,173.7033436000347,173.7033436000347,23,0,,,173.7033436000347,173.90521840006113,1000,173.90521840006113,1000,1000,1000,1000,1,num_2,0.69325239979662,,32,2,2026-03-12_15h15.51.528,2026A_exp2,2022.2.4,59.989621786243326,
1000,1,6.1,6.1,1,0,44,44,77,,,,,174.62099150009453,175.27181320008822,175.27181320008822,175.77283890009858,315,45,175.77283890009858,175.77283890009858,175.77283890009858,175.77283890009858,175.77283890009858,175.77283890009858,175.77283890009858,175.77283890009858,175.77283890009858,176.13926890003495,176.13926890003495,176.13926890003495,176.13926890003495,176.13926890003495,176.13926890003495,176.13926890003495,176.13926890003495,176.13926890003495,23,0,,,176.13926890003495,176.36404230003245,1000,176.36404230003245,1000,1000,1000,1000,0,num_3,1.4253450999967754,,32,2,2026-03-12_15h15.51.528,2026A_exp2,2022.2.4,59.989621786243326,
1,0,0.0,0.0,1,0,45,45,6,,,,,177.80764650017954,178.45813620020635,178.45813620020635,178.94271730002947,45,315,178.94271730002947,178.94271730002947,178.94271730002947,178.94271730002947,178.94271730002947,178.94271730002947,178.94271730002947,178.94271730002947,178.94271730002947,179.30899160006084,179.30899160006084,179.30899160006084,179.30899160006084,179.30899160006084,179.30899160006084,179.30899160006084,179.30899160006084,179.30899160006084,23,0,,,179.30899160006084,179.5093838002067,0.0,179.5093838002067,1,0.0,0,0,1000,num_4,0.8085781999398023,,32,2,2026-03-12_15h15.51.528,2026A_exp2,2022.2.4,59.989621786243326,
1000,1,0.0,3.7,0,0,46,46,78,,,,,180.3448869001586,180.9963146999944,180.9963146999944,181.49530090019107,45,315,181.49530090019107,181.49530090019107,181.49530090019107,181.49530090019107,181.49530090019107,181.49530090019107,181.49530090019107,181.49530090019107,181.49530090019107,181.8617119002156,181.8617119002156,181.8617119002156,181.8617119002156,181.8617119002156,181.8617119002156,181.8617119002156,181.8617119002156,181.8617119002156,23,0,,,181.8617119002156,182.06368790008128,1000,182.06368790008128,1000,1000,1000,1000,1,num_2,0.5814372999593616,,32,2,2026-03-12_15h15.51.528,2026A_exp2,2022.2.4,59.989621786243326,
1000,1,0.0,3.7,0,0,47,47,51,,,,,182.66231310018338,183.31849490012974,183.31849490012974,183.81410190020688,315,45,183.81410190020688,183.81410190020688,183.81410190020688,183.81410190020688,183.81410190020688,183.81410190020688,183.81410190020688,183.81410190020688,183.81410190020688,184.18061320018023,184.18061320018023,184.18061320018023,184.18061320018023,184.18061320018023,184.18061320018023,184.18061320018023,184.18061320018023,184.18061320018023,23,0,,,184.18061320018023,184.3828959001694,1000,184.3828959001694,1000,1000,1000,1000,1,num_2,1.01425169990398,,32,2,2026-03-12_15h15.51.528,2026A_exp2,2022.2.4,59.989621786243326,
1000,1,3.7,0.0,0,0,48,48,57,,,,,185.4150788001716,186.06575080007315,186.06575080007315,186.5666987001896,315,315,186.5666987001896,186.5666987001896,186.5666987001896,186.5666987001896,186.5666987001896,186.5666987001896,186.5666987001896,186.5666987001896,186.5666987001896,186.9333128000144,186.9333128000144,186.9333128000144,186.9333128000144,186.9333128000144,186.9333128000144,186.9333128000144,186.9333128000144,186.9333128000144,23,0,,,186.9333128000144,187.1358187000733,1000,187.1358187000733,1000,1000,1000,1000,0,num_3,0.6293721997644752,,32,2,2026-03-12_15h15.51.528,2026A_exp2,2022.2.4,59.989621786243326,
1000,1,6.1,0.0,0,0,49,49,14,,,,,187.78438770002685,188.43472270015627,188.43472270015627,188.91933340020478,315,315,188.91933340020478,188.91933340020478,188.91933340020478,188.91933340020478,188.91933340020478,188.91933340020478,188.91933340020478,188.91933340020478,188.91933340020478,189.28575120004825,189.28575120004825,189.28575120004825,189.28575120004825,189.28575120004825,189.28575120004825,189.28575120004825,189.28575120004825,189.28575120004825,23,0,,,189.28575120004825,189.48775430000387,1000,189.48775430000387,1000,1000,1000,1000,0,num_3,0.39802840002812445,,32,2,2026-03-12_15h15.51.528,2026A_exp2,2022.2.4,59.989621786243326,
1000,1,4.9,0.0,1,0,50,50,22,,,,,189.90296410000883,190.553507800214,190.553507800214,191.0547183000017,45,315,191.0547183000017,191.0547183000017,191.0547183000017,191.0547183000017,191.0547183000017,191.0547183000017,191.0547183000017,191.0547183000017,191.0547183000017,191.42121570021845,191.42121570021845,191.42121570021845,191.42121570021845,191.42121570021845,191.42121570021845,191.42121570021845,191.42121570021845,191.42121570021845,23,0,,,191.42121570021845,191.62311410019174,1000,191.62311410019174,1000,1000,1000,1000,0,num_3,0.6461759998928756,,32,2,2026-03-12_15h15.51.528,2026A_exp2,2022.2.4,59.989621786243326,
0,0,0.0,0.0,1,0,51,51,89,,,,,192.2886687000282,192.9227384000551,192.9227384000551,193.42375900014304,45,315,193.42375900014304,193.42375900014304,193.42375900014304,193.42375900014304,193.42375900014304,193.42375900014304,193.42375900014304,193.42375900014304,193.42375900014304,193.79028720012866,193.79028720012866,193.79028720012866,193.79028720012866,193.79028720012866,193.79028720012866,193.79028720012866,193.79028720012866,193.79028720012866,23,0,,,193.79028720012866,193.99044480011798,0.0,193.99044480011798,0,0.0,0,1,1000,num_1,1.1109593999572098,,32,2,2026-03-12_15h15.51.528,2026A_exp2,2022.2.4,59.989621786243326,
1,0,0.0,4.9,1,0,52,52,53,,,,,195.12470450019464,195.77553560002707,195.77553560002707,196.26003840006888,315,315,196.26003840006888,196.26003840006888,196.26003840006888,196.26003840006888,196.26003840006888,196.26003840006888,196.26003840006888,196.26003840006888,196.26003840006888,196.62606790009886,196.62606790009886,196.62606790009886,196.62606790009886,196.62606790009886,196.62606790009886,196.62606790009886,196.62606790009886,196.62606790009886,23,0,,,196.62606790009886,196.82666110014543,4.9,196.82666110014543,1,4.9,1,1,1000,num_4,0.5953909999225289,,32,2,2026-03-12_15h15.51.528,2026A_exp2,2022.2.4,59.989621786243326,
1000,1,6.1,0.0,1,0,53,53,68,,,,,197.44370960001834,198.09462830005214,198.09462830005214,198.57902580010705,45,45,198.57902580010705,198.57902580010705,198.57902580010705,198.57902580010705,198.57902580010705,198.57902580010705,198.57902580010705,198.57902580010705,198.57902580010705,198.94530190015212,198.94530190015212,198.94530190015212,198.94530190015212,198.94530190015212,198.94530190015212,198.94530190015212,198.94530190015212,198.94530190015212,23,0,,,198.94530190015212,199.1474342001602,1000,199.1474342001602,1000,1000,1000,1000,0,num_3,0.5863532000221312,,32,2,2026-03-12_15h15.51.528,2026A_exp2,2022.2.4,59.989621786243326,
1,0,6.1,0.0,0,0,54,54,70,,,,,199.7629650000017,200.3969126001466,200.3969126001466,200.89779409999028,315,45,200.89779409999028,200.89779409999028,200.89779409999028,200.89779409999028,200.89779409999028,200.89779409999028,200.89779409999028,200.89779409999028,200.89779409999028,201.26443090010434,201.26443090010434,201.26443090010434,201.26443090010434,201.26443090010434,201.26443090010434,201.26443090010434,201.26443090010434,201.26443090010434,23,0,,,201.26443090010434,201.4646075000055,6.1,201.4646075000055,1,6.1,1,1,1000,num_4,0.6853196998126805,,32,2,2026-03-12_15h15.51.528,2026A_exp2,2022.2.4,59.989621786243326,
1000,1,0.0,4.9,1,0,55,55,76,,,,,202.1819967001211,202.83251730003394,202.83251730003394,203.3170045001898,315,45,203.3170045001898,203.3170045001898,203.3170045001898,203.3170045001898,203.3170045001898,203.3170045001898,203.3170045001898,203.3170045001898,203.3170045001898,203.6834186001215,203.6834186001215,203.6834186001215,203.6834186001215,203.6834186001215,203.6834186001215,203.6834186001215,203.6834186001215,203.6834186001215,23,0,,,203.6834186001215,203.88514920021407,1000,203.88514920021407,1000,1000,1000,1000,1,num_2,1.2485493998974562,,32,2,2026-03-12_15h15.51.528,2026A_exp2,2022.2.4,59.989621786243326,
1000,1,0.0,4.9,1,0,56,56,59,,,,,205.15177400014363,205.80213710013777,205.80213710013777,206.303278000094,45,45,206.303278000094,206.303278000094,206.303278000094,206.303278000094,206.303278000094,206.303278000094,206.303278000094,206.303278000094,206.303278000094,206.6531251000706,206.6531251000706,206.6531251000706,206.6531251000706,206.6531251000706,206.6531251000706,206.6531251000706,206.6531251000706,206.6531251000706,22,0,,,206.6531251000706,206.85505890008062,1000,206.85505890008062,1000,1000,1000,1000,1,num_2,0.3509821998886764,,32,2,2026-03-12_15h15.51.528,2026A_exp2,2022.2.4,59.989621786243326,
1,0,3.7,6.1,0,0,57,57,55,,,,,207.2369962001685,207.88751110015437,207.88751110015437,208.38873750017956,315,315,208.38873750017956,208.38873750017956,208.38873750017956,208.38873750017956,208.38873750017956,208.38873750017956,208.38873750017956,208.38873750017956,208.38873750017956,208.73852270003408,208.73852270003408,208.73852270003408,208.73852270003408,208.73852270003408,208.73852270003408,208.73852270003408,208.73852270003408,208.73852270003408,22,0,,,208.73852270003408,208.9385254001245,3.7,208.9556872001849,1,3.7,1,1,1000,num_4,0.921786799794063,,32,2,2026-03-12_15h15.51.528,2026A_exp2,2022.2.4,59.989621786243326,
1000,1,4.9,0.0,0,0,58,58,26,,,,,209.90632080007344,210.5570399002172,210.5570399002172,211.0580161001999,45,45,211.0580161001999,211.0580161001999,211.0580161001999,211.0580161001999,211.0580161001999,211.0580161001999,211.0580161001999,211.0580161001999,211.0580161001999,211.42456070007756,211.42456070007756,211.42456070007756,211.42456070007756,211.42456070007756,211.42456070007756,211.42456070007756,211.42456070007756,211.42456070007756,23,0,,,211.42456070007756,211.62669870001264,1000,211.62669870001264,1000,1000,1000,1000,0,num_3,0.5386315998621285,,32,2,2026-03-12_15h15.51.528,2026A_exp2,2022.2.4,59.989621786243326,
1,0,0.0,0.0,1,0,59,59,73,,,,,212.1918415001128,212.842580600176,212.842580600176,213.34377690008841,45,315,213.34377690008841,213.34377690008841,213.34377690008841,213.34377690008841,213.34377690008841,213.34377690008841,213.34377690008841,213.34377690008841,213.34377690008841,213.70989990001544,213.70989990001544,213.70989990001544,213.70989990001544,213.70989990001544,213.70989990001544,213.70989990001544,213.70989990001544,213.70989990001544,23,0,,,213.70989990001544,213.91047700005583,0.0,213.91047700005583,1,0.0,0,0,1000,num_4,0.6717777999583632,,32,2,2026-03-12_15h15.51.528,2026A_exp2,2022.2.4,59.989621786243326,
1000,1,0.0,6.1,1,0,60,60,88,,,,,214.6109098000452,215.2614699001424,215.2614699001424,215.74625920015387,315,315,215.74625920015387,215.74625920015387,215.74625920015387,215.74625920015387,215.74625920015387,215.74625920015387,215.74625920015387,215.74625920015387,215.74625920015387,216.1125923001673,216.1125923001673,216.1125923001673,216.1125923001673,216.1125923001673,216.1125923001673,216.1125923001673,216.1125923001673,216.1125923001673,23,0,,,216.1125923001673,216.31482840003446,1000,216.31482840003446,1000,1000,1000,1000,1,num_2,0.6903254999779165,,32,2,2026-03-12_15h15.51.528,2026A_exp2,2022.2.4,59.989621786243326,
1000,1,0.0,0.0,0,0,61,61,86,,,,,217.03005850012414,217.6806510000024,217.6806510000024,218.1819610001985,45,45,218.1819610001985,218.1819610001985,218.1819610001985,218.1819610001985,218.1819610001985,218.1819610001985,218.1819610001985,218.1819610001985,218.1819610001985,218.54824200016446,218.54824200016446,218.54824200016446,218.54824200016446,218.54824200016446,218.54824200016446,218.54824200016446,218.54824200016446,218.54824200016446,23,0,,,218.54824200016446,218.74869070015848,1000,218.74869070015848,1000,1000,1000,1000,0,num_3,1.008412899915129,,32,2,2026-03-12_15h15.51.528,2026A_exp2,2022.2.4,59.989621786243326,
1,0,3.7,0.0,1,0,62,62,50,,,,,219.78279200010002,220.4335599001497,220.4335599001497,220.93464460014366,45,315,220.93464460014366,220.93464460014366,220.93464460014366,220.93464460014366,220.93464460014366,220.93464460014366,220.93464460014366,220.93464460014366,220.93464460014366,221.30112380022183,221.30112380022183,221.30112380022183,221.30112380022183,221.30112380022183,221.30112380022183,221.30112380022183,221.30112380022183,221.30112380022183,23,0,,,221.30112380022183,221.50135360006243,0.0,221.50135360006243,0,0.0,0,1,1000,num_1,1.1438378999009728,,32,2,2026-03-12_15h15.51.528,2026A_exp2,2022.2.4,59.989621786243326,
1000,1,0.0,6.1,0,0,63,63,9,,,,,222.66896090004593,223.31977590010501,223.31977590010501,223.8040583000984,315,315,223.8040583000984,223.8040583000984,223.8040583000984,223.8040583000984,223.8040583000984,223.8040583000984,223.8040583000984,223.8040583000984,223.8040583000984,224.17061520018615,224.17061520018615,224.17061520018615,224.17061520018615,224.17061520018615,224.17061520018615,224.17061520018615,224.17061520018615,224.17061520018615,23,0,,,224.17061520018615,224.37248840020038,1000,224.37248840020038,1000,1000,1000,1000,1,num_2,0.5374343998264521,,32,2,2026-03-12_15h15.51.528,2026A_exp2,2022.2.4,59.989621786243326,
1000,1,3.7,0.0,1,0,64,64,48,,,,,224.938179400051,225.58856840012595,225.58856840012595,226.0730328001082,315,315,226.0730328001082,226.0730328001082,226.0730328001082,226.0730328001082,226.0730328001082,226.0730328001082,226.0730328001082,226.0730328001082,226.0730328001082,226.4395147000905,226.4395147000905,226.4395147000905,226.4395147000905,226.4395147000905,226.4395147000905,226.4395147000905,226.4395147000905,226.4395147000905,23,0,,,226.4395147000905,226.64148250012659,1000,226.64148250012659,1000,1000,1000,1000,0,num_3,0.7644213000312448,,32,2,2026-03-12_15h15.51.528,2026A_exp2,2022.2.4,59.989621786243326,
1000,1,3.7,4.9,1,0,65,65,43,,,,,227.42372660012916,228.07454990013503,228.07454990013503,228.57571350014769,315,315,228.57571350014769,228.57571350014769,228.57571350014769,228.57571350014769,228.57571350014769,228.57571350014769,228.57571350014769,228.57571350014769,228.57571350014769,228.9253774001263,228.9253774001263,228.9253774001263,228.9253774001263,228.9253774001263,228.9253774001263,228.9253774001263,228.9253774001263,228.9253774001263,22,0,,,228.9253774001263,229.12730740010738,1000,229.12730740010738,1000,1000,1000,1000,1,num_2,1.1021938999183476,,32,2,2026-03-12_15h15.51.528,2026A_exp2,2022.2.4,59.989621786243326,
1000,1,0.0,0.0,1,0,66,66,12,,,,,230.26021159999073,230.91061490005814,230.91061490005814,231.3950343001634,45,315,231.3950343001634,231.3950343001634,231.3950343001634,231.3950343001634,231.3950343001634,231.3950343001634,231.3950343001634,231.3950343001634,231.3950343001634,231.7615108001046,231.7615108001046,231.7615108001046,231.7615108001046,231.7615108001046,231.7615108001046,231.7615108001046,231.7615108001046,231.7615108001046,23,0,,,231.7615108001046,231.96328360005282,1000,231.96328360005282,1000,1000,1000,1000,1,num_2,0.8820960000157356,,32,2,2026-03-12_15h15.51.528,2026A_exp2,2022.2.4,59.989621786243326,
0,0,6.1,3.7,1,0,67,67,49,,,,,232.86255930014886,233.51319720013998,233.51319720013998,234.01448370004073,315,315,234.01448370004073,234.01448370004073,234.01448370004073,234.01448370004073,234.01448370004073,234.01448370004073,234.01448370004073,234.01448370004073,234.01448370004073,234.38084410014562,234.38084410014562,234.38084410014562,234.38084410014562,234.38084410014562,234.38084410014562,234.38084410014562,234.38084410014562,234.38084410014562,23,0,,,234.38084410014562,234.58093500020914,6.1,234.58093500020914,1,6.1,1,1,1000,num_4,0.7206358998082578,,32,2,2026-03-12_15h15.51.528,2026A_exp2,2022.2.4,59.989621786243326,
1000,1,0.0,0.0,0,0,68,68,83,,,,,235.33171030017547,235.98236700007692,235.98236700007692,236.46676380001009,315,45,236.46676380001009,236.46676380001009,236.46676380001009,236.46676380001009,236.46676380001009,236.46676380001009,236.46676380001009,236.46676380001009,236.46676380001009,236.8332134000957,236.8332134000957,236.8332134000957,236.8332134000957,236.8332134000957,236.8332134000957,236.8332134000957,236.8332134000957,236.8332134000957,23,0,,,236.8332134000957,237.03515540016815,1000,237.03515540016815,1000,1000,1000,1000,0,num_3,0.49085679999552667,,32,2,2026-03-12_15h15.51.528,2026A_exp2,2022.2.4,59.989621786243326,
1,0,0.0,6.1,1,0,69,69,36,,,,,237.55067560006864,238.20140760019422,238.20140760019422,238.7024788002018,315,315,238.7024788002018,238.7024788002018,238.7024788002018,238.7024788002018,238.7024788002018,238.7024788002018,238.7024788002018,238.7024788002018,238.7024788002018,239.05223060003482,239.05223060003482,239.05223060003482,239.05223060003482,239.05223060003482,239.05223060003482,239.05223060003482,239.05223060003482,239.05223060003482,22,0,,,239.05223060003482,239.25244130007923,6.1,239.26903750002384,1,6.1,1,1,1000,num_4,0.8727318998426199,,32,2,2026-03-12_15h15.51.528,2026A_exp2,2022.2.4,59.989621786243326,
1,0,0.0,0.0,1,0,70,70,87,,,,,240.17080660001375,240.82045570015907,240.82045570015907,241.30496340012178,45,45,241.30496340012178,241.30496340012178,241.30496340012178,241.30496340012178,241.30496340012178,241.30496340012178,241.30496340012178,241.30496340012178,241.30496340012178,241.67142610019073,241.67142610019073,241.67142610019073,241.67142610019073,241.67142610019073,241.67142610019073,241.67142610019073,241.67142610019073,241.67142610019073,23,0,,,241.67142610019073,241.8715652001556,0.0,241.8715652001556,0,0.0,0,1,1000,num_1,1.8298374998848885,,32,2,2026-03-12_15h15.51.528,2026A_exp2,2022.2.4,59.989621786243326,
1000,1,3.7,4.9,1,0,71,71,44,,,,,243.72342770011164,244.3740308000706,244.3740308000706,244.85848020017147,45,315,244.85848020017147,244.85848020017147,244.85848020017147,244.85848020017147,244.85848020017147,244.85848020017147,244.85848020017147,244.85848020017147,244.85848020017147,245.2249434001278,245.2249434001278,245.2249434001278,245.2249434001278,245.2249434001278,245.2249434001278,245.2249434001278,245.2249434001278,245.2249434001278,23,0,,,245.2249434001278,245.42713500000536,1000,245.42713500000536,1000,1000,1000,1000,1,num_2,0.5627968998160213,,32,2,2026-03-12_15h15.51.528,2026A_exp2,2022.2.4,59.989621786243326,
1000,1,0.0,0.0,1,0,72,72,23,,,,,246.00905350013636,246.65989150013775,246.65989150013775,247.16095600021072,315,315,247.16095600021072,247.16095600021072,247.16095600021072,247.16095600021072,247.16095600021072,247.16095600021072,247.16095600021072,247.16095600021072,247.16095600021072,247.52730800001882,247.52730800001882,247.52730800001882,247.52730800001882,247.52730800001882,247.52730800001882,247.52730800001882,247.52730800001882,247.52730800001882,23,0,,,247.52730800001882,247.72977040009573,1000,247.72977040009573,1000,1000,1000,1000,1,num_2,0.49201459996402264,,32,2,2026-03-12_15h15.51.528,2026A_exp2,2022.2.4,59.989621786243326,
1,0,0.0,0.0,0,0,73,73,1,,,,,248.24463570001535,248.89537660009228,248.89537660009228,249.37980080000125,45,315,249.37980080000125,249.37980080000125,249.37980080000125,249.37980080000125,249.37980080000125,249.37980080000125,249.37980080000125,249.37980080000125,249.37980080000125,249.74617410008796,249.74617410008796,249.74617410008796,249.74617410008796,249.74617410008796,249.74617410008796,249.74617410008796,249.74617410008796,249.74617410008796,23,0,,,249.74617410008796,249.94647000008263,0.0,249.94647000008263,1,0.0,0,0,1000,num_4,0.659982199780643,,32,2,2026-03-12_15h15.51.528,2026A_exp2,2022.2.4,59.989621786243326,
1,0,3.7,0.0,1,0,74,74,19,,,,,250.63050270010717,251.26429140008986,251.26429140008986,251.76557730021887,315,315,251.76557730021887,251.76557730021887,251.76557730021887,251.76557730021887,251.76557730021887,251.76557730021887,251.76557730021887,251.76557730021887,251.76557730021887,252.1317934000399,252.1317934000399,252.1317934000399,252.1317934000399,252.1317934000399,252.1317934000399,252.1317934000399,252.1317934000399,252.1317934000399,23,0,,,252.1317934000399,252.33207650016993,0.0,252.33207650016993,0,0.0,0,1,1000,num_1,0.6815617997199297,,32,2,2026-03-12_15h15.51.528,2026A_exp2,2022.2.4,59.989621786243326,
1000,1,0.0,0.0,0,0,75,75,80,,,,,253.0327876000665,253.68335629999638,253.68335629999638,254.16772500006482,45,45,254.16772500006482,254.16772500006482,254.16772500006482,254.16772500006482,254.16772500006482,254.16772500006482,254.16772500006482,254.16772500006482,254.16772500006482,254.5343333000783,254.5343333000783,254.5343333000783,254.5343333000783,254.5343333000783,254.5343333000783,254.5343333000783,254.5343333000783,254.5343333000783,23,0,,,254.5343333000783,254.73632280016318,1000,254.73632280016318,1000,1000,1000,1000,0,num_3,0.741250499850139,,32,2,2026-03-12_15h15.51.528,2026A_exp2,2022.2.4,59.989621786243326,
1,0,0.0,4.9,0,0,76,76,4,,,,,255.501870600041,256.1525790002197,256.1525790002197,256.6535137000028,45,45,256.6535137000028,256.6535137000028,256.6535137000028,256.6535137000028,256.6535137000028,256.6535137000028,256.6535137000028,256.6535137000028,256.6535137000028,257.00347790005617,257.00347790005617,257.00347790005617,257.00347790005617,257.00347790005617,257.00347790005617,257.00347790005617,257.00347790005617,257.00347790005617,22,0,,,257.00347790005617,257.2035941001959,0.0,257.2035941001959,0,0.0,0,1,1000,num_1,0.7138048997148871,,32,2,2026-03-12_15h15.51.528,2026A_exp2,2022.2.4,59.989621786243326,
1,0,3.7,0.0,0,0,77,77,42,,,,,257.9375907999929,258.5883667001035,258.5883667001035,259.0726848000195,45,315,259.0726848000195,259.0726848000195,259.0726848000195,259.0726848000195,259.0726848000195,259.0726848000195,259.0726848000195,259.0726848000195,259.0726848000195,259.4390066000633,259.4390066000633,259.4390066000633,259.4390066000633,259.4390066000633,259.4390066000633,259.4390066000633,259.4390066000633,259.4390066000633,23,0,,,259.4390066000633,259.6392061000224,3.7,259.6392061000224,1,3.7,1,1,1000,num_4,0.3101660998072475,,32,2,2026-03-12_15h15.51.528,2026A_exp2,2022.2.4,59.989621786243326,
1000,1,3.7,6.1,0,0,78,78,84,,,,,259.97303180000745,260.60728130000643,260.60728130000643,261.10823240014724,45,315,261.10823240014724,261.10823240014724,261.10823240014724,261.10823240014724,261.10823240014724,261.10823240014724,261.10823240014724,261.10823240014724,261.10823240014724,261.4746360001154,261.4746360001154,261.4746360001154,261.4746360001154,261.4746360001154,261.4746360001154,261.4746360001154,261.4746360001154,261.4746360001154,23,0,,,261.4746360001154,261.6764905001037,1000,261.6764905001037,1000,1000,1000,1000,1,num_2,1.2172115999273956,,32,2,2026-03-12_15h15.51.528,2026A_exp2,2022.2.4,59.989621786243326,
0,0,4.9,0.0,1,0,79,79,25,,,,,262.90929410001263,263.559974900214,263.559974900214,264.0609906001482,45,315,264.0609906001482,264.0609906001482,264.0609906001482,264.0609906001482,264.0609906001482,264.0609906001482,264.0609906001482,264.0609906001482,264.0609906001482,264.4275323001202,264.4275323001202,264.4275323001202,264.4275323001202,264.4275323001202,264.4275323001202,264.4275323001202,264.4275323001202,264.4275323001202,23,0,,,264.4275323001202,264.62757190014236,4.9,264.62757190014236,1,4.9,1,1,1000,num_4,0.5303960999008268,,32,2,2026-03-12_15h15.51.528,2026A_exp2,2022.2.4,59.989621786243326,
1000,1,0.0,4.9,1,0,80,80,79,,,,,265.17816790007055,265.82891790010035,265.82891790010035,266.31342380004935,315,315,266.31342380004935,266.31342380004935,266.31342380004935,266.31342380004935,266.31342380004935,266.31342380004935,266.31342380004935,266.31342380004935,266.31342380004935,266.67979200021364,266.67979200021364,266.67979200021364,266.67979200021364,266.67979200021364,266.67979200021364,266.67979200021364,266.67979200021364,266.67979200021364,23,0,,,266.67979200021364,266.88156820018776,1000,266.88156820018776,1000,1000,1000,1000,1,num_2,0.43541579972952604,,32,2,2026-03-12_15h15.51.528,2026A_exp2,2022.2.4,59.989621786243326,
1000,1,0.0,0.0,0,0,81,81,17,,,,,267.3470988001209,267.9977897000499,267.9977897000499,268.4989427002147,45,315,268.4989427002147,268.4989427002147,268.4989427002147,268.4989427002147,268.4989427002147,268.4989427002147,268.4989427002147,268.4989427002147,268.4989427002147,268.86524820001796,268.86524820001796,268.86524820001796,268.86524820001796,268.86524820001796,268.86524820001796,268.86524820001796,268.86524820001796,268.86524820001796,23,0,,,268.86524820001796,269.067196900025,1000,269.067196900025,1000,1000,1000,1000,0,num_3,0.6268367997836322,,32,2,2026-03-12_15h15.51.528,2026A_exp2,2022.2.4,59.989621786243326,
1000,1,4.9,3.7,0,0,82,82,32,,,,,269.71612019999884,270.3667313000187,270.3667313000187,270.8679428000469,315,315,270.8679428000469,270.8679428000469,270.8679428000469,270.8679428000469,270.8679428000469,270.8679428000469,270.8679428000469,270.8679428000469,270.8679428000469,271.21769310021773,271.21769310021773,271.21769310021773,271.21769310021773,271.21769310021773,271.21769310021773,271.21769310021773,271.21769310021773,271.21769310021773,22,0,,,271.21769310021773,271.41950700012967,1000,271.4345379001461,1000,1000,1000,1000,0,num_3,0.4117526998743415,,32,2,2026-03-12_15h15.51.528,2026A_exp2,2022.2.4,59.989621786243326,
1000,1,0.0,0.0,0,0,83,83,15,,,,,271.8681728001684,272.51901110005565,272.51901110005565,273.0200632000342,315,315,273.0200632000342,273.0200632000342,273.0200632000342,273.0200632000342,273.0200632000342,273.0200632000342,273.0200632000342,273.0200632000342,273.0200632000342,273.3862808002159,273.3862808002159,273.3862808002159,273.3862808002159,273.3862808002159,273.3862808002159,273.3862808002159,273.3862808002159,273.3862808002159,23,0,,,273.3862808002159,273.58784779999405,1000,273.58784779999405,1000,1000,1000,1000,1,num_2,1.24178609973751,,32,2,2026-03-12_15h15.51.528,2026A_exp2,2022.2.4,59.989621786243326,
1000,1,6.1,0.0,0,0,84,84,82,,,,,274.85443040006794,275.50554440007545,275.50554440007545,276.0040452000685,45,45,276.0040452000685,276.0040452000685,276.0040452000685,276.0040452000685,276.0040452000685,276.0040452000685,276.0040452000685,276.0040452000685,276.0040452000685,276.3559904000722,276.3559904000722,276.3559904000722,276.3559904000722,276.3559904000722,276.3559904000722,276.3559904000722,276.3559904000722,276.3559904000722,23,0,,,276.3559904000722,276.55836570006795,1000,276.55836570006795,1000,1000,1000,1000,0,num_3,0.4713775997515768,,32,2,2026-03-12_15h15.51.528,2026A_exp2,2022.2.4,59.989621786243326,
1000,1,6.1,0.0,1,0,85,85,69,,,,,277.05665740021504,277.7074910001829,277.7074910001829,278.20850050006993,45,45,278.20850050006993,278.20850050006993,278.20850050006993,278.20850050006993,278.20850050006993,278.20850050006993,278.20850050006993,278.20850050006993,278.20850050006993,278.57498870021664,278.57498870021664,278.57498870021664,278.57498870021664,278.57498870021664,278.57498870021664,278.57498870021664,278.57498870021664,278.57498870021664,23,0,,,278.57498870021664,278.7767288000323,1000,278.7767288000323,1000,1000,1000,1000,0,num_3,0.5097913998179138,,32,2,2026-03-12_15h15.51.528,2026A_exp2,2022.2.4,59.989621786243326,
1000,1,3.7,0.0,0,0,86,86,45,,,,,279.30897580017336,279.95980290020816,279.95980290020816,280.46073590009473,315,315,280.46073590009473,280.46073590009473,280.46073590009473,280.46073590009473,280.46073590009473,280.46073590009473,280.46073590009473,280.46073590009473,280.46073590009473,280.8271895002108,280.8271895002108,280.8271895002108,280.8271895002108,280.8271895002108,280.8271895002108,280.8271895002108,280.8271895002108,280.8271895002108,23,0,,,280.8271895002108,281.02966600004584,1000,281.02966600004584,1000,1000,1000,1000,0,num_3,0.5684231000486761,,32,2,2026-03-12_15h15.51.528,2026A_exp2,2022.2.4,59.989621786243326,
1,0,6.1,0.0,0,0,87,87,56,,,,,281.6282600001432,282.27863489999436,282.27863489999436,282.7799124000594,315,45,282.7799124000594,282.7799124000594,282.7799124000594,282.7799124000594,282.7799124000594,282.7799124000594,282.7799124000594,282.7799124000594,282.7799124000594,283.14626980014145,283.14626980014145,283.14626980014145,283.14626980014145,283.14626980014145,283.14626980014145,283.14626980014145,283.14626980014145,283.14626980014145,23,0,,,283.14626980014145,283.3464257000014,6.1,283.3464257000014,1,6.1,1,1,1000,num_4,0.57911969977431,,32,2,2026-03-12_15h15.51.528,2026A_exp2,2022.2.4,59.989621786243326,
1000,1,0.0,0.0,0,0,88,88,64,,,,,283.94708240008913,284.5976400000509,284.5976400000509,285.098763700109,45,315,285.098763700109,285.098763700109,285.098763700109,285.098763700109,285.098763700109,285.098763700109,285.098763700109,285.098763700109,285.098763700109,285.44838760001585,285.44838760001585,285.44838760001585,285.44838760001585,285.44838760001585,285.44838760001585,285.44838760001585,285.44838760001585,285.44838760001585,22,0,,,285.44838760001585,285.65072510018945,1000,285.65072510018945,1000,1000,1000,1000,1,num_2,0.5869316000025719,,32,2,2026-03-12_15h15.51.528,2026A_exp2,2022.2.4,59.989621786243326,
1000,1,0.0,0.0,1,0,89,89,67,,,,,286.26603270019405,286.9165179000702,286.9165179000702,287.41765950014815,315,315,287.41765950014815,287.41765950014815,287.41765950014815,287.41765950014815,287.41765950014815,287.41765950014815,287.41765950014815,287.41765950014815,287.41765950014815,287.78419929998927,287.78419929998927,287.78419929998927,287.78419929998927,287.78419929998927,287.78419929998927,287.78419929998927,287.78419929998927,287.78419929998927,23,0,,,287.78419929998927,287.98611120018177,1000,287.98611120018177,1000,1000,1000,1000,1,num_2,0.5551519999280572,,32,2,2026-03-12_15h15.51.528,2026A_exp2,2022.2.4,59.989621786243326,
,,,,,,,,,,,,,,,,,,,,,,,,,,,,,,,,,,,,,,,,,,,,,,,,,,,,288.57744810008444,,,,,,,
