validity,detectorcomp,contrastCW,contrastCCW,precueCWorCCW,block_80trials.thisRepN,block_80trials.thisTrialN,block_80trials.thisN,block_80trials.thisIndex,etRecord.started,etRecord.stopped,text.started,text.stopped,text_4.started,text_4.stopped,text_6.started,text_6.stopped,oriCW,oriCCW,roi_2.started,grating_UR.started,grating_UL.started,grating_LR.started,grating_LL.started,noise_UR.started,noise_UL.started,noise_LR.started,noise_LL.started,roi_2.stopped,grating_UR.stopped,grating_UL.stopped,grating_LR.stopped,grating_LL.stopped,noise_UR.stopped,noise_UL.stopped,noise_LR.stopped,noise_LL.stopped,outframe,roi_2.numLooks,roi_2.timesOn,roi_2.timesOff,text_2.started,text_2.stopped,probedcontrast,key_resp.started,respdetect,relevantContrast,correctDetect,TorFdetect,respCWorCCW,key_resp.keys,key_resp.rt,feedback_display_.started,participantNo,blockNo,date,expName,psychopyVersion,frameRate,
1,0,0.0,4.9,0,0,0,0,3,3.559998003765941e-05,3.559998003765941e-05,48.509931100008544,50.512092699995264,50.512092699995264,51.14596980001079,51.14596980001079,51.66388100001495,45,45,51.66388100001495,51.66388100001495,51.66388100001495,51.66388100001495,51.66388100001495,51.66388100001495,51.66388100001495,51.66388100001495,51.66388100001495,52.01367700000992,52.01367700000992,52.01367700000992,52.01367700000992,52.01367700000992,52.01367700000992,52.01367700000992,52.01367700000992,52.01367700000992,23,0,,,52.01367700000992,52.21390050003538,0.0,52.21390050003538,1,0.0,0,0,1000,num_4,0.7633421000209637,,25,12,2026-03-04_18h19.59.445,2026A_exp2,2022.2.4,60.031468490799135,
1,0,4.9,3.7,1,0,1,1,27,,,,,52.997970700031146,53.64849630004028,53.64849630004028,54.13299150002422,315,45,54.13299150002422,54.13299150002422,54.13299150002422,54.13299150002422,54.13299150002422,54.13299150002422,54.13299150002422,54.13299150002422,54.13299150002422,54.49948520003818,54.49948520003818,54.49948520003818,54.49948520003818,54.49948520003818,54.49948520003818,54.49948520003818,54.49948520003818,54.49948520003818,23,0,,,54.49948520003818,54.699567900039256,3.7,54.699567900039256,1,3.7,1,1,1000,num_4,0.4299138000351377,,25,12,2026-03-04_18h19.59.445,2026A_exp2,2022.2.4,60.031468490799135,
1,0,4.9,0.0,0,0,2,2,53,,,,,55.1500455000205,55.8007351999986,55.8007351999986,56.285319400019944,45,315,56.285319400019944,56.285319400019944,56.285319400019944,56.285319400019944,56.285319400019944,56.285319400019944,56.285319400019944,56.285319400019944,56.285319400019944,56.65152020001551,56.65152020001551,56.65152020001551,56.65152020001551,56.65152020001551,56.65152020001551,56.65152020001551,56.65152020001551,56.65152020001551,23,0,,,56.65152020001551,56.851935200043954,4.9,56.851935200043954,1,4.9,1,1,1000,num_4,0.525752299989108,,25,12,2026-03-04_18h19.59.445,2026A_exp2,2022.2.4,60.031468490799135,
1,0,6.1,0.0,1,0,3,3,89,,,,,57.40237670001807,58.05307409999659,58.05307409999659,58.537524300045334,45,45,58.537524300045334,58.537524300045334,58.537524300045334,58.537524300045334,58.537524300045334,58.537524300045334,58.537524300045334,58.537524300045334,58.537524300045334,58.90384740004083,58.90384740004083,58.90384740004083,58.90384740004083,58.90384740004083,58.90384740004083,58.90384740004083,58.90384740004083,58.90384740004083,23,0,,,58.90384740004083,59.10423910000827,0.0,59.10423910000827,1,0.0,0,0,1000,num_4,0.5048735000309534,,25,12,2026-03-04_18h19.59.445,2026A_exp2,2022.2.4,60.031468490799135,
1,0,0.0,6.1,1,0,4,4,31,,,,,59.637832800042816,60.2719664000324,60.2719664000324,60.773215499997605,45,315,60.773215499997605,60.773215499997605,60.773215499997605,60.773215499997605,60.773215499997605,60.773215499997605,60.773215499997605,60.773215499997605,60.773215499997605,61.139254500041716,61.139254500041716,61.139254500041716,61.139254500041716,61.139254500041716,61.139254500041716,61.139254500041716,61.139254500041716,61.139254500041716,23,0,,,61.139254500041716,61.33976860000985,6.1,61.33976860000985,1,6.1,1,1,1000,num_4,0.2928677999880165,,25,12,2026-03-04_18h19.59.445,2026A_exp2,2022.2.4,60.031468490799135,
1,0,0.0,0.0,0,0,5,5,55,,,,,61.656313300016336,62.30734440003289,62.30734440003289,62.791616300004534,315,45,62.791616300004534,62.791616300004534,62.791616300004534,62.791616300004534,62.791616300004534,62.791616300004534,62.791616300004534,62.791616300004534,62.791616300004534,63.15822500002105,63.15822500002105,63.15822500002105,63.15822500002105,63.15822500002105,63.15822500002105,63.15822500002105,63.15822500002105,63.15822500002105,23,0,,,63.15822500002105,63.35840860003373,0.0,63.35840860003373,1,0.0,0,0,1000,num_4,0.5224226000136696,,25,12,2026-03-04_18h19.59.445,2026A_exp2,2022.2.4,60.031468490799135,
1,0,6.1,6.1,1,0,6,6,23,,,,,63.908749299997,64.55944869999075,64.55944869999075,65.04389650002122,45,315,65.04389650002122,65.04389650002122,65.04389650002122,65.04389650002122,65.04389650002122,65.04389650002122,65.04389650002122,65.04389650002122,65.04389650002122,65.41033980000066,65.41033980000066,65.41033980000066,65.41033980000066,65.41033980000066,65.41033980000066,65.41033980000066,65.41033980000066,65.41033980000066,23,0,,,65.41033980000066,65.61047160002636,6.1,65.61047160002636,1,6.1,1,1,1000,num_4,0.3819211999652907,,25,12,2026-03-04_18h19.59.445,2026A_exp2,2022.2.4,60.031468490799135,
1000,1,6.1,3.7,0,0,7,7,75,,,,,66.0108285000315,66.66170290001901,66.66170290001901,67.14594539999962,45,315,67.14594539999962,67.14594539999962,67.14594539999962,67.14594539999962,67.14594539999962,67.14594539999962,67.14594539999962,67.14594539999962,67.14594539999962,67.5124996000086,67.5124996000086,67.5124996000086,67.5124996000086,67.5124996000086,67.5124996000086,67.5124996000086,67.5124996000086,67.5124996000086,23,0,,,67.5124996000086,67.71768080000766,1000,67.71768080000766,1000,1000,1000,1000,0,num_3,0.5312266999972053,,25,12,2026-03-04_18h19.59.445,2026A_exp2,2022.2.4,60.031468490799135,
1,0,3.7,4.9,1,0,8,8,20,,,,,68.27998420002405,68.93063529999927,68.93063529999927,69.43180930003291,315,45,69.43180930003291,69.43180930003291,69.43180930003291,69.43180930003291,69.43180930003291,69.43180930003291,69.43180930003291,69.43180930003291,69.43180930003291,69.78124260000186,69.78124260000186,69.78124260000186,69.78124260000186,69.78124260000186,69.78124260000186,69.78124260000186,69.78124260000186,69.78124260000186,22,0,,,69.78124260000186,69.98171120003099,4.9,69.99832220003009,1,4.9,1,1,1000,num_4,0.5230337999528274,,25,12,2026-03-04_18h19.59.445,2026A_exp2,2022.2.4,60.031468490799135,
0,0,4.9,0.0,1,0,9,9,67,,,,,70.54857990000164,71.19956870004535,71.19956870004535,71.68398540001363,45,315,71.68398540001363,71.68398540001363,71.68398540001363,71.68398540001363,71.68398540001363,71.68398540001363,71.68398540001363,71.68398540001363,71.68398540001363,72.05033940001158,72.05033940001158,72.05033940001158,72.05033940001158,72.05033940001158,72.05033940001158,72.05033940001158,72.05033940001158,72.05033940001158,23,0,,,72.05033940001158,72.25041139998939,4.9,72.25041139998939,0,4.9,1,0,1000,num_1,0.7419646000489593,,25,12,2026-03-04_18h19.59.445,2026A_exp2,2022.2.4,60.031468490799135,
1,0,0.0,6.1,1,0,10,10,50,,,,,73.01801689999411,73.65198960003909,73.65198960003909,74.15311670000665,315,315,74.15311670000665,74.15311670000665,74.15311670000665,74.15311670000665,74.15311670000665,74.15311670000665,74.15311670000665,74.15311670000665,74.15311670000665,74.51947350002592,74.51947350002592,74.51947350002592,74.51947350002592,74.51947350002592,74.51947350002592,74.51947350002592,74.51947350002592,74.51947350002592,23,0,,,74.51947350002592,74.7197800000431,6.1,74.7197800000431,1,6.1,1,1,1000,num_4,0.16971320001175627,,25,12,2026-03-04_18h19.59.445,2026A_exp2,2022.2.4,60.031468490799135,
1000,1,0.0,0.0,0,0,11,11,7,,,,,74.91969800001243,75.57058920001145,75.57058920001145,76.05501870001899,45,315,76.05501870001899,76.05501870001899,76.05501870001899,76.05501870001899,76.05501870001899,76.05501870001899,76.05501870001899,76.05501870001899,76.05501870001899,76.42137749999529,76.42137749999529,76.42137749999529,76.42137749999529,76.42137749999529,76.42137749999529,76.42137749999529,76.42137749999529,76.42137749999529,23,0,,,76.42137749999529,76.62338120001368,1000,76.62338120001368,1000,1000,1000,1000,0,num_3,0.10632469999836758,,25,12,2026-03-04_18h19.59.445,2026A_exp2,2022.2.4,60.031468490799135,
1000,1,4.9,0.0,1,0,12,12,77,,,,,76.75506370002404,77.40569290000712,77.40569290000712,77.90675890003331,315,45,77.90675890003331,77.90675890003331,77.90675890003331,77.90675890003331,77.90675890003331,77.90675890003331,77.90675890003331,77.90675890003331,77.90675890003331,78.2731819000328,78.2731819000328,78.2731819000328,78.2731819000328,78.2731819000328,78.2731819000328,78.2731819000328,78.2731819000328,78.2731819000328,23,0,,,78.2731819000328,78.47542060003616,1000,78.47542060003616,1000,1000,1000,1000,1,num_2,0.06909489998361096,,25,12,2026-03-04_18h19.59.445,2026A_exp2,2022.2.4,60.031468490799135,
0,0,0.0,0.0,0,0,13,13,59,,,,,78.5735414000228,79.2242200000328,79.2242200000328,79.72533350001322,45,45,79.72533350001322,79.72533350001322,79.72533350001322,79.72533350001322,79.72533350001322,79.72533350001322,79.72533350001322,79.72533350001322,79.72533350001322,80.09178120002616,80.09178120002616,80.09178120002616,80.09178120002616,80.09178120002616,80.09178120002616,80.09178120002616,80.09178120002616,80.09178120002616,23,0,,,80.09178120002616,80.29199810000136,0.0,80.29199810000136,0,0.0,0,1,1000,num_1,0.8287415999802761,,25,12,2026-03-04_18h19.59.445,2026A_exp2,2022.2.4,60.031468490799135,
1,0,6.1,0.0,0,0,14,14,82,,,,,81.14261810004245,81.79348719998961,81.79348719998961,82.27774500002852,45,315,82.27774500002852,82.27774500002852,82.27774500002852,82.27774500002852,82.27774500002852,82.27774500002852,82.27774500002852,82.27774500002852,82.27774500002852,82.64427480002632,82.64427480002632,82.64427480002632,82.64427480002632,82.64427480002632,82.64427480002632,82.64427480002632,82.64427480002632,82.64427480002632,23,0,,,82.64427480002632,82.84456590004265,6.1,82.84456590004265,1,6.1,1,1,1000,num_4,0.892359999998007,,25,12,2026-03-04_18h19.59.445,2026A_exp2,2022.2.4,60.031468490799135,
0,0,4.9,3.7,0,0,15,15,28,,,,,83.76202520000516,84.41267700004391,84.41267700004391,84.89700729999458,315,315,84.89700729999458,84.89700729999458,84.89700729999458,84.89700729999458,84.89700729999458,84.89700729999458,84.89700729999458,84.89700729999458,84.89700729999458,85.26357030001236,85.26357030001236,85.26357030001236,85.26357030001236,85.26357030001236,85.26357030001236,85.26357030001236,85.26357030001236,85.26357030001236,23,0,,,85.26357030001236,85.46366130001843,3.7,85.46366130001843,0,3.7,1,0,1000,num_1,0.5614638999686576,,25,12,2026-03-04_18h19.59.445,2026A_exp2,2022.2.4,60.031468490799135,
1000,1,3.7,4.9,0,0,16,16,45,,,,,86.04743780003628,86.68165969999973,86.68165969999973,87.18283290002728,315,45,87.18283290002728,87.18283290002728,87.18283290002728,87.18283290002728,87.18283290002728,87.18283290002728,87.18283290002728,87.18283290002728,87.18283290002728,87.5491813000408,87.5491813000408,87.5491813000408,87.5491813000408,87.5491813000408,87.5491813000408,87.5491813000408,87.5491813000408,87.5491813000408,22,1,[0.10032929998124018],[0.11700560001190752],87.5491813000408,87.75088140001753,1000,87.75088140001753,1000,1000,1000,1000,0,num_3,0.0577276999829337,,25,12,2026-03-04_18h19.59.445,2026A_exp2,2022.2.4,60.031468490799135,
1,0,0.0,6.1,0,0,17,17,0,,,,,87.83277470001485,88.48336140002357,88.48336140002357,88.99265999998897,45,315,88.99265999998897,88.99265999998897,88.99265999998897,88.99265999998897,88.99265999998897,88.99265999998897,88.99265999998897,88.99265999998897,88.99265999998897,89.35103090002667,89.35103090002667,89.35103090002667,89.35103090002667,89.35103090002667,89.35103090002667,89.35103090002667,89.35103090002667,89.35103090002667,15,1,[0.03423840005416423],[0.16536250000353903],89.35103090002667,89.55116189998807,0.0,89.55116189998807,0,0.0,0,1,1000,num_1,0.6094394000247121,,25,12,2026-03-04_18h19.59.445,2026A_exp2,2022.2.4,60.031468490799135,
1000,1,0.0,3.7,1,0,18,18,13,,,,,90.18525109998882,90.819369200035,90.819369200035,91.32040470000356,315,315,91.32040470000356,91.32040470000356,91.32040470000356,91.32040470000356,91.32040470000356,91.32040470000356,91.32040470000356,91.32040470000356,91.32040470000356,91.68659380002646,91.68659380002646,91.68659380002646,91.68659380002646,91.68659380002646,91.68659380002646,91.68659380002646,91.68659380002646,91.68659380002646,23,0,,,91.68659380002646,91.88882380002178,1000,91.88882380002178,1000,1000,1000,1000,1,num_2,0.15244649996748194,,25,12,2026-03-04_18h19.59.445,2026A_exp2,2022.2.4,60.031468490799135,
1,0,4.9,3.7,0,0,19,19,44,,,,,92.07032320002327,92.72105310001643,92.72105310001643,93.22205490001943,45,45,93.22205490001943,93.22205490001943,93.22205490001943,93.22205490001943,93.22205490001943,93.22205490001943,93.22205490001943,93.22205490001943,93.22205490001943,93.58833500003675,93.58833500003675,93.58833500003675,93.58833500003675,93.58833500003675,93.58833500003675,93.58833500003675,93.58833500003675,93.58833500003675,21,1,[0.3003187999711372],[0.33365579997189343],93.58833500003675,93.78878840000834,4.9,93.78878840000834,0,4.9,1,0,1000,num_1,0.4920636999886483,,25,12,2026-03-04_18h19.59.445,2026A_exp2,2022.2.4,60.031468490799135,
1000,1,6.1,0.0,1,0,20,20,83,,,,,94.30589570000302,94.93983909999952,94.93983909999952,95.44113360001938,45,45,95.44113360001938,95.44113360001938,95.44113360001938,95.44113360001938,95.44113360001938,95.44113360001938,95.44113360001938,95.44113360001938,95.44113360001938,95.80731450003805,95.80731450003805,95.80731450003805,95.80731450003805,95.80731450003805,95.80731450003805,95.80731450003805,95.80731450003805,95.80731450003805,23,0,,,95.80731450003805,96.00976780004567,1000,96.00976780004567,1000,1000,1000,1000,1,num_2,0.12004159996286035,,25,12,2026-03-04_18h19.59.445,2026A_exp2,2022.2.4,60.031468490799135,
1000,1,3.7,6.1,1,0,21,21,48,,,,,96.15770520002116,96.80819730000803,96.80819730000803,97.30968810000923,45,45,97.30968810000923,97.30968810000923,97.30968810000923,97.30968810000923,97.30968810000923,97.30968810000923,97.30968810000923,97.30968810000923,97.30968810000923,97.6592960000271,97.6592960000271,97.6592960000271,97.6592960000271,97.6592960000271,97.6592960000271,97.6592960000271,97.6592960000271,97.6592960000271,22,0,,,97.6592960000271,97.86119900003541,1000,97.87627280002926,1000,1000,1000,1000,1,num_2,0.3802598000038415,,25,12,2026-03-04_18h19.59.445,2026A_exp2,2022.2.4,60.031468490799135,
1000,1,0.0,0.0,1,0,22,22,1,,,,,98.27639880002243,98.92717070004437,98.92717070004437,99.42832559999079,45,315,99.42832559999079,99.42832559999079,99.42832559999079,99.42832559999079,99.42832559999079,99.42832559999079,99.42832559999079,99.42832559999079,99.42832559999079,99.79481460002717,99.79481460002717,99.79481460002717,99.79481460002717,99.79481460002717,99.79481460002717,99.79481460002717,99.79481460002717,99.79481460002717,23,0,,,99.79481460002717,99.9949124000268,1000,99.9949124000268,1000,1000,1000,1000,1,num_2,0.3023669999674894,,25,12,2026-03-04_18h19.59.445,2026A_exp2,2022.2.4,60.031468490799135,
1000,1,3.7,6.1,1,0,23,23,58,,,,,100.32853699999396,100.9793292999966,100.9793292999966,101.48033789999317,315,45,101.48033789999317,101.48033789999317,101.48033789999317,101.48033789999317,101.48033789999317,101.48033789999317,101.48033789999317,101.48033789999317,101.48033789999317,101.84679360000882,101.84679360000882,101.84679360000882,101.84679360000882,101.84679360000882,101.84679360000882,101.84679360000882,101.84679360000882,101.84679360000882,23,0,,,101.84679360000882,102.04896670003654,1000,102.04896670003654,1000,1000,1000,1000,1,num_2,0.09654539998155087,,25,12,2026-03-04_18h19.59.445,2026A_exp2,2022.2.4,60.031468490799135,
0,0,3.7,0.0,0,0,24,24,62,,,,,102.16379040002357,102.81432629999472,102.81432629999472,103.31550389999757,45,45,103.31550389999757,103.31550389999757,103.31550389999757,103.31550389999757,103.31550389999757,103.31550389999757,103.31550389999757,103.31550389999757,103.31550389999757,103.68200200004503,103.68200200004503,103.68200200004503,103.68200200004503,103.68200200004503,103.68200200004503,103.68200200004503,103.68200200004503,103.68200200004503,23,0,,,103.68200200004503,103.88220440002624,0.0,103.88220440002624,0,0.0,0,1,1000,num_1,0.9341693000169471,,25,12,2026-03-04_18h19.59.445,2026A_exp2,2022.2.4,60.031468490799135,
1000,1,0.0,3.7,0,0,25,25,46,,,,,104.83282880001934,105.48390420002397,105.48390420002397,105.96824660000857,45,45,105.96824660000857,105.96824660000857,105.96824660000857,105.96824660000857,105.96824660000857,105.96824660000857,105.96824660000857,105.96824660000857,105.96824660000857,106.33470220002346,106.33470220002346,106.33470220002346,106.33470220002346,106.33470220002346,106.33470220002346,106.33470220002346,106.33470220002346,106.33470220002346,0,1,[0.001202500017825514],[0.3671570000005886],106.33470220002346,106.53657960001146,1000,106.53657960001146,1000,1000,1000,1000,0,num_3,0.1039331000065431,,25,12,2026-03-04_18h19.59.445,2026A_exp2,2022.2.4,60.031468490799135,
1000,1,6.1,0.0,1,0,26,26,25,,,,,106.66825600003358,107.31896639999468,107.31896639999468,107.80323660001159,315,45,107.80323660001159,107.80323660001159,107.80323660001159,107.80323660001159,107.80323660001159,107.80323660001159,107.80323660001159,107.80323660001159,107.80323660001159,108.16988140001195,108.16988140001195,108.16988140001195,108.16988140001195,108.16988140001195,108.16988140001195,108.16988140001195,108.16988140001195,108.16988140001195,23,0,,,108.16988140001195,108.37230849999469,1000,108.37230849999469,1000,1000,1000,1000,1,num_2,0.3240467000287026,,25,12,2026-03-04_18h19.59.445,2026A_exp2,2022.2.4,60.031468490799135,
0,0,6.1,0.0,0,0,27,27,74,,,,,108.72048940003151,109.37097380001796,109.37097380001796,109.87199060001876,315,315,109.87199060001876,109.87199060001876,109.87199060001876,109.87199060001876,109.87199060001876,109.87199060001876,109.87199060001876,109.87199060001876,109.87199060001876,110.23855559999356,110.23855559999356,110.23855559999356,110.23855559999356,110.23855559999356,110.23855559999356,110.23855559999356,110.23855559999356,110.23855559999356,20,2,"[0.2838188000023365, 0.36729490000288934]","[0.31705589999910444, 0.3673009999911301]",110.23855559999356,110.43863819999387,0.0,110.43863819999387,0,0.0,0,1,1000,num_1,0.6347061999840662,,25,12,2026-03-04_18h19.59.445,2026A_exp2,2022.2.4,60.031468490799135,
1000,1,4.9,0.0,1,0,28,28,10,,,,,111.10616610001307,111.74011040001642,111.74011040001642,112.24107560003176,45,45,112.24107560003176,112.24107560003176,112.24107560003176,112.24107560003176,112.24107560003176,112.24107560003176,112.24107560003176,112.24107560003176,112.24107560003176,112.60750460001873,112.60750460001873,112.60750460001873,112.60750460001873,112.60750460001873,112.60750460001873,112.60750460001873,112.60750460001873,112.60750460001873,23,0,,,112.60750460001873,112.80983290000586,1000,112.80983290000586,1000,1000,1000,1000,1,num_2,0.10316749999765307,,25,12,2026-03-04_18h19.59.445,2026A_exp2,2022.2.4,60.031468490799135,
1,0,0.0,0.0,1,0,29,29,39,,,,,112.9413703000173,113.57514730002731,113.57514730002731,114.0763455000124,315,45,114.0763455000124,114.0763455000124,114.0763455000124,114.0763455000124,114.0763455000124,114.0763455000124,114.0763455000124,114.0763455000124,114.0763455000124,114.44272380002076,114.44272380002076,114.44272380002076,114.44272380002076,114.44272380002076,114.44272380002076,114.44272380002076,114.44272380002076,114.44272380002076,23,0,,,114.44272380002076,114.64294660004089,0.0,114.64294660004089,1,0.0,0,0,1000,num_4,0.6304197999997996,,25,12,2026-03-04_18h19.59.445,2026A_exp2,2022.2.4,60.031468490799135,
1000,1,0.0,6.1,1,0,30,30,43,,,,,115.29352659999859,115.94421380001586,115.94421380001586,116.44525590003468,45,45,116.44525590003468,116.44525590003468,116.44525590003468,116.44525590003468,116.44525590003468,116.44525590003468,116.44525590003468,116.44525590003468,116.44525590003468,116.79523849999532,116.79523849999532,116.79523849999532,116.79523849999532,116.79523849999532,116.79523849999532,116.79523849999532,116.79523849999532,116.79523849999532,22,0,,,116.79523849999532,116.99694899999304,1000,116.99694899999304,1000,1000,1000,1000,1,num_2,0.38052479998441413,,25,12,2026-03-04_18h19.59.445,2026A_exp2,2022.2.4,60.031468490799135,
1000,1,4.9,0.0,0,0,31,31,54,,,,,117.39655510004377,118.04645670001628,118.04645670001628,118.53076430002693,45,315,118.53076430002693,118.53076430002693,118.53076430002693,118.53076430002693,118.53076430002693,118.53076430002693,118.53076430002693,118.53076430002693,118.53076430002693,118.89727190003032,118.89727190003032,118.89727190003032,118.89727190003032,118.89727190003032,118.89727190003032,118.89727190003032,118.89727190003032,118.89727190003032,23,0,,,118.89727190003032,119.09911890001968,1000,119.09911890001968,1000,1000,1000,1000,0,num_3,0.09435580001445487,,25,12,2026-03-04_18h19.59.445,2026A_exp2,2022.2.4,60.031468490799135,
1000,1,0.0,0.0,0,0,32,32,17,,,,,119.21427890000632,119.86454790004063,119.86454790004063,120.34934090002207,45,45,120.34934090002207,120.34934090002207,120.34934090002207,120.34934090002207,120.34934090002207,120.34934090002207,120.34934090002207,120.34934090002207,120.34934090002207,120.71564180002315,120.71564180002315,120.71564180002315,120.71564180002315,120.71564180002315,120.71564180002315,120.71564180002315,120.71564180002315,120.71564180002315,23,0,,,120.71564180002315,120.9177408000105,1000,120.9177408000105,1000,1000,1000,1000,0,num_3,0.09140299999853596,,25,12,2026-03-04_18h19.59.445,2026A_exp2,2022.2.4,60.031468490799135,
1000,1,4.9,0.0,0,0,33,33,41,,,,,121.0325985000236,121.68332920002285,121.68332920002285,122.18434040003922,45,45,122.18434040003922,122.18434040003922,122.18434040003922,122.18434040003922,122.18434040003922,122.18434040003922,122.18434040003922,122.18434040003922,122.18434040003922,122.5508004000294,122.5508004000294,122.5508004000294,122.5508004000294,122.5508004000294,122.5508004000294,122.5508004000294,122.5508004000294,122.5508004000294,23,0,,,122.5508004000294,122.75320530001773,1000,122.75320530001773,1000,1000,1000,1000,0,num_3,0.04775830003200099,,25,12,2026-03-04_18h19.59.445,2026A_exp2,2022.2.4,60.031468490799135,
1,0,6.1,0.0,1,0,34,34,70,,,,,122.8180255999905,123.46844630001578,123.46844630001578,123.96958480001194,45,315,123.96958480001194,123.96958480001194,123.96958480001194,123.96958480001194,123.96958480001194,123.96958480001194,123.96958480001194,123.96958480001194,123.96958480001194,124.31935510004405,124.31935510004405,124.31935510004405,124.31935510004405,124.31935510004405,124.31935510004405,124.31935510004405,124.31935510004405,124.31935510004405,22,0,,,124.31935510004405,124.5193935999996,0.0,124.5193935999996,1,0.0,0,0,1000,num_4,0.473124900017865,,25,12,2026-03-04_18h19.59.445,2026A_exp2,2022.2.4,60.031468490799135,
0,0,6.1,4.9,0,0,35,35,22,,,,,125.01994259998901,125.6706727000419,125.6706727000419,126.15526299999328,315,315,126.15526299999328,126.15526299999328,126.15526299999328,126.15526299999328,126.15526299999328,126.15526299999328,126.15526299999328,126.15526299999328,126.15526299999328,126.52134430001024,126.52134430001024,126.52134430001024,126.52134430001024,126.52134430001024,126.52134430001024,126.52134430001024,126.52134430001024,126.52134430001024,23,0,,,126.52134430001024,126.72176450002007,4.9,126.72176450002007,0,4.9,1,0,1000,num_1,0.7186230999650434,,25,12,2026-03-04_18h19.59.445,2026A_exp2,2022.2.4,60.031468490799135,
1000,1,0.0,0.0,1,0,36,36,85,,,,,127.47235039999941,128.12311610003235,128.12311610003235,128.60754490003455,315,315,128.60754490003455,128.60754490003455,128.60754490003455,128.60754490003455,128.60754490003455,128.60754490003455,128.60754490003455,128.60754490003455,128.60754490003455,128.97386470000492,128.97386470000492,128.97386470000492,128.97386470000492,128.97386470000492,128.97386470000492,128.97386470000492,128.97386470000492,128.97386470000492,23,0,,,128.97386470000492,129.17599429999245,1000,129.17599429999245,1000,1000,1000,1000,1,num_2,0.06541940005263314,,25,12,2026-03-04_18h19.59.445,2026A_exp2,2022.2.4,60.031468490799135,
1000,1,0.0,4.9,0,0,37,37,26,,,,,129.2576904000016,129.90814710000996,129.90814710000996,130.40920950000873,315,45,130.40920950000873,130.40920950000873,130.40920950000873,130.40920950000873,130.40920950000873,130.40920950000873,130.40920950000873,130.40920950000873,130.40920950000873,130.7590424999944,130.7590424999944,130.7590424999944,130.7590424999944,130.7590424999944,130.7590424999944,130.7590424999944,130.7590424999944,130.7590424999944,22,0,,,130.7590424999944,130.96104710001964,1000,130.96104710001964,1000,1000,1000,1000,0,num_3,0.15946990001248196,,25,12,2026-03-04_18h19.59.445,2026A_exp2,2022.2.4,60.031468490799135,
0,0,0.0,3.7,0,0,38,38,34,,,,,131.14288790000137,131.79354889999377,131.79354889999377,132.29454860003898,45,45,132.29454860003898,132.29454860003898,132.29454860003898,132.29454860003898,132.29454860003898,132.29454860003898,132.29454860003898,132.29454860003898,132.29454860003898,132.6443214000319,132.6443214000319,132.6443214000319,132.6443214000319,132.6443214000319,132.6443214000319,132.6443214000319,132.6443214000319,132.6443214000319,22,0,,,132.6443214000319,132.84451379999518,3.7,132.86121400003321,1,3.7,1,1,1000,num_4,0.588476900011301,,25,12,2026-03-04_18h19.59.445,2026A_exp2,2022.2.4,60.031468490799135,
1000,1,4.9,3.7,0,0,39,39,40,,,,,133.47851789998822,134.12913800001843,134.12913800001843,134.61343060003128,315,315,134.61343060003128,134.61343060003128,134.61343060003128,134.61343060003128,134.61343060003128,134.61343060003128,134.61343060003128,134.61343060003128,134.61343060003128,134.97998579998966,134.97998579998966,134.97998579998966,134.97998579998966,134.97998579998966,134.97998579998966,134.97998579998966,134.97998579998966,134.97998579998966,23,0,,,134.97998579998966,135.18205220001983,1000,135.18205220001983,1000,1000,1000,1000,0,num_3,0.1626481999992393,,25,12,2026-03-04_18h19.59.445,2026A_exp2,2022.2.4,60.031468490799135,
1,0,6.1,0.0,0,0,40,40,47,,,,,135.36375960003352,136.01434779999545,136.01434779999545,136.5153941999888,315,45,136.5153941999888,136.5153941999888,136.5153941999888,136.5153941999888,136.5153941999888,136.5153941999888,136.5153941999888,136.5153941999888,136.5153941999888,136.88190239999676,136.88190239999676,136.88190239999676,136.88190239999676,136.88190239999676,136.88190239999676,136.88190239999676,136.88190239999676,136.88190239999676,23,0,,,136.88190239999676,137.08211970003322,6.1,137.08211970003322,0,6.1,1,0,1000,num_1,0.5425686000380665,,25,12,2026-03-04_18h19.59.445,2026A_exp2,2022.2.4,60.031468490799135,
1,0,6.1,4.9,1,0,41,41,11,,,,,137.6493586000288,138.29997330001788,138.29997330001788,138.7843290999881,315,45,138.7843290999881,138.7843290999881,138.7843290999881,138.7843290999881,138.7843290999881,138.7843290999881,138.7843290999881,138.7843290999881,138.7843290999881,139.15077549999114,139.15077549999114,139.15077549999114,139.15077549999114,139.15077549999114,139.15077549999114,139.15077549999114,139.15077549999114,139.15077549999114,23,0,,,139.15077549999114,139.35099010000704,4.9,139.35099010000704,1,4.9,1,1,1000,num_4,0.33751939999638125,,25,12,2026-03-04_18h19.59.445,2026A_exp2,2022.2.4,60.031468490799135,
1,0,6.1,0.0,0,0,42,42,21,,,,,139.7179632000043,140.36866989999544,140.36866989999544,140.85315179999452,315,315,140.85315179999452,140.85315179999452,140.85315179999452,140.85315179999452,140.85315179999452,140.85315179999452,140.85315179999452,140.85315179999452,140.85315179999452,141.21943570004078,141.21943570004078,141.21943570004078,141.21943570004078,141.21943570004078,141.21943570004078,141.21943570004078,141.21943570004078,141.21943570004078,23,0,,,141.21943570004078,141.41974899999332,6.1,141.41974899999332,1,6.1,1,1,1000,num_4,0.5408281999989413,,25,12,2026-03-04_18h19.59.445,2026A_exp2,2022.2.4,60.031468490799135,
0,0,0.0,0.0,1,0,43,43,2,,,,,141.9868487000349,142.62109460000647,142.62109460000647,143.12210740003502,315,45,143.12210740003502,143.12210740003502,143.12210740003502,143.12210740003502,143.12210740003502,143.12210740003502,143.12210740003502,143.12210740003502,143.12210740003502,143.4884383000317,143.4884383000317,143.4884383000317,143.4884383000317,143.4884383000317,143.4884383000317,143.4884383000317,143.4884383000317,143.4884383000317,23,0,,,143.4884383000317,143.68868479999946,0.0,143.68868479999946,0,0.0,0,1,1000,num_1,0.4398124000290409,,25,12,2026-03-04_18h19.59.445,2026A_exp2,2022.2.4,60.031468490799135,
1,0,0.0,0.0,1,0,44,44,49,,,,,144.15577790001407,144.80635230004555,144.80635230004555,145.2909217000124,315,315,145.2909217000124,145.2909217000124,145.2909217000124,145.2909217000124,145.2909217000124,145.2909217000124,145.2909217000124,145.2909217000124,145.2909217000124,145.65718370000832,145.65718370000832,145.65718370000832,145.65718370000832,145.65718370000832,145.65718370000832,145.65718370000832,145.65718370000832,145.65718370000832,22,1,[0.1831755000166595],[0.19996910000918433],145.65718370000832,145.85756710002897,0.0,145.85756710002897,1,0.0,0,0,1000,num_4,0.4155276999808848,,25,12,2026-03-04_18h19.59.445,2026A_exp2,2022.2.4,60.031468490799135,
1000,1,0.0,6.1,1,0,45,45,71,,,,,146.29133400000865,146.94179499999154,146.94179499999154,147.426403200021,315,315,147.426403200021,147.426403200021,147.426403200021,147.426403200021,147.426403200021,147.426403200021,147.426403200021,147.426403200021,147.426403200021,147.79279660002794,147.79279660002794,147.79279660002794,147.79279660002794,147.79279660002794,147.79279660002794,147.79279660002794,147.79279660002794,147.79279660002794,23,0,,,147.79279660002794,147.99479060003068,1000,147.99479060003068,1000,1000,1000,1000,1,num_2,0.48571009997976944,,25,12,2026-03-04_18h19.59.445,2026A_exp2,2022.2.4,60.031468490799135,
1000,1,0.0,0.0,1,0,46,46,9,,,,,148.5102431999985,149.16082280001137,149.16082280001137,149.66186660004314,45,315,149.66186660004314,149.66186660004314,149.66186660004314,149.66186660004314,149.66186660004314,149.66186660004314,149.66186660004314,149.66186660004314,149.66186660004314,150.01152749999892,150.01152749999892,150.01152749999892,150.01152749999892,150.01152749999892,150.01152749999892,150.01152749999892,150.01152749999892,150.01152749999892,22,0,,,150.01152749999892,150.21155700000236,1000,150.21155700000236,1000,1000,1000,1000,1,num_2,0.18089199997484684,,25,12,2026-03-04_18h19.59.445,2026A_exp2,2022.2.4,60.031468490799135,
1,0,6.1,0.0,1,0,47,47,80,,,,,150.41217230004258,151.0627101000282,151.0627101000282,151.5636961000273,45,315,151.5636961000273,151.5636961000273,151.5636961000273,151.5636961000273,151.5636961000273,151.5636961000273,151.5636961000273,151.5636961000273,151.5636961000273,151.93017940002028,151.93017940002028,151.93017940002028,151.93017940002028,151.93017940002028,151.93017940002028,151.93017940002028,151.93017940002028,151.93017940002028,23,0,,,151.93017940002028,152.13028610002948,0.0,152.13028610002948,1,0.0,0,0,1000,num_4,0.4630732000223361,,25,12,2026-03-04_18h19.59.445,2026A_exp2,2022.2.4,60.031468490799135,
1,0,0.0,4.9,1,0,48,48,37,,,,,152.6142439999967,153.26495119999163,153.26495119999163,153.7492474000319,315,45,153.7492474000319,153.7492474000319,153.7492474000319,153.7492474000319,153.7492474000319,153.7492474000319,153.7492474000319,153.7492474000319,153.7492474000319,154.11565360001987,154.11565360001987,154.11565360001987,154.11565360001987,154.11565360001987,154.11565360001987,154.11565360001987,154.11565360001987,154.11565360001987,23,0,,,154.11565360001987,154.31593340000836,4.9,154.31593340000836,1,4.9,1,1,1000,num_4,0.2851350999553688,,25,12,2026-03-04_18h19.59.445,2026A_exp2,2022.2.4,60.031468490799135,
1000,1,0.0,4.9,1,0,49,49,66,,,,,154.63301210000645,155.28347950003808,155.28347950003808,155.7757138000452,45,45,155.7757138000452,155.7757138000452,155.7757138000452,155.7757138000452,155.7757138000452,155.7757138000452,155.7757138000452,155.7757138000452,155.7757138000452,156.13441230001627,156.13441230001627,156.13441230001627,156.13441230001627,156.13441230001627,156.13441230001627,156.13441230001627,156.13441230001627,156.13441230001627,23,0,,,156.13441230001627,156.33697510004276,1000,156.33697510004276,1000,1000,1000,1000,1,num_2,0.1115212999866344,,25,12,2026-03-04_18h19.59.445,2026A_exp2,2022.2.4,60.031468490799135,
1,0,3.7,4.9,1,0,50,50,18,,,,,156.46841329999734,157.11876670003403,157.11876670003403,157.60321090003708,315,315,157.60321090003708,157.60321090003708,157.60321090003708,157.60321090003708,157.60321090003708,157.60321090003708,157.60321090003708,157.60321090003708,157.60321090003708,157.9696813999908,157.9696813999908,157.9696813999908,157.9696813999908,157.9696813999908,157.9696813999908,157.9696813999908,157.9696813999908,157.9696813999908,23,0,,,157.9696813999908,158.16964030003874,4.9,158.16964030003874,1,4.9,1,1,1000,num_4,0.2874451999668963,,25,12,2026-03-04_18h19.59.445,2026A_exp2,2022.2.4,60.031468490799135,
1,0,4.9,0.0,1,0,51,51,65,,,,,158.4865861000144,159.13749150000513,159.13749150000513,159.62177220004378,45,315,159.62177220004378,159.62177220004378,159.62177220004378,159.62177220004378,159.62177220004378,159.62177220004378,159.62177220004378,159.62177220004378,159.62177220004378,159.98831139999675,159.98831139999675,159.98831139999675,159.98831139999675,159.98831139999675,159.98831139999675,159.98831139999675,159.98831139999675,159.98831139999675,23,0,,,159.98831139999675,160.18860920000589,0.0,160.18860920000589,1,0.0,0,0,1000,num_4,0.39605199999641627,,25,12,2026-03-04_18h19.59.445,2026A_exp2,2022.2.4,60.031468490799135,
1000,1,6.1,0.0,1,0,52,52,57,,,,,160.60557230003178,161.23952380003175,161.23952380003175,161.74063970003044,315,45,161.74063970003044,161.74063970003044,161.74063970003044,161.74063970003044,161.74063970003044,161.74063970003044,161.74063970003044,161.74063970003044,161.74063970003044,162.10710180003662,162.10710180003662,162.10710180003662,162.10710180003662,162.10710180003662,162.10710180003662,162.10710180003662,162.10710180003662,162.10710180003662,23,0,,,162.10710180003662,162.30922080000164,1000,162.30922080000164,1000,1000,1000,1000,1,num_2,0.3236052000429481,,25,12,2026-03-04_18h19.59.445,2026A_exp2,2022.2.4,60.031468490799135,
1000,1,4.9,4.9,1,0,53,53,68,,,,,162.6574456000235,163.30842930002837,163.30842930002837,163.80941750004422,315,45,163.80941750004422,163.80941750004422,163.80941750004422,163.80941750004422,163.80941750004422,163.80941750004422,163.80941750004422,163.80941750004422,163.80941750004422,164.15915230003884,164.15915230003884,164.15915230003884,164.15915230003884,164.15915230003884,164.15915230003884,164.15915230003884,164.15915230003884,164.15915230003884,22,0,,,164.15915230003884,164.36121500004083,1000,164.36121500004083,1000,1000,1000,1000,1,num_2,0.36811999999918044,,25,12,2026-03-04_18h19.59.445,2026A_exp2,2022.2.4,60.031468490799135,
1,0,3.7,0.0,1,0,54,54,12,,,,,164.75981900002807,165.4103723000153,165.4103723000153,165.89467960002366,315,45,165.89467960002366,165.89467960002366,165.89467960002366,165.89467960002366,165.89467960002366,165.89467960002366,165.89467960002366,165.89467960002366,165.89467960002366,166.2611563000246,166.2611563000246,166.2611563000246,166.2611563000246,166.2611563000246,166.2611563000246,166.2611563000246,166.2611563000246,166.2611563000246,23,0,,,166.2611563000246,166.46132930001477,0.0,166.46132930001477,1,0.0,0,0,1000,num_4,0.4196912999614142,,25,12,2026-03-04_18h19.59.445,2026A_exp2,2022.2.4,60.031468490799135,
1000,1,0.0,4.9,0,0,55,55,6,,,,,166.91179510002257,167.56254910002463,167.56254910002463,168.04688540002098,45,315,168.04688540002098,168.04688540002098,168.04688540002098,168.04688540002098,168.04688540002098,168.04688540002098,168.04688540002098,168.04688540002098,168.04688540002098,168.41336609999416,168.41336609999416,168.41336609999416,168.41336609999416,168.41336609999416,168.41336609999416,168.41336609999416,168.41336609999416,168.41336609999416,23,0,,,168.41336609999416,168.61547720001545,1000,168.61547720001545,1000,1000,1000,1000,0,num_3,0.5690284000011161,,25,12,2026-03-04_18h19.59.445,2026A_exp2,2022.2.4,60.031468490799135,
1000,1,0.0,3.7,1,0,56,56,84,,,,,169.2142695999937,169.86473420000402,169.86473420000402,170.3655930000241,45,315,170.3655930000241,170.3655930000241,170.3655930000241,170.3655930000241,170.3655930000241,170.3655930000241,170.3655930000241,170.3655930000241,170.3655930000241,170.71572249999736,170.71572249999736,170.71572249999736,170.71572249999736,170.71572249999736,170.71572249999736,170.71572249999736,170.71572249999736,170.71572249999736,22,0,,,170.71572249999736,170.91745940002147,1000,170.93244689999847,1000,1000,1000,1000,1,num_2,0.1960582000319846,,25,12,2026-03-04_18h19.59.445,2026A_exp2,2022.2.4,60.031468490799135,
1000,1,3.7,3.7,0,0,57,57,72,,,,,171.1493780000019,171.79998240002897,171.79998240002897,172.30125220003538,315,315,172.30125220003538,172.30125220003538,172.30125220003538,172.30125220003538,172.30125220003538,172.30125220003538,172.30125220003538,172.30125220003538,172.30125220003538,172.66766919998918,172.66766919998918,172.66766919998918,172.66766919998918,172.66766919998918,172.66766919998918,172.66766919998918,172.66766919998918,172.66766919998918,23,0,,,172.66766919998918,172.8696651000064,1000,172.8696651000064,1000,1000,1000,1000,0,num_3,0.41181240003788844,,25,12,2026-03-04_18h19.59.445,2026A_exp2,2022.2.4,60.031468490799135,
1,0,0.0,6.1,1,0,58,58,33,,,,,173.3016625000164,173.95231980003882,173.95231980003882,174.45354770001722,315,45,174.45354770001722,174.45354770001722,174.45354770001722,174.45354770001722,174.45354770001722,174.45354770001722,174.45354770001722,174.45354770001722,174.45354770001722,174.81985100003658,174.81985100003658,174.81985100003658,174.81985100003658,174.81985100003658,174.81985100003658,174.81985100003658,174.81985100003658,174.81985100003658,23,0,,,174.81985100003658,175.0198723000358,6.1,175.0198723000358,1,6.1,1,1,1000,num_4,0.4453081000247039,,25,12,2026-03-04_18h19.59.445,2026A_exp2,2022.2.4,60.031468490799135,
1,0,6.1,3.7,1,0,59,59,51,,,,,175.4871377000236,176.13773910002783,176.13773910002783,176.62200350000057,315,315,176.62200350000057,176.62200350000057,176.62200350000057,176.62200350000057,176.62200350000057,176.62200350000057,176.62200350000057,176.62200350000057,176.62200350000057,176.9886392999906,176.9886392999906,176.9886392999906,176.9886392999906,176.9886392999906,176.9886392999906,176.9886392999906,176.9886392999906,176.9886392999906,23,0,,,176.9886392999906,177.18860719999066,3.7,177.18860719999066,1,3.7,1,1,1000,num_4,0.3478736999677494,,25,12,2026-03-04_18h19.59.445,2026A_exp2,2022.2.4,60.031468490799135,
1,0,6.1,4.9,1,0,60,60,64,,,,,177.55605630000355,178.2063718000427,178.2063718000427,178.69091060000937,45,315,178.69091060000937,178.69091060000937,178.69091060000937,178.69091060000937,178.69091060000937,178.69091060000937,178.69091060000937,178.69091060000937,178.69091060000937,179.05738880002173,179.05738880002173,179.05738880002173,179.05738880002173,179.05738880002173,179.05738880002173,179.05738880002173,179.05738880002173,179.05738880002173,23,0,,,179.05738880002173,179.25733940000646,4.9,179.25733940000646,1,4.9,1,1,1000,num_4,0.42348920000949875,,25,12,2026-03-04_18h19.59.445,2026A_exp2,2022.2.4,60.031468490799135,
1000,1,6.1,6.1,1,0,61,61,8,,,,,179.70765669998946,180.34966490004444,180.34966490004444,180.84313150000526,315,45,180.84313150000526,180.84313150000526,180.84313150000526,180.84313150000526,180.84313150000526,180.84313150000526,180.84313150000526,180.84313150000526,180.84313150000526,181.2093430000241,181.2093430000241,181.2093430000241,181.2093430000241,181.2093430000241,181.2093430000241,181.2093430000241,181.2093430000241,181.2093430000241,23,0,,,181.2093430000241,181.41130720003275,1000,181.41130720003275,1000,1000,1000,1000,1,num_2,0.16519219998735934,,25,12,2026-03-04_18h19.59.445,2026A_exp2,2022.2.4,60.031468490799135,
1,0,0.0,0.0,0,0,62,62,79,,,,,181.59335330000613,182.24377130001085,182.24377130001085,182.74503380001988,315,45,182.74503380001988,182.74503380001988,182.74503380001988,182.74503380001988,182.74503380001988,182.74503380001988,182.74503380001988,182.74503380001988,182.74503380001988,183.1113325000042,183.1113325000042,183.1113325000042,183.1113325000042,183.1113325000042,183.1113325000042,183.1113325000042,183.1113325000042,183.1113325000042,23,0,,,183.1113325000042,183.31166680000024,0.0,183.31166680000024,0,0.0,0,1,1000,num_1,0.04877619998296723,,25,12,2026-03-04_18h19.59.445,2026A_exp2,2022.2.4,60.031468490799135,
1,0,0.0,0.0,1,0,63,63,42,,,,,183.37844790000236,184.02899610000895,184.02899610000895,184.5133785000071,45,315,184.5133785000071,184.5133785000071,184.5133785000071,184.5133785000071,184.5133785000071,184.5133785000071,184.5133785000071,184.5133785000071,184.5133785000071,184.87989240000024,184.87989240000024,184.87989240000024,184.87989240000024,184.87989240000024,184.87989240000024,184.87989240000024,184.87989240000024,184.87989240000024,22,1,[0.08364849997451529],[0.10053449997212738],184.87989240000024,185.07991960004438,0.0,185.07991960004438,1,0.0,0,0,1000,num_4,0.36901780002517626,,25,12,2026-03-04_18h19.59.445,2026A_exp2,2022.2.4,60.031468490799135,
1000,1,0.0,0.0,0,0,64,64,5,,,,,185.4801795000094,186.11444219999248,186.11444219999248,186.61544960003812,315,45,186.61544960003812,186.61544960003812,186.61544960003812,186.61544960003812,186.61544960003812,186.61544960003812,186.61544960003812,186.61544960003812,186.61544960003812,186.98195550002856,186.98195550002856,186.98195550002856,186.98195550002856,186.98195550002856,186.98195550002856,186.98195550002856,186.98195550002856,186.98195550002856,23,0,,,186.98195550002856,187.184096699988,1000,187.184096699988,1000,1000,1000,1000,1,num_2,0.8254742999561131,,25,12,2026-03-04_18h19.59.445,2026A_exp2,2022.2.4,60.031468490799135,
1,0,3.7,3.7,1,0,65,65,30,,,,,188.03304160002153,188.68365100002848,188.68365100002848,189.18473490001634,45,45,189.18473490001634,189.18473490001634,189.18473490001634,189.18473490001634,189.18473490001634,189.18473490001634,189.18473490001634,189.18473490001634,189.18473490001634,189.53451259998837,189.53451259998837,189.53451259998837,189.53451259998837,189.53451259998837,189.53451259998837,189.53451259998837,189.53451259998837,189.53451259998837,22,0,,,189.53451259998837,189.73458540003048,3.7,189.73458540003048,1,3.7,1,1,1000,num_4,0.1219480000436306,,25,12,2026-03-04_18h19.59.445,2026A_exp2,2022.2.4,60.031468490799135,
1000,1,6.1,0.0,1,0,66,66,29,,,,,189.88495830004103,190.5189035999938,190.5189035999938,191.02001080004266,315,45,191.02001080004266,191.02001080004266,191.02001080004266,191.02001080004266,191.02001080004266,191.02001080004266,191.02001080004266,191.02001080004266,191.02001080004266,191.38632430002326,191.38632430002326,191.38632430002326,191.38632430002326,191.38632430002326,191.38632430002326,191.38632430002326,191.38632430002326,191.38632430002326,23,0,,,191.38632430002326,191.5882772000041,1000,191.5882772000041,1000,1000,1000,1000,1,num_2,0.17354829999385402,,25,12,2026-03-04_18h19.59.445,2026A_exp2,2022.2.4,60.031468490799135,
1,0,3.7,6.1,0,0,67,67,52,,,,,191.78681300004246,192.43741710000904,192.43741710000904,192.92191420000745,45,45,192.92191420000745,192.92191420000745,192.92191420000745,192.92191420000745,192.92191420000745,192.92191420000745,192.92191420000745,192.92191420000745,192.92191420000745,193.28845880000154,193.28845880000154,193.28845880000154,193.28845880000154,193.28845880000154,193.28845880000154,193.28845880000154,193.28845880000154,193.28845880000154,23,0,,,193.28845880000154,193.4886119000148,3.7,193.4886119000148,0,3.7,1,0,1000,num_1,0.024576199997682124,,25,12,2026-03-04_18h19.59.445,2026A_exp2,2022.2.4,60.031468490799135,
1000,1,0.0,4.9,0,0,68,68,61,,,,,193.53849080001237,194.18917080003303,194.18917080003303,194.67365000001155,45,315,194.67365000001155,194.67365000001155,194.67365000001155,194.67365000001155,194.67365000001155,194.67365000001155,194.67365000001155,194.67365000001155,194.67365000001155,195.04003060003743,195.04003060003743,195.04003060003743,195.04003060003743,195.04003060003743,195.04003060003743,195.04003060003743,195.04003060003743,195.04003060003743,23,0,,,195.04003060003743,195.24222670000745,1000,195.24222670000745,1000,1000,1000,1000,0,num_3,0.10218270000768825,,25,12,2026-03-04_18h19.59.445,2026A_exp2,2022.2.4,60.031468490799135,
1000,1,6.1,6.1,0,0,69,69,16,,,,,195.3736668000347,196.02425449999282,196.02425449999282,196.52526190003846,45,45,196.52526190003846,196.52526190003846,196.52526190003846,196.52526190003846,196.52526190003846,196.52526190003846,196.52526190003846,196.52526190003846,196.52526190003846,196.87527260003844,196.87527260003844,196.87527260003844,196.87527260003844,196.87527260003844,196.87527260003844,196.87527260003844,196.87527260003844,196.87527260003844,22,0,,,196.87527260003844,197.0770743000321,1000,197.09207479999168,1000,1000,1000,1000,1,num_2,0.0363886000122875,,25,12,2026-03-04_18h19.59.445,2026A_exp2,2022.2.4,60.031468490799135,
1000,1,3.7,0.0,1,0,70,70,38,,,,,197.15892670000903,197.80945110000903,197.80945110000903,198.31058320001466,45,45,198.31058320001466,198.31058320001466,198.31058320001466,198.31058320001466,198.31058320001466,198.31058320001466,198.31058320001466,198.31058320001466,198.31058320001466,198.67700470000273,198.67700470000273,198.67700470000273,198.67700470000273,198.67700470000273,198.67700470000273,198.67700470000273,198.67700470000273,198.67700470000273,23,0,,,198.67700470000273,198.87738870002795,1000,198.87738870002795,1000,1000,1000,1000,1,num_2,0.00400190002983436,,25,12,2026-03-04_18h19.59.445,2026A_exp2,2022.2.4,60.031468490799135,
1000,1,3.7,0.0,0,0,71,71,56,,,,,198.91072490002261,199.56112710002344,199.56112710002344,200.04559759999393,45,315,200.04559759999393,200.04559759999393,200.04559759999393,200.04559759999393,200.04559759999393,200.04559759999393,200.04559759999393,200.04559759999393,200.04559759999393,200.41210200003115,200.41210200003115,200.41210200003115,200.41210200003115,200.41210200003115,200.41210200003115,200.41210200003115,200.41210200003115,200.41210200003115,23,0,,,200.41210200003115,200.61201899999287,1000,200.61201899999287,1000,1000,1000,1000,0,num_3,0.2285400999826379,,25,12,2026-03-04_18h19.59.445,2026A_exp2,2022.2.4,60.031468490799135,
1,0,3.7,0.0,0,0,72,72,87,,,,,200.86219569999957,201.51316810003482,201.51316810003482,202.01431530003902,45,315,202.01431530003902,202.01431530003902,202.01431530003902,202.01431530003902,202.01431530003902,202.01431530003902,202.01431530003902,202.01431530003902,202.01431530003902,202.38068950001616,202.38068950001616,202.38068950001616,202.38068950001616,202.38068950001616,202.38068950001616,202.38068950001616,202.38068950001616,202.38068950001616,23,0,,,202.38068950001616,202.58093910000753,3.7,202.58093910000753,0,3.7,1,0,1000,num_1,0.6198886000202037,,25,12,2026-03-04_18h19.59.445,2026A_exp2,2022.2.4,60.031468490799135,
1,0,0.0,3.7,1,0,73,73,35,,,,,203.2314452000428,203.88218469999265,203.88218469999265,204.36663140001474,315,45,204.36663140001474,204.36663140001474,204.36663140001474,204.36663140001474,204.36663140001474,204.36663140001474,204.36663140001474,204.36663140001474,204.36663140001474,204.7329254000215,204.7329254000215,204.7329254000215,204.7329254000215,204.7329254000215,204.7329254000215,204.7329254000215,204.7329254000215,204.7329254000215,23,0,,,204.7329254000215,204.93314320000354,3.7,204.93314320000354,1,3.7,1,1,1000,num_4,0.41188540001166984,,25,12,2026-03-04_18h19.59.445,2026A_exp2,2022.2.4,60.031468490799135,
1000,1,0.0,0.0,0,0,74,74,86,,,,,205.36688260000665,206.0177498999983,206.0177498999983,206.50212900002953,45,45,206.50212900002953,206.50212900002953,206.50212900002953,206.50212900002953,206.50212900002953,206.50212900002953,206.50212900002953,206.50212900002953,206.50212900002953,206.86857570003485,206.86857570003485,206.86857570003485,206.86857570003485,206.86857570003485,206.86857570003485,206.86857570003485,206.86857570003485,206.86857570003485,23,0,,,206.86857570003485,207.07002800004557,1000,207.07002800004557,1000,1000,1000,1000,0,num_3,0.30742610001470894,,25,12,2026-03-04_18h19.59.445,2026A_exp2,2022.2.4,60.031468490799135,
1,0,0.0,0.0,0,0,75,75,88,,,,,207.4023070000112,208.05308220000006,208.05308220000006,208.55420740001136,45,45,208.55420740001136,208.55420740001136,208.55420740001136,208.55420740001136,208.55420740001136,208.55420740001136,208.55420740001136,208.55420740001136,208.55420740001136,208.92060270003276,208.92060270003276,208.92060270003276,208.92060270003276,208.92060270003276,208.92060270003276,208.92060270003276,208.92060270003276,208.92060270003276,23,0,,,208.92060270003276,209.12075020000339,0.0,209.12075020000339,0,0.0,0,1,1000,num_1,0.18357960000867024,,25,12,2026-03-04_18h19.59.445,2026A_exp2,2022.2.4,60.031468490799135,
1000,1,6.1,6.1,1,0,76,76,4,,,,,209.32102490001125,209.97167950001312,209.97167950001312,210.4698462000233,315,45,210.4698462000233,210.4698462000233,210.4698462000233,210.4698462000233,210.4698462000233,210.4698462000233,210.4698462000233,210.4698462000233,210.4698462000233,210.82254510000348,210.82254510000348,210.82254510000348,210.82254510000348,210.82254510000348,210.82254510000348,210.82254510000348,210.82254510000348,210.82254510000348,23,0,,,210.82254510000348,211.0246882000356,1000,211.0246882000356,1000,1000,1000,1000,1,num_2,0.15176610002527013,,25,12,2026-03-04_18h19.59.445,2026A_exp2,2022.2.4,60.031468490799135,
1,0,0.0,0.0,0,0,77,77,24,,,,,211.20629280002322,211.85695250000572,211.85695250000572,212.35815600003116,315,315,212.35815600003116,212.35815600003116,212.35815600003116,212.35815600003116,212.35815600003116,212.35815600003116,212.35815600003116,212.35815600003116,212.35815600003116,212.70759150001686,212.70759150001686,212.70759150001686,212.70759150001686,212.70759150001686,212.70759150001686,212.70759150001686,212.70759150001686,212.70759150001686,22,0,,,212.70759150001686,212.9078315999941,0.0,212.9078315999941,0,0.0,0,1,1000,num_1,0.060823700041510165,,25,12,2026-03-04_18h19.59.445,2026A_exp2,2022.2.4,60.031468490799135,
1000,1,6.1,0.0,0,0,78,78,81,,,,,212.99129680002807,213.64197990001412,213.64197990001412,214.12634130002698,45,315,214.12634130002698,214.12634130002698,214.12634130002698,214.12634130002698,214.12634130002698,214.12634130002698,214.12634130002698,214.12634130002698,214.12634130002698,214.49275999999372,214.49275999999372,214.49275999999372,214.49275999999372,214.49275999999372,214.49275999999372,214.49275999999372,214.49275999999372,214.49275999999372,23,0,,,214.49275999999372,214.69485369999893,1000,214.69485369999893,1000,1000,1000,1000,0,num_3,0.018556800030637532,,25,12,2026-03-04_18h19.59.445,2026A_exp2,2022.2.4,60.031468490799135,
1000,1,3.7,0.0,1,0,79,79,19,,,,,214.7430968999979,215.39378320000833,215.39378320000833,215.89475989999482,45,315,215.89475989999482,215.89475989999482,215.89475989999482,215.89475989999482,215.89475989999482,215.89475989999482,215.89475989999482,215.89475989999482,215.89475989999482,216.24454200000037,216.24454200000037,216.24454200000037,216.24454200000037,216.24454200000037,216.24454200000037,216.24454200000037,216.24454200000037,216.24454200000037,22,0,,,216.24454200000037,216.44629390002228,1000,216.44629390002228,1000,1000,1000,1000,1,num_2,0.09820780000882223,,25,12,2026-03-04_18h19.59.445,2026A_exp2,2022.2.4,60.031468490799135,
1000,1,3.7,0.0,0,0,80,80,76,,,,,216.56168129999423,217.2120780000114,217.2120780000114,217.69661710003857,315,315,217.69661710003857,217.69661710003857,217.69661710003857,217.69661710003857,217.69661710003857,217.69661710003857,217.69661710003857,217.69661710003857,217.69661710003857,218.0630635000416,218.0630635000416,218.0630635000416,218.0630635000416,218.0630635000416,218.0630635000416,218.0630635000416,218.0630635000416,218.0630635000416,23,0,,,218.0630635000416,218.26637780002784,1000,218.26637780002784,1000,1000,1000,1000,0,num_3,0.5743032000027597,,25,12,2026-03-04_18h19.59.445,2026A_exp2,2022.2.4,60.031468490799135,
1,0,0.0,4.9,0,0,81,81,73,,,,,218.86389939999208,219.51441950001754,219.51441950001754,220.0156447000336,45,45,220.0156447000336,220.0156447000336,220.0156447000336,220.0156447000336,220.0156447000336,220.0156447000336,220.0156447000336,220.0156447000336,220.0156447000336,220.38205660000676,220.38205660000676,220.38205660000676,220.38205660000676,220.38205660000676,220.38205660000676,220.38205660000676,220.38205660000676,220.38205660000676,23,0,,,220.38205660000676,220.58226270001614,0.0,220.58226270001614,0,0.0,0,1,1000,num_1,0.37098369997693226,,25,12,2026-03-04_18h19.59.445,2026A_exp2,2022.2.4,60.031468490799135,
1,0,0.0,6.1,1,0,82,82,36,,,,,220.98263590002898,221.63320139999269,221.63320139999269,222.11756959999911,315,45,222.11756959999911,222.11756959999911,222.11756959999911,222.11756959999911,222.11756959999911,222.11756959999911,222.11756959999911,222.11756959999911,222.11756959999911,222.48414830002002,222.48414830002002,222.48414830002002,222.48414830002002,222.48414830002002,222.48414830002002,222.48414830002002,222.48414830002002,222.48414830002002,23,0,,,222.48414830002002,222.684365299996,6.1,222.684365299996,1,6.1,1,1,1000,num_4,0.06845050002448261,,25,12,2026-03-04_18h19.59.445,2026A_exp2,2022.2.4,60.031468490799135,
1000,1,0.0,4.9,0,0,83,83,60,,,,,222.78452889999608,223.43504559999565,223.43504559999565,223.919550599996,45,45,223.919550599996,223.919550599996,223.919550599996,223.919550599996,223.919550599996,223.919550599996,223.919550599996,223.919550599996,223.919550599996,224.28594500001054,224.28594500001054,224.28594500001054,224.28594500001054,224.28594500001054,224.28594500001054,224.28594500001054,224.28594500001054,224.28594500001054,23,0,,,224.28594500001054,224.48624240001664,1000,224.48624240001664,1000,1000,1000,1000,0,num_3,0.05088090000208467,,25,12,2026-03-04_18h19.59.445,2026A_exp2,2022.2.4,60.031468490799135,
1000,1,0.0,0.0,0,0,84,84,15,,,,,224.55294460000005,225.20349899999565,225.20349899999565,225.68796529999236,315,315,225.68796529999236,225.68796529999236,225.68796529999236,225.68796529999236,225.68796529999236,225.68796529999236,225.68796529999236,225.68796529999236,225.68796529999236,226.05449430004228,226.05449430004228,226.05449430004228,226.05449430004228,226.05449430004228,226.05449430004228,226.05449430004228,226.05449430004228,226.05449430004228,23,0,,,226.05449430004228,226.25630990002537,1000,226.25630990002537,1000,1000,1000,1000,1,num_2,0.24876859999494627,,25,12,2026-03-04_18h19.59.445,2026A_exp2,2022.2.4,60.031468490799135,
1,0,0.0,0.0,1,0,85,85,69,,,,,226.5214973000111,227.17242409999017,227.17242409999017,227.67327570001362,315,45,227.67327570001362,227.67327570001362,227.67327570001362,227.67327570001362,227.67327570001362,227.67327570001362,227.67327570001362,227.67327570001362,227.67327570001362,228.03962410002714,228.03962410002714,228.03962410002714,228.03962410002714,228.03962410002714,228.03962410002714,228.03962410002714,228.03962410002714,228.03962410002714,23,0,,,228.03962410002714,228.23980020004092,0.0,228.23980020004092,1,0.0,0,0,1000,num_4,0.48119230003794655,,25,12,2026-03-04_18h19.59.445,2026A_exp2,2022.2.4,60.031468490799135,
1000,1,0.0,0.0,1,0,86,86,78,,,,,228.74039880000055,229.3908289000392,229.3908289000392,229.87534520000918,315,45,229.87534520000918,229.87534520000918,229.87534520000918,229.87534520000918,229.87534520000918,229.87534520000918,229.87534520000918,229.87534520000918,229.87534520000918,230.24184150004294,230.24184150004294,230.24184150004294,230.24184150004294,230.24184150004294,230.24184150004294,230.24184150004294,230.24184150004294,230.24184150004294,23,0,,,230.24184150004294,230.44382099999348,1000,230.44382099999348,1000,1000,1000,1000,1,num_2,0.4209145000204444,,25,12,2026-03-04_18h19.59.445,2026A_exp2,2022.2.4,60.031468490799135,
1000,1,3.7,3.7,0,0,87,87,63,,,,,230.8924138000002,231.54317760001868,231.54317760001868,232.02757310000015,45,315,232.02757310000015,232.02757310000015,232.02757310000015,232.02757310000015,232.02757310000015,232.02757310000015,232.02757310000015,232.02757310000015,232.02757310000015,232.39397169998847,232.39397169998847,232.39397169998847,232.39397169998847,232.39397169998847,232.39397169998847,232.39397169998847,232.39397169998847,232.39397169998847,23,0,,,232.39397169998847,232.5960677000112,1000,232.5960677000112,1000,1000,1000,1000,0,num_3,0.044755699986126274,,25,12,2026-03-04_18h19.59.445,2026A_exp2,2022.2.4,60.031468490799135,
1,0,0.0,3.7,1,0,88,88,32,,,,,232.66098660003627,233.31160800001817,233.31160800001817,233.81276679999428,315,315,233.81276679999428,233.81276679999428,233.81276679999428,233.81276679999428,233.81276679999428,233.81276679999428,233.81276679999428,233.81276679999428,233.81276679999428,234.17911480000475,234.17911480000475,234.17911480000475,234.17911480000475,234.17911480000475,234.17911480000475,234.17911480000475,234.17911480000475,234.17911480000475,23,0,,,234.17911480000475,234.3793140000198,3.7,234.3793140000198,1,3.7,1,1,1000,num_4,0.11871579999569803,,25,12,2026-03-04_18h19.59.445,2026A_exp2,2022.2.4,60.031468490799135,
1,0,0.0,3.7,1,0,89,89,14,,,,,234.5294842000003,235.18030260002706,235.18030260002706,235.66453690000344,315,45,235.66453690000344,235.66453690000344,235.66453690000344,235.66453690000344,235.66453690000344,235.66453690000344,235.66453690000344,235.66453690000344,235.66453690000344,236.03086790000089,236.03086790000089,236.03086790000089,236.03086790000089,236.03086790000089,236.03086790000089,236.03086790000089,236.03086790000089,236.03086790000089,23,0,,,236.03086790000089,236.23106170003302,3.7,236.23106170003302,1,3.7,1,1,1000,num_4,0.20221660000970587,,25,12,2026-03-04_18h19.59.445,2026A_exp2,2022.2.4,60.031468490799135,
,,,,,,,,,,,,,,,,,,,,,,,,,,,,,,,,,,,,,,,,,,,,,,,,,,,,236.47336579998955,,,,,,,
