validity,detectorcomp,contrastCW,contrastCCW,precueCWorCCW,block_80trials.thisRepN,block_80trials.thisTrialN,block_80trials.thisN,block_80trials.thisIndex,etRecord.started,etRecord.stopped,text.started,text.stopped,text_4.started,text_4.stopped,text_6.started,text_6.stopped,oriCW,oriCCW,roi_2.started,grating_UR.started,grating_UL.started,grating_LR.started,grating_LL.started,noise_UR.started,noise_UL.started,noise_LR.started,noise_LL.started,roi_2.stopped,grating_UR.stopped,grating_UL.stopped,grating_LR.stopped,grating_LL.stopped,noise_UR.stopped,noise_UL.stopped,noise_LR.stopped,noise_LL.stopped,outframe,roi_2.numLooks,roi_2.timesOn,roi_2.timesOff,text_2.started,text_2.stopped,probedcontrast,key_resp.started,respdetect,relevantContrast,correctDetect,TorFdetect,respCWorCCW,key_resp.keys,key_resp.rt,feedback_display_.started,participantNo,blockNo,date,expName,psychopyVersion,frameRate,
1000,1,0.0,6.1,1,0,0,0,71,3.6200013710185885e-05,3.6200013710185885e-05,59.309012399986386,61.31583489998593,61.31583489998593,61.94554960000096,61.94554960000096,62.463590899977135,45,45,62.463590899977135,62.463590899977135,62.463590899977135,62.463590899977135,62.463590899977135,62.463590899977135,62.463590899977135,62.463590899977135,62.463590899977135,62.81316109999898,62.81316109999898,62.81316109999898,62.81316109999898,62.81316109999898,62.81316109999898,62.81316109999898,62.81316109999898,62.81316109999898,0,1,[0.0009346999868284911],[0.36783949998789467],62.81316109999898,63.016887099976884,1000,63.016887099976884,1000,1000,1000,1000,1,num_2,0.5954271999944467,,20,12,2026-03-02_16h28.07.723,2026A_exp2,2022.2.4,59.929367250619784,
1000,1,6.1,6.1,1,0,1,1,4,,,,,63.63068979998934,64.2829012000002,64.2829012000002,64.77135619998444,315,45,64.77135619998444,64.77135619998444,64.77135619998444,64.77135619998444,64.77135619998444,64.77135619998444,64.77135619998444,64.77135619998444,64.77135619998444,65.13175449997652,65.13175449997652,65.13175449997652,65.13175449997652,65.13175449997652,65.13175449997652,65.13175449997652,65.13175449997652,65.13175449997652,23,0,,,65.13175449997652,65.33408859997871,1000,65.33408859997871,1000,1000,1000,1000,1,num_2,0.5904482000041753,,20,12,2026-03-02_16h28.07.723,2026A_exp2,2022.2.4,59.929367250619784,
1000,1,0.0,0.0,0,0,2,2,7,,,,,65.94973459999892,66.60011229998781,66.60011229998781,67.10132019998855,45,45,67.10132019998855,67.10132019998855,67.10132019998855,67.10132019998855,67.10132019998855,67.10132019998855,67.10132019998855,67.10132019998855,67.10132019998855,67.46800249998341,67.46800249998341,67.46800249998341,67.46800249998341,67.46800249998341,67.46800249998341,67.46800249998341,67.46800249998341,67.46800249998341,23,0,,,67.46800249998341,67.66990049998276,1000,67.66990049998276,1000,1000,1000,1000,0,num_3,0.33430410001892596,,20,12,2026-03-02_16h28.07.723,2026A_exp2,2022.2.4,59.929367250619784,
1,0,3.7,4.9,1,0,3,3,18,,,,,68.03515749998041,68.68564849998802,68.68564849998802,69.18662629998289,315,315,69.18662629998289,69.18662629998289,69.18662629998289,69.18662629998289,69.18662629998289,69.18662629998289,69.18662629998289,69.18662629998289,69.18662629998289,69.55319399997825,69.55319399997825,69.55319399997825,69.55319399997825,69.55319399997825,69.55319399997825,69.55319399997825,69.55319399997825,69.55319399997825,0,1,[0.0012340999965090305],[0.3671776999835856],69.55319399997825,69.75345379998907,4.9,69.75345379998907,1,4.9,1,1,1000,num_4,0.6182763999968302,,20,12,2026-03-02_16h28.07.723,2026A_exp2,2022.2.4,59.929367250619784,
1000,1,6.1,0.0,0,0,4,4,81,,,,,70.38747469999362,71.0379103999876,71.0379103999876,71.52232009998988,45,45,71.52232009998988,71.52232009998988,71.52232009998988,71.52232009998988,71.52232009998988,71.52232009998988,71.52232009998988,71.52232009998988,71.52232009998988,71.88890900000115,71.88890900000115,71.88890900000115,71.88890900000115,71.88890900000115,71.88890900000115,71.88890900000115,71.88890900000115,71.88890900000115,0,1,[0.0012449999921955168],[0.3672849999857135],71.88890900000115,72.09085539999069,1000,72.09085539999069,1000,1000,1000,1000,0,num_3,0.12158400000771508,,20,12,2026-03-02_16h28.07.723,2026A_exp2,2022.2.4,59.929367250619784,
1,0,6.1,4.9,1,0,5,5,64,,,,,72.23931189998984,72.88994029999594,72.88994029999594,73.39090549998218,315,315,73.39090549998218,73.39090549998218,73.39090549998218,73.39090549998218,73.39090549998218,73.39090549998218,73.39090549998218,73.39090549998218,73.39090549998218,73.74071409998578,73.74071409998578,73.74071409998578,73.74071409998578,73.74071409998578,73.74071409998578,73.74071409998578,73.74071409998578,73.74071409998578,0,1,[0.001215199998114258],[0.35040399999707006],73.74071409998578,73.94080149999354,4.9,73.94080149999354,1,4.9,1,1,1000,num_4,0.7269604000030085,,20,12,2026-03-02_16h28.07.723,2026A_exp2,2022.2.4,59.929367250619784,
1000,1,4.9,0.0,0,0,6,6,54,,,,,74.69160939997528,75.34241439998732,75.34241439998732,75.82683579999139,315,315,75.82683579999139,75.82683579999139,75.82683579999139,75.82683579999139,75.82683579999139,75.82683579999139,75.82683579999139,75.82683579999139,75.82683579999139,76.19314649997978,76.19314649997978,76.19314649997978,76.19314649997978,76.19314649997978,76.19314649997978,76.19314649997978,76.19314649997978,76.19314649997978,0,1,[0.0011173999810125679],[0.3673374999780208],76.19314649997978,76.3935988000012,1000,76.3935988000012,1000,1000,1000,1000,0,num_3,0.3066252999997232,,20,12,2026-03-02_16h28.07.723,2026A_exp2,2022.2.4,59.929367250619784,
1000,1,0.0,0.0,0,0,7,7,15,,,,,76.72709449997637,77.37775200000033,77.37775200000033,77.87888489998295,45,315,77.87888489998295,77.87888489998295,77.87888489998295,77.87888489998295,77.87888489998295,77.87888489998295,77.87888489998295,77.87888489998295,77.87888489998295,78.24523929998395,78.24523929998395,78.24523929998395,78.24523929998395,78.24523929998395,78.24523929998395,78.24523929998395,78.24523929998395,78.24523929998395,10,4,"[0.11766210000496358, 0.150657099991804, 0.18407990000559948, 0.21758419999969192]","[0.13400190000538714, 0.1673704999848269, 0.20082559998263605, 0.3675517000083346]",78.24523929998395,78.44718989997637,1000,78.44718989997637,1000,1000,1000,1000,0,num_3,0.2772195999859832,,20,12,2026-03-02_16h28.07.723,2026A_exp2,2022.2.4,59.929367250619784,
1000,1,6.1,0.0,1,0,8,8,29,,,,,78.74570609998773,79.39626139999018,79.39626139999018,79.89754459998221,315,45,79.89754459998221,79.89754459998221,79.89754459998221,79.89754459998221,79.89754459998221,79.89754459998221,79.89754459998221,79.89754459998221,79.89754459998221,80.26395779999439,80.26395779999439,80.26395779999439,80.26395779999439,80.26395779999439,80.26395779999439,80.26395779999439,80.26395779999439,80.26395779999439,21,1,[0.3508618000196293],[0.3674916000163648],80.26395779999439,80.46601209999062,1000,80.46601209999062,1000,1000,1000,1000,0,num_3,0.3305934999953024,,20,12,2026-03-02_16h28.07.723,2026A_exp2,2022.2.4,59.929367250619784,
1000,1,3.7,3.7,0,0,9,9,72,,,,,80.81431539999903,81.46514689998003,81.46514689998003,81.9664097999921,45,45,81.9664097999921,81.9664097999921,81.9664097999921,81.9664097999921,81.9664097999921,81.9664097999921,81.9664097999921,81.9664097999921,81.9664097999921,82.33268359999056,82.33268359999056,82.33268359999056,82.33268359999056,82.33268359999056,82.33268359999056,82.33268359999056,82.33268359999056,82.33268359999056,8,2,"[0.050242000026628375, 0.16731140000047162]","[0.08379920001607388, 0.36785320000490174]",82.33268359999056,82.53445619999547,1000,82.53445619999547,1000,1000,1000,1000,1,num_2,0.3890620000020135,,20,12,2026-03-02_16h28.07.723,2026A_exp2,2022.2.4,59.929367250619784,
1,0,3.7,4.9,1,0,10,10,20,,,,,82.94988809997449,83.6004597999854,83.6004597999854,84.10168189997785,315,45,84.10168189997785,84.10168189997785,84.10168189997785,84.10168189997785,84.10168189997785,84.10168189997785,84.10168189997785,84.10168189997785,84.10168189997785,84.46783929999219,84.46783929999219,84.46783929999219,84.46783929999219,84.46783929999219,84.46783929999219,84.46783929999219,84.46783929999219,84.46783929999219,0,1,[0.0008794000023044646],[0.36758049999480136],84.46783929999219,84.66825589997461,4.9,84.66825589997461,1,4.9,1,1,1000,num_4,0.6638226000068244,,20,12,2026-03-02_16h28.07.723,2026A_exp2,2022.2.4,59.929367250619784,
1,0,0.0,3.7,1,0,11,11,35,,,,,85.35227879998274,86.00302189998911,86.00302189998911,86.48738639999647,45,315,86.48738639999647,86.48738639999647,86.48738639999647,86.48738639999647,86.48738639999647,86.48738639999647,86.48738639999647,86.48738639999647,86.48738639999647,86.85379919997649,86.85379919997649,86.85379919997649,86.85379919997649,86.85379919997649,86.85379919997649,86.85379919997649,86.85379919997649,86.85379919997649,9,3,"[0.05018670001300052, 0.117194099992048, 0.25067000000854023]","[0.10050329999648966, 0.2006460000120569, 0.3507501000131015]",86.85379919997649,87.05407579999883,3.7,87.05407579999883,1,3.7,1,1,1000,num_4,1.4057105999963824,,20,12,2026-03-02_16h28.07.723,2026A_exp2,2022.2.4,59.929367250619784,
0,0,4.9,0.0,1,0,12,12,67,,,,,88.48869019999984,89.13937169997371,89.13937169997371,89.62390369997593,315,45,89.62390369997593,89.62390369997593,89.62390369997593,89.62390369997593,89.62390369997593,89.62390369997593,89.62390369997593,89.62390369997593,89.62390369997593,89.98995579997427,89.98995579997427,89.98995579997427,89.98995579997427,89.98995579997427,89.98995579997427,89.98995579997427,89.98995579997427,89.98995579997427,0,1,[0.0011692999978549778],[0.366710400005104],89.98995579997427,90.19056779998937,4.9,90.19056779998937,1,4.9,1,1,1000,num_4,0.7099936000013258,,20,12,2026-03-02_16h28.07.723,2026A_exp2,2022.2.4,59.929367250619784,
1,0,0.0,0.0,0,0,13,13,79,,,,,90.92450769999414,91.57508209999651,91.57508209999651,92.05971359999967,315,315,92.05971359999967,92.05971359999967,92.05971359999967,92.05971359999967,92.05971359999967,92.05971359999967,92.05971359999967,92.05971359999967,92.05971359999967,92.42606289999094,92.42606289999094,92.42606289999094,92.42606289999094,92.42606289999094,92.42606289999094,92.42606289999094,92.42606289999094,92.42606289999094,0,1,[0.001278500014450401],[0.3672655000118539],92.42606289999094,92.6263538999774,0.0,92.6263538999774,0,0.0,0,1,1000,num_1,1.4416712000092957,,20,12,2026-03-02_16h28.07.723,2026A_exp2,2022.2.4,59.929367250619784,
0,0,6.1,4.9,0,0,14,14,22,,,,,94.09432629999355,94.7451216999907,94.7451216999907,95.22937499999534,315,45,95.22937499999534,95.22937499999534,95.22937499999534,95.22937499999534,95.22937499999534,95.22937499999534,95.22937499999534,95.22937499999534,95.22937499999534,95.59580009998172,95.59580009998172,95.59580009998172,95.59580009998172,95.59580009998172,95.59580009998172,95.59580009998172,95.59580009998172,95.59580009998172,0,1,[0.0012489999935496598],[0.36716260001412593],95.59580009998172,95.79598189998069,4.9,95.79598189998069,0,4.9,1,0,1000,num_1,0.9606544999987818,,20,12,2026-03-02_16h28.07.723,2026A_exp2,2022.2.4,59.929367250619784,
1,0,0.0,3.7,1,0,15,15,32,,,,,96.78021159998025,97.43113149999408,97.43113149999408,97.91546619997825,315,45,97.91546619997825,97.91546619997825,97.91546619997825,97.91546619997825,97.91546619997825,97.91546619997825,97.91546619997825,97.91546619997825,97.91546619997825,98.2819896999863,98.2819896999863,98.2819896999863,98.2819896999863,98.2819896999863,98.2819896999863,98.2819896999863,98.2819896999863,98.2819896999863,21,1,[0.08347880002111197],[0.11698610000894405],98.2819896999863,98.48218919997453,3.7,98.48218919997453,1,3.7,1,1,1000,num_4,0.5384677999827545,,20,12,2026-03-02_16h28.07.723,2026A_exp2,2022.2.4,59.929367250619784,
1,0,3.7,3.7,1,0,16,16,30,,,,,99.0493592999992,99.6998947999964,99.6998947999964,100.18437579998863,45,45,100.18437579998863,100.18437579998863,100.18437579998863,100.18437579998863,100.18437579998863,100.18437579998863,100.18437579998863,100.18437579998863,100.18437579998863,100.55088339999202,100.55088339999202,100.55088339999202,100.55088339999202,100.55088339999202,100.55088339999202,100.55088339999202,100.55088339999202,100.55088339999202,23,0,,,100.55088339999202,100.75109269999666,3.7,100.75109269999666,1,3.7,1,1,1000,num_4,1.109720100008417,,20,12,2026-03-02_16h28.07.723,2026A_exp2,2022.2.4,59.929367250619784,
1000,1,4.9,3.7,0,0,17,17,40,,,,,101.88545909998356,102.53614209999796,102.53614209999796,103.02047179997317,315,315,103.02047179997317,103.02047179997317,103.02047179997317,103.02047179997317,103.02047179997317,103.02047179997317,103.02047179997317,103.02047179997317,103.02047179997317,103.3870876999863,103.3870876999863,103.3870876999863,103.3870876999863,103.3870876999863,103.3870876999863,103.3870876999863,103.3870876999863,103.3870876999863,23,0,,,103.3870876999863,103.58894499999587,1000,103.58894499999587,1000,1000,1000,1000,1,num_2,0.5347611000179313,,20,12,2026-03-02_16h28.07.723,2026A_exp2,2022.2.4,59.929367250619784,
1000,1,0.0,4.9,1,0,18,18,66,,,,,104.15446339998743,104.80524809999042,104.80524809999042,105.30627859997912,45,45,105.30627859997912,105.30627859997912,105.30627859997912,105.30627859997912,105.30627859997912,105.30627859997912,105.30627859997912,105.30627859997912,105.30627859997912,105.65598729997873,105.65598729997873,105.65598729997873,105.65598729997873,105.65598729997873,105.65598729997873,105.65598729997873,105.65598729997873,105.65598729997873,22,0,,,105.65598729997873,105.85820979997516,1000,105.85820979997516,1000,1000,1000,1000,1,num_2,0.40951230001519434,,20,12,2026-03-02_16h28.07.723,2026A_exp2,2022.2.4,59.929367250619784,
1,0,0.0,0.0,0,0,19,19,24,,,,,106.28985259999172,106.94062679997296,106.94062679997296,107.44214739999734,315,315,107.44214739999734,107.44214739999734,107.44214739999734,107.44214739999734,107.44214739999734,107.44214739999734,107.44214739999734,107.44214739999734,107.44214739999734,107.79142019999563,107.79142019999563,107.79142019999563,107.79142019999563,107.79142019999563,107.79142019999563,107.79142019999563,107.79142019999563,107.79142019999563,22,0,,,107.79142019999563,107.99172379999072,0.0,107.99172379999072,1,0.0,0,0,1000,num_4,0.8521872999845073,,20,12,2026-03-02_16h28.07.723,2026A_exp2,2022.2.4,59.929367250619784,
1,0,6.1,0.0,0,0,20,20,47,,,,,108.87568179998198,109.52660679997643,109.52660679997643,110.01100499997847,45,45,110.01100499997847,110.01100499997847,110.01100499997847,110.01100499997847,110.01100499997847,110.01100499997847,110.01100499997847,110.01100499997847,110.01100499997847,110.37740379999741,110.37740379999741,110.37740379999741,110.37740379999741,110.37740379999741,110.37740379999741,110.37740379999741,110.37740379999741,110.37740379999741,23,0,,,110.37740379999741,110.57742459999281,6.1,110.57742459999281,1,6.1,1,1,1000,num_4,0.6339566999813542,,20,12,2026-03-02_16h28.07.723,2026A_exp2,2022.2.4,59.929367250619784,
1,0,3.7,0.0,0,0,21,21,87,,,,,111.2281846999831,111.87892309998279,111.87892309998279,112.36326629997347,45,315,112.36326629997347,112.36326629997347,112.36326629997347,112.36326629997347,112.36326629997347,112.36326629997347,112.36326629997347,112.36326629997347,112.36326629997347,112.72984979997273,112.72984979997273,112.72984979997273,112.72984979997273,112.72984979997273,112.72984979997273,112.72984979997273,112.72984979997273,112.72984979997273,23,0,,,112.72984979997273,112.92987349999021,3.7,112.92987349999021,1,3.7,1,1,1000,num_4,0.6580986000190023,,20,12,2026-03-02_16h28.07.723,2026A_exp2,2022.2.4,59.929367250619784,
1000,1,4.9,0.0,0,0,22,22,41,,,,,113.61356789999991,114.26461799998651,114.26461799998651,114.74889399998938,315,45,114.74889399998938,114.74889399998938,114.74889399998938,114.74889399998938,114.74889399998938,114.74889399998938,114.74889399998938,114.74889399998938,114.74889399998938,115.11532189999707,115.11532189999707,115.11532189999707,115.11532189999707,115.11532189999707,115.11532189999707,115.11532189999707,115.11532189999707,115.11532189999707,23,0,,,115.11532189999707,115.3174377999967,1000,115.3174377999967,1000,1000,1000,1000,0,num_3,0.43862080000690185,,20,12,2026-03-02_16h28.07.723,2026A_exp2,2022.2.4,59.929367250619784,
1,0,0.0,6.1,1,0,23,23,50,,,,,115.782781899994,116.43351409997558,116.43351409997558,116.9344265999971,315,315,116.9344265999971,116.9344265999971,116.9344265999971,116.9344265999971,116.9344265999971,116.9344265999971,116.9344265999971,116.9344265999971,116.9344265999971,117.30101479997393,117.30101479997393,117.30101479997393,117.30101479997393,117.30101479997393,117.30101479997393,117.30101479997393,117.30101479997393,117.30101479997393,23,0,,,117.30101479997393,117.50092419999419,6.1,117.50092419999419,1,6.1,1,1,1000,num_4,0.5346847999899182,,20,12,2026-03-02_16h28.07.723,2026A_exp2,2022.2.4,59.929367250619784,
0,0,0.0,0.0,0,0,24,24,59,,,,,118.0516326999932,118.70242449999205,118.70242449999205,119.18680589998257,315,45,119.18680589998257,119.18680589998257,119.18680589998257,119.18680589998257,119.18680589998257,119.18680589998257,119.18680589998257,119.18680589998257,119.18680589998257,119.55313909999677,119.55313909999677,119.55313909999677,119.55313909999677,119.55313909999677,119.55313909999677,119.55313909999677,119.55313909999677,119.55313909999677,0,1,[0.0012812000059057027],[0.36714000001666136],119.55313909999677,119.75340599997435,0.0,119.75340599997435,0,0.0,0,1,1000,num_1,0.6825242000049911,,20,12,2026-03-02_16h28.07.723,2026A_exp2,2022.2.4,59.929367250619784,
1000,1,0.0,0.0,1,0,25,25,78,,,,,120.45396889999392,121.10470479997457,121.10470479997457,121.58922139997594,45,45,121.58922139997594,121.58922139997594,121.58922139997594,121.58922139997594,121.58922139997594,121.58922139997594,121.58922139997594,121.58922139997594,121.58922139997594,121.95544669998344,121.95544669998344,121.95544669998344,121.95544669998344,121.95544669998344,121.95544669998344,121.95544669998344,121.95544669998344,121.95544669998344,0,1,[0.0012332000187598169],[0.36717320000752807],121.95544669998344,122.15792079997482,1000,122.15792079997482,1000,1000,1000,1000,0,num_3,0.6546930000185966,,20,12,2026-03-02_16h28.07.723,2026A_exp2,2022.2.4,59.929367250619784,
1,0,6.1,0.0,0,0,26,26,21,,,,,122.83976189998793,123.49039239998092,123.49039239998092,123.9915729999775,45,315,123.9915729999775,123.9915729999775,123.9915729999775,123.9915729999775,123.9915729999775,123.9915729999775,123.9915729999775,123.9915729999775,123.9915729999775,124.34133149997797,124.34133149997797,124.34133149997797,124.34133149997797,124.34133149997797,124.34133149997797,124.34133149997797,124.34133149997797,124.34133149997797,0,1,[0.0014055999927222729],[0.35375280000153],124.34133149997797,124.55488839998725,6.1,124.55488839998725,1,6.1,1,1,1000,num_4,0.6734738000086509,,20,12,2026-03-02_16h28.07.723,2026A_exp2,2022.2.4,59.929367250619784,
1000,1,0.0,4.9,0,0,27,27,60,,,,,125.25877709998167,125.90962709998712,125.90962709998712,126.39402149998932,45,45,126.39402149998932,126.39402149998932,126.39402149998932,126.39402149998932,126.39402149998932,126.39402149998932,126.39402149998932,126.39402149998932,126.39402149998932,126.7604064999905,126.7604064999905,126.7604064999905,126.7604064999905,126.7604064999905,126.7604064999905,126.7604064999905,126.7604064999905,126.7604064999905,2,3,"[0.0011978000111412257, 0.3000216000073124, 0.3502874000114389]","[0.2834352000209037, 0.3335252999968361, 0.36715110001387075]",126.7604064999905,126.96308999997564,1000,126.96308999997564,1000,1000,1000,1000,1,num_2,0.9051814999838825,,20,12,2026-03-02_16h28.07.723,2026A_exp2,2022.2.4,59.929367250619784,
1,0,6.1,0.0,1,0,28,28,89,,,,,127.89483149998705,128.54555819998495,128.54555819998495,129.04648799999268,315,315,129.04648799999268,129.04648799999268,129.04648799999268,129.04648799999268,129.04648799999268,129.04648799999268,129.04648799999268,129.04648799999268,129.04648799999268,129.41289269999834,129.41289269999834,129.41289269999834,129.41289269999834,129.41289269999834,129.41289269999834,129.41289269999834,129.41289269999834,129.41289269999834,3,2,"[0.03336319999652915, 0.3668722999864258]","[0.3503565000137314, 0.3668770999938715]",129.41289269999834,129.6131819000002,0.0,129.6131819000002,0,0.0,0,1,1000,num_1,0.54246840000269,,20,12,2026-03-02_16h28.07.723,2026A_exp2,2022.2.4,59.929367250619784,
1000,1,3.7,0.0,0,0,29,29,76,,,,,130.1805642999825,130.83111309999367,130.83111309999367,131.31543019998935,45,315,131.31543019998935,131.31543019998935,131.31543019998935,131.31543019998935,131.31543019998935,131.31543019998935,131.31543019998935,131.31543019998935,131.31543019998935,131.68216929998016,131.68216929998016,131.68216929998016,131.68216929998016,131.68216929998016,131.68216929998016,131.68216929998016,131.68216929998016,131.68216929998016,0,1,[0.0012503000034485012],[0.36665489998995326],131.68216929998016,131.88416399998823,1000,131.88416399998823,1000,1000,1000,1000,0,num_3,0.36829430001671426,,20,12,2026-03-02_16h28.07.723,2026A_exp2,2022.2.4,59.929367250619784,
1000,1,0.0,0.0,0,0,30,30,5,,,,,132.28278719997616,132.93327979999594,132.93327979999594,133.43422460000147,315,45,133.43422460000147,133.43422460000147,133.43422460000147,133.43422460000147,133.43422460000147,133.43422460000147,133.43422460000147,133.43422460000147,133.43422460000147,133.80091019999236,133.80091019999236,133.80091019999236,133.80091019999236,133.80091019999236,133.80091019999236,133.80091019999236,133.80091019999236,133.80091019999236,0,1,[0.0011983999866060913],[0.36671999999089167],133.80091019999236,134.00277779999305,1000,134.00277779999305,1000,1000,1000,1000,0,num_3,0.40054430000600405,,20,12,2026-03-02_16h28.07.723,2026A_exp2,2022.2.4,59.929367250619784,
1000,1,3.7,0.0,1,0,31,31,19,,,,,134.43474959998275,135.08543189999182,135.08543189999182,135.58652409998467,45,315,135.58652409998467,135.58652409998467,135.58652409998467,135.58652409998467,135.58652409998467,135.58652409998467,135.58652409998467,135.58652409998467,135.58652409998467,135.93626399998902,135.93626399998902,135.93626399998902,135.93626399998902,135.93626399998902,135.93626399998902,135.93626399998902,135.93626399998902,135.93626399998902,22,0,,,135.93626399998902,136.1386063999962,1000,136.1386063999962,1000,1000,1000,1000,0,num_3,0.34588010000879876,,20,12,2026-03-02_16h28.07.723,2026A_exp2,2022.2.4,59.929367250619784,
1,0,6.1,4.9,1,0,32,32,11,,,,,136.5033773999894,137.15416219999315,137.15416219999315,137.65494719997514,45,315,137.65494719997514,137.65494719997514,137.65494719997514,137.65494719997514,137.65494719997514,137.65494719997514,137.65494719997514,137.65494719997514,137.65494719997514,138.00500079998164,138.00500079998164,138.00500079998164,138.00500079998164,138.00500079998164,138.00500079998164,138.00500079998164,138.00500079998164,138.00500079998164,22,0,,,138.00500079998164,138.21892339998158,4.9,138.21892339998158,1,4.9,1,1,1000,num_4,0.6966031999909319,,20,12,2026-03-02_16h28.07.723,2026A_exp2,2022.2.4,59.929367250619784,
1000,1,3.7,6.1,1,0,33,33,48,,,,,138.93919589999132,139.58994299999904,139.58994299999904,140.074240499991,315,45,140.074240499991,140.074240499991,140.074240499991,140.074240499991,140.074240499991,140.074240499991,140.074240499991,140.074240499991,140.074240499991,140.44080759998178,140.44080759998178,140.44080759998178,140.44080759998178,140.44080759998178,140.44080759998178,140.44080759998178,140.44080759998178,140.44080759998178,17,2,"[0.0010916000173892826, 0.2836445000139065]","[0.017247100011445582, 0.3672969000181183]",140.44080759998178,140.6431338999828,1000,140.6431338999828,1000,1000,1000,1000,1,num_2,0.35250889998860657,,20,12,2026-03-02_16h28.07.723,2026A_exp2,2022.2.4,59.929367250619784,
1000,1,0.0,3.7,0,0,34,34,46,,,,,141.02463479997823,141.67517309999675,141.67517309999675,142.17647209999268,45,315,142.17647209999268,142.17647209999268,142.17647209999268,142.17647209999268,142.17647209999268,142.17647209999268,142.17647209999268,142.17647209999268,142.17647209999268,142.542896799976,142.542896799976,142.542896799976,142.542896799976,142.542896799976,142.542896799976,142.542896799976,142.542896799976,142.542896799976,1,2,"[0.001200400001835078, 0.10016450000694022]","[0.08348110000952147, 0.3671924000082072]",142.542896799976,142.74489989998983,1000,142.74489989998983,1000,1000,1000,1000,0,num_3,0.42786870000418276,,20,12,2026-03-02_16h28.07.723,2026A_exp2,2022.2.4,59.929367250619784,
1,0,6.1,3.7,1,0,35,35,51,,,,,143.19363339999109,143.84419279999565,143.84419279999565,144.34525689997827,45,45,144.34525689997827,144.34525689997827,144.34525689997827,144.34525689997827,144.34525689997827,144.34525689997827,144.34525689997827,144.34525689997827,144.34525689997827,144.71172829999705,144.71172829999705,144.71172829999705,144.71172829999705,144.71172829999705,144.71172829999705,144.71172829999705,144.71172829999705,144.71172829999705,0,1,[0.0012709999864455312],[0.3671162000100594],144.71172829999705,144.9119631999929,3.7,144.9119631999929,0,3.7,1,0,1000,num_1,0.5157966999977361,,20,12,2026-03-02_16h28.07.723,2026A_exp2,2022.2.4,59.929367250619784,
1,0,0.0,0.0,0,0,36,36,88,,,,,145.44553569998243,146.0963569000014,146.0963569000014,146.58206889999565,45,315,146.58206889999565,146.58206889999565,146.58206889999565,146.58206889999565,146.58206889999565,146.58206889999565,146.58206889999565,146.58206889999565,146.58206889999565,146.94710759998998,146.94710759998998,146.94710759998998,146.94710759998998,146.94710759998998,146.94710759998998,146.94710759998998,146.94710759998998,146.94710759998998,0,1,[0.002001299988478422],[0.3667744999984279],146.94710759998998,147.14739929998177,0.0,147.14739929998177,1,0.0,0,0,1000,num_4,0.7292226000281516,,20,12,2026-03-02_16h28.07.723,2026A_exp2,2022.2.4,59.929367250619784,
1,0,4.9,3.7,1,0,37,37,27,,,,,147.89801659999648,148.54892029997427,148.54892029997427,149.03315149998525,45,45,149.03315149998525,149.03315149998525,149.03315149998525,149.03315149998525,149.03315149998525,149.03315149998525,149.03315149998525,149.03315149998525,149.03315149998525,149.3997652999824,149.3997652999824,149.3997652999824,149.3997652999824,149.3997652999824,149.3997652999824,149.3997652999824,149.3997652999824,149.3997652999824,23,0,,,149.3997652999824,149.59987959999125,3.7,149.59987959999125,0,3.7,1,0,1000,num_1,0.6135868999990635,,20,12,2026-03-02_16h28.07.723,2026A_exp2,2022.2.4,59.929367250619784,
1,0,6.1,0.0,0,0,38,38,82,,,,,150.23699829998077,150.88449379999656,150.88449379999656,151.38556489997427,315,45,151.38556489997427,151.38556489997427,151.38556489997427,151.38556489997427,151.38556489997427,151.38556489997427,151.38556489997427,151.38556489997427,151.38556489997427,151.75202499999432,151.75202499999432,151.75202499999432,151.75202499999432,151.75202499999432,151.75202499999432,151.75202499999432,151.75202499999432,151.75202499999432,23,0,,,151.75202499999432,151.95229560000007,6.1,151.95229560000007,1,6.1,1,1,1000,num_4,0.628495799988741,,20,12,2026-03-02_16h28.07.723,2026A_exp2,2022.2.4,59.929367250619784,
1000,1,0.0,4.9,0,0,39,39,61,,,,,152.60281409998424,153.2535791999835,153.2535791999835,153.7379871000012,45,45,153.7379871000012,153.7379871000012,153.7379871000012,153.7379871000012,153.7379871000012,153.7379871000012,153.7379871000012,153.7379871000012,153.7379871000012,154.10444199998165,154.10444199998165,154.10444199998165,154.10444199998165,154.10444199998165,154.10444199998165,154.10444199998165,154.10444199998165,154.10444199998165,23,0,,,154.10444199998165,154.3065417999751,1000,154.3065417999751,1000,1000,1000,1000,1,num_2,0.4972276999906171,,20,12,2026-03-02_16h28.07.723,2026A_exp2,2022.2.4,59.929367250619784,
1000,1,4.9,0.0,1,0,40,40,10,,,,,154.8219509999908,155.4724543999764,155.4724543999764,155.95694109998294,45,45,155.95694109998294,155.95694109998294,155.95694109998294,155.95694109998294,155.95694109998294,155.95694109998294,155.95694109998294,155.95694109998294,155.95694109998294,156.3233258999826,156.3233258999826,156.3233258999826,156.3233258999826,156.3233258999826,156.3233258999826,156.3233258999826,156.3233258999826,156.3233258999826,23,0,,,156.3233258999826,156.52618580000126,1000,156.52618580000126,1000,1000,1000,1000,0,num_3,0.3174118000024464,,20,12,2026-03-02_16h28.07.723,2026A_exp2,2022.2.4,59.929367250619784,
1,0,0.0,3.7,1,0,41,41,14,,,,,156.87403149998863,157.5244534999947,157.5244534999947,158.02561729997979,315,45,158.02561729997979,158.02561729997979,158.02561729997979,158.02561729997979,158.02561729997979,158.02561729997979,158.02561729997979,158.02561729997979,158.02561729997979,158.39206579999882,158.39206579999882,158.39206579999882,158.39206579999882,158.39206579999882,158.39206579999882,158.39206579999882,158.39206579999882,158.39206579999882,23,0,,,158.39206579999882,158.59234799997648,3.7,158.59234799997648,1,3.7,1,1,1000,num_4,0.5722079999977723,,20,12,2026-03-02_16h28.07.723,2026A_exp2,2022.2.4,59.929367250619784,
1000,1,3.7,0.0,0,0,42,42,56,,,,,159.1929163999739,159.84351310000056,159.84351310000056,160.3279166999855,45,45,160.3279166999855,160.3279166999855,160.3279166999855,160.3279166999855,160.3279166999855,160.3279166999855,160.3279166999855,160.3279166999855,160.3279166999855,160.69435349997366,160.69435349997366,160.69435349997366,160.69435349997366,160.69435349997366,160.69435349997366,160.69435349997366,160.69435349997366,160.69435349997366,23,0,,,160.69435349997366,160.8970770999731,1000,160.8970770999731,1000,1000,1000,1000,0,num_3,0.3392650000168942,,20,12,2026-03-02_16h28.07.723,2026A_exp2,2022.2.4,59.929367250619784,
1,0,0.0,4.9,1,0,43,43,37,,,,,161.26170099998126,161.9123067999899,161.9123067999899,162.4133302999835,315,315,162.4133302999835,162.4133302999835,162.4133302999835,162.4133302999835,162.4133302999835,162.4133302999835,162.4133302999835,162.4133302999835,162.4133302999835,162.77955239999574,162.77955239999574,162.77955239999574,162.77955239999574,162.77955239999574,162.77955239999574,162.77955239999574,162.77955239999574,162.77955239999574,23,0,,,162.77955239999574,162.97996469997452,4.9,162.97996469997452,1,4.9,1,1,1000,num_4,0.5359483000065666,,20,12,2026-03-02_16h28.07.723,2026A_exp2,2022.2.4,59.929367250619784,
1000,1,6.1,6.1,0,0,44,44,16,,,,,163.54701169999316,164.19791749998694,164.19791749998694,164.68234879997908,45,315,164.68234879997908,164.68234879997908,164.68234879997908,164.68234879997908,164.68234879997908,164.68234879997908,164.68234879997908,164.68234879997908,164.68234879997908,165.0486575999821,165.0486575999821,165.0486575999821,165.0486575999821,165.0486575999821,165.0486575999821,165.0486575999821,165.0486575999821,165.0486575999821,23,0,,,165.0486575999821,165.25083239999367,1000,165.25083239999367,1000,1000,1000,1000,0,num_3,0.2655605000036303,,20,12,2026-03-02_16h28.07.723,2026A_exp2,2022.2.4,59.929367250619784,
1,0,4.9,0.0,1,0,45,45,65,,,,,165.53252329997486,166.18322629999602,166.18322629999602,166.68432039997424,315,315,166.68432039997424,166.68432039997424,166.68432039997424,166.68432039997424,166.68432039997424,166.68432039997424,166.68432039997424,166.68432039997424,166.68432039997424,167.03407409999636,167.03407409999636,167.03407409999636,167.03407409999636,167.03407409999636,167.03407409999636,167.03407409999636,167.03407409999636,167.03407409999636,22,0,,,167.03407409999636,167.23418619998847,0.0,167.23418619998847,0,0.0,0,1,1000,num_1,0.5058389000187162,,20,12,2026-03-02_16h28.07.723,2026A_exp2,2022.2.4,59.929367250619784,
1000,1,3.7,3.7,0,0,46,46,63,,,,,167.7680261999776,168.41870239999844,168.41870239999844,168.90322839998407,45,45,168.90322839998407,168.90322839998407,168.90322839998407,168.90322839998407,168.90322839998407,168.90322839998407,168.90322839998407,168.90322839998407,168.90322839998407,169.26951119999285,169.26951119999285,169.26951119999285,169.26951119999285,169.26951119999285,169.26951119999285,169.26951119999285,169.26951119999285,169.26951119999285,23,0,,,169.26951119999285,169.47205229999963,1000,169.47205229999963,1000,1000,1000,1000,0,num_3,0.4124082999769598,,20,12,2026-03-02_16h28.07.723,2026A_exp2,2022.2.4,59.929367250619784,
1000,1,3.7,0.0,1,0,47,47,38,,,,,169.903478799999,170.55407499999274,170.55407499999274,171.05533399997512,315,315,171.05533399997512,171.05533399997512,171.05533399997512,171.05533399997512,171.05533399997512,171.05533399997512,171.05533399997512,171.05533399997512,171.05533399997512,171.42169529999956,171.42169529999956,171.42169529999956,171.42169529999956,171.42169529999956,171.42169529999956,171.42169529999956,171.42169529999956,171.42169529999956,23,0,,,171.42169529999956,171.6376436999999,1000,171.6376436999999,1000,1000,1000,1000,1,num_2,0.47922780000953935,,20,12,2026-03-02_16h28.07.723,2026A_exp2,2022.2.4,59.929367250619784,
1,0,0.0,0.0,1,0,48,48,39,,,,,172.13900569998077,172.78979809998418,172.78979809998418,173.2907912999799,45,45,173.2907912999799,173.2907912999799,173.2907912999799,173.2907912999799,173.2907912999799,173.2907912999799,173.2907912999799,173.2907912999799,173.2907912999799,173.65739269999904,173.65739269999904,173.65739269999904,173.65739269999904,173.65739269999904,173.65739269999904,173.65739269999904,173.65739269999904,173.65739269999904,23,0,,,173.65739269999904,173.85747759998776,0.0,173.85747759998776,0,0.0,0,1,1000,num_1,0.7793497999955434,,20,12,2026-03-02_16h28.07.723,2026A_exp2,2022.2.4,59.929367250619784,
1000,1,4.9,4.9,1,0,49,49,68,,,,,174.65822499999194,175.30903239999316,175.30903239999316,175.793466299976,45,315,175.793466299976,175.793466299976,175.793466299976,175.793466299976,175.793466299976,175.793466299976,175.793466299976,175.793466299976,175.793466299976,176.15977709999424,176.15977709999424,176.15977709999424,176.15977709999424,176.15977709999424,176.15977709999424,176.15977709999424,176.15977709999424,176.15977709999424,23,0,,,176.15977709999424,176.36167729998124,1000,176.36167729998124,1000,1000,1000,1000,1,num_2,0.5621340000070632,,20,12,2026-03-02_16h28.07.723,2026A_exp2,2022.2.4,59.929367250619784,
1000,1,0.0,0.0,1,0,50,50,9,,,,,176.94378559998586,177.59444899999653,177.59444899999653,178.09570839998196,315,45,178.09570839998196,178.09570839998196,178.09570839998196,178.09570839998196,178.09570839998196,178.09570839998196,178.09570839998196,178.09570839998196,178.09570839998196,178.46211069999845,178.46211069999845,178.46211069999845,178.46211069999845,178.46211069999845,178.46211069999845,178.46211069999845,178.46211069999845,178.46211069999845,4,2,"[0.033381399989593774, 0.10024540001177229]","[0.06695410000975244, 0.36714869999559596]",178.46211069999845,178.66259349999018,1000,178.66259349999018,1000,1000,1000,1000,1,num_2,0.5889489999972284,,20,12,2026-03-02_16h28.07.723,2026A_exp2,2022.2.4,59.929367250619784,
1000,1,6.1,0.0,1,0,51,51,25,,,,,179.27938449999783,179.93027049998636,179.93027049998636,180.431368199992,45,45,180.431368199992,180.431368199992,180.431368199992,180.431368199992,180.431368199992,180.431368199992,180.431368199992,180.431368199992,180.431368199992,180.7977336999902,180.7977336999902,180.7977336999902,180.7977336999902,180.7977336999902,180.7977336999902,180.7977336999902,180.7977336999902,180.7977336999902,13,4,"[0.0013189000019337982, 0.10007580000092275, 0.16698149999137968, 0.30035549998865463]","[0.03339799999957904, 0.13357029997860081, 0.2502725999802351, 0.31708189999335445]",180.7977336999902,180.99968939999235,1000,180.99968939999235,1000,1000,1000,1000,0,num_3,0.3878534999967087,,20,12,2026-03-02_16h28.07.723,2026A_exp2,2022.2.4,59.929367250619784,
1,0,0.0,0.0,1,0,52,52,42,,,,,181.41497289997642,182.06566259998363,182.06566259998363,182.5500854999991,315,315,182.5500854999991,182.5500854999991,182.5500854999991,182.5500854999991,182.5500854999991,182.5500854999991,182.5500854999991,182.5500854999991,182.5500854999991,182.91661749998457,182.91661749998457,182.91661749998457,182.91661749998457,182.91661749998457,182.91661749998457,182.91661749998457,182.91661749998457,182.91661749998457,23,0,,,182.91661749998457,183.1166213999968,0.0,183.1166213999968,1,0.0,0,0,1000,num_4,0.9352838000049815,,20,12,2026-03-02_16h28.07.723,2026A_exp2,2022.2.4,59.929367250619784,
1000,1,0.0,3.7,1,0,53,53,13,,,,,184.06756319999113,184.71833019997575,184.71833019997575,185.2027803999954,45,45,185.2027803999954,185.2027803999954,185.2027803999954,185.2027803999954,185.2027803999954,185.2027803999954,185.2027803999954,185.2027803999954,185.2027803999954,185.56911959999707,185.56911959999707,185.56911959999707,185.56911959999707,185.56911959999707,185.56911959999707,185.56911959999707,185.56911959999707,185.56911959999707,23,0,,,185.56911959999707,185.7717572999827,1000,185.7717572999827,1000,1000,1000,1000,1,num_2,0.43274969997582957,,20,12,2026-03-02_16h28.07.723,2026A_exp2,2022.2.4,59.929367250619784,
1000,1,0.0,0.0,0,0,54,54,17,,,,,186.21975829999428,186.87043899999117,186.87043899999117,187.37150549999205,45,315,187.37150549999205,187.37150549999205,187.37150549999205,187.37150549999205,187.37150549999205,187.37150549999205,187.37150549999205,187.37150549999205,187.37150549999205,187.7380599999742,187.7380599999742,187.7380599999742,187.7380599999742,187.7380599999742,187.7380599999742,187.7380599999742,187.7380599999742,187.7380599999742,23,0,,,187.7380599999742,187.93991809998988,1000,187.93991809998988,1000,1000,1000,1000,1,num_2,1.015461700008018,,20,12,2026-03-02_16h28.07.723,2026A_exp2,2022.2.4,59.929367250619784,
0,0,4.9,3.7,0,0,55,55,28,,,,,188.97254199997406,189.62331559997983,189.62331559997983,190.1242972999753,45,315,190.1242972999753,190.1242972999753,190.1242972999753,190.1242972999753,190.1242972999753,190.1242972999753,190.1242972999753,190.1242972999753,190.1242972999753,190.4741393000004,190.4741393000004,190.4741393000004,190.4741393000004,190.4741393000004,190.4741393000004,190.4741393000004,190.4741393000004,190.4741393000004,7,5,"[0.050031500024488196, 0.08351130000664853, 0.1501758000231348, 0.23350030000437982, 0.33385330002056435]","[0.06683630001498386, 0.13361520000034943, 0.21701240001129918, 0.31712510000215843, 0.35051270000985824]",190.4741393000004,190.67449349997332,3.7,190.69115769999917,0,3.7,1,0,1000,num_1,0.6808716999948956,,20,12,2026-03-02_16h28.07.723,2026A_exp2,2022.2.4,59.929367250619784,
1000,1,0.0,4.9,0,0,56,56,26,,,,,191.3915778999799,192.04237379998085,192.04237379998085,192.52681059998577,315,315,192.52681059998577,192.52681059998577,192.52681059998577,192.52681059998577,192.52681059998577,192.52681059998577,192.52681059998577,192.52681059998577,192.52681059998577,192.8932259999856,192.8932259999856,192.8932259999856,192.8932259999856,192.8932259999856,192.8932259999856,192.8932259999856,192.8932259999856,192.8932259999856,23,0,,,192.8932259999856,193.0938513999863,1000,193.0938513999863,1000,1000,1000,1000,1,num_2,0.3586364999937359,,20,12,2026-03-02_16h28.07.723,2026A_exp2,2022.2.4,59.929367250619784,
0,0,0.0,0.0,1,0,57,57,2,,,,,193.47721610000008,194.12772549997317,194.12772549997317,194.62885899998946,45,315,194.62885899998946,194.62885899998946,194.62885899998946,194.62885899998946,194.62885899998946,194.62885899998946,194.62885899998946,194.62885899998946,194.62885899998946,194.99527889999445,194.99527889999445,194.99527889999445,194.99527889999445,194.99527889999445,194.99527889999445,194.99527889999445,194.99527889999445,194.99527889999445,0,1,[0.0012150999973528087],[0.36709839999093674],194.99527889999445,195.1954340999946,0.0,195.1954340999946,1,0.0,0,0,1000,num_4,0.7598744999850169,,20,12,2026-03-02_16h28.07.723,2026A_exp2,2022.2.4,59.929367250619784,
1,0,6.1,6.1,1,0,58,58,23,,,,,195.9796821999771,196.61356939998223,196.61356939998223,197.11457749997498,315,45,197.11457749997498,197.11457749997498,197.11457749997498,197.11457749997498,197.11457749997498,197.11457749997498,197.11457749997498,197.11457749997498,197.11457749997498,197.48107769998023,197.48107769998023,197.48107769998023,197.48107769998023,197.48107769998023,197.48107769998023,197.48107769998023,197.48107769998023,197.48107769998023,0,1,[0.001232199982041493],[0.36712379998061806],197.48107769998023,197.68130319999182,6.1,197.68130319999182,1,6.1,1,1,1000,num_4,1.307226200005971,,20,12,2026-03-02_16h28.07.723,2026A_exp2,2022.2.4,59.929367250619784,
1000,1,6.1,0.0,1,0,59,59,83,,,,,199.01588209997863,199.66669099999126,199.66669099999126,200.15107069999794,45,45,200.15107069999794,200.15107069999794,200.15107069999794,200.15107069999794,200.15107069999794,200.15107069999794,200.15107069999794,200.15107069999794,200.15107069999794,200.51744679998956,200.51744679998956,200.51744679998956,200.51744679998956,200.51744679998956,200.51744679998956,200.51744679998956,200.51744679998956,200.51744679998956,23,0,,,200.51744679998956,200.71947069998714,1000,200.71947069998714,1000,1000,1000,1000,0,num_3,0.4360772000218276,,20,12,2026-03-02_16h28.07.723,2026A_exp2,2022.2.4,59.929367250619784,
1000,1,6.1,6.1,1,0,60,60,8,,,,,201.1847926999908,201.835439699993,201.835439699993,202.33649619997595,45,45,202.33649619997595,202.33649619997595,202.33649619997595,202.33649619997595,202.33649619997595,202.33649619997595,202.33649619997595,202.33649619997595,202.33649619997595,202.7030962999852,202.7030962999852,202.7030962999852,202.7030962999852,202.7030962999852,202.7030962999852,202.7030962999852,202.7030962999852,202.7030962999852,23,0,,,202.7030962999852,202.90520149999065,1000,202.90520149999065,1000,1000,1000,1000,1,num_2,0.4914913000247907,,20,12,2026-03-02_16h28.07.723,2026A_exp2,2022.2.4,59.929367250619784,
1,0,0.0,6.1,1,0,61,61,36,,,,,203.42051129997708,204.07101669997792,204.07101669997792,204.57217639998998,315,45,204.57217639998998,204.57217639998998,204.57217639998998,204.57217639998998,204.57217639998998,204.57217639998998,204.57217639998998,204.57217639998998,204.57217639998998,204.93868579997797,204.93868579997797,204.93868579997797,204.93868579997797,204.93868579997797,204.93868579997797,204.93868579997797,204.93868579997797,204.93868579997797,23,0,,,204.93868579997797,205.13870819998556,6.1,205.13870819998556,1,6.1,1,1,1000,num_4,0.6494525999878533,,20,12,2026-03-02_16h28.07.723,2026A_exp2,2022.2.4,59.929367250619784,
0,0,3.7,0.0,0,0,62,62,62,,,,,205.80580229999032,206.45678929999121,206.45678929999121,206.94123309999122,45,45,206.94123309999122,206.94123309999122,206.94123309999122,206.94123309999122,206.94123309999122,206.94123309999122,206.94123309999122,206.94123309999122,206.94123309999122,207.3076308000018,207.3076308000018,207.3076308000018,207.3076308000018,207.3076308000018,207.3076308000018,207.3076308000018,207.3076308000018,207.3076308000018,23,0,,,207.3076308000018,207.50766309999744,0.0,207.50766309999744,0,0.0,0,1,1000,num_1,0.6804750999726821,,20,12,2026-03-02_16h28.07.723,2026A_exp2,2022.2.4,59.929367250619784,
1,0,0.0,4.9,0,0,63,63,73,,,,,208.20869699999457,208.84256119999918,208.84256119999918,209.34358399998746,45,315,209.34358399998746,209.34358399998746,209.34358399998746,209.34358399998746,209.34358399998746,209.34358399998746,209.34358399998746,209.34358399998746,209.34358399998746,209.7099959999905,209.7099959999905,209.7099959999905,209.7099959999905,209.7099959999905,209.7099959999905,209.7099959999905,209.7099959999905,209.7099959999905,23,0,,,209.7099959999905,209.90992189999088,0.0,209.90992189999088,0,0.0,0,1,1000,num_1,0.9658436000172514,,20,12,2026-03-02_16h28.07.723,2026A_exp2,2022.2.4,59.929367250619784,
1,0,6.1,0.0,1,0,64,64,80,,,,,210.89463739999337,211.54947739999625,211.54947739999625,212.04612659997656,315,45,212.04612659997656,212.04612659997656,212.04612659997656,212.04612659997656,212.04612659997656,212.04612659997656,212.04612659997656,212.04612659997656,212.04612659997656,212.41274229998817,212.41274229998817,212.41274229998817,212.41274229998817,212.41274229998817,212.41274229998817,212.41274229998817,212.41274229998817,212.41274229998817,23,0,,,212.41274229998817,212.6128845999774,0.0,212.6128845999774,0,0.0,0,1,1000,num_1,0.6552350999845657,,20,12,2026-03-02_16h28.07.723,2026A_exp2,2022.2.4,59.929367250619784,
1,0,4.9,3.7,0,0,65,65,44,,,,,213.29681129998062,213.94764219998615,213.94764219998615,214.43204729998251,45,45,214.43204729998251,214.43204729998251,214.43204729998251,214.43204729998251,214.43204729998251,214.43204729998251,214.43204729998251,214.43204729998251,214.43204729998251,214.7985077999765,214.7985077999765,214.7985077999765,214.7985077999765,214.7985077999765,214.7985077999765,214.7985077999765,214.7985077999765,214.7985077999765,23,0,,,214.7985077999765,214.9987043000001,4.9,214.9987043000001,1,4.9,1,1,1000,num_4,0.6774525000073481,,20,12,2026-03-02_16h28.07.723,2026A_exp2,2022.2.4,59.929367250619784,
0,0,6.1,0.0,0,0,66,66,74,,,,,215.69930009997915,216.333275699988,216.333275699988,216.83453149997513,45,45,216.83453149997513,216.83453149997513,216.83453149997513,216.83453149997513,216.83453149997513,216.83453149997513,216.83453149997513,216.83453149997513,216.83453149997513,217.20078279997688,217.20078279997688,217.20078279997688,217.20078279997688,217.20078279997688,217.20078279997688,217.20078279997688,217.20078279997688,217.20078279997688,23,0,,,217.20078279997688,217.40103290000116,0.0,217.40103290000116,0,0.0,0,1,1000,num_1,0.6831848000001628,,20,12,2026-03-02_16h28.07.723,2026A_exp2,2022.2.4,59.929367250619784,
1000,1,4.9,0.0,1,0,67,67,77,,,,,218.10159799997928,218.75225979997776,218.75225979997776,219.23672329998226,45,45,219.23672329998226,219.23672329998226,219.23672329998226,219.23672329998226,219.23672329998226,219.23672329998226,219.23672329998226,219.23672329998226,219.23672329998226,219.60325269997702,219.60325269997702,219.60325269997702,219.60325269997702,219.60325269997702,219.60325269997702,219.60325269997702,219.60325269997702,219.60325269997702,23,0,,,219.60325269997702,219.80518460000167,1000,219.80518460000167,1000,1000,1000,1000,0,num_3,0.47923480000463314,,20,12,2026-03-02_16h28.07.723,2026A_exp2,2022.2.4,59.929367250619784,
1,0,3.7,6.1,0,0,68,68,52,,,,,220.30413789997692,220.9545753999846,220.9545753999846,221.4556723999849,45,315,221.4556723999849,221.4556723999849,221.4556723999849,221.4556723999849,221.4556723999849,221.4556723999849,221.4556723999849,221.4556723999849,221.4556723999849,221.8221351999964,221.8221351999964,221.8221351999964,221.8221351999964,221.8221351999964,221.8221351999964,221.8221351999964,221.8221351999964,221.8221351999964,23,0,,,221.8221351999964,222.02216669998597,3.7,222.02216669998597,0,3.7,1,0,1000,num_1,1.0936032000172418,,20,12,2026-03-02_16h28.07.723,2026A_exp2,2022.2.4,59.929367250619784,
1,0,0.0,0.0,1,0,69,69,49,,,,,223.14005909999833,223.79094379997696,223.79094379997696,224.27526829999988,315,315,224.27526829999988,224.27526829999988,224.27526829999988,224.27526829999988,224.27526829999988,224.27526829999988,224.27526829999988,224.27526829999988,224.27526829999988,224.64143439999316,224.64143439999316,224.64143439999316,224.64143439999316,224.64143439999316,224.64143439999316,224.64143439999316,224.64143439999316,224.64143439999316,23,0,,,224.64143439999316,224.84179059998132,0.0,224.84179059998132,1,0.0,0,0,1000,num_4,1.1704160000081174,,20,12,2026-03-02_16h28.07.723,2026A_exp2,2022.2.4,59.929367250619784,
1,0,0.0,6.1,1,0,70,70,31,,,,,226.04295179998735,226.6936938999861,226.6936938999861,227.17810289998306,45,315,227.17810289998306,227.17810289998306,227.17810289998306,227.17810289998306,227.17810289998306,227.17810289998306,227.17810289998306,227.17810289998306,227.17810289998306,227.54457659999025,227.54457659999025,227.54457659999025,227.54457659999025,227.54457659999025,227.54457659999025,227.54457659999025,227.54457659999025,227.54457659999025,23,0,,,227.54457659999025,227.74474489997374,6.1,227.74474489997374,1,6.1,1,1,1000,num_4,0.5789052999753039,,20,12,2026-03-02_16h28.07.723,2026A_exp2,2022.2.4,59.929367250619784,
1000,1,3.7,6.1,1,0,71,71,58,,,,,228.34530789998826,228.9792133999872,228.9792133999872,229.48028569997405,315,45,229.48028569997405,229.48028569997405,229.48028569997405,229.48028569997405,229.48028569997405,229.48028569997405,229.48028569997405,229.48028569997405,229.48028569997405,229.84689099999378,229.84689099999378,229.84689099999378,229.84689099999378,229.84689099999378,229.84689099999378,229.84689099999378,229.84689099999378,229.84689099999378,23,0,,,229.84689099999378,230.04889259999618,1000,230.04889259999618,1000,1000,1000,1000,1,num_2,0.6273923999979161,,20,12,2026-03-02_16h28.07.723,2026A_exp2,2022.2.4,59.929367250619784,
1,0,0.0,0.0,1,0,72,72,69,,,,,230.69756619998952,231.34826829997473,231.34826829997473,231.84945509998943,45,45,231.84945509998943,231.84945509998943,231.84945509998943,231.84945509998943,231.84945509998943,231.84945509998943,231.84945509998943,231.84945509998943,231.84945509998943,232.21573309999076,232.21573309999076,232.21573309999076,232.21573309999076,232.21573309999076,232.21573309999076,232.21573309999076,232.21573309999076,232.21573309999076,23,0,,,232.21573309999076,232.41607690000092,0.0,232.41607690000092,1,0.0,0,0,1000,num_4,1.1234351000166498,,20,12,2026-03-02_16h28.07.723,2026A_exp2,2022.2.4,59.929367250619784,
1000,1,0.0,0.0,0,0,73,73,86,,,,,233.56711819997872,234.21781349999947,234.21781349999947,234.70232329997816,315,45,234.70232329997816,234.70232329997816,234.70232329997816,234.70232329997816,234.70232329997816,234.70232329997816,234.70232329997816,234.70232329997816,234.70232329997816,235.0687489999982,235.0687489999982,235.0687489999982,235.0687489999982,235.0687489999982,235.0687489999982,235.0687489999982,235.0687489999982,235.0687489999982,23,0,,,235.0687489999982,235.27098079997813,1000,235.27098079997813,1000,1000,1000,1000,0,num_3,0.3571636999840848,,20,12,2026-03-02_16h28.07.723,2026A_exp2,2022.2.4,59.929367250619784,
1000,1,3.7,4.9,0,0,74,74,45,,,,,235.65446469999733,236.3033348999743,236.3033348999743,236.8084723999782,45,315,236.8084723999782,236.8084723999782,236.8084723999782,236.8084723999782,236.8084723999782,236.8084723999782,236.8084723999782,236.8084723999782,236.8084723999782,237.17085159997805,237.17085159997805,237.17085159997805,237.17085159997805,237.17085159997805,237.17085159997805,237.17085159997805,237.17085159997805,237.17085159997805,23,0,,,237.17085159997805,237.3744359999837,1000,237.3744359999837,1000,1000,1000,1000,1,num_2,0.3894187999831047,,20,12,2026-03-02_16h28.07.723,2026A_exp2,2022.2.4,59.929367250619784,
1,0,0.0,0.0,0,0,75,75,55,,,,,237.7882151999802,238.43890649999958,238.43890649999958,238.93973429998732,45,315,238.93973429998732,238.93973429998732,238.93973429998732,238.93973429998732,238.93973429998732,238.93973429998732,238.93973429998732,238.93973429998732,238.93973429998732,239.30615879999823,239.30615879999823,239.30615879999823,239.30615879999823,239.30615879999823,239.30615879999823,239.30615879999823,239.30615879999823,239.30615879999823,8,7,"[0.01717920001829043, 0.05012110000825487, 0.08354059999692254, 0.13368630001787096, 0.18371690000640228, 0.33379480001167394, 0.3671621000103187]","[0.033569599996553734, 0.06680210001650266, 0.1002998000185471, 0.1670624999969732, 0.31710519999614917, 0.3504667000088375, 0.3671664000139572]",239.30615879999823,239.50660329998937,0.0,239.50660329998937,0,0.0,0,1,1000,num_1,0.6338337000051979,,20,12,2026-03-02_16h28.07.723,2026A_exp2,2022.2.4,59.929367250619784,
1,0,4.9,0.0,0,0,76,76,53,,,,,240.15703049997683,240.80782779998844,240.80782779998844,241.29226309998194,315,45,241.29226309998194,241.29226309998194,241.29226309998194,241.29226309998194,241.29226309998194,241.29226309998194,241.29226309998194,241.29226309998194,241.29226309998194,241.65862699999707,241.65862699999707,241.65862699999707,241.65862699999707,241.65862699999707,241.65862699999707,241.65862699999707,241.65862699999707,241.65862699999707,23,0,,,241.65862699999707,241.8587356999924,4.9,241.8587356999924,1,4.9,1,1,1000,num_4,0.7052746000117622,,20,12,2026-03-02_16h28.07.723,2026A_exp2,2022.2.4,59.929367250619784,
0,0,0.0,3.7,0,0,77,77,34,,,,,242.59303419999196,243.2435325999977,243.2435325999977,243.72793999998248,315,45,243.72793999998248,243.72793999998248,243.72793999998248,243.72793999998248,243.72793999998248,243.72793999998248,243.72793999998248,243.72793999998248,243.72793999998248,244.0943574999983,244.0943574999983,244.0943574999983,244.0943574999983,244.0943574999983,244.0943574999983,244.0943574999983,244.0943574999983,244.0943574999983,23,0,,,244.0943574999983,244.29468869999982,3.7,244.29468869999982,1,3.7,1,1,1000,num_4,0.7260691000265069,,20,12,2026-03-02_16h28.07.723,2026A_exp2,2022.2.4,59.929367250619784,
1000,1,6.1,3.7,0,0,78,78,75,,,,,245.04534209999838,245.69606419999036,245.69606419999036,246.18048579999595,315,315,246.18048579999595,246.18048579999595,246.18048579999595,246.18048579999595,246.18048579999595,246.18048579999595,246.18048579999595,246.18048579999595,246.18048579999595,246.54681020000135,246.54681020000135,246.54681020000135,246.54681020000135,246.54681020000135,246.54681020000135,246.54681020000135,246.54681020000135,246.54681020000135,23,0,,,246.54681020000135,246.74922050000168,1000,246.74922050000168,1000,1000,1000,1000,1,num_2,0.47934320001513697,,20,12,2026-03-02_16h28.07.723,2026A_exp2,2022.2.4,59.929367250619784,
1000,1,0.0,4.9,0,0,79,79,6,,,,,247.24763379999786,247.89800249997643,247.89800249997643,248.39919719999307,315,45,248.39919719999307,248.39919719999307,248.39919719999307,248.39919719999307,248.39919719999307,248.39919719999307,248.39919719999307,248.39919719999307,248.39919719999307,248.7658345999953,248.7658345999953,248.7658345999953,248.7658345999953,248.7658345999953,248.7658345999953,248.7658345999953,248.7658345999953,248.7658345999953,23,0,,,248.7658345999953,248.9679370999802,1000,248.9679370999802,1000,1000,1000,1000,1,num_2,0.41186850002850406,,20,12,2026-03-02_16h28.07.723,2026A_exp2,2022.2.4,59.929367250619784,
1,0,3.7,0.0,1,0,80,80,12,,,,,249.39981089998037,250.06097829999635,250.06097829999635,250.551444599987,315,45,250.551444599987,250.551444599987,250.551444599987,250.551444599987,250.551444599987,250.551444599987,250.551444599987,250.551444599987,250.551444599987,250.91785639998852,250.91785639998852,250.91785639998852,250.91785639998852,250.91785639998852,250.91785639998852,250.91785639998852,250.91785639998852,250.91785639998852,23,0,,,250.91785639998852,251.11812729999656,0.0,251.11812729999656,0,0.0,0,1,1000,num_1,0.6621682999830227,,20,12,2026-03-02_16h28.07.723,2026A_exp2,2022.2.4,59.929367250619784,
1000,1,0.0,3.7,1,0,81,81,84,,,,,251.8020675999869,252.4527200999728,252.4527200999728,252.93724859997747,45,315,252.93724859997747,252.93724859997747,252.93724859997747,252.93724859997747,252.93724859997747,252.93724859997747,252.93724859997747,252.93724859997747,252.93724859997747,253.30356839997694,253.30356839997694,253.30356839997694,253.30356839997694,253.30356839997694,253.30356839997694,253.30356839997694,253.30356839997694,253.30356839997694,23,0,,,253.30356839997694,253.50546049998957,1000,253.50546049998957,1000,1000,1000,1000,1,num_2,0.2904024999879766,,20,12,2026-03-02_16h28.07.723,2026A_exp2,2022.2.4,59.929367250619784,
1000,1,6.1,0.0,1,0,82,82,57,,,,,253.82090529997367,254.47121530000004,254.47121530000004,254.9726274999848,45,315,254.9726274999848,254.9726274999848,254.9726274999848,254.9726274999848,254.9726274999848,254.9726274999848,254.9726274999848,254.9726274999848,254.9726274999848,255.33879569999408,255.33879569999408,255.33879569999408,255.33879569999408,255.33879569999408,255.33879569999408,255.33879569999408,255.33879569999408,255.33879569999408,17,4,"[0.06693259999155998, 0.15036469997721724, 0.2837633999879472, 0.3172061999794096]","[0.08359179997933097, 0.20005639997543767, 0.30034609997528605, 0.3504545999749098]",255.33879569999408,255.54106589997537,1000,255.54106589997537,1000,1000,1000,1000,0,num_3,0.32698790001450107,,20,12,2026-03-02_16h28.07.723,2026A_exp2,2022.2.4,59.929367250619784,
1,0,0.0,4.9,0,0,83,83,3,,,,,255.8896614999976,256.54015759998583,256.54015759998583,257.04122579999967,45,315,257.04122579999967,257.04122579999967,257.04122579999967,257.04122579999967,257.04122579999967,257.04122579999967,257.04122579999967,257.04122579999967,257.04122579999967,257.4077128999925,257.4077128999925,257.4077128999925,257.4077128999925,257.4077128999925,257.4077128999925,257.4077128999925,257.4077128999925,257.4077128999925,23,0,,,257.4077128999925,257.6079869999958,0.0,257.6079869999958,0,0.0,0,1,1000,num_1,0.6354571999981999,,20,12,2026-03-02_16h28.07.723,2026A_exp2,2022.2.4,59.929367250619784,
1000,1,0.0,0.0,1,0,84,84,85,,,,,258.2753411999729,258.92583880000166,258.92583880000166,259.4103417999868,45,315,259.4103417999868,259.4103417999868,259.4103417999868,259.4103417999868,259.4103417999868,259.4103417999868,259.4103417999868,259.4103417999868,259.4103417999868,259.776772799989,259.776772799989,259.776772799989,259.776772799989,259.776772799989,259.776772799989,259.776772799989,259.776772799989,259.776772799989,4,4,"[0.01745779998600483, 0.05020609998609871, 0.18373759998939931, 0.23380739998538047]","[0.03365179998218082, 0.1670369999774266, 0.21699149999767542, 0.3672902999969665]",259.776772799989,259.97881770000095,1000,259.97881770000095,1000,1000,1000,1000,1,num_2,0.6729176000226289,,20,12,2026-03-02_16h28.07.723,2026A_exp2,2022.2.4,59.929367250619784,
1000,1,0.0,0.0,1,0,85,85,1,,,,,260.68067699999665,261.32999369999743,261.32999369999743,261.8294299999834,45,45,261.8294299999834,261.8294299999834,261.8294299999834,261.8294299999834,261.8294299999834,261.8294299999834,261.8294299999834,261.8294299999834,261.8294299999834,262.19581969999126,262.19581969999126,262.19581969999126,262.19581969999126,262.19581969999126,262.19581969999126,262.19581969999126,262.19581969999126,262.19581969999126,23,0,,,262.19581969999126,262.3984578999807,1000,262.3984578999807,1000,1000,1000,1000,1,num_2,0.5333164000185207,,20,12,2026-03-02_16h28.07.723,2026A_exp2,2022.2.4,59.929367250619784,
1,0,6.1,0.0,1,0,86,86,70,,,,,262.96333549998235,263.6138607999892,263.6138607999892,264.11506429998553,315,45,264.11506429998553,264.11506429998553,264.11506429998553,264.11506429998553,264.11506429998553,264.11506429998553,264.11506429998553,264.11506429998553,264.11506429998553,264.4647569999797,264.4647569999797,264.4647569999797,264.4647569999797,264.4647569999797,264.4647569999797,264.4647569999797,264.4647569999797,264.4647569999797,2,1,[0.03358670001034625],[0.3501719000050798],264.4647569999797,264.6650445999985,0.0,264.6650445999985,0,0.0,0,1,1000,num_1,0.5308296000002883,,20,12,2026-03-02_16h28.07.723,2026A_exp2,2022.2.4,59.929367250619784,
1,0,0.0,6.1,1,0,87,87,33,,,,,265.2154069999815,265.8661664999963,265.8661664999963,266.3506789999956,45,315,266.3506789999956,266.3506789999956,266.3506789999956,266.3506789999956,266.3506789999956,266.3506789999956,266.3506789999956,266.3506789999956,266.3506789999956,266.7168905999861,266.7168905999861,266.7168905999861,266.7168905999861,266.7168905999861,266.7168905999861,266.7168905999861,266.7168905999861,266.7168905999861,23,0,,,266.7168905999861,266.9172028999892,6.1,266.9172028999892,1,6.1,1,1,1000,num_4,0.7594503000145778,,20,12,2026-03-02_16h28.07.723,2026A_exp2,2022.2.4,59.929367250619784,
1000,1,0.0,6.1,1,0,88,88,43,,,,,267.70134410000173,268.3520426999894,268.3520426999894,268.8364271999744,45,45,268.8364271999744,268.8364271999744,268.8364271999744,268.8364271999744,268.8364271999744,268.8364271999744,268.8364271999744,268.8364271999744,268.8364271999744,269.2028129999817,269.2028129999817,269.2028129999817,269.2028129999817,269.2028129999817,269.2028129999817,269.2028129999817,269.2028129999817,269.2028129999817,23,0,,,269.2028129999817,269.4047322999977,1000,269.4047322999977,1000,1000,1000,1000,1,num_2,0.43897020001895726,,20,12,2026-03-02_16h28.07.723,2026A_exp2,2022.2.4,59.929367250619784,
1,0,0.0,6.1,0,0,89,89,0,,,,,269.8698880999873,270.503925099998,270.503925099998,271.0052456999838,315,45,271.0052456999838,271.0052456999838,271.0052456999838,271.0052456999838,271.0052456999838,271.0052456999838,271.0052456999838,271.0052456999838,271.0052456999838,271.3717754999816,271.3717754999816,271.3717754999816,271.3717754999816,271.3717754999816,271.3717754999816,271.3717754999816,271.3717754999816,271.3717754999816,23,0,,,271.3717754999816,271.57180700000026,0.0,271.57180700000026,0,0.0,0,1,1000,num_1,0.9686301999900024,,20,12,2026-03-02_16h28.07.723,2026A_exp2,2022.2.4,59.929367250619784,
,,,,,,,,,,,,,,,,,,,,,,,,,,,,,,,,,,,,,,,,,,,,,,,,,,,,272.5660401999776,,,,,,,
