validity,detectorcomp,contrastCW,contrastCCW,precueCWorCCW,block_80trials.thisRepN,block_80trials.thisTrialN,block_80trials.thisN,block_80trials.thisIndex,etRecord.started,etRecord.stopped,text.started,text.stopped,text_4.started,text_4.stopped,text_6.started,text_6.stopped,oriCW,oriCCW,roi_2.started,grating_UR.started,grating_UL.started,grating_LR.started,grating_LL.started,noise_UR.started,noise_UL.started,noise_LR.started,noise_LL.started,roi_2.stopped,grating_UR.stopped,grating_UL.stopped,grating_LR.stopped,grating_LL.stopped,noise_UR.stopped,noise_UL.stopped,noise_LR.stopped,noise_LL.stopped,outframe,roi_2.numLooks,roi_2.timesOn,roi_2.timesOff,text_2.started,text_2.stopped,probedcontrast,key_resp.started,respdetect,relevantContrast,correctDetect,TorFdetect,respCWorCCW,key_resp.keys,key_resp.rt,feedback_display_.started,participantNo,blockNo,date,expName,psychopyVersion,frameRate,
1,0,6.1,3.7,0,0,0,0,79,5.01000031363219e-05,5.01000031363219e-05,56.63011289999122,58.63295540001127,58.63295540001127,59.26723120000679,59.26723120000679,59.785595499997726,45,315,59.785595499997726,59.785595499997726,59.785595499997726,59.785595499997726,59.785595499997726,59.785595499997726,59.785595499997726,59.785595499997726,59.785595499997726,60.13452910000342,60.13452910000342,60.13452910000342,60.13452910000342,60.13452910000342,60.13452910000342,60.13452910000342,60.13452910000342,60.13452910000342,11,3,"[0.03492299999925308, 0.18411470000864938, 0.3006902000051923]","[0.066647900006501, 0.2341430000087712, 0.36757309999666177]",60.13452910000342,60.33491639999556,6.1,60.33491639999556,1,6.1,1,1,1000,num_4,0.7747945000010077,,20,6,2026-03-02_15h55.38.722,2026A_exp2,2022.2.4,59.806859725610536,
1000,1,4.9,6.1,1,0,1,1,4,,,,,61.13572389999172,61.78634699998656,61.78634699998656,62.270637500012526,45,45,62.270637500012526,62.270637500012526,62.270637500012526,62.270637500012526,62.270637500012526,62.270637500012526,62.270637500012526,62.270637500012526,62.270637500012526,62.637150499998825,62.637150499998825,62.637150499998825,62.637150499998825,62.637150499998825,62.637150499998825,62.637150499998825,62.637150499998825,62.637150499998825,19,1,[0.31719269999302924],[0.36719479999737814],62.637150499998825,62.84220250000362,1000,62.84220250000362,1000,1000,1000,1000,0,num_3,1.676243499998236,,20,6,2026-03-02_15h55.38.722,2026A_exp2,2022.2.4,59.806859725610536,
0,0,0.0,6.1,1,0,2,2,84,,,,,64.53916570000001,65.18974639999215,65.18974639999215,65.6908143000037,45,315,65.6908143000037,65.6908143000037,65.6908143000037,65.6908143000037,65.6908143000037,65.6908143000037,65.6908143000037,65.6908143000037,65.6908143000037,66.05729580001207,66.05729580001207,66.05729580001207,66.05729580001207,66.05729580001207,66.05729580001207,66.05729580001207,66.05729580001207,66.05729580001207,23,0,,,66.05729580001207,66.2574794999964,0.0,66.2574794999964,0,0.0,0,1,1000,num_1,0.8693235000246204,,20,6,2026-03-02_15h55.38.722,2026A_exp2,2022.2.4,59.806859725610536,
1000,1,0.0,3.7,1,0,3,3,86,,,,,67.1584378000116,67.8090773000149,67.8090773000149,68.29341360001126,45,45,68.29341360001126,68.29341360001126,68.29341360001126,68.29341360001126,68.29341360001126,68.29341360001126,68.29341360001126,68.29341360001126,68.29341360001126,68.65987329999916,68.65987329999916,68.65987329999916,68.65987329999916,68.65987329999916,68.65987329999916,68.65987329999916,68.65987329999916,68.65987329999916,0,1,[0.0012285000120755285],[0.3670722999959253],68.65987329999916,68.86189090000698,1000,68.86189090000698,1000,1000,1000,1000,1,num_2,0.5674589000118431,,20,6,2026-03-02_15h55.38.722,2026A_exp2,2022.2.4,59.806859725610536,
1000,1,0.0,0.0,1,0,4,4,78,,,,,69.46078779999516,70.11135849999846,70.11135849999846,70.61245929999859,315,45,70.61245929999859,70.61245929999859,70.61245929999859,70.61245929999859,70.61245929999859,70.61245929999859,70.61245929999859,70.61245929999859,70.61245929999859,70.97891730000265,70.97891730000265,70.97891730000265,70.97891730000265,70.97891730000265,70.97891730000265,70.97891730000265,70.97891730000265,70.97891730000265,18,1,[0.06689960000221618],[0.15042540000285953],70.97891730000265,71.18113899999298,1000,71.18113899999298,1000,1000,1000,1000,0,num_3,0.6411292999982834,,20,6,2026-03-02_15h55.38.722,2026A_exp2,2022.2.4,59.806859725610536,
1000,1,4.9,6.1,0,0,5,5,35,,,,,71.84634829999413,72.49701910000294,72.49701910000294,72.99822209999547,315,45,72.99822209999547,72.99822209999547,72.99822209999547,72.99822209999547,72.99822209999547,72.99822209999547,72.99822209999547,72.99822209999547,72.99822209999547,73.34779329999583,73.34779329999583,73.34779329999583,73.34779329999583,73.34779329999583,73.34779329999583,73.34779329999583,73.34779329999583,73.34779329999583,0,1,[0.0012343999987933785],[0.35045900000841357],73.34779329999583,73.54974019998917,1000,73.54974019998917,1000,1000,1000,1000,0,num_3,0.8482755000295583,,20,6,2026-03-02_15h55.38.722,2026A_exp2,2022.2.4,59.806859725610536,
1000,1,0.0,0.0,1,0,6,6,27,,,,,74.41537160001462,75.06626290001441,75.06626290001441,75.56744630000321,45,315,75.56744630000321,75.56744630000321,75.56744630000321,75.56744630000321,75.56744630000321,75.56744630000321,75.56744630000321,75.56744630000321,75.56744630000321,75.93384760001209,75.93384760001209,75.93384760001209,75.93384760001209,75.93384760001209,75.93384760001209,75.93384760001209,75.93384760001209,75.93384760001209,22,1,[0.35010300000431016],[0.3670935000118334],75.93384760001209,76.13584130001254,1000,76.13584130001254,1000,1000,1000,1000,0,num_3,1.1424487000040244,,20,6,2026-03-02_15h55.38.722,2026A_exp2,2022.2.4,59.806859725610536,
1,0,0.0,6.1,1,0,7,7,17,,,,,77.30175909999525,77.95223070000065,77.95223070000065,78.45354200000293,315,315,78.45354200000293,78.45354200000293,78.45354200000293,78.45354200000293,78.45354200000293,78.45354200000293,78.45354200000293,78.45354200000293,78.45354200000293,78.8033279000083,78.8033279000083,78.8033279000083,78.8033279000083,78.8033279000083,78.8033279000083,78.8033279000083,78.8033279000083,78.8033279000083,0,1,[0.0012008000048808753],[0.35071190001326613],78.8033279000083,79.00342880000244,6.1,79.02019569999538,1,6.1,1,1,1000,num_4,0.7773286000010557,,20,6,2026-03-02_15h55.38.722,2026A_exp2,2022.2.4,59.806859725610536,
1000,1,4.9,6.1,0,0,8,8,49,,,,,79.82091129999026,80.47164810000686,80.47164810000686,80.95616309999605,45,45,80.95616309999605,80.95616309999605,80.95616309999605,80.95616309999605,80.95616309999605,80.95616309999605,80.95616309999605,80.95616309999605,80.95616309999605,81.32255179999629,81.32255179999629,81.32255179999629,81.32255179999629,81.32255179999629,81.32255179999629,81.32255179999629,81.32255179999629,81.32255179999629,22,1,[0.0013194000057410449],[0.01751720000174828],81.32255179999629,81.52479620001395,1000,81.52479620001395,1000,1000,1000,1000,1,num_2,0.7057642999861855,,20,6,2026-03-02_15h55.38.722,2026A_exp2,2022.2.4,59.806859725610536,
1,0,6.1,0.0,1,0,9,9,29,,,,,82.25672060000943,82.90739119998761,82.90739119998761,83.40861539999605,315,315,83.40861539999605,83.40861539999605,83.40861539999605,83.40861539999605,83.40861539999605,83.40861539999605,83.40861539999605,83.40861539999605,83.40861539999605,83.77490429999307,83.77490429999307,83.77490429999307,83.77490429999307,83.77490429999307,83.77490429999307,83.77490429999307,83.77490429999307,83.77490429999307,23,0,,,83.77490429999307,83.97522089999984,0.0,83.97522089999984,0,0.0,0,1,1000,num_1,0.7022264000261202,,20,6,2026-03-02_15h55.38.722,2026A_exp2,2022.2.4,59.806859725610536,
1000,1,0.0,0.0,1,0,10,10,8,,,,,84.70929180001258,85.35229280000203,85.35229280000203,85.84926799999084,315,45,85.84926799999084,85.84926799999084,85.84926799999084,85.84926799999084,85.84926799999084,85.84926799999084,85.84926799999084,85.84926799999084,85.84926799999084,86.21093480000854,86.21093480000854,86.21093480000854,86.21093480000854,86.21093480000854,86.21093480000854,86.21093480000854,86.21093480000854,86.21093480000854,2,1,[0.0024923999735619873],[0.3503799999889452],86.21093480000854,86.41239310000674,1000,86.41239310000674,1000,1000,1000,1000,0,num_3,1.2408484000188764,,20,6,2026-03-02_15h55.38.722,2026A_exp2,2022.2.4,59.806859725610536,
1,0,6.1,3.7,1,0,11,11,45,,,,,87.67878290000954,88.32941619999474,88.32941619999474,88.8305502999865,315,315,88.8305502999865,88.8305502999865,88.8305502999865,88.8305502999865,88.8305502999865,88.8305502999865,88.8305502999865,88.8305502999865,88.8305502999865,89.19704900000943,89.19704900000943,89.19704900000943,89.19704900000943,89.19704900000943,89.19704900000943,89.19704900000943,89.19704900000943,89.19704900000943,23,0,,,89.19704900000943,89.3973430999904,3.7,89.3973430999904,0,3.7,1,0,1000,num_1,0.7037137000297662,,20,6,2026-03-02_15h55.38.722,2026A_exp2,2022.2.4,59.806859725610536,
1,0,4.9,0.0,0,0,12,12,57,,,,,90.1311194000009,90.78206339999451,90.78206339999451,91.26650639998843,45,45,91.26650639998843,91.26650639998843,91.26650639998843,91.26650639998843,91.26650639998843,91.26650639998843,91.26650639998843,91.26650639998843,91.26650639998843,91.63286280000466,91.63286280000466,91.63286280000466,91.63286280000466,91.63286280000466,91.63286280000466,91.63286280000466,91.63286280000466,91.63286280000466,0,1,[0.001212100003613159],[0.3673527999781072],91.63286280000466,91.83319870001287,4.9,91.83319870001287,1,4.9,1,1,1000,num_4,0.7969493999844417,,20,6,2026-03-02_15h55.38.722,2026A_exp2,2022.2.4,59.806859725610536,
1,0,0.0,0.0,0,0,13,13,64,,,,,92.65038820001064,93.30115690000821,93.30115690000821,93.78560319999815,45,315,93.78560319999815,93.78560319999815,93.78560319999815,93.78560319999815,93.78560319999815,93.78560319999815,93.78560319999815,93.78560319999815,93.78560319999815,94.15209630000754,94.15209630000754,94.15209630000754,94.15209630000754,94.15209630000754,94.15209630000754,94.15209630000754,94.15209630000754,94.15209630000754,0,1,[0.0012348000018391758],[0.3669782000069972],94.15209630000754,94.35214510001242,0.0,94.35214510001242,1,0.0,0,0,1000,num_4,0.7173802999895997,,20,6,2026-03-02_15h55.38.722,2026A_exp2,2022.2.4,59.806859725610536,
1000,1,4.9,4.9,0,0,14,14,6,,,,,95.08618740001111,95.73703839999507,95.73703839999507,96.23794990000897,45,45,96.23794990000897,96.23794990000897,96.23794990000897,96.23794990000897,96.23794990000897,96.23794990000897,96.23794990000897,96.23794990000897,96.23794990000897,96.58768150000833,96.58768150000833,96.58768150000833,96.58768150000833,96.58768150000833,96.58768150000833,96.58768150000833,96.58768150000833,96.58768150000833,0,1,[0.0012308000004850328],[0.350426899996819],96.58768150000833,96.81861069999286,1000,96.81861069999286,1000,1000,1000,1000,1,num_2,0.6990900000091642,,20,6,2026-03-02_15h55.38.722,2026A_exp2,2022.2.4,59.806859725610536,
1,0,0.0,0.0,1,0,15,15,60,,,,,97.53863769999589,98.18943399999989,98.18943399999989,98.69045530000585,45,315,98.69045530000585,98.69045530000585,98.69045530000585,98.69045530000585,98.69045530000585,98.69045530000585,98.69045530000585,98.69045530000585,98.69045530000585,99.05695359999663,99.05695359999663,99.05695359999663,99.05695359999663,99.05695359999663,99.05695359999663,99.05695359999663,99.05695359999663,99.05695359999663,0,1,[0.0012442999868653715],[0.3682688999979291],99.05695359999663,99.26026380000985,0.0,99.26026380000985,0,0.0,0,1,1000,num_1,0.6970542999915779,,20,6,2026-03-02_15h55.38.722,2026A_exp2,2022.2.4,59.806859725610536,
1,0,3.7,0.0,1,0,16,16,73,,,,,99.9743610000005,100.62520919999224,100.62520919999224,101.1261780000059,315,315,101.1261780000059,101.1261780000059,101.1261780000059,101.1261780000059,101.1261780000059,101.1261780000059,101.1261780000059,101.1261780000059,101.1261780000059,101.47598359998665,101.47598359998665,101.47598359998665,101.47598359998665,101.47598359998665,101.47598359998665,101.47598359998665,101.47598359998665,101.47598359998665,17,1,[0.2503969999961555],[0.3337494000152219],101.47598359998665,101.6761683000077,0.0,101.6761683000077,0,0.0,0,1,1000,num_1,0.8097117000143044,,20,6,2026-03-02_15h55.38.722,2026A_exp2,2022.2.4,59.806859725610536,
1000,1,0.0,0.0,1,0,17,17,63,,,,,102.51029320000089,103.16105970001081,103.16105970001081,103.64533279999159,315,315,103.64533279999159,103.64533279999159,103.64533279999159,103.64533279999159,103.64533279999159,103.64533279999159,103.64533279999159,103.64533279999159,103.64533279999159,104.01191450000624,104.01191450000624,104.01191450000624,104.01191450000624,104.01191450000624,104.01191450000624,104.01191450000624,104.01191450000624,104.01191450000624,23,0,,,104.01191450000624,104.2137733999989,1000,104.2137733999989,1000,1000,1000,1000,0,num_3,0.6247776999953203,,20,6,2026-03-02_15h55.38.722,2026A_exp2,2022.2.4,59.806859725610536,
0,0,4.9,6.1,0,0,18,18,1,,,,,104.8626753000135,105.51367360001314,105.51367360001314,106.01453069999116,45,315,106.01453069999116,106.01453069999116,106.01453069999116,106.01453069999116,106.01453069999116,106.01453069999116,106.01453069999116,106.01453069999116,106.01453069999116,106.38099090001197,106.38099090001197,106.38099090001197,106.38099090001197,106.38099090001197,106.38099090001197,106.38099090001197,106.38099090001197,106.38099090001197,23,0,,,106.38099090001197,106.58100770000601,6.1,106.58100770000601,1,6.1,1,1,1000,num_4,0.808877899980871,,20,6,2026-03-02_15h55.38.722,2026A_exp2,2022.2.4,59.806859725610536,
0,0,4.9,4.9,0,0,19,19,88,,,,,107.41516679999768,108.06587540000328,108.06587540000328,108.55030370000168,315,45,108.55030370000168,108.55030370000168,108.55030370000168,108.55030370000168,108.55030370000168,108.55030370000168,108.55030370000168,108.55030370000168,108.55030370000168,108.91664400001173,108.91664400001173,108.91664400001173,108.91664400001173,108.91664400001173,108.91664400001173,108.91664400001173,108.91664400001173,108.91664400001173,3,4,"[0.0012734999763779342, 0.11687879997771233, 0.16697749999002554, 0.3675204999744892]","[0.10030609997920692, 0.15026869997382164, 0.3505662999814376, 0.3675245999766048]",108.91664400001173,109.1169254000124,4.9,109.1169254000124,1,4.9,1,1,1000,num_4,2.2249426000053063,,20,6,2026-03-02_15h55.38.722,2026A_exp2,2022.2.4,59.806859725610536,
1000,1,4.9,4.9,0,0,20,20,36,,,,,111.36912540000048,112.01990489999298,112.01990489999298,112.50437750000856,315,45,112.50437750000856,112.50437750000856,112.50437750000856,112.50437750000856,112.50437750000856,112.50437750000856,112.50437750000856,112.50437750000856,112.50437750000856,112.8707670000149,112.8707670000149,112.8707670000149,112.8707670000149,112.8707670000149,112.8707670000149,112.8707670000149,112.8707670000149,112.8707670000149,0,1,[0.0012264999968465418],[0.36730419998639263],112.8707670000149,113.07264200001373,1000,113.07264200001373,1000,1000,1000,1000,0,num_3,0.5648443000100087,,20,6,2026-03-02_15h55.38.722,2026A_exp2,2022.2.4,59.806859725610536,
1,0,6.1,0.0,1,0,21,21,53,,,,,113.6550358000095,114.30556209999486,114.30556209999486,114.79003890001331,315,45,114.79003890001331,114.79003890001331,114.79003890001331,114.79003890001331,114.79003890001331,114.79003890001331,114.79003890001331,114.79003890001331,114.79003890001331,115.1564231000084,115.1564231000084,115.1564231000084,115.1564231000084,115.1564231000084,115.1564231000084,115.1564231000084,115.1564231000084,115.1564231000084,23,0,,,115.1564231000084,115.35669009998674,0.0,115.35669009998674,0,0.0,0,1,1000,num_1,0.6324818000139203,,20,6,2026-03-02_15h55.38.722,2026A_exp2,2022.2.4,59.806859725610536,
1,0,4.9,0.0,1,0,22,22,52,,,,,116.00697149999905,116.65784850000637,116.65784850000637,117.14221290001296,45,45,117.14221290001296,117.14221290001296,117.14221290001296,117.14221290001296,117.14221290001296,117.14221290001296,117.14221290001296,117.14221290001296,117.14221290001296,117.50866150000365,117.50866150000365,117.50866150000365,117.50866150000365,117.50866150000365,117.50866150000365,117.50866150000365,117.50866150000365,117.50866150000365,23,0,,,117.50866150000365,117.70887179998681,0.0,117.70887179998681,0,0.0,0,1,1000,num_1,0.6169858000066597,,20,6,2026-03-02_15h55.38.722,2026A_exp2,2022.2.4,59.806859725610536,
0,0,0.0,6.1,0,0,23,23,30,,,,,118.34275239999988,118.99330319999717,118.99330319999717,119.47771629999625,315,315,119.47771629999625,119.47771629999625,119.47771629999625,119.47771629999625,119.47771629999625,119.47771629999625,119.47771629999625,119.47771629999625,119.47771629999625,119.8444320000126,119.8444320000126,119.8444320000126,119.8444320000126,119.8444320000126,119.8444320000126,119.8444320000126,119.8444320000126,119.8444320000126,0,1,[0.0012366000155452639],[0.3670981000177562],119.8444320000126,120.04454249999253,6.1,120.04454249999253,1,6.1,1,1,1000,num_4,0.800599299982423,,20,6,2026-03-02_15h55.38.722,2026A_exp2,2022.2.4,59.806859725610536,
1,0,0.0,4.9,0,0,24,24,9,,,,,120.86195389999193,121.51232740000705,121.51232740000705,121.99715129999095,45,315,121.99715129999095,121.99715129999095,121.99715129999095,121.99715129999095,121.99715129999095,121.99715129999095,121.99715129999095,121.99715129999095,121.99715129999095,122.36360050001531,122.36360050001531,122.36360050001531,122.36360050001531,122.36360050001531,122.36360050001531,122.36360050001531,122.36360050001531,122.36360050001531,9,3,"[0.0012040000001434237, 0.18356499998481013, 0.33384409997961484]","[0.08303089998662472, 0.3005284999962896, 0.367128199985018]",122.36360050001531,122.56384859999525,0.0,122.56384859999525,0,0.0,0,1,1000,num_1,0.8014249000116251,,20,6,2026-03-02_15h55.38.722,2026A_exp2,2022.2.4,59.806859725610536,
1,0,0.0,0.0,0,0,25,25,31,,,,,123.38117730000522,124.03194310000981,124.03194310000981,124.51627120000194,45,315,124.51627120000194,124.51627120000194,124.51627120000194,124.51627120000194,124.51627120000194,124.51627120000194,124.51627120000194,124.51627120000194,124.51627120000194,124.88260589999845,124.88260589999845,124.88260589999845,124.88260589999845,124.88260589999845,124.88260589999845,124.88260589999845,124.88260589999845,124.88260589999845,11,1,[0.1843362000072375],[0.36712040001293644],124.88260589999845,125.08302660001209,0.0,125.08302660001209,1,0.0,0,0,1000,num_4,1.2262840000039432,,20,6,2026-03-02_15h55.38.722,2026A_exp2,2022.2.4,59.806859725610536,
1,0,3.7,0.0,0,0,26,26,15,,,,,126.33409109999775,126.98490770001081,126.98490770001081,127.46933500000159,315,315,127.46933500000159,127.46933500000159,127.46933500000159,127.46933500000159,127.46933500000159,127.46933500000159,127.46933500000159,127.46933500000159,127.46933500000159,127.83564609999303,127.83564609999303,127.83564609999303,127.83564609999303,127.83564609999303,127.83564609999303,127.83564609999303,127.83564609999303,127.83564609999303,0,1,[0.001196400000480935],[0.3673125999921467],127.83564609999303,128.03600839999854,3.7,128.03600839999854,1,3.7,1,1,1000,num_4,0.9135516000096686,,20,6,2026-03-02_15h55.38.722,2026A_exp2,2022.2.4,59.806859725610536,
0,0,4.9,3.7,1,0,27,27,13,,,,,128.97008769999957,129.60404720000224,129.60404720000224,130.10537159998785,45,315,130.10537159998785,130.10537159998785,130.10537159998785,130.10537159998785,130.10537159998785,130.10537159998785,130.10537159998785,130.10537159998785,130.10537159998785,130.47168069999316,130.47168069999316,130.47168069999316,130.47168069999316,130.47168069999316,130.47168069999316,130.47168069999316,130.47168069999316,130.47168069999316,23,0,,,130.47168069999316,130.67190950000077,4.9,130.67190950000077,0,4.9,1,0,1000,num_1,1.2610989000240806,,20,6,2026-03-02_15h55.38.722,2026A_exp2,2022.2.4,59.806859725610536,
1,0,6.1,0.0,1,0,28,28,23,,,,,131.95636179999565,132.60708600000362,132.60708600000362,133.0916292000038,315,45,133.0916292000038,133.0916292000038,133.0916292000038,133.0916292000038,133.0916292000038,133.0916292000038,133.0916292000038,133.0916292000038,133.0916292000038,133.45800370001234,133.45800370001234,133.45800370001234,133.45800370001234,133.45800370001234,133.45800370001234,133.45800370001234,133.45800370001234,133.45800370001234,23,0,,,133.45800370001234,133.65826870000456,0.0,133.65826870000456,0,0.0,0,1,1000,num_1,0.7390413000248373,,20,6,2026-03-02_15h55.38.722,2026A_exp2,2022.2.4,59.806859725610536,
1,0,6.1,0.0,0,0,29,29,58,,,,,134.42541820000042,135.0762667999952,135.0762667999952,135.56066170000122,45,315,135.56066170000122,135.56066170000122,135.56066170000122,135.56066170000122,135.56066170000122,135.56066170000122,135.56066170000122,135.56066170000122,135.56066170000122,135.92721059999894,135.92721059999894,135.92721059999894,135.92721059999894,135.92721059999894,135.92721059999894,135.92721059999894,135.92721059999894,135.92721059999894,0,1,[0.0012415999954100698],[0.36721549998037517],135.92721059999894,136.12723429998732,6.1,136.12723429998732,1,6.1,1,1,1000,num_4,1.2065180000208784,,20,6,2026-03-02_15h55.38.722,2026A_exp2,2022.2.4,59.806859725610536,
1000,1,0.0,4.9,1,0,30,30,51,,,,,137.36180610000156,138.01221769998665,138.01221769998665,138.49699829999008,45,315,138.49699829999008,138.49699829999008,138.49699829999008,138.49699829999008,138.49699829999008,138.49699829999008,138.49699829999008,138.49699829999008,138.49699829999008,138.86338900000555,138.86338900000555,138.86338900000555,138.86338900000555,138.86338900000555,138.86338900000555,138.86338900000555,138.86338900000555,138.86338900000555,0,1,[0.001211499999044463],[0.367339099990204],138.86338900000555,139.06557979999343,1000,139.06557979999343,1000,1000,1000,1000,1,num_2,0.5481473999971058,,20,6,2026-03-02_15h55.38.722,2026A_exp2,2022.2.4,59.806859725610536,
0,0,0.0,0.0,0,0,31,31,20,,,,,139.630740099994,140.28163310000673,140.28163310000673,140.78256729998975,45,45,140.78256729998975,140.78256729998975,140.78256729998975,140.78256729998975,140.78256729998975,140.78256729998975,140.78256729998975,140.78256729998975,140.78256729998975,141.1321692999918,141.1321692999918,141.1321692999918,141.1321692999918,141.1321692999918,141.1321692999918,141.1321692999918,141.1321692999918,141.1321692999918,0,1,[0.0012197000032756478],[0.35007909999694675],141.1321692999918,141.33255339998868,0.0,141.3491941000102,0,0.0,0,1,1000,num_1,3.2645929000282194,,20,6,2026-03-02_15h55.38.722,2026A_exp2,2022.2.4,59.806859725610536,
1000,1,0.0,0.0,0,0,32,32,33,,,,,144.6356866999995,145.2863658000133,145.2863658000133,145.77119960001437,45,45,145.77119960001437,145.77119960001437,145.77119960001437,145.77119960001437,145.77119960001437,145.77119960001437,145.77119960001437,145.77119960001437,145.77119960001437,146.13735319999978,146.13735319999978,146.13735319999978,146.13735319999978,146.13735319999978,146.13735319999978,146.13735319999978,146.13735319999978,146.13735319999978,23,0,,,146.13735319999978,146.33913030000986,1000,146.33913030000986,1000,1000,1000,1000,0,num_3,0.5863241000042763,,20,6,2026-03-02_15h55.38.722,2026A_exp2,2022.2.4,59.806859725610536,
1000,1,0.0,0.0,1,0,33,33,80,,,,,146.95475400000578,147.6053402000107,147.6053402000107,148.1065721999912,45,45,148.1065721999912,148.1065721999912,148.1065721999912,148.1065721999912,148.1065721999912,148.1065721999912,148.1065721999912,148.1065721999912,148.1065721999912,148.4730259999924,148.4730259999924,148.4730259999924,148.4730259999924,148.4730259999924,148.4730259999924,148.4730259999924,148.4730259999924,148.4730259999924,23,0,,,148.4730259999924,148.6954274000018,1000,148.6954274000018,1000,1000,1000,1000,0,num_3,0.8859870999876875,,20,6,2026-03-02_15h55.38.722,2026A_exp2,2022.2.4,59.806859725610536,
0,0,0.0,6.1,0,0,34,34,12,,,,,149.60762570000952,150.24644049999188,150.24644049999188,150.74269549999735,45,45,150.74269549999735,150.74269549999735,150.74269549999735,150.74269549999735,150.74269549999735,150.74269549999735,150.74269549999735,150.74269549999735,150.74269549999735,151.1088260000106,151.1088260000106,151.1088260000106,151.1088260000106,151.1088260000106,151.1088260000106,151.1088260000106,151.1088260000106,151.1088260000106,23,0,,,151.1088260000106,151.30911390000256,6.1,151.30911390000256,1,6.1,1,1,1000,num_4,0.7607961000176147,,20,6,2026-03-02_15h55.38.722,2026A_exp2,2022.2.4,59.806859725610536,
1000,1,3.7,0.0,0,0,35,35,28,,,,,152.09345600000233,152.7273029999924,152.7273029999924,153.22843190000276,45,45,153.22843190000276,153.22843190000276,153.22843190000276,153.22843190000276,153.22843190000276,153.22843190000276,153.22843190000276,153.22843190000276,153.22843190000276,153.5947512999992,153.5947512999992,153.5947512999992,153.5947512999992,153.5947512999992,153.5947512999992,153.5947512999992,153.5947512999992,153.5947512999992,23,0,,,153.5947512999992,153.7974855999928,1000,153.7974855999928,1000,1000,1000,1000,0,num_3,0.5283321000169963,,20,6,2026-03-02_15h55.38.722,2026A_exp2,2022.2.4,59.806859725610536,
1,0,0.0,0.0,0,0,36,36,75,,,,,154.34530300000915,154.99621650000336,154.99621650000336,155.49749539999175,315,315,155.49749539999175,155.49749539999175,155.49749539999175,155.49749539999175,155.49749539999175,155.49749539999175,155.49749539999175,155.49749539999175,155.49749539999175,155.86371080001118,155.86371080001118,155.86371080001118,155.86371080001118,155.86371080001118,155.86371080001118,155.86371080001118,155.86371080001118,155.86371080001118,22,1,[0.0012481000158004463],[0.017293999990215525],155.86371080001118,156.06390129998908,0.0,156.06390129998908,1,0.0,0,0,1000,num_4,0.9015672999958042,,20,6,2026-03-02_15h55.38.722,2026A_exp2,2022.2.4,59.806859725610536,
0,0,3.7,0.0,0,0,37,37,16,,,,,156.98142930000904,157.63217639998766,157.63217639998766,158.1166971999919,45,315,158.1166971999919,158.1166971999919,158.1166971999919,158.1166971999919,158.1166971999919,158.1166971999919,158.1166971999919,158.1166971999919,158.1166971999919,158.4830304000061,158.4830304000061,158.4830304000061,158.4830304000061,158.4830304000061,158.4830304000061,158.4830304000061,158.4830304000061,158.4830304000061,23,0,,,158.4830304000061,158.68329059999087,0.0,158.68329059999087,0,0.0,0,1,1000,num_1,2.0104557999875396,,20,6,2026-03-02_15h55.38.722,2026A_exp2,2022.2.4,59.806859725610536,
1,0,4.9,3.7,0,0,38,38,89,,,,,160.71844739999506,161.36914419999812,161.36914419999812,161.8537018999923,45,315,161.8537018999923,161.8537018999923,161.8537018999923,161.8537018999923,161.8537018999923,161.8537018999923,161.8537018999923,161.8537018999923,161.8537018999923,162.22005619999254,162.22005619999254,162.22005619999254,162.22005619999254,162.22005619999254,162.22005619999254,162.22005619999254,162.22005619999254,162.22005619999254,23,0,,,162.22005619999254,162.42056389999925,4.9,162.42056389999925,1,4.9,1,1,1000,num_4,1.3535642999922857,,20,6,2026-03-02_15h55.38.722,2026A_exp2,2022.2.4,59.806859725610536,
1,0,3.7,0.0,1,0,39,39,55,,,,,163.78849169999012,164.43901170001482,164.43901170001482,164.94017919999897,45,315,164.94017919999897,164.94017919999897,164.94017919999897,164.94017919999897,164.94017919999897,164.94017919999897,164.94017919999897,164.94017919999897,164.94017919999897,165.3065523999976,165.3065523999976,165.3065523999976,165.3065523999976,165.3065523999976,165.3065523999976,165.3065523999976,165.3065523999976,165.3065523999976,23,0,,,165.3065523999976,165.5065969999996,0.0,165.5065969999996,0,0.0,0,1,1000,num_1,1.0918880999961402,,20,6,2026-03-02_15h55.38.722,2026A_exp2,2022.2.4,59.806859725610536,
1,0,0.0,0.0,1,0,40,40,42,,,,,166.6242893000017,167.25854949999484,167.25854949999484,167.75950129999546,315,315,167.75950129999546,167.75950129999546,167.75950129999546,167.75950129999546,167.75950129999546,167.75950129999546,167.75950129999546,167.75950129999546,167.75950129999546,168.12610699998913,168.12610699998913,168.12610699998913,168.12610699998913,168.12610699998913,168.12610699998913,168.12610699998913,168.12610699998913,168.12610699998913,23,0,,,168.12610699998913,168.3262698999897,0.0,168.3262698999897,0,0.0,0,1,1000,num_1,1.3029949000047054,,20,6,2026-03-02_15h55.38.722,2026A_exp2,2022.2.4,59.806859725610536,
1000,1,4.9,0.0,0,0,41,41,82,,,,,169.66067340000882,170.31174880001345,170.31174880001345,170.79596389998915,315,315,170.79596389998915,170.79596389998915,170.79596389998915,170.79596389998915,170.79596389998915,170.79596389998915,170.79596389998915,170.79596389998915,170.79596389998915,171.1623205000069,171.1623205000069,171.1623205000069,171.1623205000069,171.1623205000069,171.1623205000069,171.1623205000069,171.1623205000069,171.1623205000069,23,0,,,171.1623205000069,171.36471550000715,1000,171.36471550000715,1000,1000,1000,1000,0,num_3,0.4810128000099212,,20,6,2026-03-02_15h55.38.722,2026A_exp2,2022.2.4,59.806859725610536,
1000,1,0.0,6.1,0,0,42,42,5,,,,,171.86296359999687,172.51383569999598,172.51383569999598,173.02021330001298,315,315,173.02021330001298,173.02021330001298,173.02021330001298,173.02021330001298,173.02021330001298,173.02021330001298,173.02021330001298,173.02021330001298,173.02021330001298,173.38147480000043,173.38147480000043,173.38147480000043,173.38147480000043,173.38147480000043,173.38147480000043,173.38147480000043,173.38147480000043,173.38147480000043,23,0,,,173.38147480000043,173.58334990000003,1000,173.58334990000003,1000,1000,1000,1000,1,num_2,0.42305889999261126,,20,6,2026-03-02_15h55.38.722,2026A_exp2,2022.2.4,59.806859725610536,
1000,1,4.9,3.7,0,0,43,43,26,,,,,174.03179529999034,174.68260170001304,174.68260170001304,175.1837116999959,315,315,175.1837116999959,175.1837116999959,175.1837116999959,175.1837116999959,175.1837116999959,175.1837116999959,175.1837116999959,175.1837116999959,175.1837116999959,175.53345519999857,175.53345519999857,175.53345519999857,175.53345519999857,175.53345519999857,175.53345519999857,175.53345519999857,175.53345519999857,175.53345519999857,22,0,,,175.53345519999857,175.73529559999588,1000,175.73529559999588,1000,1000,1000,1000,0,num_3,1.0141911999962758,,20,6,2026-03-02_15h55.38.722,2026A_exp2,2022.2.4,59.806859725610536,
1,0,0.0,4.9,1,0,44,44,2,,,,,176.7678733000066,177.41871560001164,177.41871560001164,177.91970940001193,315,315,177.91970940001193,177.91970940001193,177.91970940001193,177.91970940001193,177.91970940001193,177.91970940001193,177.91970940001193,177.91970940001193,177.91970940001193,178.26949899998726,178.26949899998726,178.26949899998726,178.26949899998726,178.26949899998726,178.26949899998726,178.26949899998726,178.26949899998726,178.26949899998726,18,4,"[0.0012419999984558672, 0.05016459999023937, 0.08359460000065155, 0.1503585999889765]","[0.017396699986420572, 0.06684099999256432, 0.10036869999021292, 0.16695919999619946]",178.26949899998726,178.46956359999604,4.9,178.46956359999604,1,4.9,1,1,1000,num_4,0.720173599984264,,20,6,2026-03-02_15h55.38.722,2026A_exp2,2022.2.4,59.806859725610536,
0,0,6.1,0.0,0,0,45,45,65,,,,,179.2201711999951,179.85441629998968,179.85441629998968,180.35556259998702,315,45,180.35556259998702,180.35556259998702,180.35556259998702,180.35556259998702,180.35556259998702,180.35556259998702,180.35556259998702,180.35556259998702,180.35556259998702,180.7219807000074,180.7219807000074,180.7219807000074,180.7219807000074,180.7219807000074,180.7219807000074,180.7219807000074,180.7219807000074,180.7219807000074,23,0,,,180.7219807000074,180.9221736000036,0.0,180.9221736000036,0,0.0,0,1,1000,num_1,0.5951208000187762,,20,6,2026-03-02_15h55.38.722,2026A_exp2,2022.2.4,59.806859725610536,
1,0,4.9,6.1,1,0,46,46,62,,,,,181.53924809998716,182.1900556999899,182.1900556999899,182.67452560001402,45,45,182.67452560001402,182.67452560001402,182.67452560001402,182.67452560001402,182.67452560001402,182.67452560001402,182.67452560001402,182.67452560001402,182.67452560001402,183.04100870000548,183.04100870000548,183.04100870000548,183.04100870000548,183.04100870000548,183.04100870000548,183.04100870000548,183.04100870000548,183.04100870000548,3,1,[0.0010824000055436045],[0.3340377999993507],183.04100870000548,183.2410424000118,6.1,183.2410424000118,1,6.1,1,1,1000,num_4,1.692195100011304,,20,6,2026-03-02_15h55.38.722,2026A_exp2,2022.2.4,59.806859725610536,
1,0,0.0,0.0,1,0,47,47,24,,,,,184.95939000000362,185.6102213000122,185.6102213000122,186.11139120001462,45,45,186.11139120001462,186.11139120001462,186.11139120001462,186.11139120001462,186.11139120001462,186.11139120001462,186.11139120001462,186.11139120001462,186.11139120001462,186.46094029999222,186.46094029999222,186.46094029999222,186.46094029999222,186.46094029999222,186.46094029999222,186.46094029999222,186.46094029999222,186.46094029999222,4,2,"[0.0008174999966286123, 0.28363859999808483]","[0.2501436000165995, 0.3336410000047181]",186.46094029999222,186.6612931000127,0.0,186.6612931000127,0,0.0,0,1,1000,num_1,1.1363983000046574,,20,6,2026-03-02_15h55.38.722,2026A_exp2,2022.2.4,59.806859725610536,
1000,1,0.0,6.1,1,0,48,48,40,,,,,187.8289029999869,188.47961750000832,188.47961750000832,188.98092249999172,315,45,188.98092249999172,188.98092249999172,188.98092249999172,188.98092249999172,188.98092249999172,188.98092249999172,188.98092249999172,188.98092249999172,188.98092249999172,189.33055069998954,189.33055069998954,189.33055069998954,189.33055069998954,189.33055069998954,189.33055069998954,189.33055069998954,189.33055069998954,189.33055069998954,0,1,[0.001210899994475767],[0.3508002000162378],189.33055069998954,189.53263229998993,1000,189.53263229998993,1000,1000,1000,1000,1,num_2,0.4009913000045344,,20,6,2026-03-02_15h55.38.722,2026A_exp2,2022.2.4,59.806859725610536,
1,0,4.9,0.0,0,0,49,49,14,,,,,189.96489020000445,190.61517710000044,190.61517710000044,191.09941980001167,45,45,191.09941980001167,191.09941980001167,191.09941980001167,191.09941980001167,191.09941980001167,191.09941980001167,191.09941980001167,191.09941980001167,191.09941980001167,191.4658683000016,191.4658683000016,191.4658683000016,191.4658683000016,191.4658683000016,191.4658683000016,191.4658683000016,191.4658683000016,191.4658683000016,0,1,[0.0012260999938007444],[0.36699680000310764],191.4658683000016,191.66623609999078,4.9,191.66623609999078,1,4.9,1,1,1000,num_4,0.7629054999852087,,20,6,2026-03-02_15h55.38.722,2026A_exp2,2022.2.4,59.806859725610536,
1,0,0.0,4.9,0,0,50,50,48,,,,,192.45017440000083,193.10097140001017,193.10097140001017,193.5854471999919,315,315,193.5854471999919,193.5854471999919,193.5854471999919,193.5854471999919,193.5854471999919,193.5854471999919,193.5854471999919,193.5854471999919,193.5854471999919,193.95187710001483,193.95187710001483,193.95187710001483,193.95187710001483,193.95187710001483,193.95187710001483,193.95187710001483,193.95187710001483,193.95187710001483,23,0,,,193.95187710001483,194.15202879998833,0.0,194.15202879998833,0,0.0,0,1,1000,num_1,0.6056559999997262,,20,6,2026-03-02_15h55.38.722,2026A_exp2,2022.2.4,59.806859725610536,
0,0,0.0,0.0,0,0,51,51,10,,,,,194.78587789999438,195.43673200000194,195.43673200000194,195.92098769999575,315,45,195.92098769999575,195.92098769999575,195.92098769999575,195.92098769999575,195.92098769999575,195.92098769999575,195.92098769999575,195.92098769999575,195.92098769999575,196.28733699998702,196.28733699998702,196.28733699998702,196.28733699998702,196.28733699998702,196.28733699998702,196.28733699998702,196.28733699998702,196.28733699998702,23,0,,,196.28733699998702,196.48777159999008,0.0,196.48777159999008,1,0.0,0,0,1000,num_4,1.4299929000262637,,20,6,2026-03-02_15h55.38.722,2026A_exp2,2022.2.4,59.806859725610536,
1000,1,4.9,4.9,1,0,52,52,67,,,,,197.9389683000045,198.58967950000078,198.58967950000078,199.07428739999887,315,45,199.07428739999887,199.07428739999887,199.07428739999887,199.07428739999887,199.07428739999887,199.07428739999887,199.07428739999887,199.07428739999887,199.07428739999887,199.44072039998719,199.44072039998719,199.44072039998719,199.44072039998719,199.44072039998719,199.44072039998719,199.44072039998719,199.44072039998719,199.44072039998719,23,0,,,199.44072039998719,199.64244779999717,1000,199.64244779999717,1000,1000,1000,1000,0,num_3,0.5079639999894425,,20,6,2026-03-02_15h55.38.722,2026A_exp2,2022.2.4,59.806859725610536,
1000,1,6.1,0.0,1,0,53,53,61,,,,,200.17457110001124,200.82550040000933,200.82550040000933,201.32640379999066,315,45,201.32640379999066,201.32640379999066,201.32640379999066,201.32640379999066,201.32640379999066,201.32640379999066,201.32640379999066,201.32640379999066,201.32640379999066,201.69283499999437,201.69283499999437,201.69283499999437,201.69283499999437,201.69283499999437,201.69283499999437,201.69283499999437,201.69283499999437,201.69283499999437,0,1,[0.0009169000259134918],[0.3673912000085693],201.69283499999437,201.89485109999077,1000,201.89485109999077,1000,1000,1000,1000,0,num_3,0.43922900001052767,,20,6,2026-03-02_15h55.38.722,2026A_exp2,2022.2.4,59.806859725610536,
1,0,4.9,0.0,0,0,54,54,47,,,,,202.36020349999308,203.01079800000298,203.01079800000298,203.50498830000288,315,315,203.50498830000288,203.50498830000288,203.50498830000288,203.50498830000288,203.50498830000288,203.50498830000288,203.50498830000288,203.50498830000288,203.50498830000288,203.8616839000024,203.8616839000024,203.8616839000024,203.8616839000024,203.8616839000024,203.8616839000024,203.8616839000024,203.8616839000024,203.8616839000024,1,1,[0.004256300017004833],[0.36418590001994744],203.8616839000024,204.06186529999832,4.9,204.06186529999832,1,4.9,1,1,1000,num_4,0.7838357000146061,,20,6,2026-03-02_15h55.38.722,2026A_exp2,2022.2.4,59.806859725610536,
1,0,3.7,3.7,1,0,55,55,11,,,,,204.8626341999916,205.51343399999314,205.51343399999314,205.99787079999805,315,315,205.99787079999805,205.99787079999805,205.99787079999805,205.99787079999805,205.99787079999805,205.99787079999805,205.99787079999805,205.99787079999805,205.99787079999805,206.36415350000607,206.36415350000607,206.36415350000607,206.36415350000607,206.36415350000607,206.36415350000607,206.36415350000607,206.36415350000607,206.36415350000607,23,0,,,206.36415350000607,206.564446400007,3.7,206.564446400007,0,3.7,1,0,1000,num_1,0.8970685999956913,,20,6,2026-03-02_15h55.38.722,2026A_exp2,2022.2.4,59.806859725610536,
1000,1,3.7,0.0,1,0,56,56,54,,,,,207.48181500000646,208.13272339999094,208.13272339999094,208.6171067999967,315,45,208.6171067999967,208.6171067999967,208.6171067999967,208.6171067999967,208.6171067999967,208.6171067999967,208.6171067999967,208.6171067999967,208.6171067999967,208.98337699999684,208.98337699999684,208.98337699999684,208.98337699999684,208.98337699999684,208.98337699999684,208.98337699999684,208.98337699999684,208.98337699999684,23,0,,,208.98337699999684,209.1856182999909,1000,209.1856182999909,1000,1000,1000,1000,0,num_3,0.3962754000094719,,20,6,2026-03-02_15h55.38.722,2026A_exp2,2022.2.4,59.806859725610536,
1,0,0.0,4.9,1,0,57,57,44,,,,,209.6006575000065,210.25145179999527,210.25145179999527,210.75250299999607,45,45,210.75250299999607,210.75250299999607,210.75250299999607,210.75250299999607,210.75250299999607,210.75250299999607,210.75250299999607,210.75250299999607,210.75250299999607,211.11893659998896,211.11893659998896,211.11893659998896,211.11893659998896,211.11893659998896,211.11893659998896,211.11893659998896,211.11893659998896,211.11893659998896,23,0,,,211.11893659998896,211.31896460001008,4.9,211.31896460001008,1,4.9,1,1,1000,num_4,0.7665176999871619,,20,6,2026-03-02_15h55.38.722,2026A_exp2,2022.2.4,59.806859725610536,
1,0,0.0,6.1,0,0,58,58,3,,,,,212.10315529999207,212.7373682000034,212.7373682000034,213.23861339999712,45,315,213.23861339999712,213.23861339999712,213.23861339999712,213.23861339999712,213.23861339999712,213.23861339999712,213.23861339999712,213.23861339999712,213.23861339999712,213.60479539999506,213.60479539999506,213.60479539999506,213.60479539999506,213.60479539999506,213.60479539999506,213.60479539999506,213.60479539999506,213.60479539999506,23,0,,,213.60479539999506,213.81140800000867,0.0,213.81140800000867,0,0.0,0,1,1000,num_1,0.6975629999942612,,20,6,2026-03-02_15h55.38.722,2026A_exp2,2022.2.4,59.806859725610536,
1,0,0.0,6.1,1,0,59,59,39,,,,,214.53897029999644,215.1897495999874,215.1897495999874,215.69074660001206,45,45,215.69074660001206,215.69074660001206,215.69074660001206,215.69074660001206,215.69074660001206,215.69074660001206,215.69074660001206,215.69074660001206,215.69074660001206,216.05720290000318,216.05720290000318,216.05720290000318,216.05720290000318,216.05720290000318,216.05720290000318,216.05720290000318,216.05720290000318,216.05720290000318,7,4,"[0.05016680000699125, 0.08391990000382066, 0.15022640000097454, 0.18351820000680164]","[0.06680589998723008, 0.13349849998485297, 0.16687389998696744, 0.36710189998848364]",216.05720290000318,216.25753520001308,6.1,216.25753520001308,1,6.1,1,1,1000,num_4,0.6517335000098683,,20,6,2026-03-02_15h55.38.722,2026A_exp2,2022.2.4,59.806859725610536,
1,0,6.1,4.9,1,0,60,60,38,,,,,216.94151219999185,217.57532699999865,217.57532699999865,218.0765139000141,315,315,218.0765139000141,218.0765139000141,218.0765139000141,218.0765139000141,218.0765139000141,218.0765139000141,218.0765139000141,218.0765139000141,218.0765139000141,218.4428607999871,218.4428607999871,218.4428607999871,218.4428607999871,218.4428607999871,218.4428607999871,218.4428607999871,218.4428607999871,218.4428607999871,23,0,,,218.4428607999871,218.64310449999175,4.9,218.64310449999175,0,4.9,1,0,1000,num_1,1.4665015999926254,,20,6,2026-03-02_15h55.38.722,2026A_exp2,2022.2.4,59.806859725610536,
1000,1,0.0,3.7,0,0,61,61,18,,,,,220.12781840001117,220.7786400000041,220.7786400000041,221.2630705999909,315,45,221.2630705999909,221.2630705999909,221.2630705999909,221.2630705999909,221.2630705999909,221.2630705999909,221.2630705999909,221.2630705999909,221.2630705999909,221.6294409999973,221.6294409999973,221.6294409999973,221.6294409999973,221.6294409999973,221.6294409999973,221.6294409999973,221.6294409999973,221.6294409999973,11,3,"[0.15023560001282021, 0.21695860000909306, 0.3336112000106368]","[0.20034390001092106, 0.31690700000035577, 0.36713440000312403]",221.6294409999973,221.83193380001467,1000,221.83193380001467,1000,1000,1000,1000,1,num_2,0.6452885000035167,,20,6,2026-03-02_15h55.38.722,2026A_exp2,2022.2.4,59.806859725610536,
1000,1,0.0,3.7,1,0,62,62,81,,,,,222.49692000000505,223.14774340001168,223.14774340001168,223.6487621999986,315,315,223.6487621999986,223.6487621999986,223.6487621999986,223.6487621999986,223.6487621999986,223.6487621999986,223.6487621999986,223.6487621999986,223.6487621999986,224.01522170001408,224.01522170001408,224.01522170001408,224.01522170001408,224.01522170001408,224.01522170001408,224.01522170001408,224.01522170001408,224.01522170001408,23,0,,,224.01522170001408,224.21731480001472,1000,224.21731480001472,1000,1000,1000,1000,1,num_2,0.6201087000081316,,20,6,2026-03-02_15h55.38.722,2026A_exp2,2022.2.4,59.806859725610536,
1,0,0.0,3.7,0,0,63,63,34,,,,,224.86620129999937,225.50007199999527,225.50007199999527,226.00107930001104,315,315,226.00107930001104,226.00107930001104,226.00107930001104,226.00107930001104,226.00107930001104,226.00107930001104,226.00107930001104,226.00107930001104,226.00107930001104,226.36759119998896,226.36759119998896,226.36759119998896,226.36759119998896,226.36759119998896,226.36759119998896,226.36759119998896,226.36759119998896,226.36759119998896,15,1,[0.0012889000063296407],[0.1335401000105776],226.36759119998896,226.56770019998658,0.0,226.56770019998658,0,0.0,0,1,1000,num_1,1.269655000010971,,20,6,2026-03-02_15h55.38.722,2026A_exp2,2022.2.4,59.806859725610536,
1,0,0.0,0.0,1,0,64,64,56,,,,,227.86889159999555,228.5196891000087,228.5196891000087,229.00417010000092,315,45,229.00417010000092,229.00417010000092,229.00417010000092,229.00417010000092,229.00417010000092,229.00417010000092,229.00417010000092,229.00417010000092,229.00417010000092,229.3704943000048,229.3704943000048,229.3704943000048,229.3704943000048,229.3704943000048,229.3704943000048,229.3704943000048,229.3704943000048,229.3704943000048,0,1,[0.001334800006588921],[0.366782900004182],229.3704943000048,229.57077520000166,0.0,229.57077520000166,0,0.0,0,1,1000,num_1,0.6833409999962896,,20,6,2026-03-02_15h55.38.722,2026A_exp2,2022.2.4,59.806859725610536,
1000,1,4.9,6.1,0,0,65,65,59,,,,,230.27135170000838,230.9221336999908,230.9221336999908,231.40634009998757,45,45,231.40634009998757,231.40634009998757,231.40634009998757,231.40634009998757,231.40634009998757,231.40634009998757,231.40634009998757,231.40634009998757,231.40634009998757,231.77274499999476,231.77274499999476,231.77274499999476,231.77274499999476,231.77274499999476,231.77274499999476,231.77274499999476,231.77274499999476,231.77274499999476,10,2,"[0.001277399976970628, 0.050155799981439486]","[0.03296729997964576, 0.23369669998646714]",231.77274499999476,231.9750958000077,1000,231.9750958000077,1000,1000,1000,1000,1,num_2,0.5586691999924369,,20,6,2026-03-02_15h55.38.722,2026A_exp2,2022.2.4,59.806859725610536,
0,0,3.7,0.0,1,0,66,66,0,,,,,232.55703190001077,233.20772110001417,233.20772110001417,233.70887450000737,315,45,233.70887450000737,233.70887450000737,233.70887450000737,233.70887450000737,233.70887450000737,233.70887450000737,233.70887450000737,233.70887450000737,233.70887450000737,234.05859190001502,234.05859190001502,234.05859190001502,234.05859190001502,234.05859190001502,234.05859190001502,234.05859190001502,234.05859190001502,234.05859190001502,0,1,[0.001248600019607693],[0.35044559999369085],234.05859190001502,234.25876009999774,3.7,234.27548320000642,1,3.7,1,1,1000,num_4,0.9787536000076216,,20,6,2026-03-02_15h55.38.722,2026A_exp2,2022.2.4,59.806859725610536,
1000,1,0.0,3.7,0,0,67,67,21,,,,,235.27638689999003,235.92715959998895,235.92715959998895,236.4116423999949,45,45,236.4116423999949,236.4116423999949,236.4116423999949,236.4116423999949,236.4116423999949,236.4116423999949,236.4116423999949,236.4116423999949,236.4116423999949,236.77791850001086,236.77791850001086,236.77791850001086,236.77791850001086,236.77791850001086,236.77791850001086,236.77791850001086,236.77791850001086,236.77791850001086,19,2,"[0.10010280000278726, 0.1999542000121437]","[0.13338529999600723, 0.23349360001157038]",236.77791850001086,236.98005980000016,1000,236.98005980000016,1000,1000,1000,1000,1,num_2,0.49047069999505766,,20,6,2026-03-02_15h55.38.722,2026A_exp2,2022.2.4,59.806859725610536,
1,0,3.7,4.9,0,0,68,68,70,,,,,237.49526590001187,238.1460087999876,238.1460087999876,238.6472078000079,45,45,238.6472078000079,238.6472078000079,238.6472078000079,238.6472078000079,238.6472078000079,238.6472078000079,238.6472078000079,238.6472078000079,238.6472078000079,239.01327950000996,239.01327950000996,239.01327950000996,239.01327950000996,239.01327950000996,239.01327950000996,239.01327950000996,239.01327950000996,239.01327950000996,7,3,"[0.0012079000007361174, 0.06687060001422651, 0.23376380000263453]","[0.050362200010567904, 0.2171935000224039, 0.28377959999488667]",239.01327950000996,239.21350650000386,3.7,239.21350650000386,0,3.7,1,0,1000,num_1,1.3047019999939948,,20,6,2026-03-02_15h55.38.722,2026A_exp2,2022.2.4,59.806859725610536,
1,0,0.0,0.0,1,0,69,69,68,,,,,240.54852949999622,241.18236830001115,241.18236830001115,241.683572000009,315,45,241.683572000009,241.683572000009,241.683572000009,241.683572000009,241.683572000009,241.683572000009,241.683572000009,241.683572000009,241.683572000009,242.05005690001417,242.05005690001417,242.05005690001417,242.05005690001417,242.05005690001417,242.05005690001417,242.05005690001417,242.05005690001417,242.05005690001417,0,1,[0.001260999997612089],[0.3669291000114754],242.05005690001417,242.25007780001033,0.0,242.25007780001033,0,0.0,0,1,1000,num_1,1.4031277000030968,,20,6,2026-03-02_15h55.38.722,2026A_exp2,2022.2.4,59.806859725610536,
1,0,6.1,0.0,1,0,70,70,41,,,,,243.6848231999902,244.33557029999793,244.33557029999793,244.83672849999857,45,315,244.83672849999857,244.83672849999857,244.83672849999857,244.83672849999857,244.83672849999857,244.83672849999857,244.83672849999857,244.83672849999857,244.83672849999857,245.18646140000783,245.18646140000783,245.18646140000783,245.18646140000783,245.18646140000783,245.18646140000783,245.18646140000783,245.18646140000783,245.18646140000783,22,0,,,245.18646140000783,245.38661330001196,0.0,245.38661330001196,0,0.0,0,1,1000,num_1,0.5863092000072356,,20,6,2026-03-02_15h55.38.722,2026A_exp2,2022.2.4,59.806859725610536,
1000,1,6.1,0.0,1,0,71,71,71,,,,,246.00375520001398,246.63782730000094,246.63782730000094,247.13893399998778,315,315,247.13893399998778,247.13893399998778,247.13893399998778,247.13893399998778,247.13893399998778,247.13893399998778,247.13893399998778,247.13893399998778,247.13893399998778,247.5054189999937,247.5054189999937,247.5054189999937,247.5054189999937,247.5054189999937,247.5054189999937,247.5054189999937,247.5054189999937,247.5054189999937,0,1,[0.0011989000195171684],[0.36734150000847876],247.5054189999937,247.7075152999896,1000,247.7075152999896,1000,1000,1000,1000,0,num_3,0.4897929000144359,,20,6,2026-03-02_15h55.38.722,2026A_exp2,2022.2.4,59.806859725610536,
1,0,0.0,0.0,0,0,72,72,87,,,,,248.22280019999016,248.87344230001327,248.87344230001327,249.37457069999073,45,45,249.37457069999073,249.37457069999073,249.37457069999073,249.37457069999073,249.37457069999073,249.37457069999073,249.37457069999073,249.37457069999073,249.37457069999073,249.74101249998785,249.74101249998785,249.74101249998785,249.74101249998785,249.74101249998785,249.74101249998785,249.74101249998785,249.74101249998785,249.74101249998785,0,1,[0.0012808000028599054],[0.36701909999828786],249.74101249998785,249.94108250000863,0.0,249.94108250000863,1,0.0,0,0,1000,num_4,1.345192800014047,,20,6,2026-03-02_15h55.38.722,2026A_exp2,2022.2.4,59.806859725610536,
1,0,0.0,0.0,1,0,73,73,77,,,,,251.30910049998784,251.95983159999014,251.95983159999014,252.44433080000454,45,315,252.44433080000454,252.44433080000454,252.44433080000454,252.44433080000454,252.44433080000454,252.44433080000454,252.44433080000454,252.44433080000454,252.44433080000454,252.81065870000748,252.81065870000748,252.81065870000748,252.81065870000748,252.81065870000748,252.81065870000748,252.81065870000748,252.81065870000748,252.81065870000748,6,2,"[0.0012052999809384346, 0.31708599999547005]","[0.23386359997675754, 0.3504067999892868]",252.81065870000748,253.01073629999883,0.0,253.01073629999883,1,0.0,0,0,1000,num_4,0.9955918000196107,,20,6,2026-03-02_15h55.38.722,2026A_exp2,2022.2.4,59.806859725610536,
1,0,0.0,3.7,1,0,74,74,83,,,,,254.02843189999112,254.67911990001448,254.67911990001448,255.16368590001366,315,45,255.16368590001366,255.16368590001366,255.16368590001366,255.16368590001366,255.16368590001366,255.16368590001366,255.16368590001366,255.16368590001366,255.16368590001366,255.5300467000052,255.5300467000052,255.5300467000052,255.5300467000052,255.5300467000052,255.5300467000052,255.5300467000052,255.5300467000052,255.5300467000052,20,2,"[0.0012109999952372164, 0.033485199994174764]","[0.017409699998097494, 0.06691399999544956]",255.5300467000052,255.73019229999045,3.7,255.73019229999045,1,3.7,1,1,1000,num_4,0.5949442000128329,,20,6,2026-03-02_15h55.38.722,2026A_exp2,2022.2.4,59.806859725610536,
1000,1,0.0,0.0,1,0,75,75,72,,,,,256.3476082000125,256.98156429998926,256.98156429998926,257.48249650001526,45,315,257.48249650001526,257.48249650001526,257.48249650001526,257.48249650001526,257.48249650001526,257.48249650001526,257.48249650001526,257.48249650001526,257.48249650001526,257.8490560000064,257.8490560000064,257.8490560000064,257.8490560000064,257.8490560000064,257.8490560000064,257.8490560000064,257.8490560000064,257.8490560000064,0,1,[0.0011921000259462744],[0.3672890000161715],257.8490560000064,258.0509319000121,1000,258.0509319000121,1000,1000,1000,1000,0,num_3,0.5149277999880724,,20,6,2026-03-02_15h55.38.722,2026A_exp2,2022.2.4,59.806859725610536,
1,0,0.0,0.0,1,0,76,76,66,,,,,258.583025800006,259.2336431000149,259.2336431000149,259.73493890001555,315,45,259.73493890001555,259.73493890001555,259.73493890001555,259.73493890001555,259.73493890001555,259.73493890001555,259.73493890001555,259.73493890001555,259.73493890001555,260.1012129000155,260.1012129000155,260.1012129000155,260.1012129000155,260.1012129000155,260.1012129000155,260.1012129000155,260.1012129000155,260.1012129000155,0,1,[0.0012282999814487994],[0.3671166999847628],260.1012129000155,260.30151429999387,0.0,260.30151429999387,1,0.0,0,0,1000,num_4,0.7683794999902602,,20,6,2026-03-02_15h55.38.722,2026A_exp2,2022.2.4,59.806859725610536,
1,0,6.1,0.0,0,0,77,77,22,,,,,261.08549600001425,261.73632490000455,261.73632490000455,262.222760500008,315,45,262.222760500008,262.222760500008,262.222760500008,262.222760500008,262.222760500008,262.222760500008,262.222760500008,262.222760500008,262.222760500008,262.58723850001115,262.58723850001115,262.58723850001115,262.58723850001115,262.58723850001115,262.58723850001115,262.58723850001115,262.58723850001115,262.58723850001115,23,0,,,262.58723850001115,262.78736819999176,6.1,262.78736819999176,1,6.1,1,1,1000,num_4,0.49011199999949895,,20,6,2026-03-02_15h55.38.722,2026A_exp2,2022.2.4,59.806859725610536,
1000,1,0.0,0.0,1,0,78,78,37,,,,,263.30432180000935,263.955223500001,263.955223500001,264.4395566000021,45,315,264.4395566000021,264.4395566000021,264.4395566000021,264.4395566000021,264.4395566000021,264.4395566000021,264.4395566000021,264.4395566000021,264.4395566000021,264.80600839998806,264.80600839998806,264.80600839998806,264.80600839998806,264.80600839998806,264.80600839998806,264.80600839998806,264.80600839998806,264.80600839998806,1,1,[0.0011086000013165176],[0.36728030000813305],264.80600839998806,265.0077303000144,1000,265.0077303000144,1000,1000,1000,1000,1,num_2,0.6853721000079531,,20,6,2026-03-02_15h55.38.722,2026A_exp2,2022.2.4,59.806859725610536,
1,0,3.7,6.1,0,0,79,79,74,,,,,265.7234395999985,266.3742050000001,266.3742050000001,266.8755341999931,315,45,266.8755341999931,266.8755341999931,266.8755341999931,266.8755341999931,266.8755341999931,266.8755341999931,266.8755341999931,266.8755341999931,266.8755341999931,267.22519629998715,267.22519629998715,267.22519629998715,267.22519629998715,267.22519629998715,267.22519629998715,267.22519629998715,267.22519629998715,267.22519629998715,20,1,[0.28366029998869635],[0.31694920000154525],267.22519629998715,267.4252368999878,3.7,267.4419230000058,0,3.7,1,0,1000,num_1,0.6991746999847237,,20,6,2026-03-02_15h55.38.722,2026A_exp2,2022.2.4,59.806859725610536,
1,0,4.9,0.0,0,0,80,80,19,,,,,268.15926819999004,268.8099741000042,268.8099741000042,269.2944043999887,45,315,269.2944043999887,269.2944043999887,269.2944043999887,269.2944043999887,269.2944043999887,269.2944043999887,269.2944043999887,269.2944043999887,269.2944043999887,269.66084249998676,269.66084249998676,269.66084249998676,269.66084249998676,269.66084249998676,269.66084249998676,269.66084249998676,269.66084249998676,269.66084249998676,0,1,[0.0013783000176772475],[0.3669864000112284],269.66084249998676,269.8609385000018,4.9,269.8609385000018,1,4.9,1,1,1000,num_4,0.5364840000111144,,20,6,2026-03-02_15h55.38.722,2026A_exp2,2022.2.4,59.806859725610536,
1000,1,0.0,6.1,0,0,81,81,85,,,,,270.42816219999804,271.07897709999816,271.07897709999816,271.5633717000019,45,45,271.5633717000019,271.5633717000019,271.5633717000019,271.5633717000019,271.5633717000019,271.5633717000019,271.5633717000019,271.5633717000019,271.5633717000019,271.9298451000068,271.9298451000068,271.9298451000068,271.9298451000068,271.9298451000068,271.9298451000068,271.9298451000068,271.9298451000068,271.9298451000068,16,4,"[0.08355039998423308, 0.11699700000463054, 0.266972799989162, 0.33383909999975003]","[0.10015189999830909, 0.1335055999807082, 0.30038309999508783, 0.36716150000575]",271.9298451000068,272.13200770001276,1000,272.13200770001276,1000,1000,1000,1000,1,num_2,0.42645649999030866,,20,6,2026-03-02_15h55.38.722,2026A_exp2,2022.2.4,59.806859725610536,
1000,1,3.7,3.7,1,0,82,82,25,,,,,272.58032790001016,273.23123259999556,273.23123259999556,273.73211650000303,45,45,273.73211650000303,273.73211650000303,273.73211650000303,273.73211650000303,273.73211650000303,273.73211650000303,273.73211650000303,273.73211650000303,273.73211650000303,274.0986864999868,274.0986864999868,274.0986864999868,274.0986864999868,274.0986864999868,274.0986864999868,274.0986864999868,274.0986864999868,274.0986864999868,0,1,[0.001196099998196587],[0.3671950999996625],274.0986864999868,274.30074589999276,1000,274.30074589999276,1000,1000,1000,1000,0,num_3,0.4807153000147082,,20,6,2026-03-02_15h55.38.722,2026A_exp2,2022.2.4,59.806859725610536,
1000,1,0.0,3.7,1,0,83,83,7,,,,,274.7992230000091,275.45000020001316,275.45000020001316,275.95111170000746,45,315,275.95111170000746,275.95111170000746,275.95111170000746,275.95111170000746,275.95111170000746,275.95111170000746,275.95111170000746,275.95111170000746,275.95111170000746,276.3175731000083,276.3175731000083,276.3175731000083,276.3175731000083,276.3175731000083,276.3175731000083,276.3175731000083,276.3175731000083,276.3175731000083,1,2,"[0.0012509999796748161, 0.31711119998362847]","[0.3005794000055175, 0.36717089999001473]",276.3175731000083,276.51968090000446,1000,276.51968090000446,1000,1000,1000,1000,1,num_2,0.49360430001979694,,20,6,2026-03-02_15h55.38.722,2026A_exp2,2022.2.4,59.806859725610536,
1000,1,4.9,3.7,1,0,84,84,46,,,,,277.0348967000027,277.68557209998835,277.68557209998835,278.18661629999406,315,45,278.18661629999406,278.18661629999406,278.18661629999406,278.18661629999406,278.18661629999406,278.18661629999406,278.18661629999406,278.18661629999406,278.18661629999406,278.5531408000097,278.5531408000097,278.5531408000097,278.5531408000097,278.5531408000097,278.5531408000097,278.5531408000097,278.5531408000097,278.5531408000097,23,0,,,278.5531408000097,278.761840799998,1000,278.761840799998,1000,1000,1000,1000,0,num_3,0.3965391000092495,,20,6,2026-03-02_15h55.38.722,2026A_exp2,2022.2.4,59.806859725610536,
1,0,3.7,3.7,0,0,85,85,69,,,,,279.1871230000106,279.83775569999125,279.83775569999125,280.3221567000146,45,45,280.3221567000146,280.3221567000146,280.3221567000146,280.3221567000146,280.3221567000146,280.3221567000146,280.3221567000146,280.3221567000146,280.3221567000146,280.688556100009,280.688556100009,280.688556100009,280.688556100009,280.688556100009,280.688556100009,280.688556100009,280.688556100009,280.688556100009,11,1,[0.18372569998609833],[0.3671987999987323],280.688556100009,280.8887767000124,3.7,280.8887767000124,1,3.7,1,1,1000,num_4,0.9484496000222862,,20,6,2026-03-02_15h55.38.722,2026A_exp2,2022.2.4,59.806859725610536,
1000,1,3.7,3.7,0,0,86,86,76,,,,,281.85637570000836,282.50707290001446,282.50707290001446,282.99137259999407,45,315,282.99137259999407,282.99137259999407,282.99137259999407,282.99137259999407,282.99137259999407,282.99137259999407,282.99137259999407,282.99137259999407,282.99137259999407,283.3578095000121,283.3578095000121,283.3578095000121,283.3578095000121,283.3578095000121,283.3578095000121,283.3578095000121,283.3578095000121,283.3578095000121,0,1,[0.0012080000014975667],[0.36679719999665394],283.3578095000121,283.5600298999925,1000,283.5600298999925,1000,1000,1000,1000,1,num_2,0.493623899994418,,20,6,2026-03-02_15h55.38.722,2026A_exp2,2022.2.4,59.806859725610536,
1000,1,6.1,3.7,0,0,87,87,43,,,,,284.07541600000695,284.725774999999,284.725774999999,285.2102212999889,315,315,285.2102212999889,285.2102212999889,285.2102212999889,285.2102212999889,285.2102212999889,285.2102212999889,285.2102212999889,285.2102212999889,285.2102212999889,285.5766881000018,285.5766881000018,285.5766881000018,285.5766881000018,285.5766881000018,285.5766881000018,285.5766881000018,285.5766881000018,285.5766881000018,23,0,,,285.5766881000018,285.77912029999425,1000,285.77912029999425,1000,1000,1000,1000,0,num_3,0.4113000000070315,,20,6,2026-03-02_15h55.38.722,2026A_exp2,2022.2.4,59.806859725610536,
1,0,4.9,4.9,1,0,88,88,32,,,,,286.21078580000903,286.86138620000565,286.86138620000565,287.3623402999947,45,315,287.3623402999947,287.3623402999947,287.3623402999947,287.3623402999947,287.3623402999947,287.3623402999947,287.3623402999947,287.3623402999947,287.3623402999947,287.71221060000244,287.71221060000244,287.71221060000244,287.71221060000244,287.71221060000244,287.71221060000244,287.71221060000244,287.71221060000244,287.71221060000244,0,1,[0.001208100002259016],[0.35073710000142455],287.71221060000244,287.9122864000092,4.9,287.9122864000092,1,4.9,1,1,1000,num_4,0.8936505999881774,,20,6,2026-03-02_15h55.38.722,2026A_exp2,2022.2.4,59.806859725610536,
1000,1,0.0,4.9,0,0,89,89,50,,,,,288.83000109999557,289.48068529999,289.48068529999,289.9649494999903,45,45,289.9649494999903,289.9649494999903,289.9649494999903,289.9649494999903,289.9649494999903,289.9649494999903,289.9649494999903,289.9649494999903,289.9649494999903,290.3316333999974,290.3316333999974,290.3316333999974,290.3316333999974,290.3316333999974,290.3316333999974,290.3316333999974,290.3316333999974,290.3316333999974,0,1,[0.0012647999974433333],[0.3673185000079684],290.3316333999974,290.5333635999996,1000,290.5333635999996,1000,1000,1000,1000,1,num_2,0.4716646999877412,,20,6,2026-03-02_15h55.38.722,2026A_exp2,2022.2.4,59.806859725610536,
,,,,,,,,,,,,,,,,,,,,,,,,,,,,,,,,,,,,,,,,,,,,,,,,,,,,291.041075599991,,,,,,,
