validity,detectorcomp,contrastCW,contrastCCW,precueCWorCCW,block_80trials.thisRepN,block_80trials.thisTrialN,block_80trials.thisN,block_80trials.thisIndex,etRecord.started,etRecord.stopped,text.started,text.stopped,text_4.started,text_4.stopped,text_6.started,text_6.stopped,oriCW,oriCCW,roi_2.started,grating_UR.started,grating_UL.started,grating_LR.started,grating_LL.started,noise_UR.started,noise_UL.started,noise_LR.started,noise_LL.started,roi_2.stopped,grating_UR.stopped,grating_UL.stopped,grating_LR.stopped,grating_LL.stopped,noise_UR.stopped,noise_UL.stopped,noise_LR.stopped,noise_LL.stopped,outframe,roi_2.numLooks,roi_2.timesOn,roi_2.timesOff,text_2.started,text_2.stopped,probedcontrast,key_resp.started,respdetect,relevantContrast,correctDetect,TorFdetect,respCWorCCW,key_resp.keys,key_resp.rt,feedback_display_.started,participantNo,blockNo,date,expName,psychopyVersion,frameRate,
1,0,4.9,0.0,1,0,0,0,4,3.689998993650079e-05,3.689998993650079e-05,46.61654650000855,48.61978429998271,48.61978429998271,49.25310619996162,49.25310619996162,49.774365399964154,315,45,49.774365399964154,49.774365399964154,49.774365399964154,49.774365399964154,49.774365399964154,49.774365399964154,49.774365399964154,49.774365399964154,49.774365399964154,50.12075110001024,50.12075110001024,50.12075110001024,50.12075110001024,50.12075110001024,50.12075110001024,50.12075110001024,50.12075110001024,50.12075110001024,18,1,[0.0009521999745629728],[0.08373889996437356],50.12075110001024,50.3210050999769,0.0,50.3210050999769,0,0.0,0,1,1000,num_1,0.756400499958545,,26,3,2026-03-05_10h29.28.386,2026A_exp2,2022.2.4,59.955560941856504,
1,0,0.0,3.7,1,0,1,1,57,,,,,51.10510489996523,51.755681499955244,51.755681499955244,52.256809399987105,315,315,52.256809399987105,52.256809399987105,52.256809399987105,52.256809399987105,52.256809399987105,52.256809399987105,52.256809399987105,52.256809399987105,52.256809399987105,52.60658709995914,52.60658709995914,52.60658709995914,52.60658709995914,52.60658709995914,52.60658709995914,52.60658709995914,52.60658709995914,52.60658709995914,0,1,[0.0012449000496417284],[0.35048920003464445],52.60658709995914,52.806746599962935,3.7,52.806746599962935,1,3.7,1,1,1000,num_4,0.8398353999946266,,26,3,2026-03-05_10h29.28.386,2026A_exp2,2022.2.4,59.955560941856504,
1,0,0.0,6.1,0,0,2,2,68,,,,,53.67432839999674,54.324922500003595,54.324922500003595,54.80942949996097,315,315,54.80942949996097,54.80942949996097,54.80942949996097,54.80942949996097,54.80942949996097,54.80942949996097,54.80942949996097,54.80942949996097,54.80942949996097,55.17593379999744,55.17593379999744,55.17593379999744,55.17593379999744,55.17593379999744,55.17593379999744,55.17593379999744,55.17593379999744,55.17593379999744,0,1,[0.0012072999961674213],[0.3668082999647595],55.17593379999744,55.37591709999833,0.0,55.37591709999833,0,0.0,0,1,1000,num_1,0.7743504000245593,,26,3,2026-03-05_10h29.28.386,2026A_exp2,2022.2.4,59.955560941856504,
1000,1,4.9,6.1,1,0,3,3,1,,,,,56.176888999994844,56.82738549995702,56.82738549995702,57.328517099958844,315,45,57.328517099958844,57.328517099958844,57.328517099958844,57.328517099958844,57.328517099958844,57.328517099958844,57.328517099958844,57.328517099958844,57.328517099958844,57.67815539997537,57.67815539997537,57.67815539997537,57.67815539997537,57.67815539997537,57.67815539997537,57.67815539997537,57.67815539997537,57.67815539997537,17,1,[0.28368490003049374],[0.35045550001086667],57.67815539997537,57.88310719997389,1000,57.88310719997389,1000,1000,1000,1000,0,num_3,0.778311800037045,,26,3,2026-03-05_10h29.28.386,2026A_exp2,2022.2.4,59.955560941856504,
1,0,0.0,3.7,0,0,4,4,78,,,,,58.67937789997086,59.32996229996206,59.32996229996206,59.830964499968104,315,45,59.830964499968104,59.830964499968104,59.830964499968104,59.830964499968104,59.830964499968104,59.830964499968104,59.830964499968104,59.830964499968104,59.830964499968104,60.197518299974035,60.197518299974035,60.197518299974035,60.197518299974035,60.197518299974035,60.197518299974035,60.197518299974035,60.197518299974035,60.197518299974035,0,1,[0.0012043999740853906],[0.36727769998833537],60.197518299974035,60.39784479996888,0.0,60.39784479996888,0,0.0,0,1,1000,num_1,1.0888686000253074,,26,3,2026-03-05_10h29.28.386,2026A_exp2,2022.2.4,59.955560941856504,
1000,1,0.0,3.7,0,0,5,5,52,,,,,61.515501699992456,62.16610779997427,62.16610779997427,62.650465599959716,315,315,62.650465599959716,62.650465599959716,62.650465599959716,62.650465599959716,62.650465599959716,62.650465599959716,62.650465599959716,62.650465599959716,62.650465599959716,63.01699939998798,63.01699939998798,63.01699939998798,63.01699939998798,63.01699939998798,63.01699939998798,63.01699939998798,63.01699939998798,63.01699939998798,0,1,[0.0012067999923601747],[0.3669960999977775],63.01699939998798,63.218742900004145,1000,63.218742900004145,1000,1000,1000,1000,1,num_2,0.5786372000002302,,26,3,2026-03-05_10h29.28.386,2026A_exp2,2022.2.4,59.955560941856504,
1,0,3.7,4.9,1,0,6,6,39,,,,,63.81762809999054,64.46844399999827,64.46844399999827,64.96950419998029,315,315,64.96950419998029,64.96950419998029,64.96950419998029,64.96950419998029,64.96950419998029,64.96950419998029,64.96950419998029,64.96950419998029,64.96950419998029,65.33590780000668,65.33590780000668,65.33590780000668,65.33590780000668,65.33590780000668,65.33590780000668,65.33590780000668,65.33590780000668,65.33590780000668,3,2,"[0.03358299995306879, 0.08350859995698556]","[0.0670041999546811, 0.36694350000470877]",65.33590780000668,65.53637929999968,4.9,65.53637929999968,1,4.9,1,1,1000,num_4,0.9261192999547347,,26,3,2026-03-05_10h29.28.386,2026A_exp2,2022.2.4,59.955560941856504,
1,0,0.0,4.9,0,0,7,7,85,,,,,66.48701509996317,67.13778839999577,67.13778839999577,67.62219480000203,315,45,67.62219480000203,67.62219480000203,67.62219480000203,67.62219480000203,67.62219480000203,67.62219480000203,67.62219480000203,67.62219480000203,67.62219480000203,67.98863909998909,67.98863909998909,67.98863909998909,67.98863909998909,67.98863909998909,67.98863909998909,67.98863909998909,67.98863909998909,67.98863909998909,20,2,"[0.3005064000026323, 0.3505606999970041]","[0.3170479999971576, 0.36726440000347793]",67.98863909998909,68.18865949998144,0.0,68.18865949998144,0,0.0,0,1,1000,num_1,1.0812066000071354,,26,3,2026-03-05_10h29.28.386,2026A_exp2,2022.2.4,59.955560941856504,
1000,1,0.0,6.1,1,0,8,8,88,,,,,69.28974290000042,69.9405790999881,69.9405790999881,70.42498650000198,45,315,70.42498650000198,70.42498650000198,70.42498650000198,70.42498650000198,70.42498650000198,70.42498650000198,70.42498650000198,70.42498650000198,70.42498650000198,70.7914111999562,70.7914111999562,70.7914111999562,70.7914111999562,70.7914111999562,70.7914111999562,70.7914111999562,70.7914111999562,70.7914111999562,22,1,[0.11684409994632006],[0.13362899998901412],70.7914111999562,70.99331739998888,1000,70.99331739998888,1000,1000,1000,1000,1,num_2,0.5002234999556094,,26,3,2026-03-05_10h29.28.386,2026A_exp2,2022.2.4,59.955560941856504,
1,0,0.0,4.9,0,0,9,9,17,,,,,71.52555719995871,72.17650899995351,72.17650899995351,72.66062869998859,315,315,72.66062869998859,72.66062869998859,72.66062869998859,72.66062869998859,72.66062869998859,72.66062869998859,72.66062869998859,72.66062869998859,72.66062869998859,73.02694359997986,73.02694359997986,73.02694359997986,73.02694359997986,73.02694359997986,73.02694359997986,73.02694359997986,73.02694359997986,73.02694359997986,11,2,"[0.10078939999220893, 0.200756200007163]","[0.1841491999803111, 0.317670599964913]",73.02694359997986,73.22725579998223,0.0,73.22725579998223,0,0.0,0,1,1000,num_1,0.8583534999634139,,26,3,2026-03-05_10h29.28.386,2026A_exp2,2022.2.4,59.955560941856504,
0,0,3.7,0.0,1,0,10,10,83,,,,,74.11127629998373,74.76209089998156,74.76209089998156,75.26284250000026,45,315,75.26284250000026,75.26284250000026,75.26284250000026,75.26284250000026,75.26284250000026,75.26284250000026,75.26284250000026,75.26284250000026,75.26284250000026,75.61280459997943,75.61280459997943,75.61280459997943,75.61280459997943,75.61280459997943,75.61280459997943,75.61280459997943,75.61280459997943,75.61280459997943,11,3,"[0.08382599998731166, 0.11751389998244122, 0.2346599000156857]","[0.10059170000022277, 0.2178118999581784, 0.3012855999986641]",75.61280459997943,75.81313580001006,3.7,75.81313580001006,1,3.7,1,1,1000,num_4,0.9927847000071779,,26,3,2026-03-05_10h29.28.386,2026A_exp2,2022.2.4,59.955560941856504,
1,0,4.9,0.0,1,0,11,11,6,,,,,76.83063149999361,77.48135819996241,77.48135819996241,77.96590569999535,45,315,77.96590569999535,77.96590569999535,77.96590569999535,77.96590569999535,77.96590569999535,77.96590569999535,77.96590569999535,77.96590569999535,77.96590569999535,78.33197289996315,78.33197289996315,78.33197289996315,78.33197289996315,78.33197289996315,78.33197289996315,78.33197289996315,78.33197289996315,78.33197289996315,23,0,,,78.33197289996315,78.53256560000591,0.0,78.53256560000591,0,0.0,0,1,1000,num_1,1.7375032000127248,,26,3,2026-03-05_10h29.28.386,2026A_exp2,2022.2.4,59.955560941856504,
1000,1,3.7,0.0,1,0,12,12,55,,,,,80.30074069998227,80.95165379997343,80.95165379997343,81.43593380000675,315,315,81.43593380000675,81.43593380000675,81.43593380000675,81.43593380000675,81.43593380000675,81.43593380000675,81.43593380000675,81.43593380000675,81.43593380000675,81.81880909996107,81.81880909996107,81.81880909996107,81.81880909996107,81.81880909996107,81.81880909996107,81.81880909996107,81.81880909996107,81.81880909996107,22,1,[0.001200400001835078],[0.03333750000456348],81.81880909996107,82.02112759999,1000,82.02112759999,1000,1000,1000,1000,0,num_3,0.7362971999682486,,26,3,2026-03-05_10h29.28.386,2026A_exp2,2022.2.4,59.955560941856504,
1000,1,0.0,0.0,1,0,13,13,14,,,,,82.78656529996078,83.43741239997325,83.43741239997325,83.93831229995703,45,45,83.93831229995703,83.93831229995703,83.93831229995703,83.93831229995703,83.93831229995703,83.93831229995703,83.93831229995703,83.93831229995703,83.93831229995703,84.30497279996052,84.30497279996052,84.30497279996052,84.30497279996052,84.30497279996052,84.30497279996052,84.30497279996052,84.30497279996052,84.30497279996052,6,1,[0.1002528999815695],[0.367210199998226],84.30497279996052,84.50678519997746,1000,84.50678519997746,1000,1000,1000,1000,0,num_3,0.6753386000054888,,26,3,2026-03-05_10h29.28.386,2026A_exp2,2022.2.4,59.955560941856504,
1000,1,4.9,0.0,0,0,14,14,58,,,,,85.2056881999597,85.8564689999912,85.8564689999912,86.35761319997255,45,45,86.35761319997255,86.35761319997255,86.35761319997255,86.35761319997255,86.35761319997255,86.35761319997255,86.35761319997255,86.35761319997255,86.35761319997255,86.72409069997957,86.72409069997957,86.72409069997957,86.72409069997957,86.72409069997957,86.72409069997957,86.72409069997957,86.72409069997957,86.72409069997957,10,5,"[0.0010751999798230827, 0.06718159996671602, 0.11716480000177398, 0.200568399974145, 0.3508221000083722]","[0.05054299999028444, 0.08381579996785149, 0.1674013999872841, 0.2674445000011474, 0.36757289996603504]",86.72409069997957,86.9263013000018,1000,86.9263013000018,1000,1000,1000,1000,0,num_3,0.544461399957072,,26,3,2026-03-05_10h29.28.386,2026A_exp2,2022.2.4,59.955560941856504,
1,0,0.0,4.9,0,0,15,15,71,,,,,87.49135759996716,88.1420981999836,88.1420981999836,88.64316219999455,315,45,88.64316219999455,88.64316219999455,88.64316219999455,88.64316219999455,88.64316219999455,88.64316219999455,88.64316219999455,88.64316219999455,88.64316219999455,89.0097725999658,89.0097725999658,89.0097725999658,89.0097725999658,89.0097725999658,89.0097725999658,89.0097725999658,89.0097725999658,89.0097725999658,4,5,"[0.0010156999924220145, 0.18386609997833148, 0.2505381999653764, 0.31747249996988103, 0.35077119997004047]","[0.16713640000671148, 0.23376319999806583, 0.30048719997284934, 0.33383620000677183, 0.3673154999851249]",89.0097725999658,89.2098674000008,0.0,89.2098674000008,0,0.0,0,1,1000,num_1,0.6756468000239693,,26,3,2026-03-05_10h29.28.386,2026A_exp2,2022.2.4,59.955560941856504,
0,0,0.0,6.1,1,0,16,16,76,,,,,89.91042729996843,90.56122819997836,90.56122819997836,91.04553539998597,45,315,91.04553539998597,91.04553539998597,91.04553539998597,91.04553539998597,91.04553539998597,91.04553539998597,91.04553539998597,91.04553539998597,91.04553539998597,91.41192639997462,91.41192639997462,91.41192639997462,91.41192639997462,91.41192639997462,91.41192639997462,91.41192639997462,91.41192639997462,91.41192639997462,0,1,[0.0012920999433845282],[0.3672867999994196],91.41192639997462,91.61209359997883,0.0,91.61209359997883,0,0.0,0,1,1000,num_1,0.6574320999789052,,26,3,2026-03-05_10h29.28.386,2026A_exp2,2022.2.4,59.955560941856504,
1000,1,4.9,3.7,1,0,17,17,67,,,,,92.2961308999802,92.94689819996711,92.94689819996711,93.43133339995984,315,45,93.43133339995984,93.43133339995984,93.43133339995984,93.43133339995984,93.43133339995984,93.43133339995984,93.43133339995984,93.43133339995984,93.43133339995984,93.79789609997533,93.79789609997533,93.79789609997533,93.79789609997533,93.79789609997533,93.79789609997533,93.79789609997533,93.79789609997533,93.79789609997533,23,0,,,93.79789609997533,93.9999259999604,1000,93.9999259999604,1000,1000,1000,1000,0,num_3,0.7894097999669611,,26,3,2026-03-05_10h29.28.386,2026A_exp2,2022.2.4,59.955560941856504,
0,0,3.7,4.9,1,0,18,18,3,,,,,94.81529559998307,95.46615150000434,95.46615150000434,95.96724569995422,315,45,95.96724569995422,95.96724569995422,95.96724569995422,95.96724569995422,95.96724569995422,95.96724569995422,95.96724569995422,95.96724569995422,95.96724569995422,96.333369400003,96.333369400003,96.333369400003,96.333369400003,96.333369400003,96.333369400003,96.333369400003,96.333369400003,96.333369400003,11,8,"[0.0012653000303544104, 0.05001310002990067, 0.10000710003077984, 0.15005649998784065, 0.21690790000138804, 0.2668405000003986, 0.3002896000398323, 0.3503938000067137]","[0.033321900002192706, 0.06661610002629459, 0.11681700003100559, 0.20017249998636544, 0.25019829999655485, 0.28363240003818646, 0.3169706999906339, 0.3671343000023626]",96.333369400003,96.53383369999938,3.7,96.53383369999938,1,3.7,1,1,1000,num_4,0.9443231000332162,,26,3,2026-03-05_10h29.28.386,2026A_exp2,2022.2.4,59.955560941856504,
1000,1,6.1,0.0,0,0,19,19,33,,,,,97.50134869996691,98.15216569998302,98.15216569998302,98.63648919999832,315,315,98.63648919999832,98.63648919999832,98.63648919999832,98.63648919999832,98.63648919999832,98.63648919999832,98.63648919999832,98.63648919999832,98.63648919999832,99.00298509997083,99.00298509997083,99.00298509997083,99.00298509997083,99.00298509997083,99.00298509997083,99.00298509997083,99.00298509997083,99.00298509997083,0,1,[0.0012009000056423247],[0.3672219999716617],99.00298509997083,99.20422149996739,1000,99.20422149996739,1000,1000,1000,1000,0,num_3,0.5849873999832198,,26,3,2026-03-05_10h29.28.386,2026A_exp2,2022.2.4,59.955560941856504,
1000,1,6.1,3.7,1,0,20,20,0,,,,,99.820520499954,100.4709753000061,100.4709753000061,100.97218959999736,45,45,100.97218959999736,100.97218959999736,100.97218959999736,100.97218959999736,100.97218959999736,100.97218959999736,100.97218959999736,100.97218959999736,100.97218959999736,101.33850909996545,101.33850909996545,101.33850909996545,101.33850909996545,101.33850909996545,101.33850909996545,101.33850909996545,101.33850909996545,101.33850909996545,1,1,[0.0007393000414595008],[0.3676564000197686],101.33850909996545,101.54039029998239,1000,101.54039029998239,1000,1000,1000,1000,0,num_3,0.6488890000036918,,26,3,2026-03-05_10h29.28.386,2026A_exp2,2022.2.4,59.955560941856504,
1000,1,6.1,0.0,0,0,21,21,19,,,,,102.20605839998461,102.85680849995697,102.85680849995697,103.35784179996699,45,45,103.35784179996699,103.35784179996699,103.35784179996699,103.35784179996699,103.35784179996699,103.35784179996699,103.35784179996699,103.35784179996699,103.35784179996699,103.72438779997174,103.72438779997174,103.72438779997174,103.72438779997174,103.72438779997174,103.72438779997174,103.72438779997174,103.72438779997174,103.72438779997174,23,0,,,103.72438779997174,103.926059099962,1000,103.926059099962,1000,1000,1000,1000,0,num_3,0.5355768000008538,,26,3,2026-03-05_10h29.28.386,2026A_exp2,2022.2.4,59.955560941856504,
1000,1,0.0,6.1,0,0,22,22,34,,,,,104.49168259999715,105.14236369996797,105.14236369996797,105.64339250000194,315,45,105.64339250000194,105.64339250000194,105.64339250000194,105.64339250000194,105.64339250000194,105.64339250000194,105.64339250000194,105.64339250000194,105.64339250000194,106.0098227999988,106.0098227999988,106.0098227999988,106.0098227999988,106.0098227999988,106.0098227999988,106.0098227999988,106.0098227999988,106.0098227999988,1,1,[0.017514299950562418],[0.36704199999803677],106.0098227999988,106.21216589998221,1000,106.21216589998221,1000,1000,1000,1000,1,num_2,0.7547730000223964,,26,3,2026-03-05_10h29.28.386,2026A_exp2,2022.2.4,59.955560941856504,
1000,1,6.1,4.9,1,0,23,23,16,,,,,106.99416800000472,107.64499729999807,107.64499729999807,108.1462152999593,45,45,108.1462152999593,108.1462152999593,108.1462152999593,108.1462152999593,108.1462152999593,108.1462152999593,108.1462152999593,108.1462152999593,108.1462152999593,108.51250089996029,108.51250089996029,108.51250089996029,108.51250089996029,108.51250089996029,108.51250089996029,108.51250089996029,108.51250089996029,108.51250089996029,9,3,"[0.0012493999674916267, 0.08353050000732765, 0.21693679998861626]","[0.06679009995423257, 0.18367509997915477, 0.2836638999870047]",108.51250089996029,108.71427549998043,1000,108.71427549998043,1000,1000,1000,1000,0,num_3,0.7638677000068128,,26,3,2026-03-05_10h29.28.386,2026A_exp2,2022.2.4,59.955560941856504,
1000,1,0.0,0.0,0,0,24,24,61,,,,,109.49686859996291,110.14726860000519,110.14726860000519,110.63197539997054,315,315,110.63197539997054,110.63197539997054,110.63197539997054,110.63197539997054,110.63197539997054,110.63197539997054,110.63197539997054,110.63197539997054,110.63197539997054,110.99874789995374,110.99874789995374,110.99874789995374,110.99874789995374,110.99874789995374,110.99874789995374,110.99874789995374,110.99874789995374,110.99874789995374,0,1,[0.0009803000139072537],[0.36722889996599406],110.99874789995374,111.19826529995771,1000,111.2148359999992,1000,1000,1000,1000,0,num_3,1.2705267000128515,,26,3,2026-03-05_10h29.28.386,2026A_exp2,2022.2.4,59.955560941856504,
1000,1,3.7,0.0,1,0,25,25,79,,,,,112.51638869999442,113.16715289995773,113.16715289995773,113.66792999999598,315,45,113.66792999999598,113.66792999999598,113.66792999999598,113.66792999999598,113.66792999999598,113.66792999999598,113.66792999999598,113.66792999999598,113.66792999999598,114.01771260000532,114.01771260000532,114.01771260000532,114.01771260000532,114.01771260000532,114.01771260000532,114.01771260000532,114.01771260000532,114.01771260000532,22,0,,,114.01771260000532,114.2178679999779,1000,114.2178679999779,1000,1000,1000,1000,0,num_3,0.6040573999634944,,26,3,2026-03-05_10h29.28.386,2026A_exp2,2022.2.4,59.955560941856504,
1000,1,0.0,0.0,0,0,26,26,65,,,,,114.85180469998159,115.50234000000637,115.50234000000637,115.98715229996014,315,45,115.98715229996014,115.98715229996014,115.98715229996014,115.98715229996014,115.98715229996014,115.98715229996014,115.98715229996014,115.98715229996014,115.98715229996014,116.35362399998121,116.35362399998121,116.35362399998121,116.35362399998121,116.35362399998121,116.35362399998121,116.35362399998121,116.35362399998121,116.35362399998121,13,1,[0.21730690001277253],[0.36752870003692806],116.35362399998121,116.55644640000537,1000,116.55644640000537,1000,1000,1000,1000,1,num_2,0.5769733000197448,,26,3,2026-03-05_10h29.28.386,2026A_exp2,2022.2.4,59.955560941856504,
1000,1,3.7,3.7,1,0,27,27,40,,,,,117.15429569996195,117.80504639999708,117.80504639999708,118.30610320001142,45,315,118.30610320001142,118.30610320001142,118.30610320001142,118.30610320001142,118.30610320001142,118.30610320001142,118.30610320001142,118.30610320001142,118.30610320001142,118.67288809997262,118.67288809997262,118.67288809997262,118.67288809997262,118.67288809997262,118.67288809997262,118.67288809997262,118.67288809997262,118.67288809997262,0,1,[0.0012396000092849135],[0.36688729998422787],118.67288809997262,118.87449529999867,1000,118.87449529999867,1000,1000,1000,1000,1,num_2,0.8988996999687515,,26,3,2026-03-05_10h29.28.386,2026A_exp2,2022.2.4,59.955560941856504,
1000,1,0.0,0.0,0,0,28,28,20,,,,,119.7902233999921,120.44094669999322,120.44094669999322,120.94215680001071,45,315,120.94215680001071,120.94215680001071,120.94215680001071,120.94215680001071,120.94215680001071,120.94215680001071,120.94215680001071,120.94215680001071,120.94215680001071,121.30850829998963,121.30850829998963,121.30850829998963,121.30850829998963,121.30850829998963,121.30850829998963,121.30850829998963,121.30850829998963,121.30850829998963,5,3,"[0.0012919000000692904, 0.216548900003545, 0.3167668000096455]","[0.1999440000508912, 0.29985940002370626, 0.33331770001677796]",121.30850829998963,121.5107844999875,1000,121.5107844999875,1000,1000,1000,1000,0,num_3,0.4949706000043079,,26,3,2026-03-05_10h29.28.386,2026A_exp2,2022.2.4,59.955560941856504,
1,0,0.0,0.0,1,0,29,29,73,,,,,122.02587839995977,122.67670489999,122.67670489999,123.17776599997887,315,315,123.17776599997887,123.17776599997887,123.17776599997887,123.17776599997887,123.17776599997887,123.17776599997887,123.17776599997887,123.17776599997887,123.17776599997887,123.54406679997919,123.54406679997919,123.54406679997919,123.54406679997919,123.54406679997919,123.54406679997919,123.54406679997919,123.54406679997919,123.54406679997919,22,1,[0.14990890002809465],[0.16694200003985316],123.54406679997919,123.74439859995618,0.0,123.74439859995618,1,0.0,0,0,1000,num_4,1.3017150000086986,,26,3,2026-03-05_10h29.28.386,2026A_exp2,2022.2.4,59.955560941856504,
1,0,6.1,0.0,0,0,30,30,50,,,,,125.0622766999877,125.71306350000668,125.71306350000668,126.21406619995832,315,45,126.21406619995832,126.21406619995832,126.21406619995832,126.21406619995832,126.21406619995832,126.21406619995832,126.21406619995832,126.21406619995832,126.21406619995832,126.56387229997199,126.56387229997199,126.56387229997199,126.56387229997199,126.56387229997199,126.56387229997199,126.56387229997199,126.56387229997199,126.56387229997199,22,0,,,126.56387229997199,126.76392689999193,6.1,126.76392689999193,1,6.1,1,1,1000,num_4,1.2742620999924839,,26,3,2026-03-05_10h29.28.386,2026A_exp2,2022.2.4,59.955560941856504,
1,0,0.0,0.0,0,0,31,31,81,,,,,128.06530929997098,128.716319500003,128.716319500003,129.21710690000327,45,315,129.21710690000327,129.21710690000327,129.21710690000327,129.21710690000327,129.21710690000327,129.21710690000327,129.21710690000327,129.21710690000327,129.21710690000327,129.5835041999817,129.5835041999817,129.5835041999817,129.5835041999817,129.5835041999817,129.5835041999817,129.5835041999817,129.5835041999817,129.5835041999817,13,1,[0.2170439999899827],[0.36723609996261075],129.5835041999817,129.78379859996494,0.0,129.78379859996494,1,0.0,0,0,1000,num_4,1.973662099975627,,26,3,2026-03-05_10h29.28.386,2026A_exp2,2022.2.4,59.955560941856504,
1,0,0.0,0.0,1,0,32,32,70,,,,,131.78561099997023,132.4363491999684,132.4363491999684,132.9207383999601,45,45,132.9207383999601,132.9207383999601,132.9207383999601,132.9207383999601,132.9207383999601,132.9207383999601,132.9207383999601,132.9207383999601,132.9207383999601,133.28728519997094,133.28728519997094,133.28728519997094,133.28728519997094,133.28728519997094,133.28728519997094,133.28728519997094,133.28728519997094,133.28728519997094,23,0,,,133.28728519997094,133.4873438999639,0.0,133.4873438999639,1,0.0,0,0,1000,num_4,1.6699554999941029,,26,3,2026-03-05_10h29.28.386,2026A_exp2,2022.2.4,59.955560941856504,
1,0,0.0,0.0,0,0,33,33,64,,,,,135.1888960999786,135.82317769998917,135.82317769998917,136.32420420000562,315,315,136.32420420000562,136.32420420000562,136.32420420000562,136.32420420000562,136.32420420000562,136.32420420000562,136.32420420000562,136.32420420000562,136.32420420000562,136.69062219996704,136.69062219996704,136.69062219996704,136.69062219996704,136.69062219996704,136.69062219996704,136.69062219996704,136.69062219996704,136.69062219996704,23,0,,,136.69062219996704,136.89085879997583,0.0,136.89085879997583,0,0.0,0,1,1000,num_1,0.4190156999975443,,26,3,2026-03-05_10h29.28.386,2026A_exp2,2022.2.4,59.955560941856504,
1,0,3.7,0.0,1,0,34,34,74,,,,,137.3409687000094,137.9920712999883,137.9920712999883,138.49291929998435,45,315,138.49291929998435,138.49291929998435,138.49291929998435,138.49291929998435,138.49291929998435,138.49291929998435,138.49291929998435,138.49291929998435,138.49291929998435,138.84306189999916,138.84306189999916,138.84306189999916,138.84306189999916,138.84306189999916,138.84306189999916,138.84306189999916,138.84306189999916,138.84306189999916,22,0,,,138.84306189999916,139.042876099993,0.0,139.042876099993,0,0.0,0,1,1000,num_1,0.7796190999797545,,26,3,2026-03-05_10h29.28.386,2026A_exp2,2022.2.4,59.955560941856504,
0,0,4.9,0.0,0,0,35,35,30,,,,,139.84365359996445,140.49449829995865,140.49449829995865,140.99545889999717,315,315,140.99545889999717,140.99545889999717,140.99545889999717,140.99545889999717,140.99545889999717,140.99545889999717,140.99545889999717,140.99545889999717,140.99545889999717,141.36196189996554,141.36196189996554,141.36196189996554,141.36196189996554,141.36196189996554,141.36196189996554,141.36196189996554,141.36196189996554,141.36196189996554,23,0,,,141.36196189996554,141.5621633999981,0.0,141.5621633999981,0,0.0,0,1,1000,num_1,0.6513451999635436,,26,3,2026-03-05_10h29.28.386,2026A_exp2,2022.2.4,59.955560941856504,
1,0,0.0,0.0,0,0,36,36,59,,,,,142.22937600000296,142.88022699998692,142.88022699998692,143.36450799996965,45,45,143.36450799996965,143.36450799996965,143.36450799996965,143.36450799996965,143.36450799996965,143.36450799996965,143.36450799996965,143.36450799996965,143.36450799996965,143.7310588999535,143.7310588999535,143.7310588999535,143.7310588999535,143.7310588999535,143.7310588999535,143.7310588999535,143.7310588999535,143.7310588999535,23,0,,,143.7310588999535,143.93124899995746,0.0,143.93124899995746,0,0.0,0,1,1000,num_1,1.4114431000198238,,26,3,2026-03-05_10h29.28.386,2026A_exp2,2022.2.4,59.955560941856504,
1,0,0.0,0.0,0,0,37,37,49,,,,,145.36585129995365,146.01665639999555,146.01665639999555,146.50091800000519,315,45,146.50091800000519,146.50091800000519,146.50091800000519,146.50091800000519,146.50091800000519,146.50091800000519,146.50091800000519,146.50091800000519,146.50091800000519,146.86738859995967,146.86738859995967,146.86738859995967,146.86738859995967,146.86738859995967,146.86738859995967,146.86738859995967,146.86738859995967,146.86738859995967,23,0,,,146.86738859995967,147.06750639999518,0.0,147.06750639999518,0,0.0,0,1,1000,num_1,1.1945424000150524,,26,3,2026-03-05_10h29.28.386,2026A_exp2,2022.2.4,59.955560941856504,
0,0,0.0,4.9,0,0,38,38,54,,,,,148.28537629998755,148.9361579999677,148.9361579999677,149.43737780000083,315,315,149.43737780000083,149.43737780000083,149.43737780000083,149.43737780000083,149.43737780000083,149.43737780000083,149.43737780000083,149.43737780000083,149.43737780000083,149.8036948000081,149.8036948000081,149.8036948000081,149.8036948000081,149.8036948000081,149.8036948000081,149.8036948000081,149.8036948000081,149.8036948000081,23,0,,,149.8036948000081,150.0039250999689,4.9,150.0039250999689,1,4.9,1,1,1000,num_4,0.8094564999919385,,26,3,2026-03-05_10h29.28.386,2026A_exp2,2022.2.4,59.955560941856504,
1000,1,6.1,4.9,1,0,39,39,53,,,,,150.8380846999935,151.48874209995847,151.48874209995847,151.97329309995985,315,315,151.97329309995985,151.97329309995985,151.97329309995985,151.97329309995985,151.97329309995985,151.97329309995985,151.97329309995985,151.97329309995985,151.97329309995985,152.33957219996955,152.33957219996955,152.33957219996955,152.33957219996955,152.33957219996955,152.33957219996955,152.33957219996955,152.33957219996955,152.33957219996955,23,0,,,152.33957219996955,152.54156649997458,1000,152.54156649997458,1000,1000,1000,1000,1,num_2,1.0246936999610625,,26,3,2026-03-05_10h29.28.386,2026A_exp2,2022.2.4,59.955560941856504,
1000,1,4.9,0.0,1,0,40,40,72,,,,,153.59068449999904,154.24158109998098,154.24158109998098,154.74262089998228,315,315,154.74262089998228,154.74262089998228,154.74262089998228,154.74262089998228,154.74262089998228,154.74262089998228,154.74262089998228,154.74262089998228,154.74262089998228,155.10889849998057,155.10889849998057,155.10889849998057,155.10889849998057,155.10889849998057,155.10889849998057,155.10889849998057,155.10889849998057,155.10889849998057,23,0,,,155.10889849998057,155.3118779999786,1000,155.3118779999786,1000,1000,1000,1000,0,num_3,0.6140792000223882,,26,3,2026-03-05_10h29.28.386,2026A_exp2,2022.2.4,59.955560941856504,
1,0,0.0,6.1,0,0,41,41,5,,,,,155.9430762999691,156.59384399995906,156.59384399995906,157.0950316999806,45,45,157.0950316999806,157.0950316999806,157.0950316999806,157.0950316999806,157.0950316999806,157.0950316999806,157.0950316999806,157.0950316999806,157.0950316999806,157.46143389999634,157.46143389999634,157.46143389999634,157.46143389999634,157.46143389999634,157.46143389999634,157.46143389999634,157.46143389999634,157.46143389999634,23,0,,,157.46143389999634,157.6616473000031,0.0,157.6616473000031,0,0.0,0,1,1000,num_1,0.8480027000186965,,26,3,2026-03-05_10h29.28.386,2026A_exp2,2022.2.4,59.955560941856504,
1,0,4.9,0.0,1,0,42,42,82,,,,,158.52912929997547,159.17965199996252,159.17965199996252,159.68092259997502,45,315,159.68092259997502,159.68092259997502,159.68092259997502,159.68092259997502,159.68092259997502,159.68092259997502,159.68092259997502,159.68092259997502,159.68092259997502,160.03065450000577,160.03065450000577,160.03065450000577,160.03065450000577,160.03065450000577,160.03065450000577,160.03065450000577,160.03065450000577,160.03065450000577,15,2,"[0.050316000008024275, 0.21711560001131147]","[0.15019529999699444, 0.23363960004644468]",160.03065450000577,160.23092139995424,0.0,160.23092139995424,0,0.0,0,1,1000,num_1,0.7507497000042349,,26,3,2026-03-05_10h29.28.386,2026A_exp2,2022.2.4,59.955560941856504,
0,0,0.0,3.7,1,0,43,43,21,,,,,160.99840589996893,161.63226260000374,161.63226260000374,162.1333992999862,45,315,162.1333992999862,162.1333992999862,162.1333992999862,162.1333992999862,162.1333992999862,162.1333992999862,162.1333992999862,162.1333992999862,162.1333992999862,162.49979849997908,162.49979849997908,162.49979849997908,162.49979849997908,162.49979849997908,162.49979849997908,162.49979849997908,162.49979849997908,162.49979849997908,8,3,"[0.0012105999630875885, 0.2503933999687433, 0.3506247999612242]","[0.23364270001184195, 0.26715969998622313, 0.36709169996902347]",162.49979849997908,162.69980030000443,0.0,162.69980030000443,0,0.0,0,1,1000,num_1,0.7136094000306912,,26,3,2026-03-05_10h29.28.386,2026A_exp2,2022.2.4,59.955560941856504,
1,0,6.1,4.9,1,0,44,44,35,,,,,163.4340943999705,164.0847170999623,164.0847170999623,164.5691288000089,45,45,164.5691288000089,164.5691288000089,164.5691288000089,164.5691288000089,164.5691288000089,164.5691288000089,164.5691288000089,164.5691288000089,164.5691288000089,164.93554450001102,164.93554450001102,164.93554450001102,164.93554450001102,164.93554450001102,164.93554450001102,164.93554450001102,164.93554450001102,164.93554450001102,23,0,,,164.93554450001102,165.13581479998538,4.9,165.13581479998538,0,4.9,1,0,1000,num_1,0.7981282999971882,,26,3,2026-03-05_10h29.28.386,2026A_exp2,2022.2.4,59.955560941856504,
1000,1,6.1,0.0,1,0,45,45,60,,,,,165.9533022000105,166.6038920999854,166.6038920999854,167.1048974999576,315,315,167.1048974999576,167.1048974999576,167.1048974999576,167.1048974999576,167.1048974999576,167.1048974999576,167.1048974999576,167.1048974999576,167.1048974999576,167.45466839999426,167.45466839999426,167.45466839999426,167.45466839999426,167.45466839999426,167.45466839999426,167.45466839999426,167.45466839999426,167.45466839999426,22,0,,,167.45466839999426,167.65664149995428,1000,167.65664149995428,1000,1000,1000,1000,0,num_3,0.5173848000122234,,26,3,2026-03-05_10h29.28.386,2026A_exp2,2022.2.4,59.955560941856504,
1000,1,6.1,3.7,1,0,46,46,24,,,,,168.20554890000494,168.85616039996967,168.85616039996967,169.35729289997835,45,45,169.35729289997835,169.35729289997835,169.35729289997835,169.35729289997835,169.35729289997835,169.35729289997835,169.35729289997835,169.35729289997835,169.35729289997835,169.70688750001136,169.70688750001136,169.70688750001136,169.70688750001136,169.70688750001136,169.70688750001136,169.70688750001136,169.70688750001136,169.70688750001136,22,0,,,169.70688750001136,169.90898959996412,1000,169.90898959996412,1000,1000,1000,1000,0,num_3,0.6010307000251487,,26,3,2026-03-05_10h29.28.386,2026A_exp2,2022.2.4,59.955560941856504,
1,0,4.9,4.9,0,0,47,47,63,,,,,170.5410894000088,171.19167390000075,171.19167390000075,171.69288789998973,315,315,171.69288789998973,171.69288789998973,171.69288789998973,171.69288789998973,171.69288789998973,171.69288789998973,171.69288789998973,171.69288789998973,171.69288789998973,172.05943610001123,172.05943610001123,172.05943610001123,172.05943610001123,172.05943610001123,172.05943610001123,172.05943610001123,172.05943610001123,172.05943610001123,23,0,,,172.05943610001123,172.25953659997322,4.9,172.25953659997322,1,4.9,1,1,1000,num_4,2.3377086999826133,,26,3,2026-03-05_10h29.28.386,2026A_exp2,2022.2.4,59.955560941856504,
1000,1,4.9,0.0,1,0,48,48,25,,,,,174.62840290000895,175.27913469995838,175.27913469995838,175.76364319998538,45,45,175.76364319998538,175.76364319998538,175.76364319998538,175.76364319998538,175.76364319998538,175.76364319998538,175.76364319998538,175.76364319998538,175.76364319998538,176.13002689997666,176.13002689997666,176.13002689997666,176.13002689997666,176.13002689997666,176.13002689997666,176.13002689997666,176.13002689997666,176.13002689997666,23,0,,,176.13002689997666,176.33244480000576,1000,176.33244480000576,1000,1000,1000,1000,0,num_3,0.5448695000377484,,26,3,2026-03-05_10h29.28.386,2026A_exp2,2022.2.4,59.955560941856504,
1000,1,0.0,0.0,1,0,49,49,23,,,,,176.8973784999689,177.5570585000096,177.5570585000096,178.0514780000085,315,315,178.0514780000085,178.0514780000085,178.0514780000085,178.0514780000085,178.0514780000085,178.0514780000085,178.0514780000085,178.0514780000085,178.0514780000085,178.41580690001138,178.41580690001138,178.41580690001138,178.41580690001138,178.41580690001138,178.41580690001138,178.41580690001138,178.41580690001138,178.41580690001138,23,0,,,178.41580690001138,178.61800550000044,1000,178.61800550000044,1000,1000,1000,1000,1,num_2,1.0041333000408486,,26,3,2026-03-05_10h29.28.386,2026A_exp2,2022.2.4,59.955560941856504,
1000,1,4.9,0.0,0,0,50,50,22,,,,,179.65009029995417,180.3009910999681,180.3009910999681,180.80202100001043,315,45,180.80202100001043,180.80202100001043,180.80202100001043,180.80202100001043,180.80202100001043,180.80202100001043,180.80202100001043,180.80202100001043,180.80202100001043,181.16843299998436,181.16843299998436,181.16843299998436,181.16843299998436,181.16843299998436,181.16843299998436,181.16843299998436,181.16843299998436,181.16843299998436,23,0,,,181.16843299998436,181.3702626999584,1000,181.3702626999584,1000,1000,1000,1000,0,num_3,0.6514315999811515,,26,3,2026-03-05_10h29.28.386,2026A_exp2,2022.2.4,59.955560941856504,
1,0,0.0,0.0,1,0,51,51,37,,,,,182.05267469998216,182.70328249997692,182.70328249997692,183.20442929997807,45,315,183.20442929997807,183.20442929997807,183.20442929997807,183.20442929997807,183.20442929997807,183.20442929997807,183.20442929997807,183.20442929997807,183.20442929997807,183.57088799995836,183.57088799995836,183.57088799995836,183.57088799995836,183.57088799995836,183.57088799995836,183.57088799995836,183.57088799995836,183.57088799995836,23,0,,,183.57088799995836,183.77099609997822,0.0,183.77099609997822,1,0.0,0,0,1000,num_4,1.178297999955248,,26,3,2026-03-05_10h29.28.386,2026A_exp2,2022.2.4,59.955560941856504,
1,0,6.1,0.0,1,0,52,52,13,,,,,184.97200419998262,185.62296419998165,185.62296419998165,186.10737669997616,315,315,186.10737669997616,186.10737669997616,186.10737669997616,186.10737669997616,186.10737669997616,186.10737669997616,186.10737669997616,186.10737669997616,186.10737669997616,186.47358469996834,186.47358469996834,186.47358469996834,186.47358469996834,186.47358469996834,186.47358469996834,186.47358469996834,186.47358469996834,186.47358469996834,23,0,,,186.47358469996834,186.67387880000751,0.0,186.67387880000751,0,0.0,0,1,1000,num_1,0.7234608000144362,,26,3,2026-03-05_10h29.28.386,2026A_exp2,2022.2.4,59.955560941856504,
1,0,0.0,4.9,1,0,53,53,45,,,,,187.42458910000278,188.05872410000302,188.05872410000302,188.55980779998936,45,315,188.55980779998936,188.55980779998936,188.55980779998936,188.55980779998936,188.55980779998936,188.55980779998936,188.55980779998936,188.55980779998936,188.55980779998936,188.92623629997252,188.92623629997252,188.92623629997252,188.92623629997252,188.92623629997252,188.92623629997252,188.92623629997252,188.92623629997252,188.92623629997252,23,0,,,188.92623629997252,189.12641359999543,4.9,189.12641359999543,1,4.9,1,1,1000,num_4,0.7112099000369199,,26,3,2026-03-05_10h29.28.386,2026A_exp2,2022.2.4,59.955560941856504,
1,0,4.9,6.1,1,0,54,54,86,,,,,189.86039089999394,190.51111419999506,190.51111419999506,190.99558449996402,45,315,190.99558449996402,190.99558449996402,190.99558449996402,190.99558449996402,190.99558449996402,190.99558449996402,190.99558449996402,190.99558449996402,190.99558449996402,191.36189399997238,191.36189399997238,191.36189399997238,191.36189399997238,191.36189399997238,191.36189399997238,191.36189399997238,191.36189399997238,191.36189399997238,23,0,,,191.36189399997238,191.56210219999775,6.1,191.57872489996953,1,6.1,1,1,1000,num_4,1.4115819999715313,,26,3,2026-03-05_10h29.28.386,2026A_exp2,2022.2.4,59.955560941856504,
1000,1,0.0,0.0,1,0,55,55,29,,,,,193.01360969996313,193.66430219996255,193.66430219996255,194.14869949995773,315,315,194.14869949995773,194.14869949995773,194.14869949995773,194.14869949995773,194.14869949995773,194.14869949995773,194.14869949995773,194.14869949995773,194.14869949995773,194.51523229997838,194.51523229997838,194.51523229997838,194.51523229997838,194.51523229997838,194.51523229997838,194.51523229997838,194.51523229997838,194.51523229997838,23,0,,,194.51523229997838,194.71693359996425,1000,194.71693359996425,1000,1000,1000,1000,1,num_2,0.936991200025659,,26,3,2026-03-05_10h29.28.386,2026A_exp2,2022.2.4,59.955560941856504,
1,0,0.0,0.0,1,0,56,56,41,,,,,195.68286209995858,196.33359049999854,196.33359049999854,196.8347868999699,45,315,196.8347868999699,196.8347868999699,196.8347868999699,196.8347868999699,196.8347868999699,196.8347868999699,196.8347868999699,196.8347868999699,196.8347868999699,197.2015345999971,197.2015345999971,197.2015345999971,197.2015345999971,197.2015345999971,197.2015345999971,197.2015345999971,197.2015345999971,197.2015345999971,21,1,[0.33369519998086616],[0.36709920002613217],197.2015345999971,197.40128429996548,0.0,197.40128429996548,1,0.0,0,0,1000,num_4,1.1401904000085779,,26,3,2026-03-05_10h29.28.386,2026A_exp2,2022.2.4,59.955560941856504,
1000,1,4.9,4.9,0,0,57,57,42,,,,,198.56923959997948,199.21991459996207,199.21991459996207,199.72092569997767,45,45,199.72092569997767,199.72092569997767,199.72092569997767,199.72092569997767,199.72092569997767,199.72092569997767,199.72092569997767,199.72092569997767,199.72092569997767,200.0873974999995,200.0873974999995,200.0873974999995,200.0873974999995,200.0873974999995,200.0873974999995,200.0873974999995,200.0873974999995,200.0873974999995,23,0,,,200.0873974999995,200.2892550000106,1000,200.2892550000106,1000,1000,1000,1000,0,num_3,0.6687974000233226,,26,3,2026-03-05_10h29.28.386,2026A_exp2,2022.2.4,59.955560941856504,
0,0,0.0,0.0,1,0,58,58,8,,,,,200.98814059997676,201.63874239998404,201.63874239998404,202.14016069995705,45,45,202.14016069995705,202.14016069995705,202.14016069995705,202.14016069995705,202.14016069995705,202.14016069995705,202.14016069995705,202.14016069995705,202.14016069995705,202.5064616999589,202.5064616999589,202.5064616999589,202.5064616999589,202.5064616999589,202.5064616999589,202.5064616999589,202.5064616999589,202.5064616999589,23,0,,,202.5064616999589,202.70653409999795,0.0,202.70653409999795,0,0.0,0,1,1000,num_1,1.755162100016605,,26,3,2026-03-05_10h29.28.386,2026A_exp2,2022.2.4,59.955560941856504,
1000,1,0.0,4.9,0,0,59,59,77,,,,,204.49164859997109,205.14242659998126,205.14242659998126,205.6268855999806,315,315,205.6268855999806,205.6268855999806,205.6268855999806,205.6268855999806,205.6268855999806,205.6268855999806,205.6268855999806,205.6268855999806,205.6268855999806,205.99324599996908,205.99324599996908,205.99324599996908,205.99324599996908,205.99324599996908,205.99324599996908,205.99324599996908,205.99324599996908,205.99324599996908,23,0,,,205.99324599996908,206.1957251999993,1000,206.1957251999993,1000,1000,1000,1000,1,num_2,0.6015114999609068,,26,3,2026-03-05_10h29.28.386,2026A_exp2,2022.2.4,59.955560941856504,
1000,1,0.0,3.7,0,0,60,60,44,,,,,206.82730929995887,207.47806920000585,207.47806920000585,207.9791769000003,315,315,207.9791769000003,207.9791769000003,207.9791769000003,207.9791769000003,207.9791769000003,207.9791769000003,207.9791769000003,207.9791769000003,207.9791769000003,208.3457581999828,208.3457581999828,208.3457581999828,208.3457581999828,208.3457581999828,208.3457581999828,208.3457581999828,208.3457581999828,208.3457581999828,17,3,"[0.23367700004018843, 0.2834443000028841, 0.3665274000377394]","[0.25042779999785125, 0.35037960001500323, 0.3665301000000909]",208.3457581999828,208.54805699997814,1000,208.54805699997814,1000,1000,1000,1000,0,num_3,0.9775218000286259,,26,3,2026-03-05_10h29.28.386,2026A_exp2,2022.2.4,59.955560941856504,
1,0,0.0,0.0,1,0,61,61,18,,,,,209.5467903999961,210.19739099999424,210.19739099999424,210.69857720000437,45,315,210.69857720000437,210.69857720000437,210.69857720000437,210.69857720000437,210.69857720000437,210.69857720000437,210.69857720000437,210.69857720000437,210.69857720000437,211.06503409997094,211.06503409997094,211.06503409997094,211.06503409997094,211.06503409997094,211.06503409997094,211.06503409997094,211.06503409997094,211.06503409997094,0,1,[0.001233800023328513],[0.3671009999816306],211.06503409997094,211.26524269999936,0.0,211.26524269999936,0,0.0,0,1,1000,num_1,1.5487716000061482,,26,3,2026-03-05_10h29.28.386,2026A_exp2,2022.2.4,59.955560941856504,
1000,1,6.1,3.7,1,0,62,62,10,,,,,212.8332783000078,213.4839767999947,213.4839767999947,213.96855719998712,45,45,213.96855719998712,213.96855719998712,213.96855719998712,213.96855719998712,213.96855719998712,213.96855719998712,213.96855719998712,213.96855719998712,213.96855719998712,214.33491769997636,214.33491769997636,214.33491769997636,214.33491769997636,214.33491769997636,214.33491769997636,214.33491769997636,214.33491769997636,214.33491769997636,23,0,,,214.33491769997636,214.53523009998025,1000,214.53523009998025,1000,1000,1000,1000,0,num_3,0.5503046000376344,,26,3,2026-03-05_10h29.28.386,2026A_exp2,2022.2.4,59.955560941856504,
1,0,4.9,0.0,1,0,63,63,84,,,,,215.1023290999583,215.75310589995934,215.75310589995934,216.25418200000422,315,45,216.25418200000422,216.25418200000422,216.25418200000422,216.25418200000422,216.25418200000422,216.25418200000422,216.25418200000422,216.25418200000422,216.25418200000422,216.62080079998123,216.62080079998123,216.62080079998123,216.62080079998123,216.62080079998123,216.62080079998123,216.62080079998123,216.62080079998123,216.62080079998123,0,1,[0.001420099986717105],[0.366630400007125],216.62080079998123,216.82073459995445,0.0,216.82073459995445,0,0.0,0,1,1000,num_1,1.88996080000652,,26,3,2026-03-05_10h29.28.386,2026A_exp2,2022.2.4,59.955560941856504,
1,0,0.0,0.0,1,0,64,64,66,,,,,218.73947769997176,219.37332509999396,219.37332509999396,219.87448569998378,315,45,219.87448569998378,219.87448569998378,219.87448569998378,219.87448569998378,219.87448569998378,219.87448569998378,219.87448569998378,219.87448569998378,219.87448569998378,220.24085509998258,220.24085509998258,220.24085509998258,220.24085509998258,220.24085509998258,220.24085509998258,220.24085509998258,220.24085509998258,220.24085509998258,19,2,"[0.0012916999985463917, 0.06671990000177175]","[0.03347100003156811, 0.08324190002167597]",220.24085509998258,220.44112279999536,0.0,220.44112279999536,1,0.0,0,0,1000,num_4,1.116485200007446,,26,3,2026-03-05_10h29.28.386,2026A_exp2,2022.2.4,59.955560941856504,
1000,1,0.0,4.9,1,0,65,65,27,,,,,221.57534709997708,222.22622939996654,222.22622939996654,222.71064479998313,45,315,222.71064479998313,222.71064479998313,222.71064479998313,222.71064479998313,222.71064479998313,222.71064479998313,222.71064479998313,222.71064479998313,222.71064479998313,223.07706749998033,223.07706749998033,223.07706749998033,223.07706749998033,223.07706749998033,223.07706749998033,223.07706749998033,223.07706749998033,223.07706749998033,23,0,,,223.07706749998033,223.2792627000017,1000,223.2792627000017,1000,1000,1000,1000,1,num_2,0.6462281999993138,,26,3,2026-03-05_10h29.28.386,2026A_exp2,2022.2.4,59.955560941856504,
1,0,4.9,6.1,1,0,66,66,46,,,,,223.9446353999665,224.59526109998114,224.59526109998114,225.09618549997685,45,45,225.09618549997685,225.09618549997685,225.09618549997685,225.09618549997685,225.09618549997685,225.09618549997685,225.09618549997685,225.09618549997685,225.09618549997685,225.46271359996172,225.46271359996172,225.46271359996172,225.46271359996172,225.46271359996172,225.46271359996172,225.46271359996172,225.46271359996172,225.46271359996172,23,0,,,225.46271359996172,225.66287060000468,6.1,225.66287060000468,1,6.1,1,1,1000,num_4,0.9672164000221528,,26,3,2026-03-05_10h29.28.386,2026A_exp2,2022.2.4,59.955560941856504,
1,0,0.0,0.0,1,0,67,67,43,,,,,226.64703839999856,227.29792809998617,227.29792809998617,227.782299399958,45,315,227.782299399958,227.782299399958,227.782299399958,227.782299399958,227.782299399958,227.782299399958,227.782299399958,227.782299399958,227.782299399958,228.14869949995773,228.14869949995773,228.14869949995773,228.14869949995773,228.14869949995773,228.14869949995773,228.14869949995773,228.14869949995773,228.14869949995773,23,0,,,228.14869949995773,228.3490375999827,0.0,228.3490375999827,1,0.0,0,0,1000,num_4,1.8963858000352047,,26,3,2026-03-05_10h29.28.386,2026A_exp2,2022.2.4,59.955560941856504,
0,0,0.0,0.0,1,0,68,68,62,,,,,230.26734969997779,230.9181769999559,230.9181769999559,231.40269109996734,315,315,231.40269109996734,231.40269109996734,231.40269109996734,231.40269109996734,231.40269109996734,231.40269109996734,231.40269109996734,231.40269109996734,231.40269109996734,231.76916470000288,231.76916470000288,231.76916470000288,231.76916470000288,231.76916470000288,231.76916470000288,231.76916470000288,231.76916470000288,231.76916470000288,21,2,"[0.0007376999710686505, 0.08244009996997193]","[0.016290700004901737, 0.09914810000918806]",231.76916470000288,231.96913449995918,0.0,231.96913449995918,0,0.0,0,1,1000,num_1,1.0528502999804914,,26,3,2026-03-05_10h29.28.386,2026A_exp2,2022.2.4,59.955560941856504,
1,0,0.0,0.0,0,0,69,69,38,,,,,233.0535785999964,233.7042403999949,233.7042403999949,234.18876509997062,45,315,234.18876509997062,234.18876509997062,234.18876509997062,234.18876509997062,234.18876509997062,234.18876509997062,234.18876509997062,234.18876509997062,234.18876509997062,234.55520899995463,234.55520899995463,234.55520899995463,234.55520899995463,234.55520899995463,234.55520899995463,234.55520899995463,234.55520899995463,234.55520899995463,6,2,"[0.08306609996361658, 0.25031819997821003]","[0.23367789998883381, 0.3672295999713242]",234.55520899995463,234.75537669996265,0.0,234.75537669996265,0,0.0,0,1,1000,num_1,1.1220006999792531,,26,3,2026-03-05_10h29.28.386,2026A_exp2,2022.2.4,59.955560941856504,
1,0,0.0,0.0,0,0,70,70,2,,,,,235.90633139997954,236.55726069997763,236.55726069997763,237.0415703000035,315,45,237.0415703000035,237.0415703000035,237.0415703000035,237.0415703000035,237.0415703000035,237.0415703000035,237.0415703000035,237.0415703000035,237.0415703000035,237.4079130999744,237.4079130999744,237.4079130999744,237.4079130999744,237.4079130999744,237.4079130999744,237.4079130999744,237.4079130999744,237.4079130999744,19,1,[0.31642619997728616],[0.3671354000107385],237.4079130999744,237.60817899997346,0.0,237.60817899997346,0,0.0,0,1,1000,num_1,1.9170683000120334,,26,3,2026-03-05_10h29.28.386,2026A_exp2,2022.2.4,59.955560941856504,
1000,1,0.0,0.0,1,0,71,71,7,,,,,239.54335829999764,240.19421069999225,240.19421069999225,240.67853380000452,45,315,240.67853380000452,240.67853380000452,240.67853380000452,240.67853380000452,240.67853380000452,240.67853380000452,240.67853380000452,240.67853380000452,240.67853380000452,241.04503669997212,241.04503669997212,241.04503669997212,241.04503669997212,241.04503669997212,241.04503669997212,241.04503669997212,241.04503669997212,241.04503669997212,0,1,[0.0012223999947309494],[0.3671473999856971],241.04503669997212,241.24679519998608,1000,241.24679519998608,1000,1000,1000,1000,1,num_2,0.8473247999791056,,26,3,2026-03-05_10h29.28.386,2026A_exp2,2022.2.4,59.955560941856504,
1000,1,0.0,0.0,0,0,72,72,75,,,,,242.1126444999827,242.76337749999948,242.76337749999948,243.26453899999615,45,315,243.26453899999615,243.26453899999615,243.26453899999615,243.26453899999615,243.26453899999615,243.26453899999615,243.26453899999615,243.26453899999615,243.26453899999615,243.6309493999579,243.6309493999579,243.6309493999579,243.6309493999579,243.6309493999579,243.6309493999579,243.6309493999579,243.6309493999579,243.6309493999579,22,1,[0.3670579000026919],[0.3670628999825567],243.6309493999579,243.832871599996,1000,243.832871599996,1000,1000,1000,1000,1,num_2,1.189343000005465,,26,3,2026-03-05_10h29.28.386,2026A_exp2,2022.2.4,59.955560941856504,
1000,1,4.9,4.9,0,0,73,73,31,,,,,245.04896099999314,245.69956119998824,245.69956119998824,246.20077309996122,315,315,246.20077309996122,246.20077309996122,246.20077309996122,246.20077309996122,246.20077309996122,246.20077309996122,246.20077309996122,246.20077309996122,246.20077309996122,246.56724559998838,246.56724559998838,246.56724559998838,246.56724559998838,246.56724559998838,246.56724559998838,246.56724559998838,246.56724559998838,246.56724559998838,23,0,,,246.56724559998838,246.76928740000585,1000,246.76928740000585,1000,1000,1000,1000,1,num_2,1.7000236999592744,,26,3,2026-03-05_10h29.28.386,2026A_exp2,2022.2.4,59.955560941856504,
1,0,6.1,3.7,0,0,74,74,26,,,,,248.4855945999734,249.13636179995956,249.13636179995956,249.63736569997855,45,315,249.63736569997855,249.63736569997855,249.63736569997855,249.63736569997855,249.63736569997855,249.63736569997855,249.63736569997855,249.63736569997855,249.63736569997855,250.00389009999344,250.00389009999344,250.00389009999344,250.00389009999344,250.00389009999344,250.00389009999344,250.00389009999344,250.00389009999344,250.00389009999344,23,0,,,250.00389009999344,250.20410239999183,6.1,250.20410239999183,1,6.1,1,1,1000,num_4,0.8978751000249758,,26,3,2026-03-05_10h29.28.386,2026A_exp2,2022.2.4,59.955560941856504,
1000,1,0.0,4.9,0,0,75,75,11,,,,,251.12181419995613,251.77239209995605,251.77239209995605,252.2566983999568,315,45,252.2566983999568,252.2566983999568,252.2566983999568,252.2566983999568,252.2566983999568,252.2566983999568,252.2566983999568,252.2566983999568,252.2566983999568,252.6232869999949,252.6232869999949,252.6232869999949,252.6232869999949,252.6232869999949,252.6232869999949,252.6232869999949,252.6232869999949,252.6232869999949,0,1,[0.0012452999944798648],[0.36702159995911643],252.6232869999949,252.825521199964,1000,252.825521199964,1000,1000,1000,1000,1,num_2,0.5089623000239953,,26,3,2026-03-05_10h29.28.386,2026A_exp2,2022.2.4,59.955560941856504,
1000,1,0.0,4.9,1,0,76,76,51,,,,,253.35716819996014,254.00799379998352,254.00799379998352,254.50913839996792,315,315,254.50913839996792,254.50913839996792,254.50913839996792,254.50913839996792,254.50913839996792,254.50913839996792,254.50913839996792,254.50913839996792,254.50913839996792,254.87542940001003,254.87542940001003,254.87542940001003,254.87542940001003,254.87542940001003,254.87542940001003,254.87542940001003,254.87542940001003,254.87542940001003,23,0,,,254.87542940001003,255.07543739996618,1000,255.07543739996618,1000,1000,1000,1000,1,num_2,0.458501199958846,,26,3,2026-03-05_10h29.28.386,2026A_exp2,2022.2.4,59.955560941856504,
1000,1,3.7,6.1,0,0,77,77,28,,,,,255.55926429998362,256.2101183999912,256.2101183999912,256.7113837999641,45,315,256.7113837999641,256.7113837999641,256.7113837999641,256.7113837999641,256.7113837999641,256.7113837999641,256.7113837999641,256.7113837999641,256.7113837999641,257.07771969999885,257.07771969999885,257.07771969999885,257.07771969999885,257.07771969999885,257.07771969999885,257.07771969999885,257.07771969999885,257.07771969999885,8,3,"[0.0007932999869808555, 0.23414119996596128, 0.26751979999244213]","[0.2175221999641508, 0.25065279996488243, 0.2840618999907747]",257.07771969999885,257.27984779997496,1000,257.27984779997496,1000,1000,1000,1000,1,num_2,0.694088299991563,,26,3,2026-03-05_10h29.28.386,2026A_exp2,2022.2.4,59.955560941856504,
1,0,0.0,3.7,0,0,78,78,12,,,,,257.99538759997813,258.6538486999925,258.6538486999925,259.1510144000058,45,45,259.1510144000058,259.1510144000058,259.1510144000058,259.1510144000058,259.1510144000058,259.1510144000058,259.1510144000058,259.1510144000058,259.1510144000058,259.5134781000088,259.5134781000088,259.5134781000088,259.5134781000088,259.5134781000088,259.5134781000088,259.5134781000088,259.5134781000088,259.5134781000088,23,0,,,259.5134781000088,259.7136788999778,0.0,259.7136788999778,0,0.0,0,1,1000,num_1,1.2125821000081487,,26,3,2026-03-05_10h29.28.386,2026A_exp2,2022.2.4,59.955560941856504,
1,0,4.9,0.0,0,0,79,79,48,,,,,260.94802559999516,261.5989166999934,261.5989166999934,262.0833889999776,45,45,262.0833889999776,262.0833889999776,262.0833889999776,262.0833889999776,262.0833889999776,262.0833889999776,262.0833889999776,262.0833889999776,262.0833889999776,262.4497754999902,262.4497754999902,262.4497754999902,262.4497754999902,262.4497754999902,262.4497754999902,262.4497754999902,262.4497754999902,262.4497754999902,23,0,,,262.4497754999902,262.6498782999697,4.9,262.6498782999697,1,4.9,1,1,1000,num_4,0.7402389000053518,,26,3,2026-03-05_10h29.28.386,2026A_exp2,2022.2.4,59.955560941856504,
1000,1,0.0,0.0,0,0,80,80,69,,,,,263.4171578999958,264.068100399978,264.068100399978,264.5523038000101,45,45,264.5523038000101,264.5523038000101,264.5523038000101,264.5523038000101,264.5523038000101,264.5523038000101,264.5523038000101,264.5523038000101,264.5523038000101,264.9189264999586,264.9189264999586,264.9189264999586,264.9189264999586,264.9189264999586,264.9189264999586,264.9189264999586,264.9189264999586,264.9189264999586,23,0,,,264.9189264999586,265.120400899963,1000,265.120400899963,1000,1000,1000,1000,1,num_2,0.5488634000066668,,26,3,2026-03-05_10h29.28.386,2026A_exp2,2022.2.4,59.955560941856504,
0,0,0.0,4.9,1,0,81,81,56,,,,,265.68626290000975,266.3370986999944,266.3370986999944,266.8377946999972,45,315,266.8377946999972,266.8377946999972,266.8377946999972,266.8377946999972,266.8377946999972,266.8377946999972,266.8377946999972,266.8377946999972,266.8377946999972,267.2044604999828,267.2044604999828,267.2044604999828,267.2044604999828,267.2044604999828,267.2044604999828,267.2044604999828,267.2044604999828,267.2044604999828,23,0,,,267.2044604999828,267.40458189998753,0.0,267.40458189998753,0,0.0,0,1,1000,num_1,1.0974551999825053,,26,3,2026-03-05_10h29.28.386,2026A_exp2,2022.2.4,59.955560941856504,
1000,1,0.0,0.0,1,0,82,82,47,,,,,268.52232559997356,269.17314029997215,269.17314029997215,269.65746620000573,315,315,269.65746620000573,269.65746620000573,269.65746620000573,269.65746620000573,269.65746620000573,269.65746620000573,269.65746620000573,269.65746620000573,269.65746620000573,270.023991199967,270.023991199967,270.023991199967,270.023991199967,270.023991199967,270.023991199967,270.023991199967,270.023991199967,270.023991199967,23,0,,,270.023991199967,270.2275313999853,1000,270.2275313999853,1000,1000,1000,1000,1,num_2,0.75451499997871,,26,3,2026-03-05_10h29.28.386,2026A_exp2,2022.2.4,59.955560941856504,
1,0,4.9,4.9,1,0,83,83,89,,,,,271.0081379999756,271.65888369997265,271.65888369997265,272.16004329995485,45,315,272.16004329995485,272.16004329995485,272.16004329995485,272.16004329995485,272.16004329995485,272.16004329995485,272.16004329995485,272.16004329995485,272.16004329995485,272.52639329998055,272.52639329998055,272.52639329998055,272.52639329998055,272.52639329998055,272.52639329998055,272.52639329998055,272.52639329998055,272.52639329998055,23,0,,,272.52639329998055,272.7265435999725,4.9,272.7265435999725,1,4.9,1,1,1000,num_4,0.9186564999981783,,26,3,2026-03-05_10h29.28.386,2026A_exp2,2022.2.4,59.955560941856504,
1000,1,6.1,3.7,0,0,84,84,87,,,,,273.660798900004,274.31161009997595,274.31161009997595,274.81273070001043,45,45,274.81273070001043,274.81273070001043,274.81273070001043,274.81273070001043,274.81273070001043,274.81273070001043,274.81273070001043,274.81273070001043,274.81273070001043,275.1624634999898,275.1624634999898,275.1624634999898,275.1624634999898,275.1624634999898,275.1624634999898,275.1624634999898,275.1624634999898,275.1624634999898,20,2,"[0.16699600004358217, 0.25011630001245067]","[0.18365459999768063, 0.26708720001624897]",275.1624634999898,275.3644579999964,1000,275.3644579999964,1000,1000,1000,1000,0,num_3,0.9295048000058159,,26,3,2026-03-05_10h29.28.386,2026A_exp2,2022.2.4,59.955560941856504,
1000,1,4.9,3.7,1,0,85,85,32,,,,,276.313461999991,276.9642487000092,276.9642487000092,277.4651715999935,315,45,277.4651715999935,277.4651715999935,277.4651715999935,277.4651715999935,277.4651715999935,277.4651715999935,277.4651715999935,277.4651715999935,277.4651715999935,277.8317342000082,277.8317342000082,277.8317342000082,277.8317342000082,277.8317342000082,277.8317342000082,277.8317342000082,277.8317342000082,277.8317342000082,23,0,,,277.8317342000082,278.0336129000061,1000,278.0336129000061,1000,1000,1000,1000,0,num_3,0.6684516000095755,,26,3,2026-03-05_10h29.28.386,2026A_exp2,2022.2.4,59.955560941856504,
1,0,0.0,0.0,0,0,86,86,9,,,,,278.7329596999916,279.3913354999968,279.3913354999968,279.87173079996137,315,45,279.87173079996137,279.87173079996137,279.87173079996137,279.87173079996137,279.87173079996137,279.87173079996137,279.87173079996137,279.87173079996137,279.87173079996137,280.23406149999937,280.23406149999937,280.23406149999937,280.23406149999937,280.23406149999937,280.23406149999937,280.23406149999937,280.23406149999937,280.23406149999937,23,0,,,280.23406149999937,280.4343805999961,0.0,280.4343805999961,0,0.0,0,1,1000,num_1,1.3070522000198252,,26,3,2026-03-05_10h29.28.386,2026A_exp2,2022.2.4,59.955560941856504,
1,0,4.9,6.1,0,0,87,87,15,,,,,281.76922239997657,282.4198434999562,282.4198434999562,282.90403909998713,315,315,282.90403909998713,282.90403909998713,282.90403909998713,282.90403909998713,282.90403909998713,282.90403909998713,282.90403909998713,282.90403909998713,282.90403909998713,283.27039679995505,283.27039679995505,283.27039679995505,283.27039679995505,283.27039679995505,283.27039679995505,283.27039679995505,283.27039679995505,283.27039679995505,21,1,[0.06636479997541755],[0.0996887999936007],283.27039679995505,283.4707236000104,4.9,283.4707236000104,0,4.9,1,0,1000,num_1,0.8956274000229314,,26,3,2026-03-05_10h29.28.386,2026A_exp2,2022.2.4,59.955560941856504,
1000,1,0.0,3.7,1,0,88,88,80,,,,,284.3881948000053,285.03893400001107,285.03893400001107,285.52342909999425,45,45,285.52342909999425,285.52342909999425,285.52342909999425,285.52342909999425,285.52342909999425,285.52342909999425,285.52342909999425,285.52342909999425,285.52342909999425,285.889685800008,285.889685800008,285.889685800008,285.889685800008,285.889685800008,285.889685800008,285.889685800008,285.889685800008,285.889685800008,23,0,,,285.889685800008,286.09161850000964,1000,286.09161850000964,1000,1000,1000,1000,1,num_2,0.633692900009919,,26,3,2026-03-05_10h29.28.386,2026A_exp2,2022.2.4,59.955560941856504,
1000,1,4.9,0.0,0,0,89,89,36,,,,,286.7405368000036,287.3913750000065,287.3913750000065,287.8922805999755,45,315,287.8922805999755,287.8922805999755,287.8922805999755,287.8922805999755,287.8922805999755,287.8922805999755,287.8922805999755,287.8922805999755,287.8922805999755,288.25893579999683,288.25893579999683,288.25893579999683,288.25893579999683,288.25893579999683,288.25893579999683,288.25893579999683,288.25893579999683,288.25893579999683,23,0,,,288.25893579999683,288.473038199998,1000,288.473038199998,1000,1000,1000,1000,0,num_3,0.5171307999989949,,26,3,2026-03-05_10h29.28.386,2026A_exp2,2022.2.4,59.955560941856504,
,,,,,,,,,,,,,,,,,,,,,,,,,,,,,,,,,,,,,,,,,,,,,,,,,,,,289.01888250000775,,,,,,,
