validity,detectorcomp,contrastCW,contrastCCW,precueCWorCCW,block_80trials.thisRepN,block_80trials.thisTrialN,block_80trials.thisN,block_80trials.thisIndex,etRecord.started,etRecord.stopped,text.started,text.stopped,text_4.started,text_4.stopped,text_6.started,text_6.stopped,oriCW,oriCCW,roi_2.started,grating_UR.started,grating_UL.started,grating_LR.started,grating_LL.started,noise_UR.started,noise_UL.started,noise_LR.started,noise_LL.started,roi_2.stopped,grating_UR.stopped,grating_UL.stopped,grating_LR.stopped,grating_LL.stopped,noise_UR.stopped,noise_UL.stopped,noise_LR.stopped,noise_LL.stopped,outframe,roi_2.numLooks,roi_2.timesOn,roi_2.timesOff,text_2.started,text_2.stopped,probedcontrast,key_resp.started,respdetect,relevantContrast,correctDetect,TorFdetect,respCWorCCW,key_resp.keys,key_resp.rt,feedback_display_.started,participantNo,blockNo,date,expName,psychopyVersion,frameRate,
0,0,3.7,0.0,1,0,0,0,83,5.479995161294937e-05,5.479995161294937e-05,47.005611800123006,49.00811509997584,49.00811509997584,49.64218370011076,49.64218370011076,50.16613070014864,315,45,50.16613070014864,50.16613070014864,50.16613070014864,50.16613070014864,50.16613070014864,50.16613070014864,50.16613070014864,50.16613070014864,50.16613070014864,50.50979789998382,50.50979789998382,50.50979789998382,50.50979789998382,50.50979789998382,50.50979789998382,50.50979789998382,50.50979789998382,50.50979789998382,23,0,,,50.50979789998382,50.71002220013179,3.7,50.71002220013179,0,3.7,1,0,1000,num_1,0.40619660005904734,,30,11,2026-03-12_11h09.01.531,2026A_exp2,2022.2.4,59.94222764582325,
1,0,0.0,6.1,0,0,1,1,68,,,,,51.14356310013682,51.777691800147295,51.777691800147295,52.278719699941576,315,315,52.278719699941576,52.278719699941576,52.278719699941576,52.278719699941576,52.278719699941576,52.278719699941576,52.278719699941576,52.278719699941576,52.278719699941576,52.645254200091586,52.645254200091586,52.645254200091586,52.645254200091586,52.645254200091586,52.645254200091586,52.645254200091586,52.645254200091586,52.645254200091586,0,1,[0.0012413000222295523],[0.3672078000381589],52.645254200091586,52.845307199982926,0.0,52.845307199982926,0,0.0,0,1,1000,num_1,0.5024892997462302,,30,11,2026-03-12_11h09.01.531,2026A_exp2,2022.2.4,59.94222764582325,
1000,1,3.7,6.1,0,0,2,2,28,,,,,53.37915670010261,54.029888099990785,54.029888099990785,54.531206500018016,45,315,54.531206500018016,54.531206500018016,54.531206500018016,54.531206500018016,54.531206500018016,54.531206500018016,54.531206500018016,54.531206500018016,54.531206500018016,54.88062019995414,54.88062019995414,54.88062019995414,54.88062019995414,54.88062019995414,54.88062019995414,54.88062019995414,54.88062019995414,54.88062019995414,0,1,[0.004717100178822875],[0.36546070012263954],54.88062019995414,55.08611000003293,1000,55.08611000003293,1000,1000,1000,1000,1,num_2,0.3814371000044048,,30,11,2026-03-12_11h09.01.531,2026A_exp2,2022.2.4,59.94222764582325,
1000,1,4.9,3.7,1,0,3,3,32,,,,,55.49815719993785,56.14871610002592,56.14871610002592,56.64989360002801,45,45,56.64989360002801,56.64989360002801,56.64989360002801,56.64989360002801,56.64989360002801,56.64989360002801,56.64989360002801,56.64989360002801,56.64989360002801,57.01600389997475,57.01600389997475,57.01600389997475,57.01600389997475,57.01600389997475,57.01600389997475,57.01600389997475,57.01600389997475,57.01600389997475,1,2,"[0.001243300037458539, 0.3673737000208348]","[0.3522699000313878, 0.36738040018826723]",57.01600389997475,57.21928500011563,1000,57.21928500011563,1000,1000,1000,1000,1,num_2,0.4167392998933792,,30,11,2026-03-12_11h09.01.531,2026A_exp2,2022.2.4,59.94222764582325,
1,0,0.0,4.9,0,0,4,4,85,,,,,57.66701030009426,58.317433899967,58.317433899967,58.81860510003753,45,45,58.81860510003753,58.81860510003753,58.81860510003753,58.81860510003753,58.81860510003753,58.81860510003753,58.81860510003753,58.81860510003753,58.81860510003753,59.18515320005827,59.18515320005827,59.18515320005827,59.18515320005827,59.18515320005827,59.18515320005827,59.18515320005827,59.18515320005827,59.18515320005827,0,1,[0.0012441999278962612],[0.36678309994749725],59.18515320005827,59.385181199992076,0.0,59.385181199992076,0,0.0,0,1,1000,num_1,0.4590458997990936,,30,11,2026-03-12_11h09.01.531,2026A_exp2,2022.2.4,59.94222764582325,
1000,1,6.1,4.9,1,0,5,5,16,,,,,59.8691259000916,60.51982340007089,60.51982340007089,61.00416190014221,315,45,61.00416190014221,61.00416190014221,61.00416190014221,61.00416190014221,61.00416190014221,61.00416190014221,61.00416190014221,61.00416190014221,61.00416190014221,61.37063010013662,61.37063010013662,61.37063010013662,61.37063010013662,61.37063010013662,61.37063010013662,61.37063010013662,61.37063010013662,61.37063010013662,0,1,[0.0013087999541312456],[0.3671484000515193],61.37063010013662,61.57324569998309,1000,61.57324569998309,1000,1000,1000,1000,0,num_3,0.6069334000349045,,30,11,2026-03-12_11h09.01.531,2026A_exp2,2022.2.4,59.94222764582325,
1,0,0.0,0.0,1,0,6,6,70,,,,,62.204673500033095,62.855344200041145,62.855344200041145,63.3565104000736,45,315,63.3565104000736,63.3565104000736,63.3565104000736,63.3565104000736,63.3565104000736,63.3565104000736,63.3565104000736,63.3565104000736,63.3565104000736,63.706511500058696,63.706511500058696,63.706511500058696,63.706511500058696,63.706511500058696,63.706511500058696,63.706511500058696,63.706511500058696,63.706511500058696,0,1,[0.0012312999460846186],[0.35026529990136623],63.706511500058696,63.906542600132525,0.0,63.923187100095674,0,0.0,0,1,1000,num_1,0.2577160997316241,,30,11,2026-03-12_11h09.01.531,2026A_exp2,2022.2.4,59.94222764582325,
1000,1,0.0,3.7,1,0,7,7,80,,,,,64.20670969993807,64.85736360005103,64.85736360005103,65.34162420011126,45,45,65.34162420011126,65.34162420011126,65.34162420011126,65.34162420011126,65.34162420011126,65.34162420011126,65.34162420011126,65.34162420011126,65.34162420011126,65.70817809994332,65.70817809994332,65.70817809994332,65.70817809994332,65.70817809994332,65.70817809994332,65.70817809994332,65.70817809994332,65.70817809994332,0,1,[0.0011293001007288694],[0.36735920002683997],65.70817809994332,65.9105054999236,1000,65.9105054999236,1000,1000,1000,1000,1,num_2,0.4058306999504566,,30,11,2026-03-12_11h09.01.531,2026A_exp2,2022.2.4,59.94222764582325,
1000,1,6.1,0.0,0,0,8,8,19,,,,,66.34224020014517,66.99273360008374,66.99273360008374,67.493996999925,45,45,67.493996999925,67.493996999925,67.493996999925,67.493996999925,67.493996999925,67.493996999925,67.493996999925,67.493996999925,67.493996999925,67.86040739994496,67.86040739994496,67.86040739994496,67.86040739994496,67.86040739994496,67.86040739994496,67.86040739994496,67.86040739994496,67.86040739994496,0,1,[0.0008769000414758921],[0.3676547999493778],67.86040739994496,68.06313270004466,1000,68.06313270004466,1000,1000,1000,1000,0,num_3,0.38847369980067015,,30,11,2026-03-12_11h09.01.531,2026A_exp2,2022.2.4,59.94222764582325,
1000,1,0.0,0.0,1,0,9,9,7,,,,,68.47769289999269,69.12825850001536,69.12825850001536,69.62948260013945,315,315,69.62948260013945,69.62948260013945,69.62948260013945,69.62948260013945,69.62948260013945,69.62948260013945,69.62948260013945,69.62948260013945,69.62948260013945,69.99597520008683,69.99597520008683,69.99597520008683,69.99597520008683,69.99597520008683,69.99597520008683,69.99597520008683,69.99597520008683,69.99597520008683,0,1,[0.0012835001107305288],[0.3669935001526028],69.99597520008683,70.19615949993022,1000,70.19615949993022,1000,1000,1000,1000,1,num_2,0.5286022999789566,,30,11,2026-03-12_11h09.01.531,2026A_exp2,2022.2.4,59.94222764582325,
1000,1,3.7,0.0,1,0,10,10,55,,,,,70.74671120010316,71.39700699993409,71.39700699993409,71.89833669993095,45,45,71.89833669993095,71.89833669993095,71.89833669993095,71.89833669993095,71.89833669993095,71.89833669993095,71.89833669993095,71.89833669993095,71.89833669993095,72.24820660008118,72.24820660008118,72.24820660008118,72.24820660008118,72.24820660008118,72.24820660008118,72.24820660008118,72.24820660008118,72.24820660008118,0,1,[0.0012471000663936138],[0.3505355000961572],72.24820660008118,72.45038760011084,1000,72.45038760011084,1000,1000,1000,1000,1,num_2,0.4817693999502808,,30,11,2026-03-12_11h09.01.531,2026A_exp2,2022.2.4,59.94222764582325,
1000,1,0.0,6.1,0,0,11,11,34,,,,,72.94879189995117,73.59946190007031,73.59946190007031,74.10064180009067,315,45,74.10064180009067,74.10064180009067,74.10064180009067,74.10064180009067,74.10064180009067,74.10064180009067,74.10064180009067,74.10064180009067,74.10064180009067,74.46707660006359,74.46707660006359,74.46707660006359,74.46707660006359,74.46707660006359,74.46707660006359,74.46707660006359,74.46707660006359,74.46707660006359,0,1,[0.0014186999760568142],[0.36728010000661016],74.46707660006359,74.66743619996123,1000,74.66743619996123,1000,1000,1000,1000,1,num_2,0.4094949997961521,,30,11,2026-03-12_11h09.01.531,2026A_exp2,2022.2.4,59.94222764582325,
1,0,6.1,0.0,0,0,12,12,50,,,,,75.1009496001061,75.75165230012499,75.75165230012499,76.25281230011024,315,45,76.25281230011024,76.25281230011024,76.25281230011024,76.25281230011024,76.25281230011024,76.25281230011024,76.25281230011024,76.25281230011024,76.25281230011024,76.6187285000924,76.6187285000924,76.6187285000924,76.6187285000924,76.6187285000924,76.6187285000924,76.6187285000924,76.6187285000924,76.6187285000924,0,1,[0.0012515999842435122],[0.3671091999858618],76.6187285000924,76.81933570001274,6.1,76.81933570001274,1,6.1,1,1,1000,num_4,0.6887354999780655,,30,11,2026-03-12_11h09.01.531,2026A_exp2,2022.2.4,59.94222764582325,
1000,1,4.9,0.0,1,0,13,13,72,,,,,77.53678510012105,78.18742000008933,78.18742000008933,78.67156679998152,315,315,78.67156679998152,78.67156679998152,78.67156679998152,78.67156679998152,78.67156679998152,78.67156679998152,78.67156679998152,78.67156679998152,78.67156679998152,79.0382962001022,79.0382962001022,79.0382962001022,79.0382962001022,79.0382962001022,79.0382962001022,79.0382962001022,79.0382962001022,79.0382962001022,0,1,[0.0012393000070005655],[0.36712920013815165],79.0382962001022,79.24117930000648,1000,79.24117930000648,1000,1000,1000,1000,0,num_3,0.5226367998402566,,30,11,2026-03-12_11h09.01.531,2026A_exp2,2022.2.4,59.94222764582325,
1,0,0.0,0.0,0,0,14,14,49,,,,,79.78918469999917,80.43960019992664,80.43960019992664,80.94080530013889,45,315,80.94080530013889,80.94080530013889,80.94080530013889,80.94080530013889,80.94080530013889,80.94080530013889,80.94080530013889,80.94080530013889,80.94080530013889,81.30718080000952,81.30718080000952,81.30718080000952,81.30718080000952,81.30718080000952,81.30718080000952,81.30718080000952,81.30718080000952,81.30718080000952,0,1,[0.001321899937465787],[0.36697029997594655],81.30718080000952,81.5073075001128,0.0,81.5073075001128,0,0.0,0,1,1000,num_1,0.30495719984173775,,30,11,2026-03-12_11h09.01.531,2026A_exp2,2022.2.4,59.94222764582325,
1,0,3.7,0.0,1,0,15,15,74,,,,,81.8409814001061,82.49172609997913,82.49172609997913,82.97604320012033,45,45,82.97604320012033,82.97604320012033,82.97604320012033,82.97604320012033,82.97604320012033,82.97604320012033,82.97604320012033,82.97604320012033,82.97604320012033,83.34262569993734,83.34262569993734,83.34262569993734,83.34262569993734,83.34262569993734,83.34262569993734,83.34262569993734,83.34262569993734,83.34262569993734,0,1,[0.001289699925109744],[0.36721850000321865],83.34262569993734,83.54267260013148,0.0,83.54267260013148,0,0.0,0,1,1000,num_1,0.5571359999012202,,30,11,2026-03-12_11h09.01.531,2026A_exp2,2022.2.4,59.94222764582325,
1,0,0.0,0.0,0,0,16,16,59,,,,,84.12653010012582,84.77723870007321,84.77723870007321,85.26179060013965,315,315,85.26179060013965,85.26179060013965,85.26179060013965,85.26179060013965,85.26179060013965,85.26179060013965,85.26179060013965,85.26179060013965,85.26179060013965,85.62823679996654,85.62823679996654,85.62823679996654,85.62823679996654,85.62823679996654,85.62823679996654,85.62823679996654,85.62823679996654,85.62823679996654,0,1,[0.0012308000586926937],[0.36723560001701117],85.62823679996654,85.82837700005621,0.0,85.82837700005621,0,0.0,0,1,1000,num_1,0.36781739979051054,,30,11,2026-03-12_11h09.01.531,2026A_exp2,2022.2.4,59.94222764582325,
1000,1,0.0,0.0,0,0,17,17,75,,,,,86.21205610013567,86.86275040009059,86.86275040009059,87.34720419999212,45,315,87.34720419999212,87.34720419999212,87.34720419999212,87.34720419999212,87.34720419999212,87.34720419999212,87.34720419999212,87.34720419999212,87.34720419999212,87.71369459992275,87.71369459992275,87.71369459992275,87.71369459992275,87.71369459992275,87.71369459992275,87.71369459992275,87.71369459992275,87.71369459992275,0,1,[0.0013150000013411045],[0.36713579995557666],87.71369459992275,87.91651699994691,1000,87.91651699994691,1000,1000,1000,1000,1,num_2,0.49510669987648726,,30,11,2026-03-12_11h09.01.531,2026A_exp2,2022.2.4,59.94222764582325,
1,0,0.0,6.1,0,0,18,18,5,,,,,88.43115790002048,89.08173079998232,89.08173079998232,89.5826830000151,45,45,89.5826830000151,89.5826830000151,89.5826830000151,89.5826830000151,89.5826830000151,89.5826830000151,89.5826830000151,89.5826830000151,89.5826830000151,89.94928449997678,89.94928449997678,89.94928449997678,89.94928449997678,89.94928449997678,89.94928449997678,89.94928449997678,89.94928449997678,89.94928449997678,0,1,[0.0013299002312123775],[0.3671281000133604],89.94928449997678,90.14944690000266,0.0,90.14944690000266,0,0.0,0,1,1000,num_1,1.0465206997469068,,30,11,2026-03-12_11h09.01.531,2026A_exp2,2022.2.4,59.94222764582325,
1,0,6.1,0.0,1,0,19,19,13,,,,,91.21693400014192,91.86785100004636,91.86785100004636,92.35215319995768,45,45,92.35215319995768,92.35215319995768,92.35215319995768,92.35215319995768,92.35215319995768,92.35215319995768,92.35215319995768,92.35215319995768,92.35215319995768,92.71865980001166,92.71865980001166,92.71865980001166,92.71865980001166,92.71865980001166,92.71865980001166,92.71865980001166,92.71865980001166,92.71865980001166,0,1,[0.000990699976682663],[0.36725189979188144],92.71865980001166,92.9186971001327,0.0,92.9186971001327,0,0.0,0,1,1000,num_1,0.6061126999557018,,30,11,2026-03-12_11h09.01.531,2026A_exp2,2022.2.4,59.94222764582325,
1,0,0.0,0.0,1,0,20,20,41,,,,,93.5526978999842,94.20347369997762,94.20347369997762,94.6878558001481,45,315,94.6878558001481,94.6878558001481,94.6878558001481,94.6878558001481,94.6878558001481,94.6878558001481,94.6878558001481,94.6878558001481,94.6878558001481,95.05432599992491,95.05432599992491,95.05432599992491,95.05432599992491,95.05432599992491,95.05432599992491,95.05432599992491,95.05432599992491,95.05432599992491,0,1,[0.001314900116994977],[0.3672070000320673],95.05432599992491,95.25457230000757,0.0,95.25457230000757,0,0.0,0,1,1000,num_1,0.36547459987923503,,30,11,2026-03-12_11h09.01.531,2026A_exp2,2022.2.4,59.94222764582325,
1,0,0.0,0.0,0,0,21,21,2,,,,,95.63808530010283,96.28882379992865,96.28882379992865,96.77315040002577,45,315,96.77315040002577,96.77315040002577,96.77315040002577,96.77315040002577,96.77315040002577,96.77315040002577,96.77315040002577,96.77315040002577,96.77315040002577,97.13977080001496,97.13977080001496,97.13977080001496,97.13977080001496,97.13977080001496,97.13977080001496,97.13977080001496,97.13977080001496,97.13977080001496,0,1,[0.0012431999202817678],[0.36723090009763837],97.13977080001496,97.33982020011172,0.0,97.33982020011172,0,0.0,0,1,1000,num_1,0.3677847997751087,,30,11,2026-03-12_11h09.01.531,2026A_exp2,2022.2.4,59.94222764582325,
1000,1,4.9,0.0,0,0,22,22,58,,,,,97.72356650000438,98.37428400013596,98.37428400013596,98.85868189996108,45,45,98.85868189996108,98.85868189996108,98.85868189996108,98.85868189996108,98.85868189996108,98.85868189996108,98.85868189996108,98.85868189996108,98.85868189996108,99.22511589992791,99.22511589992791,99.22511589992791,99.22511589992791,99.22511589992791,99.22511589992791,99.22511589992791,99.22511589992791,99.22511589992791,0,1,[0.0012607001699507236],[0.36706010019406676],99.22511589992791,99.42743979999796,1000,99.42743979999796,1000,1000,1000,1000,0,num_3,0.5288661997765303,,30,11,2026-03-12_11h09.01.531,2026A_exp2,2022.2.4,59.94222764582325,
1,0,0.0,0.0,1,0,23,23,37,,,,,99.97589590004645,100.62645560014062,100.62645560014062,101.12766569992527,315,45,101.12766569992527,101.12766569992527,101.12766569992527,101.12766569992527,101.12766569992527,101.12766569992527,101.12766569992527,101.12766569992527,101.12766569992527,101.4941489000339,101.4941489000339,101.4941489000339,101.4941489000339,101.4941489000339,101.4941489000339,101.4941489000339,101.4941489000339,101.4941489000339,0,1,[0.0012298000510782003],[0.3670387000311166],101.4941489000339,101.69422019994818,0.0,101.69422019994818,0,0.0,0,1,1000,num_1,0.5413609999231994,,30,11,2026-03-12_11h09.01.531,2026A_exp2,2022.2.4,59.94222764582325,
0,0,0.0,6.1,1,0,24,24,76,,,,,102.26140019996092,102.91215320001356,102.91215320001356,103.39654719992541,315,315,103.39654719992541,103.39654719992541,103.39654719992541,103.39654719992541,103.39654719992541,103.39654719992541,103.39654719992541,103.39654719992541,103.39654719992541,103.76305099995807,103.76305099995807,103.76305099995807,103.76305099995807,103.76305099995807,103.76305099995807,103.76305099995807,103.76305099995807,103.76305099995807,22,1,[0.2838990001473576],[0.3005737999919802],103.76305099995807,103.9632592999842,0.0,103.9632592999842,0,0.0,0,1,1000,num_1,0.5529252998530865,,30,11,2026-03-12_11h09.01.531,2026A_exp2,2022.2.4,59.94222764582325,
1,0,4.9,0.0,1,0,25,25,4,,,,,104.54699719999917,105.19765330012888,105.19765330012888,105.68210209999233,45,315,105.68210209999233,105.68210209999233,105.68210209999233,105.68210209999233,105.68210209999233,105.68210209999233,105.68210209999233,105.68210209999233,105.68210209999233,106.04862489993684,106.04862489993684,106.04862489993684,106.04862489993684,106.04862489993684,106.04862489993684,106.04862489993684,106.04862489993684,106.04862489993684,22,1,[0.11699880007654428],[0.13365340000018477],106.04862489993684,106.24887780006975,0.0,106.24887780006975,0,0.0,0,1,1000,num_1,0.6668296998832375,,30,11,2026-03-12_11h09.01.531,2026A_exp2,2022.2.4,59.94222764582325,
1000,1,4.9,0.0,1,0,26,26,25,,,,,106.9334929001052,107.56758080003783,107.56758080003783,108.0856335000135,315,45,108.0856335000135,108.0856335000135,108.0856335000135,108.0856335000135,108.0856335000135,108.0856335000135,108.0856335000135,108.0856335000135,108.0856335000135,108.43555240007117,108.43555240007117,108.43555240007117,108.43555240007117,108.43555240007117,108.43555240007117,108.43555240007117,108.43555240007117,108.43555240007117,22,0,,,108.43555240007117,108.6397504999768,1000,108.6397504999768,1000,1000,1000,1000,0,num_3,0.571692300029099,,30,11,2026-03-12_11h09.01.531,2026A_exp2,2022.2.4,59.94222764582325,
1,0,4.9,4.9,1,0,27,27,89,,,,,109.23508629994467,109.86906670010649,109.86906670010649,110.38736950000748,45,315,110.38736950000748,110.38736950000748,110.38736950000748,110.38736950000748,110.38736950000748,110.38736950000748,110.38736950000748,110.38736950000748,110.38736950000748,110.75305739999749,110.75305739999749,110.75305739999749,110.75305739999749,110.75305739999749,110.75305739999749,110.75305739999749,110.75305739999749,110.75305739999749,23,0,,,110.75305739999749,110.95303800003603,4.9,110.95303800003603,1,4.9,1,1,1000,num_4,0.6506111999042332,,30,11,2026-03-12_11h09.01.531,2026A_exp2,2022.2.4,59.94222764582325,
1,0,0.0,0.0,1,0,28,28,73,,,,,111.62055650004186,112.27109070005827,112.27109070005827,112.75611279997975,45,315,112.75611279997975,112.75611279997975,112.75611279997975,112.75611279997975,112.75611279997975,112.75611279997975,112.75611279997975,112.75611279997975,112.75611279997975,113.12239739997312,113.12239739997312,113.12239739997312,113.12239739997312,113.12239739997312,113.12239739997312,113.12239739997312,113.12239739997312,113.12239739997312,0,1,[0.0007486999966204166],[0.3677375998813659],113.12239739997312,113.32260520011187,0.0,113.32260520011187,0,0.0,0,1,1000,num_1,0.25757579994387925,,30,11,2026-03-12_11h09.01.531,2026A_exp2,2022.2.4,59.94222764582325,
1,0,0.0,0.0,0,0,29,29,81,,,,,113.60618650005199,114.2569097999949,114.2569097999949,114.74122090009041,45,45,114.74122090009041,114.74122090009041,114.74122090009041,114.74122090009041,114.74122090009041,114.74122090009041,114.74122090009041,114.74122090009041,114.74122090009041,115.10764020006172,115.10764020006172,115.10764020006172,115.10764020006172,115.10764020006172,115.10764020006172,115.10764020006172,115.10764020006172,115.10764020006172,0,1,[0.0012274000328034163],[0.36733840010128915],115.10764020006172,115.32228850014508,0.0,115.32228850014508,0,0.0,0,1,1000,num_1,0.06590429996140301,,30,11,2026-03-12_11h09.01.531,2026A_exp2,2022.2.4,59.94222764582325,
1,0,4.9,6.1,1,0,30,30,86,,,,,115.40801739995368,116.04191870009527,116.04191870009527,116.54299119999632,315,45,116.54299119999632,116.54299119999632,116.54299119999632,116.54299119999632,116.54299119999632,116.54299119999632,116.54299119999632,116.54299119999632,116.54299119999632,116.90951099991798,116.90951099991798,116.90951099991798,116.90951099991798,116.90951099991798,116.90951099991798,116.90951099991798,116.90951099991798,116.90951099991798,0,1,[0.0012586999218910933],[0.3672712000552565],116.90951099991798,117.10987440007739,6.1,117.10987440007739,1,6.1,1,1,1000,num_4,0.34269659989513457,,30,11,2026-03-12_11h09.01.531,2026A_exp2,2022.2.4,59.94222764582325,
1,0,0.0,0.0,0,0,31,31,9,,,,,117.47670680005103,118.12723590014502,118.12723590014502,118.61181359994225,315,45,118.61181359994225,118.61181359994225,118.61181359994225,118.61181359994225,118.61181359994225,118.61181359994225,118.61181359994225,118.61181359994225,118.61181359994225,118.97809930006042,118.97809930006042,118.97809930006042,118.97809930006042,118.97809930006042,118.97809930006042,118.97809930006042,118.97809930006042,118.97809930006042,0,1,[0.0012077998835593462],[0.36703849979676306],118.97809930006042,119.17838030005805,0.0,119.17838030005805,0,0.0,0,1,1000,num_1,0.38557310006581247,,30,11,2026-03-12_11h09.01.531,2026A_exp2,2022.2.4,59.94222764582325,
1000,1,4.9,4.9,0,0,32,32,31,,,,,119.59543800004758,120.2461489001289,120.2461489001289,120.73057470005006,315,315,120.73057470005006,120.73057470005006,120.73057470005006,120.73057470005006,120.73057470005006,120.73057470005006,120.73057470005006,120.73057470005006,120.73057470005006,121.09682890004478,121.09682890004478,121.09682890004478,121.09682890004478,121.09682890004478,121.09682890004478,121.09682890004478,121.09682890004478,121.09682890004478,8,1,[0.0012608999386429787],[0.2503325999714434],121.09682890004478,121.29923070012592,1000,121.29923070012592,1000,1000,1000,1000,1,num_2,0.6572615997865796,,30,11,2026-03-12_11h09.01.531,2026A_exp2,2022.2.4,59.94222764582325,
1,0,0.0,3.7,1,0,33,33,57,,,,,121.98110820003785,122.63192680012435,122.63192680012435,123.13287240010686,315,315,123.13287240010686,123.13287240010686,123.13287240010686,123.13287240010686,123.13287240010686,123.13287240010686,123.13287240010686,123.13287240010686,123.13287240010686,123.49943720013835,123.49943720013835,123.49943720013835,123.49943720013835,123.49943720013835,123.49943720013835,123.49943720013835,123.49943720013835,123.49943720013835,0,1,[0.001397700048983097],[0.3667035000398755],123.49943720013835,123.6996721001342,3.7,123.6996721001342,1,3.7,1,1,1000,num_4,0.6479503998998553,,30,11,2026-03-12_11h09.01.531,2026A_exp2,2022.2.4,59.94222764582325,
1000,1,4.9,6.1,1,0,34,34,1,,,,,124.36677190009505,125.01756740012206,125.01756740012206,125.50194200011902,45,315,125.50194200011902,125.50194200011902,125.50194200011902,125.50194200011902,125.50194200011902,125.50194200011902,125.50194200011902,125.50194200011902,125.50194200011902,125.86853720014915,125.86853720014915,125.86853720014915,125.86853720014915,125.86853720014915,125.86853720014915,125.86853720014915,125.86853720014915,125.86853720014915,0,1,[0.0012531999964267015],[0.3671712998766452],125.86853720014915,126.07061329996213,1000,126.07061329996213,1000,1000,1000,1000,1,num_2,0.38121300004422665,,30,11,2026-03-12_11h09.01.531,2026A_exp2,2022.2.4,59.94222764582325,
0,0,4.9,0.0,0,0,35,35,30,,,,,126.46903660008684,127.11969820014201,127.11969820014201,127.62081629992463,45,315,127.62081629992463,127.62081629992463,127.62081629992463,127.62081629992463,127.62081629992463,127.62081629992463,127.62081629992463,127.62081629992463,127.62081629992463,127.98723460012116,127.98723460012116,127.98723460012116,127.98723460012116,127.98723460012116,127.98723460012116,127.98723460012116,127.98723460012116,127.98723460012116,0,1,[0.0008090999908745289],[0.36755169997923076],127.98723460012116,128.18732600007206,0.0,128.18732600007206,0,0.0,0,1,1000,num_1,0.6161286998540163,,30,11,2026-03-12_11h09.01.531,2026A_exp2,2022.2.4,59.94222764582325,
1,0,0.0,3.7,0,0,36,36,78,,,,,128.8212975000497,129.47224909998477,129.47224909998477,129.95654810010456,45,45,129.95654810010456,129.95654810010456,129.95654810010456,129.95654810010456,129.95654810010456,129.95654810010456,129.95654810010456,129.95654810010456,129.95654810010456,130.32292170007713,130.32292170007713,130.32292170007713,130.32292170007713,130.32292170007713,130.32292170007713,130.32292170007713,130.32292170007713,130.32292170007713,0,1,[0.0012655998580157757],[0.3670649998821318],130.32292170007713,130.52314139995724,0.0,130.52314139995724,1,0.0,0,0,1000,num_4,0.9288950997870415,,30,11,2026-03-12_11h09.01.531,2026A_exp2,2022.2.4,59.94222764582325,
1,0,4.9,0.0,1,0,37,37,82,,,,,131.47383209993131,132.10801910003647,132.10801910003647,132.6089794000145,45,315,132.6089794000145,132.6089794000145,132.6089794000145,132.6089794000145,132.6089794000145,132.6089794000145,132.6089794000145,132.6089794000145,132.6089794000145,132.97557769995183,132.97557769995183,132.97557769995183,132.97557769995183,132.97557769995183,132.97557769995183,132.97557769995183,132.97557769995183,132.97557769995183,22,1,[0.001221399987116456],[0.017152199987322092],132.97557769995183,133.17563090007752,0.0,133.17563090007752,0,0.0,0,1,1000,num_1,0.4197272998280823,,30,11,2026-03-12_11h09.01.531,2026A_exp2,2022.2.4,59.94222764582325,
1000,1,0.0,0.0,1,0,38,38,29,,,,,133.62637700000778,134.27690479997545,134.27690479997545,134.7612137000542,45,45,134.7612137000542,134.7612137000542,134.7612137000542,134.7612137000542,134.7612137000542,134.7612137000542,134.7612137000542,134.7612137000542,134.7612137000542,135.12759310007095,135.12759310007095,135.12759310007095,135.12759310007095,135.12759310007095,135.12759310007095,135.12759310007095,135.12759310007095,135.12759310007095,16,1,[0.001248599961400032],[0.11703140009194613],135.12759310007095,135.33043590001762,1000,135.33043590001762,1000,1000,1000,1000,1,num_2,0.6176263997331262,,30,11,2026-03-12_11h09.01.531,2026A_exp2,2022.2.4,59.94222764582325,
1000,1,6.1,0.0,0,0,39,39,33,,,,,135.9784834999591,136.62917630001903,136.62917630001903,137.1303050001152,45,315,137.1303050001152,137.1303050001152,137.1303050001152,137.1303050001152,137.1303050001152,137.1303050001152,137.1303050001152,137.1303050001152,137.1303050001152,137.49671049998142,137.49671049998142,137.49671049998142,137.49671049998142,137.49671049998142,137.49671049998142,137.49671049998142,137.49671049998142,137.49671049998142,0,1,[0.0012906999327242374],[0.36730369995348155],137.49671049998142,137.72462729993276,1000,137.72462729993276,1000,1000,1000,1000,0,num_3,0.5436584998387843,,30,11,2026-03-12_11h09.01.531,2026A_exp2,2022.2.4,59.94222764582325,
1000,1,0.0,3.7,0,0,40,40,52,,,,,138.29738270002417,138.94823210011236,138.94823210011236,139.44927320000716,45,315,139.44927320000716,139.44927320000716,139.44927320000716,139.44927320000716,139.44927320000716,139.44927320000716,139.44927320000716,139.44927320000716,139.44927320000716,139.81563440011814,139.81563440011814,139.81563440011814,139.81563440011814,139.81563440011814,139.81563440011814,139.81563440011814,139.81563440011814,139.81563440011814,23,0,,,139.81563440011814,140.03755920007825,1000,140.03755920007825,1000,1000,1000,1000,1,num_2,0.6300077999476343,,30,11,2026-03-12_11h09.01.531,2026A_exp2,2022.2.4,59.94222764582325,
1000,1,0.0,0.0,1,0,41,41,47,,,,,140.6831754001323,141.33379880012944,141.33379880012944,141.8349373000674,45,315,141.8349373000674,141.8349373000674,141.8349373000674,141.8349373000674,141.8349373000674,141.8349373000674,141.8349373000674,141.8349373000674,141.8349373000674,142.20143719995394,142.20143719995394,142.20143719995394,142.20143719995394,142.20143719995394,142.20143719995394,142.20143719995394,142.20143719995394,142.20143719995394,0,1,[0.0014110999181866646],[0.366880799876526],142.20143719995394,142.4043404001277,1000,142.4043404001277,1000,1000,1000,1000,1,num_2,0.5677586998790503,,30,11,2026-03-12_11h09.01.531,2026A_exp2,2022.2.4,59.94222764582325,
1,0,4.9,0.0,0,0,42,42,48,,,,,143.0023552000057,143.65276580001228,143.65276580001228,144.15406819991767,45,315,144.15406819991767,144.15406819991767,144.15406819991767,144.15406819991767,144.15406819991767,144.15406819991767,144.15406819991767,144.15406819991767,144.15406819991767,144.52043020003475,144.52043020003475,144.52043020003475,144.52043020003475,144.52043020003475,144.52043020003475,144.52043020003475,144.52043020003475,144.52043020003475,0,1,[0.0012584999203681946],[0.36705420003272593],144.52043020003475,144.72077520005405,4.9,144.72077520005405,1,4.9,1,1,1000,num_4,1.1069195996969938,,30,11,2026-03-12_11h09.01.531,2026A_exp2,2022.2.4,59.94222764582325,
1,0,0.0,3.7,0,0,43,43,12,,,,,145.85526480013505,146.5057981000282,146.5057981000282,146.99011430004612,315,315,146.99011430004612,146.99011430004612,146.99011430004612,146.99011430004612,146.99011430004612,146.99011430004612,146.99011430004612,146.99011430004612,146.99011430004612,147.3565523000434,147.3565523000434,147.3565523000434,147.3565523000434,147.3565523000434,147.3565523000434,147.3565523000434,147.3565523000434,147.3565523000434,23,0,,,147.3565523000434,147.5567580999341,0.0,147.5567580999341,0,0.0,0,1,1000,num_1,0.4866752000525594,,30,11,2026-03-12_11h09.01.531,2026A_exp2,2022.2.4,59.94222764582325,
1,0,3.7,4.9,1,0,44,44,39,,,,,148.07384230010211,148.7246229001321,148.7246229001321,149.20911960001104,45,45,149.20911960001104,149.20911960001104,149.20911960001104,149.20911960001104,149.20911960001104,149.20911960001104,149.20911960001104,149.20911960001104,149.20911960001104,149.57544340007007,149.57544340007007,149.57544340007007,149.57544340007007,149.57544340007007,149.57544340007007,149.57544340007007,149.57544340007007,149.57544340007007,6,1,[0.0013015000149607658],[0.2837693998590112],149.57544340007007,149.77555100014433,4.9,149.77555100014433,1,4.9,1,1,1000,num_4,0.7487425999715924,,30,11,2026-03-12_11h09.01.531,2026A_exp2,2022.2.4,59.94222764582325,
1,0,4.9,4.9,0,0,45,45,63,,,,,150.54320119996555,151.19401540001854,151.19401540001854,151.69485590001568,45,45,151.69485590001568,151.69485590001568,151.69485590001568,151.69485590001568,151.69485590001568,151.69485590001568,151.69485590001568,151.69485590001568,151.69485590001568,152.06125069991685,152.06125069991685,152.06125069991685,152.06125069991685,152.06125069991685,152.06125069991685,152.06125069991685,152.06125069991685,152.06125069991685,1,1,[0.017381499987095594],[0.3671027000527829],152.06125069991685,152.2614563999232,4.9,152.2614563999232,1,4.9,1,1,1000,num_4,0.5826392997987568,,30,11,2026-03-12_11h09.01.531,2026A_exp2,2022.2.4,59.94222764582325,
1,0,0.0,0.0,1,0,46,46,66,,,,,152.86198169994168,153.5127719999291,153.5127719999291,153.99719120003283,45,45,153.99719120003283,153.99719120003283,153.99719120003283,153.99719120003283,153.99719120003283,153.99719120003283,153.99719120003283,153.99719120003283,153.99719120003283,154.3637524000369,154.3637524000369,154.3637524000369,154.3637524000369,154.3637524000369,154.3637524000369,154.3637524000369,154.3637524000369,154.3637524000369,6,1,[0.0012285998091101646],[0.2835742998868227],154.3637524000369,154.56375339999795,0.0,154.56375339999795,0,0.0,0,1,1000,num_1,0.16784949996508658,,30,11,2026-03-12_11h09.01.531,2026A_exp2,2022.2.4,59.94222764582325,
0,0,3.7,4.9,1,0,47,47,3,,,,,154.74727890011854,155.39786590007134,155.39786590007134,155.8990420999471,45,45,155.8990420999471,155.8990420999471,155.8990420999471,155.8990420999471,155.8990420999471,155.8990420999471,155.8990420999471,155.8990420999471,155.8990420999471,156.2488285000436,156.2488285000436,156.2488285000436,156.2488285000436,156.2488285000436,156.2488285000436,156.2488285000436,156.2488285000436,156.2488285000436,0,1,[0.001227000029757619],[0.3505369999911636],156.2488285000436,156.44893890013918,3.7,156.44893890013918,0,3.7,1,0,1000,num_1,0.5793246999382973,,30,11,2026-03-12_11h09.01.531,2026A_exp2,2022.2.4,59.94222764582325,
1000,1,0.0,4.9,0,0,48,48,11,,,,,157.04950640001334,157.7001966999378,157.7001966999378,158.18491850001737,315,45,158.18491850001737,158.18491850001737,158.18491850001737,158.18491850001737,158.18491850001737,158.18491850001737,158.18491850001737,158.18491850001737,158.18491850001737,158.56738359993324,158.56738359993324,158.56738359993324,158.56738359993324,158.56738359993324,158.56738359993324,158.56738359993324,158.56738359993324,158.56738359993324,24,0,,,158.56738359993324,158.77012460003607,1000,158.77012460003607,1000,1000,1000,1000,1,num_2,0.6982590998522937,,30,11,2026-03-12_11h09.01.531,2026A_exp2,2022.2.4,59.94222764582325,
1,0,0.0,4.9,0,0,49,49,71,,,,,159.48529460001737,160.13600070006214,160.13600070006214,160.6371581000276,45,315,160.6371581000276,160.6371581000276,160.6371581000276,160.6371581000276,160.6371581000276,160.6371581000276,160.6371581000276,160.6371581000276,160.6371581000276,161.00373410014436,161.00373410014436,161.00373410014436,161.00373410014436,161.00373410014436,161.00373410014436,161.00373410014436,161.00373410014436,161.00373410014436,21,1,[0.001232899958267808],[0.03343460010364652],161.00373410014436,161.20368720008992,0.0,161.20368720008992,0,0.0,0,1,1000,num_1,0.552716099889949,,30,11,2026-03-12_11h09.01.531,2026A_exp2,2022.2.4,59.94222764582325,
1000,1,6.1,0.0,1,0,50,50,60,,,,,161.78768860013224,162.43834420014173,162.43834420014173,162.92269790009595,45,45,162.92269790009595,162.92269790009595,162.92269790009595,162.92269790009595,162.92269790009595,162.92269790009595,162.92269790009595,162.92269790009595,162.92269790009595,163.28908620006405,163.28908620006405,163.28908620006405,163.28908620006405,163.28908620006405,163.28908620006405,163.28908620006405,163.28908620006405,163.28908620006405,12,1,[0.001298299990594387],[0.18357360013760626],163.28908620006405,163.49182799994014,1000,163.49182799994014,1000,1000,1000,1000,0,num_3,0.4885750999674201,,30,11,2026-03-12_11h09.01.531,2026A_exp2,2022.2.4,59.94222764582325,
1000,1,6.1,4.9,1,0,51,51,53,,,,,164.00651640002616,164.65718020009808,164.65718020009808,165.15841019991785,45,315,165.15841019991785,165.15841019991785,165.15841019991785,165.15841019991785,165.15841019991785,165.15841019991785,165.15841019991785,165.15841019991785,165.15841019991785,165.52471909997985,165.52471909997985,165.52471909997985,165.52471909997985,165.52471909997985,165.52471909997985,165.52471909997985,165.52471909997985,165.52471909997985,0,1,[0.001229400048032403],[0.36717989994212985],165.52471909997985,165.7277651000768,1000,165.7277651000768,1000,1000,1000,1000,1,num_2,0.700191899901256,,30,11,2026-03-12_11h09.01.531,2026A_exp2,2022.2.4,59.94222764582325,
1000,1,3.7,0.0,1,0,52,52,79,,,,,166.45912140002474,167.1097153001465,167.1097153001465,167.61082820012234,315,45,167.61082820012234,167.61082820012234,167.61082820012234,167.61082820012234,167.61082820012234,167.61082820012234,167.61082820012234,167.61082820012234,167.61082820012234,167.9772386001423,167.9772386001423,167.9772386001423,167.9772386001423,167.9772386001423,167.9772386001423,167.9772386001423,167.9772386001423,167.9772386001423,0,1,[0.0013107000850141048],[0.3670177001040429],167.9772386001423,168.17978510004468,1000,168.17978510004468,1000,1000,1000,1000,1,num_2,0.38462319993413985,,30,11,2026-03-12_11h09.01.531,2026A_exp2,2022.2.4,59.94222764582325,
0,0,0.0,3.7,1,0,53,53,21,,,,,168.5944406001363,169.24527169996873,169.24527169996873,169.74623359995894,315,315,169.74623359995894,169.74623359995894,169.74623359995894,169.74623359995894,169.74623359995894,169.74623359995894,169.74623359995894,169.74623359995894,169.74623359995894,170.1127015000675,170.1127015000675,170.1127015000675,170.1127015000675,170.1127015000675,170.1127015000675,170.1127015000675,170.1127015000675,170.1127015000675,22,1,[0.0013261998537927866],[0.017475900007411838],170.1127015000675,170.31283960002474,0.0,170.31283960002474,0,0.0,0,1,1000,num_1,0.4759038998745382,,30,11,2026-03-12_11h09.01.531,2026A_exp2,2022.2.4,59.94222764582325,
1000,1,0.0,6.1,1,0,54,54,88,,,,,170.81329570012167,171.46395649993792,171.46395649993792,171.94852470001206,45,45,171.94852470001206,171.94852470001206,171.94852470001206,171.94852470001206,171.94852470001206,171.94852470001206,171.94852470001206,171.94852470001206,171.94852470001206,172.3149341000244,172.3149341000244,172.3149341000244,172.3149341000244,172.3149341000244,172.3149341000244,172.3149341000244,172.3149341000244,172.3149341000244,0,1,[0.0012285001575946808],[0.36734180012717843],172.3149341000244,172.51742920000106,1000,172.51742920000106,1000,1000,1000,1000,1,num_2,0.47044669976457953,,30,11,2026-03-12_11h09.01.531,2026A_exp2,2022.2.4,59.94222764582325,
1000,1,0.0,4.9,1,0,55,55,27,,,,,173.01563989999704,173.64946059999056,173.64946059999056,174.1509614000097,315,45,174.1509614000097,174.1509614000097,174.1509614000097,174.1509614000097,174.1509614000097,174.1509614000097,174.1509614000097,174.1509614000097,174.1509614000097,174.51700490014628,174.51700490014628,174.51700490014628,174.51700490014628,174.51700490014628,174.51700490014628,174.51700490014628,174.51700490014628,174.51700490014628,20,1,[0.0007818997837603092],[0.05317059997469187],174.51700490014628,174.7232834000606,1000,174.7232834000606,1000,1000,1000,1000,1,num_2,0.40839859982952476,,30,11,2026-03-12_11h09.01.531,2026A_exp2,2022.2.4,59.94222764582325,
1000,1,4.9,4.9,0,0,56,56,42,,,,,175.1510205999948,175.80170690012164,175.80170690012164,176.30298579996452,315,315,176.30298579996452,176.30298579996452,176.30298579996452,176.30298579996452,176.30298579996452,176.30298579996452,176.30298579996452,176.30298579996452,176.30298579996452,176.6693055999931,176.6693055999931,176.6693055999931,176.6693055999931,176.6693055999931,176.6693055999931,176.6693055999931,176.6693055999931,176.6693055999931,23,0,,,176.6693055999931,176.87121840007603,1000,176.87121840007603,1000,1000,1000,1000,1,num_2,0.3807810000143945,,30,11,2026-03-12_11h09.01.531,2026A_exp2,2022.2.4,59.94222764582325,
1000,1,0.0,0.0,1,0,57,57,23,,,,,177.2696953001432,177.92111110012047,177.92111110012047,178.42165190004744,45,315,178.42165190004744,178.42165190004744,178.42165190004744,178.42165190004744,178.42165190004744,178.42165190004744,178.42165190004744,178.42165190004744,178.42165190004744,178.78816589992493,178.78816589992493,178.78816589992493,178.78816589992493,178.78816589992493,178.78816589992493,178.78816589992493,178.78816589992493,178.78816589992493,23,0,,,178.78816589992493,178.99000059999526,1000,178.99000059999526,1000,1000,1000,1000,1,num_2,0.5415868998970836,,30,11,2026-03-12_11h09.01.531,2026A_exp2,2022.2.4,59.94222764582325,
1000,1,6.1,3.7,1,0,58,58,24,,,,,179.55550469993614,180.20612280000933,180.20612280000933,180.7071014000103,45,315,180.7071014000103,180.7071014000103,180.7071014000103,180.7071014000103,180.7071014000103,180.7071014000103,180.7071014000103,180.7071014000103,180.7071014000103,181.07358950003982,181.07358950003982,181.07358950003982,181.07358950003982,181.07358950003982,181.07358950003982,181.07358950003982,181.07358950003982,181.07358950003982,23,0,,,181.07358950003982,181.27560500008985,1000,181.27560500008985,1000,1000,1000,1000,1,num_2,0.32824739976786077,,30,11,2026-03-12_11h09.01.531,2026A_exp2,2022.2.4,59.94222764582325,
0,0,0.0,0.0,1,0,59,59,8,,,,,181.62411710014567,182.27485410007648,182.27485410007648,182.7757655000314,315,315,182.7757655000314,182.7757655000314,182.7757655000314,182.7757655000314,182.7757655000314,182.7757655000314,182.7757655000314,182.7757655000314,182.7757655000314,183.14241089997813,183.14241089997813,183.14241089997813,183.14241089997813,183.14241089997813,183.14241089997813,183.14241089997813,183.14241089997813,183.14241089997813,23,0,,,183.14241089997813,183.34240960003808,0.0,183.34240960003808,0,0.0,0,1,1000,num_1,0.17377959983423352,,30,11,2026-03-12_11h09.01.531,2026A_exp2,2022.2.4,59.94222764582325,
1,0,6.1,4.9,1,0,60,60,35,,,,,183.542834199965,184.19344429997727,184.19344429997727,184.67780299996957,315,45,184.67780299996957,184.67780299996957,184.67780299996957,184.67780299996957,184.67780299996957,184.67780299996957,184.67780299996957,184.67780299996957,184.67780299996957,185.0442447999958,185.0442447999958,185.0442447999958,185.0442447999958,185.0442447999958,185.0442447999958,185.0442447999958,185.0442447999958,185.0442447999958,0,1,[0.0012522998731583357],[0.3671346998307854],185.0442447999958,185.24435009993613,4.9,185.24435009993613,1,4.9,1,1,1000,num_4,0.6079452999401838,,30,11,2026-03-12_11h09.01.531,2026A_exp2,2022.2.4,59.94222764582325,
1,0,0.0,4.9,1,0,61,61,45,,,,,185.878364500124,186.52913630008698,186.52913630008698,187.01347470004112,315,45,187.01347470004112,187.01347470004112,187.01347470004112,187.01347470004112,187.01347470004112,187.01347470004112,187.01347470004112,187.01347470004112,187.01347470004112,187.38011240004562,187.38011240004562,187.38011240004562,187.38011240004562,187.38011240004562,187.38011240004562,187.38011240004562,187.38011240004562,187.38011240004562,23,0,,,187.38011240004562,187.5803010999225,4.9,187.5803010999225,1,4.9,1,1,1000,num_4,0.5765727998223156,,30,11,2026-03-12_11h09.01.531,2026A_exp2,2022.2.4,59.94222764582325,
1000,1,6.1,3.7,0,0,62,62,87,,,,,188.18105940008536,188.83119400008582,188.83119400008582,189.31574980006553,45,315,189.31574980006553,189.31574980006553,189.31574980006553,189.31574980006553,189.31574980006553,189.31574980006553,189.31574980006553,189.31574980006553,189.31574980006553,189.6821519001387,189.6821519001387,189.6821519001387,189.6821519001387,189.6821519001387,189.6821519001387,189.6821519001387,189.6821519001387,189.6821519001387,23,0,,,189.6821519001387,189.88480430003256,1000,189.88480430003256,1000,1000,1000,1000,0,num_3,0.6793638998642564,,30,11,2026-03-12_11h09.01.531,2026A_exp2,2022.2.4,59.94222764582325,
1,0,0.0,0.0,0,0,63,63,38,,,,,190.58313559996895,191.23369310004637,191.23369310004637,191.7349070000928,315,45,191.7349070000928,191.7349070000928,191.7349070000928,191.7349070000928,191.7349070000928,191.7349070000928,191.7349070000928,191.7349070000928,191.7349070000928,192.1013219000306,192.1013219000306,192.1013219000306,192.1013219000306,192.1013219000306,192.1013219000306,192.1013219000306,192.1013219000306,192.1013219000306,0,1,[0.0007770999800413847],[0.3672911000903696],192.1013219000306,192.30143530014902,0.0,192.30143530014902,0,0.0,0,1,1000,num_1,0.2221951000392437,,30,11,2026-03-12_11h09.01.531,2026A_exp2,2022.2.4,59.94222764582325,
1000,1,0.0,0.0,0,0,64,64,20,,,,,192.55161439999938,193.21347970003262,193.21347970003262,193.6865439999383,315,45,193.6865439999383,193.6865439999383,193.6865439999383,193.6865439999383,193.6865439999383,193.6865439999383,193.6865439999383,193.6865439999383,193.6865439999383,194.05340350000188,194.05340350000188,194.05340350000188,194.05340350000188,194.05340350000188,194.05340350000188,194.05340350000188,194.05340350000188,194.05340350000188,0,1,[0.0008372999727725983],[0.36732099996879697],194.05340350000188,194.25563760008663,1000,194.25563760008663,1000,1000,1000,1000,1,num_2,0.7081367999780923,,30,11,2026-03-12_11h09.01.531,2026A_exp2,2022.2.4,59.94222764582325,
0,0,0.0,0.0,1,0,65,65,62,,,,,194.98755820002407,195.63824120000936,195.63824120000936,196.13918019994162,45,315,196.13918019994162,196.13918019994162,196.13918019994162,196.13918019994162,196.13918019994162,196.13918019994162,196.13918019994162,196.13918019994162,196.13918019994162,196.50579670001753,196.50579670001753,196.50579670001753,196.50579670001753,196.50579670001753,196.50579670001753,196.50579670001753,196.50579670001753,196.50579670001753,9,3,"[0.0012809999752789736, 0.16688810009509325, 0.26713609998114407]","[0.1003475000616163, 0.21700679999776185, 0.3504686001688242]",196.50579670001753,196.70606629992835,0.0,196.70606629992835,0,0.0,0,1,1000,num_1,0.6895671999081969,,30,11,2026-03-12_11h09.01.531,2026A_exp2,2022.2.4,59.94222764582325,
1000,1,0.0,3.7,0,0,66,66,44,,,,,197.4232388001401,198.07383559993468,198.07383559993468,198.55827219993807,45,315,198.55827219993807,198.55827219993807,198.55827219993807,198.55827219993807,198.55827219993807,198.55827219993807,198.55827219993807,198.55827219993807,198.55827219993807,198.92480530007742,198.92480530007742,198.92480530007742,198.92480530007742,198.92480530007742,198.92480530007742,198.92480530007742,198.92480530007742,198.92480530007742,1,1,[0.017222699942067266],[0.3668150999583304],198.92480530007742,199.12755450000986,1000,199.12755450000986,1000,1000,1000,1000,1,num_2,0.3574312999844551,,30,11,2026-03-12_11h09.01.531,2026A_exp2,2022.2.4,59.94222764582325,
0,0,0.0,4.9,1,0,67,67,56,,,,,199.50863800011575,200.15952210011892,200.15952210011892,200.66047789994627,45,45,200.66047789994627,200.66047789994627,200.66047789994627,200.66047789994627,200.66047789994627,200.66047789994627,200.66047789994627,200.66047789994627,200.66047789994627,201.02696150005795,201.02696150005795,201.02696150005795,201.02696150005795,201.02696150005795,201.02696150005795,201.02696150005795,201.02696150005795,201.02696150005795,14,5,"[0.11688279989175498, 0.15022329986095428, 0.20035609998740256, 0.2836400999221951, 0.317187299951911]","[0.1335664999205619, 0.18365599983371794, 0.26682969997636974, 0.3004593998193741, 0.3338823998346925]",201.02696150005795,201.22700510011055,0.0,201.22700510011055,0,0.0,0,1,1000,num_1,0.8887004998978227,,30,11,2026-03-12_11h09.01.531,2026A_exp2,2022.2.4,59.94222764582325,
1000,1,6.1,3.7,1,0,68,68,10,,,,,202.1445893999189,202.7952924000565,202.7952924000565,203.27972800005227,45,45,203.27972800005227,203.27972800005227,203.27972800005227,203.27972800005227,203.27972800005227,203.27972800005227,203.27972800005227,203.27972800005227,203.27972800005227,203.6462624000851,203.6462624000851,203.6462624000851,203.6462624000851,203.6462624000851,203.6462624000851,203.6462624000851,203.6462624000851,203.6462624000851,21,2,"[0.001324899960309267, 0.18339679995551705]","[0.017208999954164028, 0.1995961000211537]",203.6462624000851,203.84661439992487,1000,203.84661439992487,1000,1000,1000,1000,0,num_3,0.5168822000268847,,30,11,2026-03-12_11h09.01.531,2026A_exp2,2022.2.4,59.94222764582325,
1000,1,0.0,0.0,1,0,69,69,14,,,,,204.38018779992126,205.03096519992687,205.03096519992687,205.5319332999643,45,45,205.5319332999643,205.5319332999643,205.5319332999643,205.5319332999643,205.5319332999643,205.5319332999643,205.5319332999643,205.5319332999643,205.5319332999643,205.89832799998112,205.89832799998112,205.89832799998112,205.89832799998112,205.89832799998112,205.89832799998112,205.89832799998112,205.89832799998112,205.89832799998112,21,2,"[0.01725789997726679, 0.3339016998652369]","[0.03327979985624552, 0.3504682998172939]",205.89832799998112,206.10103180003352,1000,206.10103180003352,1000,1000,1000,1000,1,num_2,0.47905840002931654,,30,11,2026-03-12_11h09.01.531,2026A_exp2,2022.2.4,59.94222764582325,
1000,1,3.7,3.7,1,0,70,70,40,,,,,206.59908460010774,207.2498304999899,207.2498304999899,207.75086509995162,315,315,207.75086509995162,207.75086509995162,207.75086509995162,207.75086509995162,207.75086509995162,207.75086509995162,207.75086509995162,207.75086509995162,207.75086509995162,208.11735319998115,208.11735319998115,208.11735319998115,208.11735319998115,208.11735319998115,208.11735319998115,208.11735319998115,208.11735319998115,208.11735319998115,9,3,"[0.00123109994456172, 0.183648900128901, 0.2670595000963658]","[0.1668855999596417, 0.23369400016963482, 0.28353410004638135]",208.11735319998115,208.31977870012634,1000,208.31977870012634,1000,1000,1000,1000,1,num_2,0.36364979995414615,,30,11,2026-03-12_11h09.01.531,2026A_exp2,2022.2.4,59.94222764582325,
1,0,4.9,0.0,1,0,71,71,84,,,,,208.70114969997667,209.3519655999262,209.3519655999262,209.85301650012843,315,315,209.85301650012843,209.85301650012843,209.85301650012843,209.85301650012843,209.85301650012843,209.85301650012843,209.85301650012843,209.85301650012843,209.85301650012843,210.21947850007564,210.21947850007564,210.21947850007564,210.21947850007564,210.21947850007564,210.21947850007564,210.21947850007564,210.21947850007564,210.21947850007564,23,0,,,210.21947850007564,210.41959389997646,0.0,210.41959389997646,1,0.0,0,0,1000,num_4,0.8090654998086393,,30,11,2026-03-12_11h09.01.531,2026A_exp2,2022.2.4,59.94222764582325,
1,0,6.1,3.7,0,0,72,72,26,,,,,211.25417060009204,211.9045375001151,211.9045375001151,212.38907180004753,45,315,212.38907180004753,212.38907180004753,212.38907180004753,212.38907180004753,212.38907180004753,212.38907180004753,212.38907180004753,212.38907180004753,212.38907180004753,212.7553391000256,212.7553391000256,212.7553391000256,212.7553391000256,212.7553391000256,212.7553391000256,212.7553391000256,212.7553391000256,212.7553391000256,19,1,[0.0008065998554229736],[0.06713329977355897],212.7553391000256,212.95536880008876,6.1,212.95536880008876,1,6.1,1,1,1000,num_4,1.1855315000284463,,30,11,2026-03-12_11h09.01.531,2026A_exp2,2022.2.4,59.94222764582325,
1000,1,0.0,4.9,1,0,73,73,51,,,,,214.1584030999802,214.80734289996326,214.80734289996326,215.30846190010197,315,315,215.30846190010197,215.30846190010197,215.30846190010197,215.30846190010197,215.30846190010197,215.30846190010197,215.30846190010197,215.30846190010197,215.30846190010197,215.67487130011432,215.67487130011432,215.67487130011432,215.67487130011432,215.67487130011432,215.67487130011432,215.67487130011432,215.67487130011432,215.67487130011432,14,1,[0.001291200052946806],[0.1501484999898821],215.67487130011432,215.8775504999794,1000,215.8775504999794,1000,1000,1000,1000,1,num_2,0.46303849993273616,,30,11,2026-03-12_11h09.01.531,2026A_exp2,2022.2.4,59.94222764582325,
1,0,0.0,0.0,1,0,74,74,18,,,,,216.3588036999572,217.01165480003692,217.01165480003692,217.51657150010578,315,45,217.51657150010578,217.51657150010578,217.51657150010578,217.51657150010578,217.51657150010578,217.51657150010578,217.51657150010578,217.51657150010578,217.51657150010578,217.8773050000891,217.8773050000891,217.8773050000891,217.8773050000891,217.8773050000891,217.8773050000891,217.8773050000891,217.8773050000891,217.8773050000891,6,3,"[0.04981900006532669, 0.10012660012580454, 0.35042729997076094]","[0.08344350010156631, 0.333741000154987, 0.3670791999902576]",217.8773050000891,218.08124050009064,0.0,218.08124050009064,0,0.0,0,1,1000,num_1,0.3462610000278801,,30,11,2026-03-12_11h09.01.531,2026A_exp2,2022.2.4,59.94222764582325,
0,0,0.0,4.9,0,0,75,75,54,,,,,218.44423729996197,219.0952127999626,219.0952127999626,219.5795281000901,45,315,219.5795281000901,219.5795281000901,219.5795281000901,219.5795281000901,219.5795281000901,219.5795281000901,219.5795281000901,219.5795281000901,219.5795281000901,219.945943800034,219.945943800034,219.945943800034,219.945943800034,219.945943800034,219.945943800034,219.945943800034,219.945943800034,219.945943800034,23,0,,,219.945943800034,220.14593499992043,4.9,220.14593499992043,1,4.9,1,1,1000,num_4,0.5379760998766869,,30,11,2026-03-12_11h09.01.531,2026A_exp2,2022.2.4,59.94222764582325,
1000,1,0.0,4.9,0,0,76,76,77,,,,,220.71354830008931,221.34725380013697,221.34725380013697,221.8484014000278,45,45,221.8484014000278,221.8484014000278,221.8484014000278,221.8484014000278,221.8484014000278,221.8484014000278,221.8484014000278,221.8484014000278,221.8484014000278,222.21478940011002,222.21478940011002,222.21478940011002,222.21478940011002,222.21478940011002,222.21478940011002,222.21478940011002,222.21478940011002,222.21478940011002,3,1,[0.0012385000009089708],[0.33384229987859726],222.21478940011002,222.41697210003622,1000,222.41697210003622,1000,1000,1000,1000,1,num_2,0.38704279996454716,,30,11,2026-03-12_11h09.01.531,2026A_exp2,2022.2.4,59.94222764582325,
1000,1,0.0,0.0,0,0,77,77,61,,,,,222.81954309996217,223.4661097000353,223.4661097000353,223.96698140003718,315,45,223.96698140003718,223.96698140003718,223.96698140003718,223.96698140003718,223.96698140003718,223.96698140003718,223.96698140003718,223.96698140003718,223.96698140003718,224.33355939993635,224.33355939993635,224.33355939993635,224.33355939993635,224.33355939993635,224.33355939993635,224.33355939993635,224.33355939993635,224.33355939993635,19,2,"[0.0013484000228345394, 0.10015730001032352]","[0.033491000067442656, 0.11683490010909736]",224.33355939993635,224.5361309000291,1000,224.5361309000291,1000,1000,1000,1000,1,num_2,0.611842299811542,,30,11,2026-03-12_11h09.01.531,2026A_exp2,2022.2.4,59.94222764582325,
1,0,4.9,6.1,1,0,78,78,46,,,,,225.1676998999901,225.81844950001687,225.81844950001687,226.31933389999904,315,45,226.31933389999904,226.31933389999904,226.31933389999904,226.31933389999904,226.31933389999904,226.31933389999904,226.31933389999904,226.31933389999904,226.31933389999904,226.68597800005227,226.68597800005227,226.68597800005227,226.68597800005227,226.68597800005227,226.68597800005227,226.68597800005227,226.68597800005227,226.68597800005227,23,0,,,226.68597800005227,226.88612510007806,6.1,226.88612510007806,1,6.1,1,1,1000,num_4,0.6218944999855012,,30,11,2026-03-12_11h09.01.531,2026A_exp2,2022.2.4,59.94222764582325,
1,0,0.0,0.0,0,0,79,79,64,,,,,227.53665370005183,228.1707264999859,228.1707264999859,228.67172800004482,45,315,228.67172800004482,228.67172800004482,228.67172800004482,228.67172800004482,228.67172800004482,228.67172800004482,228.67172800004482,228.67172800004482,228.67172800004482,229.037909100065,229.037909100065,229.037909100065,229.037909100065,229.037909100065,229.037909100065,229.037909100065,229.037909100065,229.037909100065,18,1,[0.0012244998943060637],[0.08357429993338883],229.037909100065,229.23842109995894,0.0,229.23842109995894,0,0.0,0,1,1000,num_1,0.4224496998358518,,30,11,2026-03-12_11h09.01.531,2026A_exp2,2022.2.4,59.94222764582325,
1,0,0.0,4.9,0,0,80,80,17,,,,,229.68886979995295,230.33970270003192,230.33970270003192,230.82404340012,315,315,230.82404340012,230.82404340012,230.82404340012,230.82404340012,230.82404340012,230.82404340012,230.82404340012,230.82404340012,230.82404340012,231.190468700137,231.190468700137,231.190468700137,231.190468700137,231.190468700137,231.190468700137,231.190468700137,231.190468700137,231.190468700137,20,1,[0.0013043000362813473],[0.03350959997624159],231.190468700137,231.39048080006614,0.0,231.39048080006614,0,0.0,0,1,1000,num_1,0.5411143000237644,,30,11,2026-03-12_11h09.01.531,2026A_exp2,2022.2.4,59.94222764582325,
1,0,4.9,6.1,0,0,81,81,15,,,,,231.95777889993042,232.60838990006596,232.60838990006596,233.09303470002487,45,45,233.09303470002487,233.09303470002487,233.09303470002487,233.09303470002487,233.09303470002487,233.09303470002487,233.09303470002487,233.09303470002487,233.09303470002487,233.45938550005667,233.45938550005667,233.45938550005667,233.45938550005667,233.45938550005667,233.45938550005667,233.45938550005667,233.45938550005667,233.45938550005667,23,0,,,233.45938550005667,233.65945259993896,4.9,233.65945259993896,0,4.9,1,0,1000,num_1,0.5608462998643517,,30,11,2026-03-12_11h09.01.531,2026A_exp2,2022.2.4,59.94222764582325,
1000,1,6.1,3.7,1,0,82,82,0,,,,,234.2434541999828,234.8941919999197,234.8941919999197,235.3786100000143,45,45,235.3786100000143,235.3786100000143,235.3786100000143,235.3786100000143,235.3786100000143,235.3786100000143,235.3786100000143,235.3786100000143,235.3786100000143,235.7447903000284,235.7447903000284,235.7447903000284,235.7447903000284,235.7447903000284,235.7447903000284,235.7447903000284,235.7447903000284,235.7447903000284,23,0,,,235.7447903000284,235.94760449999012,1000,235.94760449999012,1000,1000,1000,1000,0,num_3,0.5201288997195661,,30,11,2026-03-12_11h09.01.531,2026A_exp2,2022.2.4,59.94222764582325,
1,0,0.0,0.0,1,0,83,83,43,,,,,236.495650799945,237.1463937999215,237.1463937999215,237.64764320012182,315,315,237.64764320012182,237.64764320012182,237.64764320012182,237.64764320012182,237.64764320012182,237.64764320012182,237.64764320012182,237.64764320012182,237.64764320012182,238.01397059997544,238.01397059997544,238.01397059997544,238.01397059997544,238.01397059997544,238.01397059997544,238.01397059997544,238.01397059997544,238.01397059997544,23,0,,,238.01397059997544,238.21417930000462,0.0,238.21417930000462,0,0.0,0,1,1000,num_1,0.2936567997094244,,30,11,2026-03-12_11h09.01.531,2026A_exp2,2022.2.4,59.94222764582325,
1000,1,4.9,3.7,1,0,84,84,67,,,,,238.53131900005974,239.18227470014244,239.18227470014244,239.66633119992912,315,315,239.66633119992912,239.66633119992912,239.66633119992912,239.66633119992912,239.66633119992912,239.66633119992912,239.66633119992912,239.66633119992912,239.66633119992912,240.0325645999983,240.0325645999983,240.0325645999983,240.0325645999983,240.0325645999983,240.0325645999983,240.0325645999983,240.0325645999983,240.0325645999983,23,0,,,240.0325645999983,240.2333102999255,1000,240.2333102999255,1000,1000,1000,1000,0,num_3,1.2506677999626845,,30,11,2026-03-12_11h09.01.531,2026A_exp2,2022.2.4,59.94222764582325,
1000,1,0.0,0.0,0,0,85,85,65,,,,,241.50065060006455,242.15129210008308,242.15129210008308,242.6525038999971,45,315,242.6525038999971,242.6525038999971,242.6525038999971,242.6525038999971,242.6525038999971,242.6525038999971,242.6525038999971,242.6525038999971,242.6525038999971,243.00228899996728,243.00228899996728,243.00228899996728,243.00228899996728,243.00228899996728,243.00228899996728,243.00228899996728,243.00228899996728,243.00228899996728,17,1,[0.0012985998764634132],[0.08359349984675646],243.00228899996728,243.20492559997365,1000,243.20492559997365,1000,1000,1000,1000,1,num_2,0.5746675999835134,,30,11,2026-03-12_11h09.01.531,2026A_exp2,2022.2.4,59.94222764582325,
1000,1,4.9,0.0,0,0,86,86,36,,,,,243.80313290003687,244.45384600013494,244.45384600013494,244.95479410002008,45,315,244.95479410002008,244.95479410002008,244.95479410002008,244.95479410002008,244.95479410002008,244.95479410002008,244.95479410002008,244.95479410002008,244.95479410002008,245.32117979996838,245.32117979996838,245.32117979996838,245.32117979996838,245.32117979996838,245.32117979996838,245.32117979996838,245.32117979996838,245.32117979996838,0,1,[0.0012827001046389341],[0.3670586000662297],245.32117979996838,245.52390650007874,1000,245.52390650007874,1000,1000,1000,1000,0,num_3,0.5767790998797864,,30,11,2026-03-12_11h09.01.531,2026A_exp2,2022.2.4,59.94222764582325,
1,0,4.9,0.0,1,0,87,87,6,,,,,246.12212900002487,246.7726364999544,246.7726364999544,247.273823000025,45,45,247.273823000025,247.273823000025,247.273823000025,247.273823000025,247.273823000025,247.273823000025,247.273823000025,247.273823000025,247.273823000025,247.64014340005815,247.64014340005815,247.64014340005815,247.64014340005815,247.64014340005815,247.64014340005815,247.64014340005815,247.64014340005815,247.64014340005815,17,1,[0.0012300999369472265],[0.10021730000153184],247.64014340005815,247.84047379996628,0.0,247.84047379996628,0,0.0,0,1,1000,num_1,0.6272229999303818,,30,11,2026-03-12_11h09.01.531,2026A_exp2,2022.2.4,59.94222764582325,
1000,1,0.0,0.0,0,0,88,88,69,,,,,248.49105800013058,249.1418056001421,249.1418056001421,249.62625620001927,45,315,249.62625620001927,249.62625620001927,249.62625620001927,249.62625620001927,249.62625620001927,249.62625620001927,249.62625620001927,249.62625620001927,249.62625620001927,249.99244119995274,249.99244119995274,249.99244119995274,249.99244119995274,249.99244119995274,249.99244119995274,249.99244119995274,249.99244119995274,249.99244119995274,23,0,,,249.99244119995274,250.19546740013175,1000,250.19546740013175,1000,1000,1000,1000,1,num_2,0.9286122997291386,,30,11,2026-03-12_11h09.01.531,2026A_exp2,2022.2.4,59.94222764582325,
1000,1,4.9,0.0,0,0,89,89,22,,,,,251.14382140012458,251.79442390007898,251.79442390007898,252.2955374000594,315,45,252.2955374000594,252.2955374000594,252.2955374000594,252.2955374000594,252.2955374000594,252.2955374000594,252.2955374000594,252.2955374000594,252.2955374000594,252.66190399997868,252.66190399997868,252.66190399997868,252.66190399997868,252.66190399997868,252.66190399997868,252.66190399997868,252.66190399997868,252.66190399997868,23,0,,,252.66190399997868,252.86480510002002,1000,252.86480510002002,1000,1000,1000,1000,0,num_3,0.570745499804616,,30,11,2026-03-12_11h09.01.531,2026A_exp2,2022.2.4,59.94222764582325,
,,,,,,,,,,,,,,,,,,,,,,,,,,,,,,,,,,,,,,,,,,,,,,,,,,,,253.47265610005707,,,,,,,
