validity,detectorcomp,contrastCW,contrastCCW,precueCWorCCW,block_80trials.thisRepN,block_80trials.thisTrialN,block_80trials.thisN,block_80trials.thisIndex,etRecord.started,etRecord.stopped,text.started,text.stopped,text_4.started,text_4.stopped,text_6.started,text_6.stopped,oriCW,oriCCW,roi_2.started,grating_UR.started,grating_UL.started,grating_LR.started,grating_LL.started,noise_UR.started,noise_UL.started,noise_LR.started,noise_LL.started,roi_2.stopped,grating_UR.stopped,grating_UL.stopped,grating_LR.stopped,grating_LL.stopped,noise_UR.stopped,noise_UL.stopped,noise_LR.stopped,noise_LL.stopped,outframe,roi_2.numLooks,roi_2.timesOn,roi_2.timesOff,text_2.started,text_2.stopped,probedcontrast,key_resp.started,respdetect,relevantContrast,correctDetect,TorFdetect,respCWorCCW,key_resp.keys,key_resp.rt,feedback_display_.started,participantNo,blockNo,date,expName,psychopyVersion,frameRate,
1000,1,3.7,4.9,1,0,0,0,44,7.000000914558768e-05,7.000000914558768e-05,47.566256600024644,49.57095780002419,49.57095780002419,50.2029020000482,50.2029020000482,50.72322510002414,315,45,50.72322510002414,50.72322510002414,50.72322510002414,50.72322510002414,50.72322510002414,50.72322510002414,50.72322510002414,50.72322510002414,50.72322510002414,51.07060920004733,51.07060920004733,51.07060920004733,51.07060920004733,51.07060920004733,51.07060920004733,51.07060920004733,51.07060920004733,51.07060920004733,22,1,[0.001036900037433952],[0.03532630001427606],51.07060920004733,51.27531880000606,1000,51.27531880000606,1000,1000,1000,1000,1,num_2,0.53781650000019,,26,10,2026-03-05_11h05.27.804,2026A_exp2,2022.2.4,59.9620320314309,
1,0,0.0,6.1,1,0,1,1,52,,,,,51.83826210000552,52.48877729999367,52.48877729999367,52.98972810001578,45,45,52.98972810001578,52.98972810001578,52.98972810001578,52.98972810001578,52.98972810001578,52.98972810001578,52.98972810001578,52.98972810001578,52.98972810001578,53.33947820001049,53.33947820001049,53.33947820001049,53.33947820001049,53.33947820001049,53.33947820001049,53.33947820001049,53.33947820001049,53.33947820001049,0,1,[0.0013431999832391739],[0.35036649997346103],53.33947820001049,53.53973670001142,6.1,53.53973670001142,1,6.1,1,1,1000,num_4,1.345276499981992,,26,10,2026-03-05_11h05.27.804,2026A_exp2,2022.2.4,59.9620320314309,
1,0,0.0,0.0,1,0,2,2,87,,,,,54.90780360001372,55.55852220003726,55.55852220003726,56.05952230002731,45,315,56.05952230002731,56.05952230002731,56.05952230002731,56.05952230002731,56.05952230002731,56.05952230002731,56.05952230002731,56.05952230002731,56.05952230002731,56.409292299998924,56.409292299998924,56.409292299998924,56.409292299998924,56.409292299998924,56.409292299998924,56.409292299998924,56.409292299998924,56.409292299998924,22,0,,,56.409292299998924,56.609521400008816,0.0,56.609521400008816,1,0.0,0,0,1000,num_4,0.6440560999908485,,26,10,2026-03-05_11h05.27.804,2026A_exp2,2022.2.4,59.9620320314309,
0,0,0.0,3.7,1,0,3,3,10,,,,,57.276872600021306,57.92744960001437,57.92744960001437,58.41195620002691,315,315,58.41195620002691,58.41195620002691,58.41195620002691,58.41195620002691,58.41195620002691,58.41195620002691,58.41195620002691,58.41195620002691,58.41195620002691,58.778236100042704,58.778236100042704,58.778236100042704,58.778236100042704,58.778236100042704,58.778236100042704,58.778236100042704,58.778236100042704,58.778236100042704,23,0,,,58.778236100042704,58.97847690002527,0.0,58.97847690002527,0,0.0,0,1,1000,num_1,1.40197339997394,,26,10,2026-03-05_11h05.27.804,2026A_exp2,2022.2.4,59.9620320314309,
1,0,0.0,3.7,1,0,4,4,41,,,,,60.39651580003556,61.047149699996226,61.047149699996226,61.53161990002263,315,315,61.53161990002263,61.53161990002263,61.53161990002263,61.53161990002263,61.53161990002263,61.53161990002263,61.53161990002263,61.53161990002263,61.53161990002263,61.89817590004532,61.89817590004532,61.89817590004532,61.89817590004532,61.89817590004532,61.89817590004532,61.89817590004532,61.89817590004532,61.89817590004532,23,0,,,61.89817590004532,62.09838340000715,3.7,62.09838340000715,1,3.7,1,1,1000,num_4,1.122383699985221,,26,10,2026-03-05_11h05.27.804,2026A_exp2,2022.2.4,59.9620320314309,
1,0,3.7,0.0,1,0,5,5,19,,,,,63.24935150000965,63.90029030002188,63.90029030002188,64.38458380004158,315,315,64.38458380004158,64.38458380004158,64.38458380004158,64.38458380004158,64.38458380004158,64.38458380004158,64.38458380004158,64.38458380004158,64.38458380004158,64.7509296000353,64.7509296000353,64.7509296000353,64.7509296000353,64.7509296000353,64.7509296000353,64.7509296000353,64.7509296000353,64.7509296000353,21,1,[0.3503956999629736],[0.36714190000202507],64.7509296000353,64.95117590000154,0.0,64.95117590000154,0,0.0,0,1,1000,num_1,0.5977588000241667,,26,10,2026-03-05_11h05.27.804,2026A_exp2,2022.2.4,59.9620320314309,
1000,1,6.1,0.0,0,0,6,6,14,,,,,65.56830390001414,66.21920410002349,66.21920410002349,66.70360980002442,45,315,66.70360980002442,66.70360980002442,66.70360980002442,66.70360980002442,66.70360980002442,66.70360980002442,66.70360980002442,66.70360980002442,66.70360980002442,67.07012150000082,67.07012150000082,67.07012150000082,67.07012150000082,67.07012150000082,67.07012150000082,67.07012150000082,67.07012150000082,67.07012150000082,23,0,,,67.07012150000082,67.27185930003179,1000,67.27185930003179,1000,1000,1000,1000,0,num_3,0.5487213999731466,,26,10,2026-03-05_11h05.27.804,2026A_exp2,2022.2.4,59.9620320314309,
1000,1,3.7,0.0,1,0,7,7,48,,,,,67.83744400000433,68.48790380003629,68.48790380003629,68.9890626000124,315,45,68.9890626000124,68.9890626000124,68.9890626000124,68.9890626000124,68.9890626000124,68.9890626000124,68.9890626000124,68.9890626000124,68.9890626000124,69.35554760001833,69.35554760001833,69.35554760001833,69.35554760001833,69.35554760001833,69.35554760001833,69.35554760001833,69.35554760001833,69.35554760001833,2,2,"[0.0012372999917715788, 0.08351070003118366]","[0.05018060002475977, 0.3670648999977857]",69.35554760001833,69.55747360002715,1000,69.55747360002715,1000,1000,1000,1000,0,num_3,0.6306819999590516,,26,10,2026-03-05_11h05.27.804,2026A_exp2,2022.2.4,59.9620320314309,
1,0,3.7,0.0,0,0,8,8,42,,,,,70.20634420000715,70.85712490003789,70.85712490003789,71.35808100004215,315,315,71.35808100004215,71.35808100004215,71.35808100004215,71.35808100004215,71.35808100004215,71.35808100004215,71.35808100004215,71.35808100004215,71.35808100004215,71.72468330000993,71.72468330000993,71.72468330000993,71.72468330000993,71.72468330000993,71.72468330000993,71.72468330000993,71.72468330000993,71.72468330000993,1,2,"[0.0012011999497190118, 0.0501879999646917]","[0.03357009997125715, 0.3669590999488719]",71.72468330000993,71.9248910000315,3.7,71.9248910000315,1,3.7,1,1,1000,num_4,0.8323361999937333,,26,10,2026-03-05_11h05.27.804,2026A_exp2,2022.2.4,59.9620320314309,
1000,1,6.1,6.1,1,0,9,9,77,,,,,72.77541870001005,73.42630640004063,73.42630640004063,73.91071359999478,45,315,73.91071359999478,73.91071359999478,73.91071359999478,73.91071359999478,73.91071359999478,73.91071359999478,73.91071359999478,73.91071359999478,73.91071359999478,74.27707640000153,74.27707640000153,74.27707640000153,74.27707640000153,74.27707640000153,74.27707640000153,74.27707640000153,74.27707640000153,74.27707640000153,23,0,,,74.27707640000153,74.47719180001877,1000,74.47719180001877,1000,1000,1000,1000,1,num_2,0.5755472999881022,,26,10,2026-03-05_11h05.27.804,2026A_exp2,2022.2.4,59.9620320314309,
1000,1,4.9,0.0,0,0,10,10,54,,,,,75.0776417000452,75.72871729999315,75.72871729999315,76.21318830002565,45,315,76.21318830002565,76.21318830002565,76.21318830002565,76.21318830002565,76.21318830002565,76.21318830002565,76.21318830002565,76.21318830002565,76.21318830002565,76.5794753000373,76.5794753000373,76.5794753000373,76.5794753000373,76.5794753000373,76.5794753000373,76.5794753000373,76.5794753000373,76.5794753000373,23,0,,,76.5794753000373,76.78163720003795,1000,76.78163720003795,1000,1000,1000,1000,0,num_3,0.415165199956391,,26,10,2026-03-05_11h05.27.804,2026A_exp2,2022.2.4,59.9620320314309,
1,0,0.0,6.1,0,0,11,11,11,,,,,77.2133834999986,77.86411880003288,77.86411880003288,78.36525050003547,45,45,78.36525050003547,78.36525050003547,78.36525050003547,78.36525050003547,78.36525050003547,78.36525050003547,78.36525050003547,78.36525050003547,78.36525050003547,78.73159229999874,78.73159229999874,78.73159229999874,78.73159229999874,78.73159229999874,78.73159229999874,78.73159229999874,78.73159229999874,78.73159229999874,23,0,,,78.73159229999874,78.93170370004373,0.0,78.93170370004373,0,0.0,0,1,1000,num_1,0.7778587000211701,,26,10,2026-03-05_11h05.27.804,2026A_exp2,2022.2.4,59.9620320314309,
1000,1,3.7,0.0,0,0,12,12,45,,,,,79.73253680003108,80.38320919999387,80.38320919999387,80.86773150000954,315,45,80.86773150000954,80.86773150000954,80.86773150000954,80.86773150000954,80.86773150000954,80.86773150000954,80.86773150000954,80.86773150000954,80.86773150000954,81.2341820000438,81.2341820000438,81.2341820000438,81.2341820000438,81.2341820000438,81.2341820000438,81.2341820000438,81.2341820000438,81.2341820000438,23,0,,,81.2341820000438,81.4360646000132,1000,81.4360646000132,1000,1000,1000,1000,0,num_3,0.3609950999962166,,26,10,2026-03-05_11h05.27.804,2026A_exp2,2022.2.4,59.9620320314309,
1,0,0.0,4.9,0,0,13,13,4,,,,,81.8181894000154,82.46875120000914,82.46875120000914,82.95310520002386,45,45,82.95310520002386,82.95310520002386,82.95310520002386,82.95310520002386,82.95310520002386,82.95310520002386,82.95310520002386,82.95310520002386,82.95310520002386,83.31952790002106,83.31952790002106,83.31952790002106,83.31952790002106,83.31952790002106,83.31952790002106,83.31952790002106,83.31952790002106,83.31952790002106,23,0,,,83.31952790002106,83.51980850001564,0.0,83.51980850001564,0,0.0,0,1,1000,num_1,0.7164905999670736,,26,10,2026-03-05_11h05.27.804,2026A_exp2,2022.2.4,59.9620320314309,
1000,1,0.0,6.1,1,0,14,14,62,,,,,84.25369370001135,84.9044449000503,84.9044449000503,85.38880630000494,315,45,85.38880630000494,85.38880630000494,85.38880630000494,85.38880630000494,85.38880630000494,85.38880630000494,85.38880630000494,85.38880630000494,85.38880630000494,85.75526880001416,85.75526880001416,85.75526880001416,85.75526880001416,85.75526880001416,85.75526880001416,85.75526880001416,85.75526880001416,85.75526880001416,23,0,,,85.75526880001416,85.95715670002392,1000,85.95715670002392,1000,1000,1000,1000,1,num_2,0.391277699964121,,26,10,2026-03-05_11h05.27.804,2026A_exp2,2022.2.4,59.9620320314309,
1000,1,0.0,0.0,1,0,15,15,23,,,,,86.37239460001001,87.00653660000535,87.00653660000535,87.50771680002799,315,45,87.50771680002799,87.50771680002799,87.50771680002799,87.50771680002799,87.50771680002799,87.50771680002799,87.50771680002799,87.50771680002799,87.50771680002799,87.87412380002206,87.87412380002206,87.87412380002206,87.87412380002206,87.87412380002206,87.87412380002206,87.87412380002206,87.87412380002206,87.87412380002206,23,0,,,87.87412380002206,88.08857310004532,1000,88.08857310004532,1000,1000,1000,1000,1,num_2,0.6122160999802873,,26,10,2026-03-05_11h05.27.804,2026A_exp2,2022.2.4,59.9620320314309,
1000,1,6.1,0.0,1,0,16,16,30,,,,,88.72482300002594,89.37564060004661,89.37564060004661,89.87677520001307,315,45,89.87677520001307,89.87677520001307,89.87677520001307,89.87677520001307,89.87677520001307,89.87677520001307,89.87677520001307,89.87677520001307,89.87677520001307,90.22650119999889,90.22650119999889,90.22650119999889,90.22650119999889,90.22650119999889,90.22650119999889,90.22650119999889,90.22650119999889,90.22650119999889,0,1,[0.0012123000342398882],[0.35065890004625544],90.22650119999889,90.42841890000273,1000,90.42841890000273,1000,1000,1000,1000,0,num_3,0.32079310005065054,,26,10,2026-03-05_11h05.27.804,2026A_exp2,2022.2.4,59.9620320314309,
1000,1,4.9,0.0,1,0,17,17,5,,,,,90.77694640000118,91.42767689999891,91.42767689999891,91.92876550002256,315,315,91.92876550002256,91.92876550002256,91.92876550002256,91.92876550002256,91.92876550002256,91.92876550002256,91.92876550002256,91.92876550002256,91.92876550002256,92.27831920003518,92.27831920003518,92.27831920003518,92.27831920003518,92.27831920003518,92.27831920003518,92.27831920003518,92.27831920003518,92.27831920003518,22,0,,,92.27831920003518,92.48066090000793,1000,92.4955305000185,1000,1000,1000,1000,0,num_3,0.33350999996764585,,26,10,2026-03-05_11h05.27.804,2026A_exp2,2022.2.4,59.9620320314309,
1000,1,0.0,4.9,1,0,18,18,31,,,,,92.84577910002554,93.49627270002384,93.49627270002384,93.98069190001115,315,315,93.98069190001115,93.98069190001115,93.98069190001115,93.98069190001115,93.98069190001115,93.98069190001115,93.98069190001115,93.98069190001115,93.98069190001115,94.34725140000228,94.34725140000228,94.34725140000228,94.34725140000228,94.34725140000228,94.34725140000228,94.34725140000228,94.34725140000228,94.34725140000228,1,2,"[0.0012119999737478793, 0.23384539998369291]","[0.2173231999622658, 0.3671296999673359]",94.34725140000228,94.54746279999381,1000,94.54746279999381,1000,1000,1000,1000,1,num_2,0.2812709999852814,,26,10,2026-03-05_11h05.27.804,2026A_exp2,2022.2.4,59.9620320314309,
1,0,0.0,4.9,1,0,19,19,53,,,,,94.84764640004141,95.49841210001614,95.49841210001614,95.99948640004732,45,45,95.99948640004732,95.99948640004732,95.99948640004732,95.99948640004732,95.99948640004732,95.99948640004732,95.99948640004732,95.99948640004732,95.99948640004732,96.36595230002422,96.36595230002422,96.36595230002422,96.36595230002422,96.36595230002422,96.36595230002422,96.36595230002422,96.36595230002422,96.36595230002422,23,0,,,96.36595230002422,96.56632240000181,4.9,96.56632240000181,1,4.9,1,1,1000,num_4,0.7502051999908872,,26,10,2026-03-05_11h05.27.804,2026A_exp2,2022.2.4,59.9620320314309,
1000,1,3.7,0.0,0,0,20,20,2,,,,,97.33345610002289,97.98422670003492,97.98422670003492,98.46863560000202,45,45,98.46863560000202,98.46863560000202,98.46863560000202,98.46863560000202,98.46863560000202,98.46863560000202,98.46863560000202,98.46863560000202,98.46863560000202,98.83510190004017,98.83510190004017,98.83510190004017,98.83510190004017,98.83510190004017,98.83510190004017,98.83510190004017,98.83510190004017,98.83510190004017,23,0,,,98.83510190004017,99.03544710000278,1000,99.03544710000278,1000,1000,1000,1000,0,num_3,0.3852760999579914,,26,10,2026-03-05_11h05.27.804,2026A_exp2,2022.2.4,59.9620320314309,
1000,1,6.1,0.0,1,0,21,21,16,,,,,99.45234590000473,100.10269329999574,100.10269329999574,100.58738550002454,45,45,100.58738550002454,100.58738550002454,100.58738550002454,100.58738550002454,100.58738550002454,100.58738550002454,100.58738550002454,100.58738550002454,100.58738550002454,100.95386210002471,100.95386210002471,100.95386210002471,100.95386210002471,100.95386210002471,100.95386210002471,100.95386210002471,100.95386210002471,100.95386210002471,23,0,,,100.95386210002471,101.154138300044,1000,101.154138300044,1000,1000,1000,1000,0,num_3,0.45925480005098507,,26,10,2026-03-05_11h05.27.804,2026A_exp2,2022.2.4,59.9620320314309,
1000,1,0.0,3.7,0,0,22,22,51,,,,,101.6377785000368,102.28852370003005,102.28852370003005,102.78966100001708,315,45,102.78966100001708,102.78966100001708,102.78966100001708,102.78966100001708,102.78966100001708,102.78966100001708,102.78966100001708,102.78966100001708,102.78966100001708,103.15590110002086,103.15590110002086,103.15590110002086,103.15590110002086,103.15590110002086,103.15590110002086,103.15590110002086,103.15590110002086,103.15590110002086,23,0,,,103.15590110002086,103.35823390004225,1000,103.35823390004225,1000,1000,1000,1000,1,num_2,0.5819703000015579,,26,10,2026-03-05_11h05.27.804,2026A_exp2,2022.2.4,59.9620320314309,
1,0,0.0,0.0,1,0,23,23,73,,,,,103.95679050002946,104.60752540000249,104.60752540000249,105.10858140001073,45,315,105.10858140001073,105.10858140001073,105.10858140001073,105.10858140001073,105.10858140001073,105.10858140001073,105.10858140001073,105.10858140001073,105.10858140001073,105.45818100002361,105.45818100002361,105.45818100002361,105.45818100002361,105.45818100002361,105.45818100002361,105.45818100002361,105.45818100002361,105.45818100002361,1,1,[0.0011990999919362366],[0.3507238000165671],105.45818100002361,105.6585594000062,0.0,105.6752242000075,1,0.0,0,0,1000,num_4,0.6816854000207968,,26,10,2026-03-05_11h05.27.804,2026A_exp2,2022.2.4,59.9620320314309,
1000,1,4.9,6.1,0,0,24,24,20,,,,,106.37576650001574,107.02661100000842,107.02661100000842,107.51093500002753,315,315,107.51093500002753,107.51093500002753,107.51093500002753,107.51093500002753,107.51093500002753,107.51093500002753,107.51093500002753,107.51093500002753,107.51093500002753,107.87720930000069,107.87720930000069,107.87720930000069,107.87720930000069,107.87720930000069,107.87720930000069,107.87720930000069,107.87720930000069,107.87720930000069,23,0,,,107.87720930000069,108.0794885000214,1000,108.0794885000214,1000,1000,1000,1000,1,num_2,0.42121210001641884,,26,10,2026-03-05_11h05.27.804,2026A_exp2,2022.2.4,59.9620320314309,
1,0,0.0,0.0,0,0,25,25,29,,,,,108.52796590002254,109.17875370004913,109.17875370004913,109.67991770000663,45,45,109.67991770000663,109.67991770000663,109.67991770000663,109.67991770000663,109.67991770000663,109.67991770000663,109.67991770000663,109.67991770000663,109.67991770000663,110.02960910002002,110.02960910002002,110.02960910002002,110.02960910002002,110.02960910002002,110.02960910002002,110.02960910002002,110.02960910002002,110.02960910002002,22,0,,,110.02960910002002,110.22978720004903,0.0,110.22978720004903,1,0.0,0,0,1000,num_4,0.6869919000309892,,26,10,2026-03-05_11h05.27.804,2026A_exp2,2022.2.4,59.9620320314309,
1,0,3.7,0.0,0,0,26,26,65,,,,,110.94703370000934,111.59787440003129,111.59787440003129,112.08228770003188,45,315,112.08228770003188,112.08228770003188,112.08228770003188,112.08228770003188,112.08228770003188,112.08228770003188,112.08228770003188,112.08228770003188,112.08228770003188,112.44868329999736,112.44868329999736,112.44868329999736,112.44868329999736,112.44868329999736,112.44868329999736,112.44868329999736,112.44868329999736,112.44868329999736,20,3,"[0.0012700000079348683, 0.06695499998750165, 0.23353580001275986]","[0.01744590001180768, 0.08358630002476275, 0.2502793000312522]",112.44868329999736,112.64872800000012,3.7,112.64872800000012,1,3.7,1,1,1000,num_4,0.9641400999971665,,26,10,2026-03-05_11h05.27.804,2026A_exp2,2022.2.4,59.9620320314309,
1000,1,4.9,6.1,1,0,27,27,28,,,,,113.63294630002929,114.28388750000158,114.28388750000158,114.7682966000284,315,315,114.7682966000284,114.7682966000284,114.7682966000284,114.7682966000284,114.7682966000284,114.7682966000284,114.7682966000284,114.7682966000284,114.7682966000284,115.13465650001308,115.13465650001308,115.13465650001308,115.13465650001308,115.13465650001308,115.13465650001308,115.13465650001308,115.13465650001308,115.13465650001308,23,0,,,115.13465650001308,115.33650900004432,1000,115.33650900004432,1000,1000,1000,1000,1,num_2,0.4198030999978073,,26,10,2026-03-05_11h05.27.804,2026A_exp2,2022.2.4,59.9620320314309,
1000,1,0.0,0.0,0,0,28,28,18,,,,,115.77132699999493,116.41924020001898,116.41924020001898,116.92034650000278,315,315,116.92034650000278,116.92034650000278,116.92034650000278,116.92034650000278,116.92034650000278,116.92034650000278,116.92034650000278,116.92034650000278,116.92034650000278,117.28690520004602,117.28690520004602,117.28690520004602,117.28690520004602,117.28690520004602,117.28690520004602,117.28690520004602,117.28690520004602,117.28690520004602,21,1,[0.06682230002479628],[0.1000993000343442],117.28690520004602,117.48864670004696,1000,117.48864670004696,1000,1000,1000,1000,0,num_3,0.4756393999559805,,26,10,2026-03-05_11h05.27.804,2026A_exp2,2022.2.4,59.9620320314309,
1,0,6.1,4.9,0,0,29,29,24,,,,,117.98755479999818,118.62148040003376,118.62148040003376,119.12264080002205,45,45,119.12264080002205,119.12264080002205,119.12264080002205,119.12264080002205,119.12264080002205,119.12264080002205,119.12264080002205,119.12264080002205,119.12264080002205,119.4890427000355,119.4890427000355,119.4890427000355,119.4890427000355,119.4890427000355,119.4890427000355,119.4890427000355,119.4890427000355,119.4890427000355,8,3,"[0.017490999947767705, 0.1837643999606371, 0.30049159994814545]","[0.16692609997699037, 0.2504691999638453, 0.33387909998418763]",119.4890427000355,119.68911330000265,6.1,119.68911330000265,1,6.1,1,1,1000,num_4,0.7315581000293605,,26,10,2026-03-05_11h05.27.804,2026A_exp2,2022.2.4,59.9620320314309,
1000,1,3.7,6.1,0,0,30,30,0,,,,,120.43984390003607,121.09064990002662,121.09064990002662,121.57512410002528,45,315,121.57512410002528,121.57512410002528,121.57512410002528,121.57512410002528,121.57512410002528,121.57512410002528,121.57512410002528,121.57512410002528,121.57512410002528,121.9415100000333,121.9415100000333,121.9415100000333,121.9415100000333,121.9415100000333,121.9415100000333,121.9415100000333,121.9415100000333,121.9415100000333,0,1,[0.0012032000231556594],[0.36729010002454743],121.9415100000333,122.14337240002351,1000,122.14337240002351,1000,1000,1000,1000,1,num_2,0.4290131999878213,,26,10,2026-03-05_11h05.27.804,2026A_exp2,2022.2.4,59.9620320314309,
1000,1,0.0,0.0,0,0,31,31,17,,,,,122.5920124000404,123.2427875000285,123.2427875000285,123.74396130000241,45,45,123.74396130000241,123.74396130000241,123.74396130000241,123.74396130000241,123.74396130000241,123.74396130000241,123.74396130000241,123.74396130000241,123.74396130000241,124.11012820003089,124.11012820003089,124.11012820003089,124.11012820003089,124.11012820003089,124.11012820003089,124.11012820003089,124.11012820003089,124.11012820003089,23,0,,,124.11012820003089,124.31231740000658,1000,124.31231740000658,1000,1000,1000,1000,0,num_3,0.44496620004065335,,26,10,2026-03-05_11h05.27.804,2026A_exp2,2022.2.4,59.9620320314309,
1,0,0.0,0.0,1,0,32,32,6,,,,,124.777540900046,125.42830339999637,125.42830339999637,125.92912320001051,45,315,125.92912320001051,125.92912320001051,125.92912320001051,125.92912320001051,125.92912320001051,125.92912320001051,125.92912320001051,125.92912320001051,125.92912320001051,126.27911669999594,126.27911669999594,126.27911669999594,126.27911669999594,126.27911669999594,126.27911669999594,126.27911669999594,126.27911669999594,126.27911669999594,22,0,,,126.27911669999594,126.4792657000362,0.0,126.4959693000419,1,0.0,0,0,1000,num_4,0.7096650000312366,,26,10,2026-03-05_11h05.27.804,2026A_exp2,2022.2.4,59.9620320314309,
1000,1,6.1,0.0,1,0,33,33,75,,,,,127.22994260000996,127.88077640003758,127.88077640003758,128.38193380000303,45,45,128.38193380000303,128.38193380000303,128.38193380000303,128.38193380000303,128.38193380000303,128.38193380000303,128.38193380000303,128.38193380000303,128.38193380000303,128.73166740004672,128.73166740004672,128.73166740004672,128.73166740004672,128.73166740004672,128.73166740004672,128.73166740004672,128.73166740004672,128.73166740004672,22,0,,,128.73166740004672,128.9334475999931,1000,128.9334475999931,1000,1000,1000,1000,0,num_3,0.30294149997644126,,26,10,2026-03-05_11h05.27.804,2026A_exp2,2022.2.4,59.9620320314309,
1000,1,4.9,0.0,1,0,34,34,22,,,,,129.26540490001207,129.9160829000175,129.9160829000175,130.41730550001375,45,315,130.41730550001375,130.41730550001375,130.41730550001375,130.41730550001375,130.41730550001375,130.41730550001375,130.41730550001375,130.41730550001375,130.41730550001375,130.78381049999734,130.78381049999734,130.78381049999734,130.78381049999734,130.78381049999734,130.78381049999734,130.78381049999734,130.78381049999734,130.78381049999734,23,0,,,130.78381049999734,130.98572330002207,1000,130.98572330002207,1000,1000,1000,1000,0,num_3,0.43540920002851635,,26,10,2026-03-05_11h05.27.804,2026A_exp2,2022.2.4,59.9620320314309,
1000,1,0.0,6.1,0,0,35,35,9,,,,,131.45090039999923,132.10157020000042,132.10157020000042,132.60280860000057,315,315,132.60280860000057,132.60280860000057,132.60280860000057,132.60280860000057,132.60280860000057,132.60280860000057,132.60280860000057,132.60280860000057,132.60280860000057,132.96921920002205,132.96921920002205,132.96921920002205,132.96921920002205,132.96921920002205,132.96921920002205,132.96921920002205,132.96921920002205,132.96921920002205,23,0,,,132.96921920002205,133.17156109999632,1000,133.17156109999632,1000,1000,1000,1000,1,num_2,0.37749889999395236,,26,10,2026-03-05_11h05.27.804,2026A_exp2,2022.2.4,59.9620320314309,
1000,1,3.7,4.9,1,0,36,36,43,,,,,133.56971970002633,134.22056380001595,134.22056380001595,134.72123980004108,315,45,134.72123980004108,134.72123980004108,134.72123980004108,134.72123980004108,134.72123980004108,134.72123980004108,134.72123980004108,134.72123980004108,134.72123980004108,135.07122810004512,135.07122810004512,135.07122810004512,135.07122810004512,135.07122810004512,135.07122810004512,135.07122810004512,135.07122810004512,135.07122810004512,14,1,[0.0008879999513737857],[0.13356339995516464],135.07122810004512,135.27310859999852,1000,135.2880669000442,1000,1000,1000,1000,1,num_2,0.42081570002483204,,26,10,2026-03-05_11h05.27.804,2026A_exp2,2022.2.4,59.9620320314309,
0,0,0.0,0.0,1,0,37,37,71,,,,,135.73853810003493,136.38932070002193,136.38932070002193,136.89042619999964,45,315,136.89042619999964,136.89042619999964,136.89042619999964,136.89042619999964,136.89042619999964,136.89042619999964,136.89042619999964,136.89042619999964,136.89042619999964,137.25678920000792,137.25678920000792,137.25678920000792,137.25678920000792,137.25678920000792,137.25678920000792,137.25678920000792,137.25678920000792,137.25678920000792,3,3,"[0.0010903000365942717, 0.23383099999045953, 0.30077309999614954]","[0.21717000001808628, 0.28381190000800416, 0.3671853000414558]",137.25678920000792,137.45699930004776,0.0,137.45699930004776,1,0.0,0,0,1000,num_4,1.092417000036221,,26,10,2026-03-05_11h05.27.804,2026A_exp2,2022.2.4,59.9620320314309,
0,0,4.9,0.0,1,0,38,38,25,,,,,138.5746185000171,139.22545680002077,139.22545680002077,139.70980850001797,315,45,139.70980850001797,139.70980850001797,139.70980850001797,139.70980850001797,139.70980850001797,139.70980850001797,139.70980850001797,139.70980850001797,139.70980850001797,140.07631269999547,140.07631269999547,140.07631269999547,140.07631269999547,140.07631269999547,140.07631269999547,140.07631269999547,140.07631269999547,140.07631269999547,23,0,,,140.07631269999547,140.276476500032,4.9,140.276476500032,1,4.9,1,1,1000,num_4,0.5678313000244088,,26,10,2026-03-05_11h05.27.804,2026A_exp2,2022.2.4,59.9620320314309,
1000,1,0.0,4.9,1,0,39,39,76,,,,,140.86027500004275,141.51103789999615,141.51103789999615,141.99554259999422,315,45,141.99554259999422,141.99554259999422,141.99554259999422,141.99554259999422,141.99554259999422,141.99554259999422,141.99554259999422,141.99554259999422,141.99554259999422,142.36199860001216,142.36199860001216,142.36199860001216,142.36199860001216,142.36199860001216,142.36199860001216,142.36199860001216,142.36199860001216,142.36199860001216,0,1,[0.0012422999716363847],[0.36710529995616525],142.36199860001216,142.56312960002106,1000,142.56312960002106,1000,1000,1000,1000,1,num_2,0.6093130999943241,,26,10,2026-03-05_11h05.27.804,2026A_exp2,2022.2.4,59.9620320314309,
1000,1,0.0,0.0,0,0,40,40,15,,,,,143.19596310000634,143.846747100004,143.846747100004,144.34785630000988,315,45,144.34785630000988,144.34785630000988,144.34785630000988,144.34785630000988,144.34785630000988,144.34785630000988,144.34785630000988,144.34785630000988,144.34785630000988,144.7142831000383,144.7142831000383,144.7142831000383,144.7142831000383,144.7142831000383,144.7142831000383,144.7142831000383,144.7142831000383,144.7142831000383,0,1,[0.0012830999912694097],[0.36702770000556484],144.7142831000383,144.9153533000499,1000,144.9153533000499,1000,1000,1000,1000,0,num_3,0.3780549999792129,,26,10,2026-03-05_11h05.27.804,2026A_exp2,2022.2.4,59.9620320314309,
0,0,0.0,6.1,0,0,41,41,7,,,,,145.31481210002676,145.9655472000013,145.9655472000013,146.4666331000044,315,45,146.4666331000044,146.4666331000044,146.4666331000044,146.4666331000044,146.4666331000044,146.4666331000044,146.4666331000044,146.4666331000044,146.4666331000044,146.8328077000333,146.8328077000333,146.8328077000333,146.8328077000333,146.8328077000333,146.8328077000333,146.8328077000333,146.8328077000333,146.8328077000333,2,2,"[0.0012349000317044556, 0.34967409999808297]","[0.33290640002815053, 0.36619600001722574]",146.8328077000333,147.03317599999718,6.1,147.03317599999718,1,6.1,1,1,1000,num_4,0.6761892000213265,,26,10,2026-03-05_11h05.27.804,2026A_exp2,2022.2.4,59.9620320314309,
1000,1,0.0,6.1,1,0,42,42,88,,,,,147.73376110004028,148.38460099999793,148.38460099999793,148.8686537000467,45,45,148.8686537000467,148.8686537000467,148.8686537000467,148.8686537000467,148.8686537000467,148.8686537000467,148.8686537000467,148.8686537000467,148.8686537000467,149.23546310001984,149.23546310001984,149.23546310001984,149.23546310001984,149.23546310001984,149.23546310001984,149.23546310001984,149.23546310001984,149.23546310001984,0,1,[0.0010108000133186579],[0.36747950001154095],149.23546310001984,149.43735130003188,1000,149.43735130003188,1000,1000,1000,1000,1,num_2,0.30303539999295026,,26,10,2026-03-05_11h05.27.804,2026A_exp2,2022.2.4,59.9620320314309,
1000,1,0.0,0.0,0,0,43,43,86,,,,,149.76930630003335,150.41997010004707,150.41997010004707,150.92109380004695,45,45,150.92109380004695,150.92109380004695,150.92109380004695,150.92109380004695,150.92109380004695,150.92109380004695,150.92109380004695,150.92109380004695,150.92109380004695,151.28762200003257,151.28762200003257,151.28762200003257,151.28762200003257,151.28762200003257,151.28762200003257,151.28762200003257,151.28762200003257,151.28762200003257,15,3,"[0.0007336999988183379, 0.16728409996721894, 0.3175279999850318]","[0.08376919996226206, 0.2007852999959141, 0.35084239998832345]",151.28762200003257,151.4893229000154,1000,151.4893229000154,1000,1000,1000,1000,0,num_3,0.08314110001083463,,26,10,2026-03-05_11h05.27.804,2026A_exp2,2022.2.4,59.9620320314309,
1,0,3.7,0.0,0,0,44,44,3,,,,,151.58778669999447,152.23839030001545,152.23839030001545,152.7395107000484,45,45,152.7395107000484,152.7395107000484,152.7395107000484,152.7395107000484,152.7395107000484,152.7395107000484,152.7395107000484,152.7395107000484,152.7395107000484,153.10598039999604,153.10598039999604,153.10598039999604,153.10598039999604,153.10598039999604,153.10598039999604,153.10598039999604,153.10598039999604,153.10598039999604,0,1,[0.001319900038652122],[0.3669486000435427],153.10598039999604,153.3062647000188,3.7,153.3062647000188,1,3.7,1,1,1000,num_4,0.7947252999874763,,26,10,2026-03-05_11h05.27.804,2026A_exp2,2022.2.4,59.9620320314309,
1,0,0.0,6.1,0,0,45,45,34,,,,,154.12347109999973,154.7742372000357,154.7742372000357,155.25866350001888,45,45,155.25866350001888,155.25866350001888,155.25866350001888,155.25866350001888,155.25866350001888,155.25866350001888,155.25866350001888,155.25866350001888,155.25866350001888,155.62497840001015,155.62497840001015,155.62497840001015,155.62497840001015,155.62497840001015,155.62497840001015,155.62497840001015,155.62497840001015,155.62497840001015,2,4,"[0.0012324000126682222, 0.16678309999406338, 0.2001878999872133, 0.3504065999877639]","[0.15026720002060756, 0.18362450000131503, 0.33356619998812675, 0.36698540003271773]",155.62497840001015,155.8253423999995,0.0,155.8253423999995,0,0.0,0,1,1000,num_1,0.8355846999911591,,26,10,2026-03-05_11h05.27.804,2026A_exp2,2022.2.4,59.9620320314309,
1000,1,3.7,6.1,0,0,46,46,84,,,,,156.69293800002197,157.3434090000228,157.3434090000228,157.82794020004803,315,315,157.82794020004803,157.82794020004803,157.82794020004803,157.82794020004803,157.82794020004803,157.82794020004803,157.82794020004803,157.82794020004803,157.82794020004803,158.1942608000245,158.1942608000245,158.1942608000245,158.1942608000245,158.1942608000245,158.1942608000245,158.1942608000245,158.1942608000245,158.1942608000245,23,0,,,158.1942608000245,158.3965390000376,1000,158.3965390000376,1000,1000,1000,1000,1,num_2,0.4485905999899842,,26,10,2026-03-05_11h05.27.804,2026A_exp2,2022.2.4,59.9620320314309,
1,0,3.7,0.0,1,0,47,47,50,,,,,158.8616404000204,159.52090180001687,159.52090180001687,160.02701070002513,315,315,160.02701070002513,160.02701070002513,160.02701070002513,160.02701070002513,160.02701070002513,160.02701070002513,160.02701070002513,160.02701070002513,160.02701070002513,160.36339100002078,160.36339100002078,160.36339100002078,160.36339100002078,160.36339100002078,160.36339100002078,160.36339100002078,160.36339100002078,160.36339100002078,18,3,"[0.04735489998711273, 0.09418670000741258, 0.19953639997402206]","[0.06308349996106699, 0.11993089999305084, 0.21612070000264794]",160.36339100002078,160.56588510004804,0.0,160.56588510004804,1,0.0,0,0,1000,num_4,0.4623390000197105,,26,10,2026-03-05_11h05.27.804,2026A_exp2,2022.2.4,59.9620320314309,
1000,1,0.0,0.0,1,0,48,48,12,,,,,161.04717710003024,161.6979357000091,161.6979357000091,162.19916770001873,45,315,162.19916770001873,162.19916770001873,162.19916770001873,162.19916770001873,162.19916770001873,162.19916770001873,162.19916770001873,162.19916770001873,162.19916770001873,162.56544660002692,162.56544660002692,162.56544660002692,162.56544660002692,162.56544660002692,162.56544660002692,162.56544660002692,162.56544660002692,162.56544660002692,4,5,"[0.001239399949554354, 0.08386209997115657, 0.1504292999743484, 0.23390049999579787, 0.28397759998915717]","[0.06707359995925799, 0.13390009995782748, 0.21733699995093048, 0.2672961999778636, 0.3673280999646522]",162.56544660002692,162.76744580001105,1000,162.76744580001105,1000,1000,1000,1000,1,num_2,0.693328500026837,,26,10,2026-03-05_11h05.27.804,2026A_exp2,2022.2.4,59.9620320314309,
1000,1,0.0,0.0,1,0,49,49,67,,,,,163.48282980005024,164.13438340002904,164.13438340002904,164.63838660001056,45,45,164.63838660001056,164.63838660001056,164.63838660001056,164.63838660001056,164.63838660001056,164.63838660001056,164.63838660001056,164.63838660001056,164.63838660001056,165.0012652000296,165.0012652000296,165.0012652000296,165.0012652000296,165.0012652000296,165.0012652000296,165.0012652000296,165.0012652000296,165.0012652000296,23,0,,,165.0012652000296,165.20559010002762,1000,165.20559010002762,1000,1000,1000,1000,1,num_2,0.4876037999638356,,26,10,2026-03-05_11h05.27.804,2026A_exp2,2022.2.4,59.9620320314309,
0,0,6.1,3.7,1,0,50,50,49,,,,,165.7189699000446,166.36919810000109,166.36919810000109,166.87040030001663,45,315,166.87040030001663,166.87040030001663,166.87040030001663,166.87040030001663,166.87040030001663,166.87040030001663,166.87040030001663,166.87040030001663,166.87040030001663,167.22011850000126,167.22011850000126,167.22011850000126,167.22011850000126,167.22011850000126,167.22011850000126,167.22011850000126,167.22011850000126,167.22011850000126,22,0,,,167.22011850000126,167.42021640000166,6.1,167.43697720003547,1,6.1,1,1,1000,num_4,0.8002117999712937,,26,10,2026-03-05_11h05.27.804,2026A_exp2,2022.2.4,59.9620320314309,
1,0,4.9,0.0,0,0,51,51,58,,,,,168.2543448000215,168.90512549999403,168.90512549999403,169.38944070000434,45,315,169.38944070000434,169.38944070000434,169.38944070000434,169.38944070000434,169.38944070000434,169.38944070000434,169.38944070000434,169.38944070000434,169.38944070000434,169.75596680003218,169.75596680003218,169.75596680003218,169.75596680003218,169.75596680003218,169.75596680003218,169.75596680003218,169.75596680003218,169.75596680003218,22,1,[0.050234400026965886],[0.06689550000010058],169.75596680003218,169.95622370002093,4.9,169.95622370002093,1,4.9,1,1,1000,num_4,0.8324417999829166,,26,10,2026-03-05_11h05.27.804,2026A_exp2,2022.2.4,59.9620320314309,
1,0,0.0,3.7,0,0,52,52,35,,,,,170.80691520002438,171.45768260001205,171.45768260001205,171.94213260000106,45,45,171.94213260000106,171.94213260000106,171.94213260000106,171.94213260000106,171.94213260000106,171.94213260000106,171.94213260000106,171.94213260000106,171.94213260000106,172.30855509999674,172.30855509999674,172.30855509999674,172.30855509999674,172.30855509999674,172.30855509999674,172.30855509999674,172.30855509999674,172.30855509999674,23,0,,,172.30855509999674,172.50873210001737,0.0,172.50873210001737,1,0.0,0,0,1000,num_4,0.7035642999690026,,26,10,2026-03-05_11h05.27.804,2026A_exp2,2022.2.4,59.9620320314309,
1,0,0.0,6.1,1,0,53,53,40,,,,,173.24265309999464,173.8934498000308,173.8934498000308,174.3778615000192,45,45,174.3778615000192,174.3778615000192,174.3778615000192,174.3778615000192,174.3778615000192,174.3778615000192,174.3778615000192,174.3778615000192,174.3778615000192,174.7443109000451,174.7443109000451,174.7443109000451,174.7443109000451,174.7443109000451,174.7443109000451,174.7443109000451,174.7443109000451,174.7443109000451,22,1,[0.28364669997245073],[0.30034519999753684],174.7443109000451,174.94436520000454,6.1,174.94436520000454,1,6.1,1,1,1000,num_4,0.6527707999921404,,26,10,2026-03-05_11h05.27.804,2026A_exp2,2022.2.4,59.9620320314309,
1,0,0.0,6.1,0,0,54,54,60,,,,,175.6283609000384,176.27902430004906,176.27902430004906,176.7636346000363,45,45,176.7636346000363,176.7636346000363,176.7636346000363,176.7636346000363,176.7636346000363,176.7636346000363,176.7636346000363,176.7636346000363,176.7636346000363,177.13004640000872,177.13004640000872,177.13004640000872,177.13004640000872,177.13004640000872,177.13004640000872,177.13004640000872,177.13004640000872,177.13004640000872,21,2,"[0.06694879999849945, 0.21681379998335615]","[0.08352949999971315, 0.23327349999453872]",177.13004640000872,177.330134799995,0.0,177.330134799995,0,0.0,0,1,1000,num_1,0.8340192000032403,,26,10,2026-03-05_11h05.27.804,2026A_exp2,2022.2.4,59.9620320314309,
1,0,3.7,3.7,0,0,55,55,13,,,,,178.18094470002688,178.8317173999967,178.8317173999967,179.3159615000477,45,315,179.3159615000477,179.3159615000477,179.3159615000477,179.3159615000477,179.3159615000477,179.3159615000477,179.3159615000477,179.3159615000477,179.3159615000477,179.6825257000164,179.6825257000164,179.6825257000164,179.6825257000164,179.6825257000164,179.6825257000164,179.6825257000164,179.6825257000164,179.6825257000164,22,1,[0.0011971999774686992],[0.01703959994483739],179.6825257000164,179.88291099999333,3.7,179.88291099999333,0,3.7,1,0,1000,num_1,0.729933800001163,,26,10,2026-03-05_11h05.27.804,2026A_exp2,2022.2.4,59.9620320314309,
1,0,0.0,4.9,1,0,56,56,21,,,,,180.63383250002516,181.28424380003707,181.28424380003707,181.78534550004406,45,315,181.78534550004406,181.78534550004406,181.78534550004406,181.78534550004406,181.78534550004406,181.78534550004406,181.78534550004406,181.78534550004406,181.78534550004406,182.15171050000936,182.15171050000936,182.15171050000936,182.15171050000936,182.15171050000936,182.15171050000936,182.15171050000936,182.15171050000936,182.15171050000936,22,1,[0.149922400014475],[0.1666053999797441],182.15171050000936,182.35185450001154,4.9,182.35185450001154,1,4.9,1,1,1000,num_4,0.5414949000114575,,26,10,2026-03-05_11h05.27.804,2026A_exp2,2022.2.4,59.9620320314309,
1,0,0.0,3.7,0,0,57,57,61,,,,,182.91905940003926,183.56982150004478,183.56982150004478,184.05460690002656,45,315,184.05460690002656,184.05460690002656,184.05460690002656,184.05460690002656,184.05460690002656,184.05460690002656,184.05460690002656,184.05460690002656,184.05460690002656,184.42073320003692,184.42073320003692,184.42073320003692,184.42073320003692,184.42073320003692,184.42073320003692,184.42073320003692,184.42073320003692,184.42073320003692,23,0,,,184.42073320003692,184.62091480003437,0.0,184.62091480003437,0,0.0,0,1,1000,num_1,0.728449999995064,,26,10,2026-03-05_11h05.27.804,2026A_exp2,2022.2.4,59.9620320314309,
1000,1,0.0,0.0,0,0,58,58,81,,,,,185.37143180001294,186.0220280000358,186.0220280000358,186.5067134000128,315,45,186.5067134000128,186.5067134000128,186.5067134000128,186.5067134000128,186.5067134000128,186.5067134000128,186.5067134000128,186.5067134000128,186.5067134000128,186.87299550004536,186.87299550004536,186.87299550004536,186.87299550004536,186.87299550004536,186.87299550004536,186.87299550004536,186.87299550004536,186.87299550004536,23,0,,,186.87299550004536,187.0730760000297,1000,187.0730760000297,1000,1000,1000,1000,1,num_2,0.8442552000051364,,26,10,2026-03-05_11h05.27.804,2026A_exp2,2022.2.4,59.9620320314309,
1,0,4.9,0.0,1,0,59,59,38,,,,,187.94068840000546,188.59142910002265,188.59142910002265,189.09259569999995,315,315,189.09259569999995,189.09259569999995,189.09259569999995,189.09259569999995,189.09259569999995,189.09259569999995,189.09259569999995,189.09259569999995,189.09259569999995,189.45883780001896,189.45883780001896,189.45883780001896,189.45883780001896,189.45883780001896,189.45883780001896,189.45883780001896,189.45883780001896,189.45883780001896,0,1,[0.0012463000020943582],[0.3672558999969624],189.45883780001896,189.65928650001297,0.0,189.65928650001297,1,0.0,0,0,1000,num_4,0.7533781999954954,,26,10,2026-03-05_11h05.27.804,2026A_exp2,2022.2.4,59.9620320314309,
0,0,0.0,0.0,1,0,60,60,89,,,,,190.44317550002597,191.09388070000568,191.09388070000568,191.5783392000012,315,315,191.5783392000012,191.5783392000012,191.5783392000012,191.5783392000012,191.5783392000012,191.5783392000012,191.5783392000012,191.5783392000012,191.5783392000012,191.94475050002802,191.94475050002802,191.94475050002802,191.94475050002802,191.94475050002802,191.94475050002802,191.94475050002802,191.94475050002802,191.94475050002802,7,4,"[0.001226399966981262, 0.2334240999771282, 0.30044989997986704, 0.36675359995570034]","[0.2167462999932468, 0.25031479995232075, 0.31706249999115244, 0.36675649997778237]",191.94475050002802,192.14505600003758,0.0,192.14505600003758,0,0.0,0,1,1000,num_1,1.3318001000443473,,26,10,2026-03-05_11h05.27.804,2026A_exp2,2022.2.4,59.9620320314309,
1000,1,6.1,0.0,0,0,61,61,82,,,,,193.4961980000371,194.1470779000083,194.1470779000083,194.64786310005002,315,315,194.64786310005002,194.64786310005002,194.64786310005002,194.64786310005002,194.64786310005002,194.64786310005002,194.64786310005002,194.64786310005002,194.64786310005002,194.99785109999357,194.99785109999357,194.99785109999357,194.99785109999357,194.99785109999357,194.99785109999357,194.99785109999357,194.99785109999357,194.99785109999357,18,3,"[0.23373340000398457, 0.2842483000131324, 0.31782250001560897]","[0.2674467000178993, 0.3010956000071019, 0.33476679999148473]",194.99785109999357,195.19811380002648,1000,195.19811380002648,1000,1000,1000,1000,0,num_3,0.5036156999995001,,26,10,2026-03-05_11h05.27.804,2026A_exp2,2022.2.4,59.9620320314309,
1,0,0.0,6.1,1,0,62,62,36,,,,,195.73182430001907,196.3825424000388,196.3825424000388,196.88376610004343,315,45,196.88376610004343,196.88376610004343,196.88376610004343,196.88376610004343,196.88376610004343,196.88376610004343,196.88376610004343,196.88376610004343,196.88376610004343,197.2501436000457,197.2501436000457,197.2501436000457,197.2501436000457,197.2501436000457,197.2501436000457,197.2501436000457,197.2501436000457,197.2501436000457,23,0,,,197.2501436000457,197.4503970000078,6.1,197.4503970000078,1,6.1,1,1,1000,num_4,0.7461098000057973,,26,10,2026-03-05_11h05.27.804,2026A_exp2,2022.2.4,59.9620320314309,
1000,1,4.9,3.7,0,0,63,63,32,,,,,198.21752860001288,198.86848910001572,198.86848910001572,199.35290360002546,315,45,199.35290360002546,199.35290360002546,199.35290360002546,199.35290360002546,199.35290360002546,199.35290360002546,199.35290360002546,199.35290360002546,199.35290360002546,199.71921940002358,199.71921940002358,199.71921940002358,199.71921940002358,199.71921940002358,199.71921940002358,199.71921940002358,199.71921940002358,199.71921940002358,23,0,,,199.71921940002358,199.91961420001462,1000,199.91961420001462,1000,1000,1000,1000,1,num_2,0.6695328000350855,,26,10,2026-03-05_11h05.27.804,2026A_exp2,2022.2.4,59.9620320314309,
1000,1,0.0,4.9,1,0,64,64,59,,,,,200.62018160003936,201.27090340002906,201.27090340002906,201.75522019999335,45,45,201.75522019999335,201.75522019999335,201.75522019999335,201.75522019999335,201.75522019999335,201.75522019999335,201.75522019999335,201.75522019999335,201.75522019999335,202.12156250001863,202.12156250001863,202.12156250001863,202.12156250001863,202.12156250001863,202.12156250001863,202.12156250001863,202.12156250001863,202.12156250001863,23,0,,,202.12156250001863,202.3239276999957,1000,202.3239276999957,1000,1000,1000,1000,1,num_2,0.497045700030867,,26,10,2026-03-05_11h05.27.804,2026A_exp2,2022.2.4,59.9620320314309,
1,0,4.9,0.0,1,0,65,65,8,,,,,202.83894690003945,203.4896310000331,203.4896310000331,203.99073439999484,315,315,203.99073439999484,203.99073439999484,203.99073439999484,203.99073439999484,203.99073439999484,203.99073439999484,203.99073439999484,203.99073439999484,203.99073439999484,204.3570762000163,204.3570762000163,204.3570762000163,204.3570762000163,204.3570762000163,204.3570762000163,204.3570762000163,204.3570762000163,204.3570762000163,23,0,,,204.3570762000163,204.5575268000248,0.0,204.5575268000248,0,0.0,0,1,1000,num_1,0.5669701999868266,,26,10,2026-03-05_11h05.27.804,2026A_exp2,2022.2.4,59.9620320314309,
1000,1,0.0,3.7,1,0,66,66,47,,,,,205.141227300046,205.79193140001735,205.79193140001735,206.29304700001376,45,315,206.29304700001376,206.29304700001376,206.29304700001376,206.29304700001376,206.29304700001376,206.29304700001376,206.29304700001376,206.29304700001376,206.29304700001376,206.64280130004045,206.64280130004045,206.64280130004045,206.64280130004045,206.64280130004045,206.64280130004045,206.64280130004045,206.64280130004045,206.64280130004045,22,0,,,206.64280130004045,206.8436786000384,1000,206.8436786000384,1000,1000,1000,1000,1,num_2,0.42601619998458773,,26,10,2026-03-05_11h05.27.804,2026A_exp2,2022.2.4,59.9620320314309,
1000,1,0.0,4.9,1,0,67,67,79,,,,,207.29358860000502,207.94415120000485,207.94415120000485,208.42856820003362,315,45,208.42856820003362,208.42856820003362,208.42856820003362,208.42856820003362,208.42856820003362,208.42856820003362,208.42856820003362,208.42856820003362,208.42856820003362,208.7949035000056,208.7949035000056,208.7949035000056,208.7949035000056,208.7949035000056,208.7949035000056,208.7949035000056,208.7949035000056,208.7949035000056,23,0,,,208.7949035000056,209.01654080004664,1000,209.01654080004664,1000,1000,1000,1000,1,num_2,0.4922078999807127,,26,10,2026-03-05_11h05.27.804,2026A_exp2,2022.2.4,59.9620320314309,
1,0,6.1,0.0,0,0,68,68,70,,,,,209.5289228000329,210.179681300011,210.179681300011,210.68079880002188,45,45,210.68079880002188,210.68079880002188,210.68079880002188,210.68079880002188,210.68079880002188,210.68079880002188,210.68079880002188,210.68079880002188,210.68079880002188,211.04727330000605,211.04727330000605,211.04727330000605,211.04727330000605,211.04727330000605,211.04727330000605,211.04727330000605,211.04727330000605,211.04727330000605,23,0,,,211.04727330000605,211.24734760000138,6.1,211.24734760000138,1,6.1,1,1,1000,num_4,0.7570918999845162,,26,10,2026-03-05_11h05.27.804,2026A_exp2,2022.2.4,59.9620320314309,
1,0,6.1,4.9,0,0,69,69,39,,,,,212.03143130004173,212.66555090004113,212.66555090004113,213.18074860004708,45,45,213.18074860004708,213.18074860004708,213.18074860004708,213.18074860004708,213.18074860004708,213.18074860004708,213.18074860004708,213.18074860004708,213.18074860004708,213.53310699999565,213.53310699999565,213.53310699999565,213.53310699999565,213.53310699999565,213.53310699999565,213.53310699999565,213.53310699999565,213.53310699999565,22,1,[0.347797799971886],[0.36444390000542626],213.53310699999565,213.73318260000087,6.1,213.73318260000087,1,6.1,1,1,1000,num_4,0.7836603000178002,,26,10,2026-03-05_11h05.27.804,2026A_exp2,2022.2.4,59.9620320314309,
1000,1,0.0,0.0,0,0,70,70,80,,,,,214.5339286000235,215.18467400001828,215.18467400001828,215.66925660002744,45,45,215.66925660002744,215.66925660002744,215.66925660002744,215.66925660002744,215.66925660002744,215.66925660002744,215.66925660002744,215.66925660002744,215.66925660002744,216.0356582000386,216.0356582000386,216.0356582000386,216.0356582000386,216.0356582000386,216.0356582000386,216.0356582000386,216.0356582000386,216.0356582000386,4,3,"[0.001220199977979064, 0.23362170002656057, 0.31710470002144575]","[0.20046780002303421, 0.2837874999968335, 0.3672255999990739]",216.0356582000386,216.23773809999693,1000,216.23773809999693,1000,1000,1000,1000,0,num_3,0.7343347000423819,,26,10,2026-03-05_11h05.27.804,2026A_exp2,2022.2.4,59.9620320314309,
1000,1,4.9,0.0,1,0,71,71,72,,,,,217.00316660001408,217.65386510000098,217.65386510000098,218.15493810002226,315,315,218.15493810002226,218.15493810002226,218.15493810002226,218.15493810002226,218.15493810002226,218.15493810002226,218.15493810002226,218.15493810002226,218.15493810002226,218.50473190000048,218.50473190000048,218.50473190000048,218.50473190000048,218.50473190000048,218.50473190000048,218.50473190000048,218.50473190000048,218.50473190000048,22,0,,,218.50473190000048,218.70722500002012,1000,218.72164320002776,1000,1000,1000,1000,0,num_3,0.4270026999874972,,26,10,2026-03-05_11h05.27.804,2026A_exp2,2022.2.4,59.9620320314309,
1000,1,6.1,0.0,1,0,72,72,68,,,,,219.17185520002386,219.82258060004096,219.82258060004096,220.32392130000517,45,45,220.32392130000517,220.32392130000517,220.32392130000517,220.32392130000517,220.32392130000517,220.32392130000517,220.32392130000517,220.32392130000517,220.32392130000517,220.673506000021,220.673506000021,220.673506000021,220.673506000021,220.673506000021,220.673506000021,220.673506000021,220.673506000021,220.673506000021,22,0,,,220.673506000021,220.87598020001315,1000,220.87598020001315,1000,1000,1000,1000,0,num_3,0.3364376000245102,,26,10,2026-03-05_11h05.27.804,2026A_exp2,2022.2.4,59.9620320314309,
1000,1,0.0,0.0,0,0,73,73,85,,,,,221.2407264999929,221.89145650004502,221.89145650004502,222.3924898999976,315,315,222.3924898999976,222.3924898999976,222.3924898999976,222.3924898999976,222.3924898999976,222.3924898999976,222.3924898999976,222.3924898999976,222.3924898999976,222.75901280000107,222.75901280000107,222.75901280000107,222.75901280000107,222.75901280000107,222.75901280000107,222.75901280000107,222.75901280000107,222.75901280000107,23,0,,,222.75901280000107,222.96107380004833,1000,222.96107380004833,1000,1000,1000,1000,0,num_3,0.45164459996158257,,26,10,2026-03-05_11h05.27.804,2026A_exp2,2022.2.4,59.9620320314309,
1000,1,3.7,0.0,0,0,74,74,57,,,,,223.4429444000125,224.09351180004887,224.09351180004887,224.5947275000508,45,45,224.5947275000508,224.5947275000508,224.5947275000508,224.5947275000508,224.5947275000508,224.5947275000508,224.5947275000508,224.5947275000508,224.5947275000508,224.96102200000314,224.96102200000314,224.96102200000314,224.96102200000314,224.96102200000314,224.96102200000314,224.96102200000314,224.96102200000314,224.96102200000314,22,1,[0.3008319999789819],[0.3174684999976307],224.96102200000314,225.1632558000274,1000,225.1632558000274,1000,1000,1000,1000,0,num_3,0.3370397000107914,,26,10,2026-03-05_11h05.27.804,2026A_exp2,2022.2.4,59.9620320314309,
1000,1,3.7,4.9,1,0,75,75,46,,,,,225.52822620002553,226.17905190004967,226.17905190004967,226.6802219999954,315,315,226.6802219999954,226.6802219999954,226.6802219999954,226.6802219999954,226.6802219999954,226.6802219999954,226.6802219999954,226.6802219999954,226.6802219999954,227.02990640001372,227.02990640001372,227.02990640001372,227.02990640001372,227.02990640001372,227.02990640001372,227.02990640001372,227.02990640001372,227.02990640001372,11,6,"[0.001296199974603951, 0.10006690002046525, 0.13340360001893714, 0.20020389999262989, 0.2502451000036672, 0.2836659000022337]","[0.08327110001118854, 0.11669290001736954, 0.1667756999959238, 0.21695989998988807, 0.26686039997730404, 0.3001914999913424]",227.02990640001372,227.23185860004742,1000,227.23185860004742,1000,1000,1000,1000,1,num_2,0.3483723999815993,,26,10,2026-03-05_11h05.27.804,2026A_exp2,2022.2.4,59.9620320314309,
1000,1,0.0,0.0,0,0,76,76,74,,,,,227.59707040002104,228.24782200000482,228.24782200000482,228.74889480002457,315,315,228.74889480002457,228.74889480002457,228.74889480002457,228.74889480002457,228.74889480002457,228.74889480002457,228.74889480002457,228.74889480002457,228.74889480002457,229.11529330001213,229.11529330001213,229.11529330001213,229.11529330001213,229.11529330001213,229.11529330001213,229.11529330001213,229.11529330001213,229.11529330001213,19,4,"[0.13363549998030066, 0.23358669999288395, 0.2668712999438867, 0.33384479995584115]","[0.15007340000011027, 0.25019829999655485, 0.28373249998549, 0.3671106999972835]",229.11529330001213,229.3169700000435,1000,229.3169700000435,1000,1000,1000,1000,1,num_2,0.5275439000106417,,26,10,2026-03-05_11h05.27.804,2026A_exp2,2022.2.4,59.9620320314309,
1,0,3.7,6.1,0,0,77,77,55,,,,,229.86589900002582,230.51674360001925,230.51674360001925,231.01773950003553,315,45,231.01773950003553,231.01773950003553,231.01773950003553,231.01773950003553,231.01773950003553,231.01773950003553,231.01773950003553,231.01773950003553,231.01773950003553,231.36756929999683,231.36756929999683,231.36756929999683,231.36756929999683,231.36756929999683,231.36756929999683,231.36756929999683,231.36756929999683,231.36756929999683,19,2,"[0.017264600028283894, 0.13354850001633167]","[0.050090799981262535, 0.16700130002573133]",231.36756929999683,231.5675480000209,3.7,231.5842757000355,0,3.7,1,0,1000,num_1,0.957224200014025,,26,10,2026-03-05_11h05.27.804,2026A_exp2,2022.2.4,59.9620320314309,
1,0,6.1,0.0,0,0,78,78,56,,,,,232.56867410003906,233.21947870001895,233.21947870001895,233.7037532000104,45,315,233.7037532000104,233.7037532000104,233.7037532000104,233.7037532000104,233.7037532000104,233.7037532000104,233.7037532000104,233.7037532000104,233.7037532000104,234.07030170003418,234.07030170003418,234.07030170003418,234.07030170003418,234.07030170003418,234.07030170003418,234.07030170003418,234.07030170003418,234.07030170003418,8,5,"[0.0007162999827414751, 0.050757699995301664, 0.13394429994514212, 0.2174539999687113, 0.3341361999628134]","[0.017508699966128916, 0.10050069994758815, 0.18391339998925105, 0.30082279996713623, 0.3674074999871664]",234.07030170003418,234.27038630004972,6.1,234.27038630004972,1,6.1,1,1,1000,num_4,0.7264996999874711,,26,10,2026-03-05_11h05.27.804,2026A_exp2,2022.2.4,59.9620320314309,
1,0,0.0,0.0,0,0,79,79,1,,,,,235.02122160000727,235.671512800036,235.671512800036,236.15622350003105,315,45,236.15622350003105,236.15622350003105,236.15622350003105,236.15622350003105,236.15622350003105,236.15622350003105,236.15622350003105,236.15622350003105,236.15622350003105,236.52277140005026,236.52277140005026,236.52277140005026,236.52277140005026,236.52277140005026,236.52277140005026,236.52277140005026,236.52277140005026,236.52277140005026,18,3,"[0.05025139998178929, 0.18373889999929816, 0.25038619997212663]","[0.06684119999408722, 0.23396169999614358, 0.2671112999669276]",236.52277140005026,236.72299320000457,0.0,236.72299320000457,1,0.0,0,0,1000,num_4,0.9141824999824166,,26,10,2026-03-05_11h05.27.804,2026A_exp2,2022.2.4,59.9620320314309,
1000,1,6.1,0.0,1,0,80,80,69,,,,,237.6572153000161,238.30792740004836,238.30792740004836,238.79231490002712,315,315,238.79231490002712,238.79231490002712,238.79231490002712,238.79231490002712,238.79231490002712,238.79231490002712,238.79231490002712,238.79231490002712,238.79231490002712,239.15858650003793,239.15858650003793,239.15858650003793,239.15858650003793,239.15858650003793,239.15858650003793,239.15858650003793,239.15858650003793,239.15858650003793,22,1,[0.20047690003411844],[0.216965000028722],239.15858650003793,239.36081260000356,1000,239.36081260000356,1000,1000,1000,1000,0,num_3,0.8922673999913968,,26,10,2026-03-05_11h05.27.804,2026A_exp2,2022.2.4,59.9620320314309,
1000,1,0.0,0.0,1,0,81,81,33,,,,,240.27639519999502,240.9271269000019,240.9271269000019,241.42823920003138,45,45,241.42823920003138,241.42823920003138,241.42823920003138,241.42823920003138,241.42823920003138,241.42823920003138,241.42823920003138,241.42823920003138,241.42823920003138,241.79451140004676,241.79451140004676,241.79451140004676,241.79451140004676,241.79451140004676,241.79451140004676,241.79451140004676,241.79451140004676,241.79451140004676,12,4,"[0.049947199993766844, 0.08351339999353513, 0.20028509997064248, 0.3337885999935679]","[0.06680779997259378, 0.13363259995821863, 0.283524899976328, 0.36705379997147247]",241.79451140004676,241.99630370002706,1000,241.99630370002706,1000,1000,1000,1000,1,num_2,0.5277767999796197,,26,10,2026-03-05_11h05.27.804,2026A_exp2,2022.2.4,59.9620320314309,
1,0,0.0,0.0,0,0,82,82,63,,,,,242.54535960004432,243.19612020003842,243.19612020003842,243.6805258000386,315,45,243.6805258000386,243.6805258000386,243.6805258000386,243.6805258000386,243.6805258000386,243.6805258000386,243.6805258000386,243.6805258000386,243.6805258000386,244.04697389999637,244.04697389999637,244.04697389999637,244.04697389999637,244.04697389999637,244.04697389999637,244.04697389999637,244.04697389999637,244.04697389999637,23,0,,,244.04697389999637,244.24704620003467,0.0,244.24704620003467,1,0.0,0,0,1000,num_4,0.7093373000388965,,26,10,2026-03-05_11h05.27.804,2026A_exp2,2022.2.4,59.9620320314309,
1000,1,0.0,0.0,1,0,83,83,27,,,,,244.9810640999931,245.63186080002924,245.63186080002924,246.11617660004413,45,45,246.11617660004413,246.11617660004413,246.11617660004413,246.11617660004413,246.11617660004413,246.11617660004413,246.11617660004413,246.11617660004413,246.11617660004413,246.48260180000216,246.48260180000216,246.48260180000216,246.48260180000216,246.48260180000216,246.48260180000216,246.48260180000216,246.48260180000216,246.48260180000216,23,0,,,246.48260180000216,246.68482850003056,1000,246.68482850003056,1000,1000,1000,1000,1,num_2,0.5278803999535739,,26,10,2026-03-05_11h05.27.804,2026A_exp2,2022.2.4,59.9620320314309,
1000,1,0.0,0.0,0,0,84,84,83,,,,,247.23356680001598,247.88418650004314,247.88418650004314,248.3851599000045,45,45,248.3851599000045,248.3851599000045,248.3851599000045,248.3851599000045,248.3851599000045,248.3851599000045,248.3851599000045,248.3851599000045,248.3851599000045,248.75152350001736,248.75152350001736,248.75152350001736,248.75152350001736,248.75152350001736,248.75152350001736,248.75152350001736,248.75152350001736,248.75152350001736,22,0,,,248.75152350001736,248.9534857000108,1000,248.9534857000108,1000,1000,1000,1000,1,num_2,0.5709799000178464,,26,10,2026-03-05_11h05.27.804,2026A_exp2,2022.2.4,59.9620320314309,
1000,1,0.0,6.1,0,0,85,85,37,,,,,249.55248579999898,250.20323119999375,250.20323119999375,250.70426359999692,45,315,250.70426359999692,250.70426359999692,250.70426359999692,250.70426359999692,250.70426359999692,250.70426359999692,250.70426359999692,250.70426359999692,250.70426359999692,251.070572800003,251.070572800003,251.070572800003,251.070572800003,251.070572800003,251.070572800003,251.070572800003,251.070572800003,251.070572800003,23,0,,,251.070572800003,251.2730067000375,1000,251.2730067000375,1000,1000,1000,1000,1,num_2,0.4041424000170082,,26,10,2026-03-05_11h05.27.804,2026A_exp2,2022.2.4,59.9620320314309,
1,0,0.0,3.7,1,0,86,86,66,,,,,251.70459920004942,252.35530570003903,252.35530570003903,252.8563839000417,45,315,252.8563839000417,252.8563839000417,252.8563839000417,252.8563839000417,252.8563839000417,252.8563839000417,252.8563839000417,252.8563839000417,252.8563839000417,253.20612710004207,253.20612710004207,253.20612710004207,253.20612710004207,253.20612710004207,253.20612710004207,253.20612710004207,253.20612710004207,253.20612710004207,22,0,,,253.20612710004207,253.4063662000117,3.7,253.4229694000096,1,3.7,1,1,1000,num_4,0.7020482000079937,,26,10,2026-03-05_11h05.27.804,2026A_exp2,2022.2.4,59.9620320314309,
1000,1,0.0,3.7,0,0,87,87,78,,,,,254.1570241000154,254.80752090003807,254.80752090003807,255.29218530002981,315,315,255.29218530002981,255.29218530002981,255.29218530002981,255.29218530002981,255.29218530002981,255.29218530002981,255.29218530002981,255.29218530002981,255.29218530002981,255.65851450001355,255.65851450001355,255.65851450001355,255.65851450001355,255.65851450001355,255.65851450001355,255.65851450001355,255.65851450001355,255.65851450001355,0,1,[0.001248900021892041],[0.3670455999672413],255.65851450001355,255.86057710001478,1000,255.86057710001478,1000,1000,1000,1000,0,num_3,0.40894459997070953,,26,10,2026-03-05_11h05.27.804,2026A_exp2,2022.2.4,59.9620320314309,
1000,1,4.9,0.0,0,0,88,88,26,,,,,256.2926448000362,256.94322630000534,256.94322630000534,257.44430870004,315,45,257.44430870004,257.44430870004,257.44430870004,257.44430870004,257.44430870004,257.44430870004,257.44430870004,257.44430870004,257.44430870004,257.81070560001535,257.81070560001535,257.81070560001535,257.81070560001535,257.81070560001535,257.81070560001535,257.81070560001535,257.81070560001535,257.81070560001535,10,6,"[0.05031069996766746, 0.08381619997089729, 0.14978649996919557, 0.1835226999828592, 0.23363360000075772, 0.30061859998386353]","[0.06700169999385253, 0.1332156999851577, 0.1664516999735497, 0.21661459997994825, 0.2505840000230819, 0.36742209998192266]",257.81070560001535,258.0128803999978,1000,258.0128803999978,1000,1000,1000,1000,0,num_3,0.38378440000815317,,26,10,2026-03-05_11h05.27.804,2026A_exp2,2022.2.4,59.9620320314309,
1000,1,0.0,0.0,0,0,89,89,64,,,,,258.42796500003897,259.0784885000321,259.0784885000321,259.5629326000344,315,315,259.5629326000344,259.5629326000344,259.5629326000344,259.5629326000344,259.5629326000344,259.5629326000344,259.5629326000344,259.5629326000344,259.5629326000344,259.9294826000114,259.9294826000114,259.9294826000114,259.9294826000114,259.9294826000114,259.9294826000114,259.9294826000114,259.9294826000114,259.9294826000114,23,0,,,259.9294826000114,260.1315937000327,1000,260.1315937000327,1000,1000,1000,1000,0,num_3,0.4654406000045128,,26,10,2026-03-05_11h05.27.804,2026A_exp2,2022.2.4,59.9620320314309,
,,,,,,,,,,,,,,,,,,,,,,,,,,,,,,,,,,,,,,,,,,,,,,,,,,,,260.61492449999787,,,,,,,
