validity,detectorcomp,contrastCW,contrastCCW,precueCWorCCW,block_80trials.thisRepN,block_80trials.thisTrialN,block_80trials.thisN,block_80trials.thisIndex,etRecord.started,etRecord.stopped,text.started,text.stopped,text_4.started,text_4.stopped,text_6.started,text_6.stopped,oriCW,oriCCW,roi_2.started,grating_UR.started,grating_UL.started,grating_LR.started,grating_LL.started,noise_UR.started,noise_UL.started,noise_LR.started,noise_LL.started,roi_2.stopped,grating_UR.stopped,grating_UL.stopped,grating_LR.stopped,grating_LL.stopped,noise_UR.stopped,noise_UL.stopped,noise_LR.stopped,noise_LL.stopped,outframe,roi_2.numLooks,roi_2.timesOn,roi_2.timesOff,text_2.started,text_2.stopped,probedcontrast,key_resp.started,respdetect,relevantContrast,correctDetect,TorFdetect,respCWorCCW,key_resp.keys,key_resp.rt,feedback_display_.started,participantNo,blockNo,date,expName,psychopyVersion,frameRate,
0,0,3.7,4.9,1,0,0,0,3,5.470000905916095e-05,5.470000905916095e-05,53.5338312999811,55.54055239999434,55.54055239999434,56.17091230000369,56.17091230000369,56.689719999965746,45,45,56.689719999965746,56.689719999965746,56.689719999965746,56.689719999965746,56.689719999965746,56.689719999965746,56.689719999965746,56.689719999965746,56.689719999965746,57.03839279996464,57.03839279996464,57.03839279996464,57.03839279996464,57.03839279996464,57.03839279996464,57.03839279996464,57.03839279996464,57.03839279996464,23,0,,,57.03839279996464,57.23849610000616,3.7,57.23849610000616,0,3.7,1,0,1000,num_1,1.2309779000352137,,22,11,2026-03-04_11h34.50.480,2026A_exp2,2022.2.4,59.90003881416092,
1000,1,0.0,4.9,1,0,1,1,51,,,,,58.4898705999949,59.14047990000108,59.14047990000108,59.62494569999399,45,45,59.62494569999399,59.62494569999399,59.62494569999399,59.62494569999399,59.62494569999399,59.62494569999399,59.62494569999399,59.62494569999399,59.62494569999399,59.991151999973226,59.991151999973226,59.991151999973226,59.991151999973226,59.991151999973226,59.991151999973226,59.991151999973226,59.991151999973226,59.991151999973226,23,0,,,59.991151999973226,60.19655729999067,1000,60.19655729999067,1000,1000,1000,1000,0,num_3,1.0480839000083506,,22,11,2026-03-04_11h34.50.480,2026A_exp2,2022.2.4,59.90003881416092,
1000,1,3.7,0.0,1,0,2,2,55,,,,,61.27606269996613,61.926597199984826,61.926597199984826,62.427625600015745,315,315,62.427625600015745,62.427625600015745,62.427625600015745,62.427625600015745,62.427625600015745,62.427625600015745,62.427625600015745,62.427625600015745,62.427625600015745,62.793862999998964,62.793862999998964,62.793862999998964,62.793862999998964,62.793862999998964,62.793862999998964,62.793862999998964,62.793862999998964,62.793862999998964,23,0,,,62.793862999998964,62.996470600017346,1000,62.996470600017346,1000,1000,1000,1000,0,num_3,0.40901170001598075,,22,11,2026-03-04_11h34.50.480,2026A_exp2,2022.2.4,59.90003881416092,
1000,1,4.9,4.9,0,0,3,3,31,,,,,63.42821300000651,64.07856009999523,64.07856009999523,64.57977020001272,315,315,64.57977020001272,64.57977020001272,64.57977020001272,64.57977020001272,64.57977020001272,64.57977020001272,64.57977020001272,64.57977020001272,64.57977020001272,64.94624620000832,64.94624620000832,64.94624620000832,64.94624620000832,64.94624620000832,64.94624620000832,64.94624620000832,64.94624620000832,64.94624620000832,23,0,,,64.94624620000832,65.14815929997712,1000,65.14815929997712,1000,1000,1000,1000,1,num_2,0.3691386000136845,,22,11,2026-03-04_11h34.50.480,2026A_exp2,2022.2.4,59.90003881416092,
0,0,0.0,4.9,0,0,4,4,54,,,,,65.54701490001753,66.19748859998072,66.19748859998072,66.69870780000929,45,45,66.69870780000929,66.69870780000929,66.69870780000929,66.69870780000929,66.69870780000929,66.69870780000929,66.69870780000929,66.69870780000929,66.69870780000929,67.06501329998719,67.06501329998719,67.06501329998719,67.06501329998719,67.06501329998719,67.06501329998719,67.06501329998719,67.06501329998719,67.06501329998719,23,0,,,67.06501329998719,67.27595079998719,4.9,67.27595079998719,1,4.9,1,1,1000,num_4,0.5530402000294998,,22,11,2026-03-04_11h34.50.480,2026A_exp2,2022.2.4,59.90003881416092,
1000,1,6.1,3.7,0,0,5,5,87,,,,,67.84922709997045,68.49970370001392,68.49970370001392,69.00087360001635,315,315,69.00087360001635,69.00087360001635,69.00087360001635,69.00087360001635,69.00087360001635,69.00087360001635,69.00087360001635,69.00087360001635,69.00087360001635,69.35070050001377,69.35070050001377,69.35070050001377,69.35070050001377,69.35070050001377,69.35070050001377,69.35070050001377,69.35070050001377,69.35070050001377,22,0,,,69.35070050001377,69.55279579997296,1000,69.55279579997296,1000,1000,1000,1000,0,num_3,0.5402842000476085,,22,11,2026-03-04_11h34.50.480,2026A_exp2,2022.2.4,59.90003881416092,
0,0,0.0,6.1,1,0,6,6,76,,,,,70.118118399987,70.76952620001975,70.76952620001975,71.26981450000312,45,45,71.26981450000312,71.26981450000312,71.26981450000312,71.26981450000312,71.26981450000312,71.26981450000312,71.26981450000312,71.26981450000312,71.26981450000312,71.63651500002015,71.63651500002015,71.63651500002015,71.63651500002015,71.63651500002015,71.63651500002015,71.63651500002015,71.63651500002015,71.63651500002015,23,0,,,71.63651500002015,71.83645569998771,0.0,71.83645569998771,1,0.0,0,0,1000,num_4,0.6158937999862246,,22,11,2026-03-04_11h34.50.480,2026A_exp2,2022.2.4,59.90003881416092,
1000,1,0.0,0.0,0,0,7,7,75,,,,,72.47030310000991,73.12210189999314,73.12210189999314,73.60532789997524,45,315,73.60532789997524,73.60532789997524,73.60532789997524,73.60532789997524,73.60532789997524,73.60532789997524,73.60532789997524,73.60532789997524,73.60532789997524,73.97194519999903,73.97194519999903,73.97194519999903,73.97194519999903,73.97194519999903,73.97194519999903,73.97194519999903,73.97194519999903,73.97194519999903,23,0,,,73.97194519999903,74.174057599972,1000,74.174057599972,1000,1000,1000,1000,0,num_3,0.7108421000302769,,22,11,2026-03-04_11h34.50.480,2026A_exp2,2022.2.4,59.90003881416092,
1,0,4.9,0.0,0,0,8,8,48,,,,,74.90613299998222,75.55672829999821,75.55672829999821,76.05804380000336,315,315,76.05804380000336,76.05804380000336,76.05804380000336,76.05804380000336,76.05804380000336,76.05804380000336,76.05804380000336,76.05804380000336,76.05804380000336,76.424134699977,76.424134699977,76.424134699977,76.424134699977,76.424134699977,76.424134699977,76.424134699977,76.424134699977,76.424134699977,23,0,,,76.424134699977,76.62449849996483,4.9,76.62449849996483,0,4.9,1,0,1000,num_1,0.6199838999891654,,22,11,2026-03-04_11h34.50.480,2026A_exp2,2022.2.4,59.90003881416092,
1000,1,6.1,0.0,0,0,9,9,19,,,,,77.27514490002068,77.9259885000065,77.9259885000065,78.41028149996419,315,315,78.41028149996419,78.41028149996419,78.41028149996419,78.41028149996419,78.41028149996419,78.41028149996419,78.41028149996419,78.41028149996419,78.41028149996419,78.77698439999949,78.77698439999949,78.77698439999949,78.77698439999949,78.77698439999949,78.77698439999949,78.77698439999949,78.77698439999949,78.77698439999949,23,0,,,78.77698439999949,78.97917549998965,1000,78.97917549998965,1000,1000,1000,1000,0,num_3,0.5531021999777295,,22,11,2026-03-04_11h34.50.480,2026A_exp2,2022.2.4,59.90003881416092,
1000,1,0.0,6.1,0,0,10,10,34,,,,,79.56082620000234,80.2115824999637,80.2115824999637,80.7125402999809,45,45,80.7125402999809,80.7125402999809,80.7125402999809,80.7125402999809,80.7125402999809,80.7125402999809,80.7125402999809,80.7125402999809,80.7125402999809,81.07908210001187,81.07908210001187,81.07908210001187,81.07908210001187,81.07908210001187,81.07908210001187,81.07908210001187,81.07908210001187,81.07908210001187,23,0,,,81.07908210001187,81.28091789997416,1000,81.28091789997416,1000,1000,1000,1000,1,num_2,0.48351950000505894,,22,11,2026-03-04_11h34.50.480,2026A_exp2,2022.2.4,59.90003881416092,
1,0,4.9,0.0,1,0,11,11,82,,,,,81.77976790000685,82.43042330001481,82.43042330001481,82.93151550000766,45,315,82.93151550000766,82.93151550000766,82.93151550000766,82.93151550000766,82.93151550000766,82.93151550000766,82.93151550000766,82.93151550000766,82.93151550000766,83.2979261999717,83.2979261999717,83.2979261999717,83.2979261999717,83.2979261999717,83.2979261999717,83.2979261999717,83.2979261999717,83.2979261999717,23,0,,,83.2979261999717,83.49821729998803,0.0,83.49821729998803,1,0.0,0,0,1000,num_4,0.5548254999448545,,22,11,2026-03-04_11h34.50.480,2026A_exp2,2022.2.4,59.90003881416092,
1000,1,0.0,0.0,1,0,12,12,23,,,,,84.08191209996585,84.73283589998027,84.73283589998027,85.21720159996767,45,315,85.21720159996767,85.21720159996767,85.21720159996767,85.21720159996767,85.21720159996767,85.21720159996767,85.21720159996767,85.21720159996767,85.21720159996767,85.5835932000191,85.5835932000191,85.5835932000191,85.5835932000191,85.5835932000191,85.5835932000191,85.5835932000191,85.5835932000191,85.5835932000191,23,0,,,85.5835932000191,85.78563290002057,1000,85.78563290002057,1000,1000,1000,1000,1,num_2,0.6277249000268057,,22,11,2026-03-04_11h34.50.480,2026A_exp2,2022.2.4,59.90003881416092,
1000,1,3.7,6.1,0,0,13,13,28,,,,,86.43439650000073,87.0850484999828,87.0850484999828,87.58621659997152,315,315,87.58621659997152,87.58621659997152,87.58621659997152,87.58621659997152,87.58621659997152,87.58621659997152,87.58621659997152,87.58621659997152,87.58621659997152,87.95274649997009,87.95274649997009,87.95274649997009,87.95274649997009,87.95274649997009,87.95274649997009,87.95274649997009,87.95274649997009,87.95274649997009,23,0,,,87.95274649997009,88.15455440001097,1000,88.15455440001097,1000,1000,1000,1000,1,num_2,0.38700580003205687,,22,11,2026-03-04_11h34.50.480,2026A_exp2,2022.2.4,59.90003881416092,
1000,1,0.0,3.7,1,0,14,14,80,,,,,88.56992819998413,89.22060579998652,89.22060579998652,89.72152289998485,315,45,89.72152289998485,89.72152289998485,89.72152289998485,89.72152289998485,89.72152289998485,89.72152289998485,89.72152289998485,89.72152289998485,89.72152289998485,90.08814170002006,90.08814170002006,90.08814170002006,90.08814170002006,90.08814170002006,90.08814170002006,90.08814170002006,90.08814170002006,90.08814170002006,23,0,,,90.08814170002006,90.29029699997045,1000,90.29029699997045,1000,1000,1000,1000,1,num_2,0.4027248999918811,,22,11,2026-03-04_11h34.50.480,2026A_exp2,2022.2.4,59.90003881416092,
1000,1,3.7,3.7,1,0,15,15,40,,,,,90.72192889999133,91.37266890000319,91.37266890000319,91.87364569999045,315,45,91.87364569999045,91.87364569999045,91.87364569999045,91.87364569999045,91.87364569999045,91.87364569999045,91.87364569999045,91.87364569999045,91.87364569999045,92.24028109997744,92.24028109997744,92.24028109997744,92.24028109997744,92.24028109997744,92.24028109997744,92.24028109997744,92.24028109997744,92.24028109997744,23,0,,,92.24028109997744,92.44246049999492,1000,92.44246049999492,1000,1000,1000,1000,1,num_2,0.36277199996402487,,22,11,2026-03-04_11h34.50.480,2026A_exp2,2022.2.4,59.90003881416092,
1,0,0.0,4.9,0,0,16,16,71,,,,,92.82409989996813,93.47479359997669,93.47479359997669,93.97570279997308,45,45,93.97570279997308,93.97570279997308,93.97570279997308,93.97570279997308,93.97570279997308,93.97570279997308,93.97570279997308,93.97570279997308,93.97570279997308,94.34219669998856,94.34219669998856,94.34219669998856,94.34219669998856,94.34219669998856,94.34219669998856,94.34219669998856,94.34219669998856,94.34219669998856,23,0,,,94.34219669998856,94.54244940000353,0.0,94.54244940000353,0,0.0,0,1,1000,num_1,0.7501339000300504,,22,11,2026-03-04_11h34.50.480,2026A_exp2,2022.2.4,59.90003881416092,
1000,1,4.9,0.0,0,0,17,17,58,,,,,95.30989689996932,95.96054539998295,95.96054539998295,96.4450829999987,315,315,96.4450829999987,96.4450829999987,96.4450829999987,96.4450829999987,96.4450829999987,96.4450829999987,96.4450829999987,96.4450829999987,96.4450829999987,96.8112417999655,96.8112417999655,96.8112417999655,96.8112417999655,96.8112417999655,96.8112417999655,96.8112417999655,96.8112417999655,96.8112417999655,23,0,,,96.8112417999655,97.01457759999903,1000,97.01457759999903,1000,1000,1000,1000,0,num_3,0.5269326000125147,,22,11,2026-03-04_11h34.50.480,2026A_exp2,2022.2.4,59.90003881416092,
1000,1,6.1,3.7,1,0,18,18,10,,,,,97.5622215999756,98.21292959997663,98.21292959997663,98.71398459997727,315,315,98.71398459997727,98.71398459997727,98.71398459997727,98.71398459997727,98.71398459997727,98.71398459997727,98.71398459997727,98.71398459997727,98.71398459997727,99.08030390000204,99.08030390000204,99.08030390000204,99.08030390000204,99.08030390000204,99.08030390000204,99.08030390000204,99.08030390000204,99.08030390000204,23,0,,,99.08030390000204,99.28290769999148,1000,99.28290769999148,1000,1000,1000,1000,1,num_2,0.3858743999735452,,22,11,2026-03-04_11h34.50.480,2026A_exp2,2022.2.4,59.90003881416092,
1000,1,4.9,0.0,0,0,19,19,22,,,,,99.69764159998158,100.3483930999646,100.3483930999646,100.8495099999709,45,315,100.8495099999709,100.8495099999709,100.8495099999709,100.8495099999709,100.8495099999709,100.8495099999709,100.8495099999709,100.8495099999709,100.8495099999709,101.21590199996717,101.21590199996717,101.21590199996717,101.21590199996717,101.21590199996717,101.21590199996717,101.21590199996717,101.21590199996717,101.21590199996717,23,0,,,101.21590199996717,101.41771790001076,1000,101.41771790001076,1000,1000,1000,1000,0,num_3,0.4670020999619737,,22,11,2026-03-04_11h34.50.480,2026A_exp2,2022.2.4,59.90003881416092,
1000,1,6.1,4.9,1,0,20,20,53,,,,,101.91797000000952,102.56723109999439,102.56723109999439,103.06834009999875,45,315,103.06834009999875,103.06834009999875,103.06834009999875,103.06834009999875,103.06834009999875,103.06834009999875,103.06834009999875,103.06834009999875,103.06834009999875,103.43460959999356,103.43460959999356,103.43460959999356,103.43460959999356,103.43460959999356,103.43460959999356,103.43460959999356,103.43460959999356,103.43460959999356,23,0,,,103.43460959999356,103.63692550000269,1000,103.63692550000269,1000,1000,1000,1000,1,num_2,0.3518900999915786,,22,11,2026-03-04_11h34.50.480,2026A_exp2,2022.2.4,59.90003881416092,
1000,1,0.0,0.0,0,0,21,21,69,,,,,104.01871570001822,104.66929320001509,104.66929320001509,105.17043689999264,45,315,105.17043689999264,105.17043689999264,105.17043689999264,105.17043689999264,105.17043689999264,105.17043689999264,105.17043689999264,105.17043689999264,105.17043689999264,105.53671060001943,105.53671060001943,105.53671060001943,105.53671060001943,105.53671060001943,105.53671060001943,105.53671060001943,105.53671060001943,105.53671060001943,23,0,,,105.53671060001943,105.73910930001875,1000,105.73910930001875,1000,1000,1000,1000,1,num_2,0.8106232000282034,,22,11,2026-03-04_11h34.50.480,2026A_exp2,2022.2.4,59.90003881416092,
1,0,4.9,4.9,1,0,22,22,89,,,,,106.57120419997955,107.2219977999921,107.2219977999921,107.72304389998317,315,315,107.72304389998317,107.72304389998317,107.72304389998317,107.72304389998317,107.72304389998317,107.72304389998317,107.72304389998317,107.72304389998317,107.72304389998317,108.08940880000591,108.08940880000591,108.08940880000591,108.08940880000591,108.08940880000591,108.08940880000591,108.08940880000591,108.08940880000591,108.08940880000591,23,0,,,108.08940880000591,108.28963830001885,4.9,108.28963830001885,1,4.9,1,1,1000,num_4,0.8205178999924101,,22,11,2026-03-04_11h34.50.480,2026A_exp2,2022.2.4,59.90003881416092,
1,0,0.0,0.0,1,0,23,23,43,,,,,109.1403183999937,109.79121809999924,109.79121809999924,110.29225190001307,45,315,110.29225190001307,110.29225190001307,110.29225190001307,110.29225190001307,110.29225190001307,110.29225190001307,110.29225190001307,110.29225190001307,110.29225190001307,110.65862970001763,110.65862970001763,110.65862970001763,110.65862970001763,110.65862970001763,110.65862970001763,110.65862970001763,110.65862970001763,110.65862970001763,23,0,,,110.65862970001763,110.85869399999501,0.0,110.85869399999501,1,0.0,0,0,1000,num_4,0.649975500011351,,22,11,2026-03-04_11h34.50.480,2026A_exp2,2022.2.4,59.90003881416092,
1000,1,0.0,4.9,0,0,24,24,11,,,,,111.52603740000632,112.1768031999818,112.1768031999818,112.66123199998401,315,315,112.66123199998401,112.66123199998401,112.66123199998401,112.66123199998401,112.66123199998401,112.66123199998401,112.66123199998401,112.66123199998401,112.66123199998401,113.02758120000362,113.02758120000362,113.02758120000362,113.02758120000362,113.02758120000362,113.02758120000362,113.02758120000362,113.02758120000362,113.02758120000362,23,0,,,113.02758120000362,113.22790419997182,1000,113.22790419997182,1000,1000,1000,1000,1,num_2,0.5859363999916241,,22,11,2026-03-04_11h34.50.480,2026A_exp2,2022.2.4,59.90003881416092,
1,0,4.9,4.9,0,0,25,25,63,,,,,113.84537330002058,114.49574749998283,114.49574749998283,114.99695359996986,315,45,114.99695359996986,114.99695359996986,114.99695359996986,114.99695359996986,114.99695359996986,114.99695359996986,114.99695359996986,114.99695359996986,114.99695359996986,115.36338539997814,115.36338539997814,115.36338539997814,115.36338539997814,115.36338539997814,115.36338539997814,115.36338539997814,115.36338539997814,115.36338539997814,23,0,,,115.36338539997814,115.56372809997993,4.9,115.56372809997993,0,4.9,1,0,1000,num_1,0.7370825999532826,,22,11,2026-03-04_11h34.50.480,2026A_exp2,2022.2.4,59.90003881416092,
1000,1,0.0,4.9,0,0,26,26,77,,,,,116.33088159997715,116.98152789997403,116.98152789997403,117.4660833000089,45,45,117.4660833000089,117.4660833000089,117.4660833000089,117.4660833000089,117.4660833000089,117.4660833000089,117.4660833000089,117.4660833000089,117.4660833000089,117.8324865999748,117.8324865999748,117.8324865999748,117.8324865999748,117.8324865999748,117.8324865999748,117.8324865999748,117.8324865999748,117.8324865999748,23,0,,,117.8324865999748,118.03449629998067,1000,118.03449629998067,1000,1000,1000,1000,1,num_2,0.4580489000072703,,22,11,2026-03-04_11h34.50.480,2026A_exp2,2022.2.4,59.90003881416092,
1,0,0.0,0.0,0,0,27,27,64,,,,,118.51651909999782,119.1670847000205,119.1670847000205,119.66831330000423,45,45,119.66831330000423,119.66831330000423,119.66831330000423,119.66831330000423,119.66831330000423,119.66831330000423,119.66831330000423,119.66831330000423,119.66831330000423,120.03467249998357,120.03467249998357,120.03467249998357,120.03467249998357,120.03467249998357,120.03467249998357,120.03467249998357,120.03467249998357,120.03467249998357,23,0,,,120.03467249998357,120.23487079999177,0.0,120.23487079999177,0,0.0,0,1,1000,num_1,0.6415723999962211,,22,11,2026-03-04_11h34.50.480,2026A_exp2,2022.2.4,59.90003881416092,
1,0,0.0,4.9,0,0,28,28,85,,,,,120.90200289996574,121.56410640000831,121.56410640000831,122.05423140001949,315,315,122.05423140001949,122.05423140001949,122.05423140001949,122.05423140001949,122.05423140001949,122.05423140001949,122.05423140001949,122.05423140001949,122.05423140001949,122.42045959999086,122.42045959999086,122.42045959999086,122.42045959999086,122.42045959999086,122.42045959999086,122.42045959999086,122.42045959999086,122.42045959999086,23,0,,,122.42045959999086,122.6206811000011,0.0,122.6206811000011,0,0.0,0,1,1000,num_1,0.600351499975659,,22,11,2026-03-04_11h34.50.480,2026A_exp2,2022.2.4,59.90003881416092,
0,0,3.7,0.0,1,0,29,29,83,,,,,123.23779709998053,123.88857989996905,123.88857989996905,124.37285719998181,45,45,124.37285719998181,124.37285719998181,124.37285719998181,124.37285719998181,124.37285719998181,124.37285719998181,124.37285719998181,124.37285719998181,124.37285719998181,124.73936110001523,124.73936110001523,124.73936110001523,124.73936110001523,124.73936110001523,124.73936110001523,124.73936110001523,124.73936110001523,124.73936110001523,23,0,,,124.73936110001523,124.93961409997428,3.7,124.93961409997428,0,3.7,1,0,1000,num_1,2.04955339996377,,22,11,2026-03-04_11h34.50.480,2026A_exp2,2022.2.4,59.90003881416092,
1,0,0.0,0.0,0,0,30,30,2,,,,,127.00815439998405,127.65898860001471,127.65898860001471,128.14766770001734,45,315,128.14766770001734,128.14766770001734,128.14766770001734,128.14766770001734,128.14766770001734,128.14766770001734,128.14766770001734,128.14766770001734,128.14766770001734,128.50982550001936,128.50982550001936,128.50982550001936,128.50982550001936,128.50982550001936,128.50982550001936,128.50982550001936,128.50982550001936,128.50982550001936,23,0,,,128.50982550001936,128.71005789999617,0.0,128.71005789999617,0,0.0,0,1,1000,num_1,0.559595900005661,,22,11,2026-03-04_11h34.50.480,2026A_exp2,2022.2.4,59.90003881416092,
1,0,0.0,6.1,0,0,31,31,5,,,,,129.29385650000768,129.94474010000704,129.94474010000704,130.429043799988,315,315,130.429043799988,130.429043799988,130.429043799988,130.429043799988,130.429043799988,130.429043799988,130.429043799988,130.429043799988,130.429043799988,130.79539539996767,130.79539539996767,130.79539539996767,130.79539539996767,130.79539539996767,130.79539539996767,130.79539539996767,130.79539539996767,130.79539539996767,23,0,,,130.79539539996767,130.99570679996395,0.0,130.99570679996395,0,0.0,0,1,1000,num_1,0.7127732000080869,,22,11,2026-03-04_11h34.50.480,2026A_exp2,2022.2.4,59.90003881416092,
1,0,0.0,0.0,0,0,32,32,38,,,,,131.73047920002136,132.3802872999804,132.3802872999804,132.88113900000462,45,315,132.88113900000462,132.88113900000462,132.88113900000462,132.88113900000462,132.88113900000462,132.88113900000462,132.88113900000462,132.88113900000462,132.88113900000462,133.24767000001157,133.24767000001157,133.24767000001157,133.24767000001157,133.24767000001157,133.24767000001157,133.24767000001157,133.24767000001157,133.24767000001157,23,0,,,133.24767000001157,133.44807509996463,0.0,133.44807509996463,0,0.0,0,1,1000,num_1,1.5001931000151671,,22,11,2026-03-04_11h34.50.480,2026A_exp2,2022.2.4,59.90003881416092,
1,0,0.0,0.0,1,0,33,33,66,,,,,134.9661899000057,135.61687219998566,135.61687219998566,136.1014004999888,45,45,136.1014004999888,136.1014004999888,136.1014004999888,136.1014004999888,136.1014004999888,136.1014004999888,136.1014004999888,136.1014004999888,136.1014004999888,136.46782249998068,136.46782249998068,136.46782249998068,136.46782249998068,136.46782249998068,136.46782249998068,136.46782249998068,136.46782249998068,136.46782249998068,23,0,,,136.46782249998068,136.6680228000041,0.0,136.6680228000041,1,0.0,0,0,1000,num_4,0.6172635999973863,,22,11,2026-03-04_11h34.50.480,2026A_exp2,2022.2.4,59.90003881416092,
1,0,4.9,0.0,1,0,34,34,84,,,,,137.30173160001868,137.95466240000678,137.95466240000678,138.45355699997162,315,45,138.45355699997162,138.45355699997162,138.45355699997162,138.45355699997162,138.45355699997162,138.45355699997162,138.45355699997162,138.45355699997162,138.45355699997162,138.8034492000006,138.8034492000006,138.8034492000006,138.8034492000006,138.8034492000006,138.8034492000006,138.8034492000006,138.8034492000006,138.8034492000006,22,0,,,138.8034492000006,139.00360980001278,0.0,139.00360980001278,0,0.0,0,1,1000,num_1,0.8485925000277348,,22,11,2026-03-04_11h34.50.480,2026A_exp2,2022.2.4,59.90003881416092,
1,0,0.0,0.0,0,0,35,35,49,,,,,139.87105279997922,140.52190669998527,140.52190669998527,141.0063669999945,315,315,141.0063669999945,141.0063669999945,141.0063669999945,141.0063669999945,141.0063669999945,141.0063669999945,141.0063669999945,141.0063669999945,141.0063669999945,141.37228539999342,141.37228539999342,141.37228539999342,141.37228539999342,141.37228539999342,141.37228539999342,141.37228539999342,141.37228539999342,141.37228539999342,23,0,,,141.37228539999342,141.57274289999623,0.0,141.57274289999623,1,0.0,0,0,1000,num_4,1.8161265999660827,,22,11,2026-03-04_11h34.50.480,2026A_exp2,2022.2.4,59.90003881416092,
1,0,0.0,0.0,0,0,36,36,59,,,,,143.40805879997788,144.05869219999295,144.05869219999295,144.54319009999745,315,315,144.54319009999745,144.54319009999745,144.54319009999745,144.54319009999745,144.54319009999745,144.54319009999745,144.54319009999745,144.54319009999745,144.54319009999745,144.90945789997932,144.90945789997932,144.90945789997932,144.90945789997932,144.90945789997932,144.90945789997932,144.90945789997932,144.90945789997932,144.90945789997932,23,0,,,144.90945789997932,145.10977749997983,0.0,145.10977749997983,0,0.0,0,1,1000,num_1,0.5916699999943376,,22,11,2026-03-04_11h34.50.480,2026A_exp2,2022.2.4,59.90003881416092,
1,0,0.0,0.0,1,0,37,37,73,,,,,145.7269532000064,146.37773160001962,146.37773160001962,146.8616747999913,315,315,146.8616747999913,146.8616747999913,146.8616747999913,146.8616747999913,146.8616747999913,146.8616747999913,146.8616747999913,146.8616747999913,146.8616747999913,147.2281837000046,147.2281837000046,147.2281837000046,147.2281837000046,147.2281837000046,147.2281837000046,147.2281837000046,147.2281837000046,147.2281837000046,23,0,,,147.2281837000046,147.4370096999919,0.0,147.4370096999919,1,0.0,0,0,1000,num_4,0.6796787999919616,,22,11,2026-03-04_11h34.50.480,2026A_exp2,2022.2.4,59.90003881416092,
0,0,0.0,0.0,1,0,38,38,8,,,,,148.14603100001113,148.79681199998595,148.79681199998595,149.2813664000132,315,315,149.2813664000132,149.2813664000132,149.2813664000132,149.2813664000132,149.2813664000132,149.2813664000132,149.2813664000132,149.2813664000132,149.2813664000132,149.6475994999637,149.6475994999637,149.6475994999637,149.6475994999637,149.6475994999637,149.6475994999637,149.6475994999637,149.6475994999637,149.6475994999637,23,0,,,149.6475994999637,149.8479048999725,0.0,149.8479048999725,0,0.0,0,1,1000,num_1,0.8214956999872811,,22,11,2026-03-04_11h34.50.480,2026A_exp2,2022.2.4,59.90003881416092,
1,0,4.9,0.0,1,0,39,39,6,,,,,150.69846829999005,151.34943800000474,151.34943800000474,151.83379970001988,45,315,151.83379970001988,151.83379970001988,151.83379970001988,151.83379970001988,151.83379970001988,151.83379970001988,151.83379970001988,151.83379970001988,151.83379970001988,152.20018929999787,152.20018929999787,152.20018929999787,152.20018929999787,152.20018929999787,152.20018929999787,152.20018929999787,152.20018929999787,152.20018929999787,23,0,,,152.20018929999787,152.40035919996444,0.0,152.40035919996444,0,0.0,0,1,1000,num_1,0.612509400001727,,22,11,2026-03-04_11h34.50.480,2026A_exp2,2022.2.4,59.90003881416092,
1000,1,6.1,3.7,1,0,40,40,0,,,,,153.03418999997666,153.68507229996612,153.68507229996612,154.16932569997152,45,315,154.16932569997152,154.16932569997152,154.16932569997152,154.16932569997152,154.16932569997152,154.16932569997152,154.16932569997152,154.16932569997152,154.16932569997152,154.53580040001543,154.53580040001543,154.53580040001543,154.53580040001543,154.53580040001543,154.53580040001543,154.53580040001543,154.53580040001543,154.53580040001543,23,0,,,154.53580040001543,154.73780409997562,1000,154.73780409997562,1000,1000,1000,1000,0,num_3,0.5953276000218466,,22,11,2026-03-04_11h34.50.480,2026A_exp2,2022.2.4,59.90003881416092,
1,0,0.0,0.0,1,0,41,41,37,,,,,155.353270099964,156.0040953999851,156.0040953999851,156.50505310000153,45,45,156.50505310000153,156.50505310000153,156.50505310000153,156.50505310000153,156.50505310000153,156.50505310000153,156.50505310000153,156.50505310000153,156.50505310000153,156.87157000001753,156.87157000001753,156.87157000001753,156.87157000001753,156.87157000001753,156.87157000001753,156.87157000001753,156.87157000001753,156.87157000001753,23,0,,,156.87157000001753,157.0717355000088,0.0,157.0717355000088,1,0.0,0,0,1000,num_4,0.676647000014782,,22,11,2026-03-04_11h34.50.480,2026A_exp2,2022.2.4,59.90003881416092,
1000,1,4.9,0.0,0,0,42,42,36,,,,,157.7723337999778,158.42299539997475,158.42299539997475,158.90738109999802,315,315,158.90738109999802,158.90738109999802,158.90738109999802,158.90738109999802,158.90738109999802,158.90738109999802,158.90738109999802,158.90738109999802,158.90738109999802,159.2740154999774,159.2740154999774,159.2740154999774,159.2740154999774,159.2740154999774,159.2740154999774,159.2740154999774,159.2740154999774,159.2740154999774,23,0,,,159.2740154999774,159.4761599000194,1000,159.4761599000194,1000,1000,1000,1000,0,num_3,0.44141000002855435,,22,11,2026-03-04_11h34.50.480,2026A_exp2,2022.2.4,59.90003881416092,
1,0,4.9,6.1,1,0,43,43,46,,,,,159.94117279996863,160.59187249996467,160.59187249996467,161.0930266000214,315,45,161.0930266000214,161.0930266000214,161.0930266000214,161.0930266000214,161.0930266000214,161.0930266000214,161.0930266000214,161.0930266000214,161.0930266000214,161.45935169997392,161.45935169997392,161.45935169997392,161.45935169997392,161.45935169997392,161.45935169997392,161.45935169997392,161.45935169997392,161.45935169997392,23,0,,,161.45935169997392,161.65966549998848,6.1,161.65966549998848,1,6.1,1,1,1000,num_4,0.720873299986124,,22,11,2026-03-04_11h34.50.480,2026A_exp2,2022.2.4,59.90003881416092,
1,0,3.7,4.9,1,0,44,44,39,,,,,162.4105740999803,163.04437349998625,163.04437349998625,163.54552719998173,315,45,163.54552719998173,163.54552719998173,163.54552719998173,163.54552719998173,163.54552719998173,163.54552719998173,163.54552719998173,163.54552719998173,163.54552719998173,163.911896399979,163.911896399979,163.911896399979,163.911896399979,163.911896399979,163.911896399979,163.911896399979,163.911896399979,163.911896399979,23,0,,,163.911896399979,164.111972099985,4.9,164.111972099985,1,4.9,1,1,1000,num_4,0.5883500999771059,,22,11,2026-03-04_11h34.50.480,2026A_exp2,2022.2.4,59.90003881416092,
0,0,0.0,0.0,1,0,45,45,62,,,,,164.72922849998577,165.38008749997243,165.38008749997243,165.8640607999987,315,315,165.8640607999987,165.8640607999987,165.8640607999987,165.8640607999987,165.8640607999987,165.8640607999987,165.8640607999987,165.8640607999987,165.8640607999987,166.23084530001506,166.23084530001506,166.23084530001506,166.23084530001506,166.23084530001506,166.23084530001506,166.23084530001506,166.23084530001506,166.23084530001506,23,0,,,166.23084530001506,166.43099359999178,0.0,166.43099359999178,0,0.0,0,1,1000,num_1,0.6138450999860652,,22,11,2026-03-04_11h34.50.480,2026A_exp2,2022.2.4,59.90003881416092,
1,0,0.0,4.9,1,0,46,46,45,,,,,167.06495799997356,167.69887839996954,167.69887839996954,168.2001688000164,45,45,168.2001688000164,168.2001688000164,168.2001688000164,168.2001688000164,168.2001688000164,168.2001688000164,168.2001688000164,168.2001688000164,168.2001688000164,168.56632410001475,168.56632410001475,168.56632410001475,168.56632410001475,168.56632410001475,168.56632410001475,168.56632410001475,168.56632410001475,168.56632410001475,23,0,,,168.56632410001475,168.7667668000213,4.9,168.7667668000213,1,4.9,1,1,1000,num_4,0.5176559999817982,,22,11,2026-03-04_11h34.50.480,2026A_exp2,2022.2.4,59.90003881416092,
1000,1,4.9,6.1,1,0,47,47,1,,,,,169.30067009996856,169.9511335999705,169.9511335999705,170.435806399968,45,45,170.435806399968,170.435806399968,170.435806399968,170.435806399968,170.435806399968,170.435806399968,170.435806399968,170.435806399968,170.435806399968,170.8020779999788,170.8020779999788,170.8020779999788,170.8020779999788,170.8020779999788,170.8020779999788,170.8020779999788,170.8020779999788,170.8020779999788,23,0,,,170.8020779999788,171.02598400000716,1000,171.02598400000716,1000,1000,1000,1000,1,num_2,0.6190108000300825,,22,11,2026-03-04_11h34.50.480,2026A_exp2,2022.2.4,59.90003881416092,
1,0,0.0,0.0,0,0,48,48,81,,,,,171.66955230000895,172.32037709996803,172.32037709996803,172.8215403999784,45,45,172.8215403999784,172.8215403999784,172.8215403999784,172.8215403999784,172.8215403999784,172.8215403999784,172.8215403999784,172.8215403999784,172.8215403999784,173.18788380001206,173.18788380001206,173.18788380001206,173.18788380001206,173.18788380001206,173.18788380001206,173.18788380001206,173.18788380001206,173.18788380001206,23,0,,,173.18788380001206,173.3881024000002,0.0,173.3881024000002,0,0.0,0,1,1000,num_1,0.6168320000288077,,22,11,2026-03-04_11h34.50.480,2026A_exp2,2022.2.4,59.90003881416092,
1000,1,0.0,0.0,0,0,49,49,20,,,,,174.02189610002097,174.6727036999655,174.6727036999655,175.1570574999787,45,45,175.1570574999787,175.1570574999787,175.1570574999787,175.1570574999787,175.1570574999787,175.1570574999787,175.1570574999787,175.1570574999787,175.1570574999787,175.52363770001102,175.52363770001102,175.52363770001102,175.52363770001102,175.52363770001102,175.52363770001102,175.52363770001102,175.52363770001102,175.52363770001102,23,0,,,175.52363770001102,175.73457620001864,1000,175.73457620001864,1000,1000,1000,1000,0,num_3,0.7503448000061326,,22,11,2026-03-04_11h34.50.480,2026A_exp2,2022.2.4,59.90003881416092,
0,0,0.0,3.7,1,0,50,50,21,,,,,176.5078098999802,177.15828470000997,177.15828470000997,177.65959880000446,315,315,177.65959880000446,177.65959880000446,177.65959880000446,177.65959880000446,177.65959880000446,177.65959880000446,177.65959880000446,177.65959880000446,177.65959880000446,178.0093684999738,178.0093684999738,178.0093684999738,178.0093684999738,178.0093684999738,178.0093684999738,178.0093684999738,178.0093684999738,178.0093684999738,22,0,,,178.0093684999738,178.209452399984,0.0,178.2262663000147,0,0.0,0,1,1000,num_1,0.5141097999876365,,22,11,2026-03-04_11h34.50.480,2026A_exp2,2022.2.4,59.90003881416092,
1,0,0.0,0.0,1,0,51,51,18,,,,,178.75992619997123,179.4107044999837,179.4107044999837,179.91179699997883,45,315,179.91179699997883,179.91179699997883,179.91179699997883,179.91179699997883,179.91179699997883,179.91179699997883,179.91179699997883,179.91179699997883,179.91179699997883,180.26164819998667,180.26164819998667,180.26164819998667,180.26164819998667,180.26164819998667,180.26164819998667,180.26164819998667,180.26164819998667,180.26164819998667,22,0,,,180.26164819998667,180.46164210001007,0.0,180.46164210001007,1,0.0,0,0,1000,num_4,1.1749288000282831,,22,11,2026-03-04_11h34.50.480,2026A_exp2,2022.2.4,59.90003881416092,
1,0,6.1,3.7,0,0,52,52,26,,,,,181.66304040001705,182.3134988999809,182.3134988999809,182.7979429999832,45,45,182.7979429999832,182.7979429999832,182.7979429999832,182.7979429999832,182.7979429999832,182.7979429999832,182.7979429999832,182.7979429999832,182.7979429999832,183.16449090000242,183.16449090000242,183.16449090000242,183.16449090000242,183.16449090000242,183.16449090000242,183.16449090000242,183.16449090000242,183.16449090000242,23,0,,,183.16449090000242,183.36463079997338,6.1,183.36463079997338,1,6.1,1,1,1000,num_4,1.1119860999751836,,22,11,2026-03-04_11h34.50.480,2026A_exp2,2022.2.4,59.90003881416092,
1,0,0.0,3.7,1,0,53,53,57,,,,,184.4990739999921,185.14980129996547,185.14980129996547,185.63429050002014,315,315,185.63429050002014,185.63429050002014,185.63429050002014,185.63429050002014,185.63429050002014,185.63429050002014,185.63429050002014,185.63429050002014,185.63429050002014,186.00067510001827,186.00067510001827,186.00067510001827,186.00067510001827,186.00067510001827,186.00067510001827,186.00067510001827,186.00067510001827,186.00067510001827,23,0,,,186.00067510001827,186.20084479998332,3.7,186.20084479998332,1,3.7,1,1,1000,num_4,0.6676551999989897,,22,11,2026-03-04_11h34.50.480,2026A_exp2,2022.2.4,59.90003881416092,
1,0,0.0,0.0,0,0,54,54,9,,,,,186.88479450001614,187.53517839999404,187.53517839999404,188.0197811999824,45,45,188.0197811999824,188.0197811999824,188.0197811999824,188.0197811999824,188.0197811999824,188.0197811999824,188.0197811999824,188.0197811999824,188.0197811999824,188.38590310001746,188.38590310001746,188.38590310001746,188.38590310001746,188.38590310001746,188.38590310001746,188.38590310001746,188.38590310001746,188.38590310001746,23,0,,,188.38590310001746,188.58624709997093,0.0,188.58624709997093,1,0.0,0,0,1000,num_4,0.7702855999814346,,22,11,2026-03-04_11h34.50.480,2026A_exp2,2022.2.4,59.90003881416092,
1,0,4.9,6.1,0,0,55,55,15,,,,,189.38698040001327,190.02089929999784,190.02089929999784,190.5224598000059,45,315,190.5224598000059,190.5224598000059,190.5224598000059,190.5224598000059,190.5224598000059,190.5224598000059,190.5224598000059,190.5224598000059,190.5224598000059,190.888700600015,190.888700600015,190.888700600015,190.888700600015,190.888700600015,190.888700600015,190.888700600015,190.888700600015,190.888700600015,23,0,,,190.888700600015,191.08907029998954,4.9,191.08907029998954,0,4.9,1,0,1000,num_1,0.6276221000007354,,22,11,2026-03-04_11h34.50.480,2026A_exp2,2022.2.4,59.90003881416092,
1000,1,0.0,0.0,0,0,56,56,65,,,,,191.739759100019,192.39061890001176,192.39061890001176,192.87466630002018,45,45,192.87466630002018,192.87466630002018,192.87466630002018,192.87466630002018,192.87466630002018,192.87466630002018,192.87466630002018,192.87466630002018,192.87466630002018,193.24103510001441,193.24103510001441,193.24103510001441,193.24103510001441,193.24103510001441,193.24103510001441,193.24103510001441,193.24103510001441,193.24103510001441,1,2,"[0.000734600005671382, 0.23415279999608174]","[0.2174547000322491, 0.3678315000142902]",193.24103510001441,193.44295970001258,1000,193.44295970001258,1000,1000,1000,1000,1,num_2,0.658695499994792,,22,11,2026-03-04_11h34.50.480,2026A_exp2,2022.2.4,59.90003881416092,
1,0,0.0,0.0,1,0,57,57,41,,,,,194.1253481999738,194.77787900000112,194.77787900000112,195.2824108999921,315,315,195.2824108999921,195.2824108999921,195.2824108999921,195.2824108999921,195.2824108999921,195.2824108999921,195.2824108999921,195.2824108999921,195.2824108999921,195.64349909999873,195.64349909999873,195.64349909999873,195.64349909999873,195.64349909999873,195.64349909999873,195.64349909999873,195.64349909999873,195.64349909999873,23,0,,,195.64349909999873,195.84370430000126,0.0,195.84370430000126,1,0.0,0,0,1000,num_4,1.0653837000136264,,22,11,2026-03-04_11h34.50.480,2026A_exp2,2022.2.4,59.90003881416092,
1000,1,6.1,4.9,1,0,58,58,16,,,,,196.9281330999802,197.5789091999759,197.5789091999759,198.06334789999528,45,45,198.06334789999528,198.06334789999528,198.06334789999528,198.06334789999528,198.06334789999528,198.06334789999528,198.06334789999528,198.06334789999528,198.06334789999528,198.42968780000228,198.42968780000228,198.42968780000228,198.42968780000228,198.42968780000228,198.42968780000228,198.42968780000228,198.42968780000228,198.42968780000228,23,0,,,198.42968780000228,198.63160730001982,1000,198.63160730001982,1000,1000,1000,1000,1,num_2,0.6928819999448024,,22,11,2026-03-04_11h34.50.480,2026A_exp2,2022.2.4,59.90003881416092,
1,0,0.0,6.1,0,0,59,59,68,,,,,199.34728099999484,199.99799960001837,199.99799960001837,200.4990013000206,315,45,200.4990013000206,200.4990013000206,200.4990013000206,200.4990013000206,200.4990013000206,200.4990013000206,200.4990013000206,200.4990013000206,200.4990013000206,200.86542569997255,200.86542569997255,200.86542569997255,200.86542569997255,200.86542569997255,200.86542569997255,200.86542569997255,200.86542569997255,200.86542569997255,23,0,,,200.86542569997255,201.0657135999645,0.0,201.0657135999645,0,0.0,0,1,1000,num_1,0.715069699974265,,22,11,2026-03-04_11h34.50.480,2026A_exp2,2022.2.4,59.90003881416092,
1000,1,0.0,3.7,0,0,60,60,44,,,,,201.79964909999399,202.45044499996584,202.45044499996584,202.93480829999316,45,45,202.93480829999316,202.93480829999316,202.93480829999316,202.93480829999316,202.93480829999316,202.93480829999316,202.93480829999316,202.93480829999316,202.93480829999316,203.30117019999307,203.30117019999307,203.30117019999307,203.30117019999307,203.30117019999307,203.30117019999307,203.30117019999307,203.30117019999307,203.30117019999307,23,0,,,203.30117019999307,203.53314239997417,1000,203.53314239997417,1000,1000,1000,1000,1,num_2,0.448105699964799,,22,11,2026-03-04_11h34.50.480,2026A_exp2,2022.2.4,59.90003881416092,
1,0,6.1,0.0,1,0,61,61,13,,,,,204.00193999998737,204.65264479996404,204.65264479996404,205.1536158999661,315,45,205.1536158999661,205.1536158999661,205.1536158999661,205.1536158999661,205.1536158999661,205.1536158999661,205.1536158999661,205.1536158999661,205.1536158999661,205.5202047000057,205.5202047000057,205.5202047000057,205.5202047000057,205.5202047000057,205.5202047000057,205.5202047000057,205.5202047000057,205.5202047000057,23,0,,,205.5202047000057,205.7201760999742,0.0,205.7201760999742,0,0.0,0,1,1000,num_1,0.6688514999696054,,22,11,2026-03-04_11h34.50.480,2026A_exp2,2022.2.4,59.90003881416092,
0,0,0.0,4.9,1,0,62,62,56,,,,,206.4045291999937,207.0550942000118,207.0550942000118,207.55619319999823,45,45,207.55619319999823,207.55619319999823,207.55619319999823,207.55619319999823,207.55619319999823,207.55619319999823,207.55619319999823,207.55619319999823,207.55619319999823,207.92240520002088,207.92240520002088,207.92240520002088,207.92240520002088,207.92240520002088,207.92240520002088,207.92240520002088,207.92240520002088,207.92240520002088,23,0,,,207.92240520002088,208.1226300999988,0.0,208.1226300999988,0,0.0,0,1,1000,num_1,0.6102136000408791,,22,11,2026-03-04_11h34.50.480,2026A_exp2,2022.2.4,59.90003881416092,
1,0,0.0,0.0,1,0,63,63,70,,,,,208.75668399996357,209.40722419996746,209.40722419996746,209.89186279999558,45,315,209.89186279999558,209.89186279999558,209.89186279999558,209.89186279999558,209.89186279999558,209.89186279999558,209.89186279999558,209.89186279999558,209.89186279999558,210.25831050000852,210.25831050000852,210.25831050000852,210.25831050000852,210.25831050000852,210.25831050000852,210.25831050000852,210.25831050000852,210.25831050000852,21,1,[0.0011977999820373952],[0.033501200028695166],210.25831050000852,210.45844550000038,0.0,210.45844550000038,1,0.0,0,0,1000,num_4,0.6826536000007764,,22,11,2026-03-04_11h34.50.480,2026A_exp2,2022.2.4,59.90003881416092,
1000,1,0.0,0.0,1,0,64,64,7,,,,,211.1590227999841,211.79307339998195,211.79307339998195,212.2940975999809,45,45,212.2940975999809,212.2940975999809,212.2940975999809,212.2940975999809,212.2940975999809,212.2940975999809,212.2940975999809,212.2940975999809,212.2940975999809,212.6606493999716,212.6606493999716,212.6606493999716,212.6606493999716,212.6606493999716,212.6606493999716,212.6606493999716,212.6606493999716,212.6606493999716,23,0,,,212.6606493999716,212.8630167999654,1000,212.8630167999654,1000,1000,1000,1000,1,num_2,0.6058560000383295,,22,11,2026-03-04_11h34.50.480,2026A_exp2,2022.2.4,59.90003881416092,
1,0,4.9,0.0,1,0,65,65,4,,,,,213.4949004999944,214.1351169999689,214.1351169999689,214.64016409998294,315,315,214.64016409998294,214.64016409998294,214.64016409998294,214.64016409998294,214.64016409998294,214.64016409998294,214.64016409998294,214.64016409998294,214.64016409998294,214.99614840000868,214.99614840000868,214.99614840000868,214.99614840000868,214.99614840000868,214.99614840000868,214.99614840000868,214.99614840000868,214.99614840000868,23,0,,,214.99614840000868,215.1963836000068,0.0,215.1963836000068,0,0.0,0,1,1000,num_1,0.6484226000029594,,22,11,2026-03-04_11h34.50.480,2026A_exp2,2022.2.4,59.90003881416092,
1,0,4.9,6.1,1,0,66,66,86,,,,,215.8637844999903,216.51449659996433,216.51449659996433,216.99879430001602,45,315,216.99879430001602,216.99879430001602,216.99879430001602,216.99879430001602,216.99879430001602,216.99879430001602,216.99879430001602,216.99879430001602,216.99879430001602,217.36507820000406,217.36507820000406,217.36507820000406,217.36507820000406,217.36507820000406,217.36507820000406,217.36507820000406,217.36507820000406,217.36507820000406,23,0,,,217.36507820000406,217.56557149998844,6.1,217.56557149998844,1,6.1,1,1,1000,num_4,0.8233462999924086,,22,11,2026-03-04_11h34.50.480,2026A_exp2,2022.2.4,59.90003881416092,
1,0,0.0,3.7,0,0,67,67,78,,,,,218.41627310001059,219.05043730000034,219.05043730000034,219.55155500001274,45,45,219.55155500001274,219.55155500001274,219.55155500001274,219.55155500001274,219.55155500001274,219.55155500001274,219.55155500001274,219.55155500001274,219.55155500001274,219.91803260002052,219.91803260002052,219.91803260002052,219.91803260002052,219.91803260002052,219.91803260002052,219.91803260002052,219.91803260002052,219.91803260002052,23,0,,,219.91803260002052,220.11820500000613,0.0,220.11820500000613,0,0.0,0,1,1000,num_1,0.8066634000279009,,22,11,2026-03-04_11h34.50.480,2026A_exp2,2022.2.4,59.90003881416092,
1000,1,6.1,3.7,1,0,68,68,24,,,,,220.95221770001808,221.58621530001983,221.58621530001983,222.08729769999627,315,315,222.08729769999627,222.08729769999627,222.08729769999627,222.08729769999627,222.08729769999627,222.08729769999627,222.08729769999627,222.08729769999627,222.08729769999627,222.45374189998256,222.45374189998256,222.45374189998256,222.45374189998256,222.45374189998256,222.45374189998256,222.45374189998256,222.45374189998256,222.45374189998256,23,0,,,222.45374189998256,222.6581603999948,1000,222.6581603999948,1000,1000,1000,1000,0,num_3,0.5385734000010416,,22,11,2026-03-04_11h34.50.480,2026A_exp2,2022.2.4,59.90003881416092,
1,0,6.1,4.9,1,0,69,69,35,,,,,223.22115729999496,223.87183429999277,223.87183429999277,224.3729782999726,45,315,224.3729782999726,224.3729782999726,224.3729782999726,224.3729782999726,224.3729782999726,224.3729782999726,224.3729782999726,224.3729782999726,224.3729782999726,224.7226463999832,224.7226463999832,224.7226463999832,224.7226463999832,224.7226463999832,224.7226463999832,224.7226463999832,224.7226463999832,224.7226463999832,22,0,,,224.7226463999832,224.92293739999877,4.9,224.92293739999877,1,4.9,1,1,1000,num_4,0.6895999000407755,,22,11,2026-03-04_11h34.50.480,2026A_exp2,2022.2.4,59.90003881416092,
1000,1,4.9,3.7,1,0,70,70,32,,,,,225.64024689997314,226.29093239997746,226.29093239997746,226.77535339997848,315,315,226.77535339997848,226.77535339997848,226.77535339997848,226.77535339997848,226.77535339997848,226.77535339997848,226.77535339997848,226.77535339997848,226.77535339997848,227.1417607999756,227.1417607999756,227.1417607999756,227.1417607999756,227.1417607999756,227.1417607999756,227.1417607999756,227.1417607999756,227.1417607999756,23,0,,,227.1417607999756,227.34357700002147,1000,227.34357700002147,1000,1000,1000,1000,1,num_2,0.42068949999520555,,22,11,2026-03-04_11h34.50.480,2026A_exp2,2022.2.4,59.90003881416092,
1000,1,0.0,6.1,1,0,71,71,88,,,,,227.79241449997062,228.44310259999475,228.44310259999475,228.94417600001907,315,45,228.94417600001907,228.94417600001907,228.94417600001907,228.94417600001907,228.94417600001907,228.94417600001907,228.94417600001907,228.94417600001907,228.94417600001907,229.2939804000198,229.2939804000198,229.2939804000198,229.2939804000198,229.2939804000198,229.2939804000198,229.2939804000198,229.2939804000198,229.2939804000198,22,0,,,229.2939804000198,229.49632520001614,1000,229.5107102000038,1000,1000,1000,1000,1,num_2,0.4143159000086598,,22,11,2026-03-04_11h34.50.480,2026A_exp2,2022.2.4,59.90003881416092,
0,0,4.9,0.0,0,0,72,72,30,,,,,229.94453169999178,230.595261999988,230.595261999988,231.0961828000145,45,45,231.0961828000145,231.0961828000145,231.0961828000145,231.0961828000145,231.0961828000145,231.0961828000145,231.0961828000145,231.0961828000145,231.0961828000145,231.46276749996468,231.46276749996468,231.46276749996468,231.46276749996468,231.46276749996468,231.46276749996468,231.46276749996468,231.46276749996468,231.46276749996468,23,0,,,231.46276749996468,231.66293260001112,0.0,231.66293260001112,0,0.0,0,1,1000,num_1,0.7177068000310101,,22,11,2026-03-04_11h34.50.480,2026A_exp2,2022.2.4,59.90003881416092,
1000,1,0.0,0.0,1,0,73,73,47,,,,,232.39693549997173,233.04767589998664,233.04767589998664,233.53209100000095,315,45,233.53209100000095,233.53209100000095,233.53209100000095,233.53209100000095,233.53209100000095,233.53209100000095,233.53209100000095,233.53209100000095,233.53209100000095,233.89856389997294,233.89856389997294,233.89856389997294,233.89856389997294,233.89856389997294,233.89856389997294,233.89856389997294,233.89856389997294,233.89856389997294,23,0,,,233.89856389997294,234.1004685999942,1000,234.1004685999942,1000,1000,1000,1000,1,num_2,0.44881679996615276,,22,11,2026-03-04_11h34.50.480,2026A_exp2,2022.2.4,59.90003881416092,
1,0,6.1,0.0,0,0,74,74,50,,,,,234.56587439996656,235.2165283000213,235.2165283000213,235.7176521999645,315,45,235.7176521999645,235.7176521999645,235.7176521999645,235.7176521999645,235.7176521999645,235.7176521999645,235.7176521999645,235.7176521999645,235.7176521999645,236.08406570000807,236.08406570000807,236.08406570000807,236.08406570000807,236.08406570000807,236.08406570000807,236.08406570000807,236.08406570000807,236.08406570000807,23,0,,,236.08406570000807,236.28417679999257,6.1,236.28417679999257,1,6.1,1,1,1000,num_4,0.7201458999770693,,22,11,2026-03-04_11h34.50.480,2026A_exp2,2022.2.4,59.90003881416092,
1000,1,4.9,0.0,1,0,75,75,25,,,,,237.03477680002106,237.68559609999647,237.68559609999647,238.17010439996375,45,315,238.17010439996375,238.17010439996375,238.17010439996375,238.17010439996375,238.17010439996375,238.17010439996375,238.17010439996375,238.17010439996375,238.17010439996375,238.5365380999865,238.5365380999865,238.5365380999865,238.5365380999865,238.5365380999865,238.5365380999865,238.5365380999865,238.5365380999865,238.5365380999865,23,0,,,238.5365380999865,238.73849299998255,1000,238.73849299998255,1000,1000,1000,1000,0,num_3,0.5383526000077836,,22,11,2026-03-04_11h34.50.480,2026A_exp2,2022.2.4,59.90003881416092,
1,0,3.7,0.0,1,0,76,76,74,,,,,239.3038950000191,239.9545510999742,239.9545510999742,240.45576159999473,315,315,240.45576159999473,240.45576159999473,240.45576159999473,240.45576159999473,240.45576159999473,240.45576159999473,240.45576159999473,240.45576159999473,240.45576159999473,240.80529479996767,240.80529479996767,240.80529479996767,240.80529479996767,240.80529479996767,240.80529479996767,240.80529479996767,240.80529479996767,240.80529479996767,22,0,,,240.80529479996767,241.00547139998525,0.0,241.02241919998778,0,0.0,0,1,1000,num_1,0.894767599995248,,22,11,2026-03-04_11h34.50.480,2026A_exp2,2022.2.4,59.90003881416092,
1000,1,0.0,3.7,0,0,77,77,52,,,,,241.93985779996729,242.590590399981,242.590590399981,243.0753537999699,45,45,243.0753537999699,243.0753537999699,243.0753537999699,243.0753537999699,243.0753537999699,243.0753537999699,243.0753537999699,243.0753537999699,243.0753537999699,243.44136210001307,243.44136210001307,243.44136210001307,243.44136210001307,243.44136210001307,243.44136210001307,243.44136210001307,243.44136210001307,243.44136210001307,23,0,,,243.44136210001307,243.64325580000877,1000,243.64325580000877,1000,1000,1000,1000,0,num_3,0.5378833000431769,,22,11,2026-03-04_11h34.50.480,2026A_exp2,2022.2.4,59.90003881416092,
1000,1,0.0,4.9,1,0,78,78,27,,,,,244.20878109999467,244.85945170000196,244.85945170000196,245.36053830001038,45,315,245.36053830001038,245.36053830001038,245.36053830001038,245.36053830001038,245.36053830001038,245.36053830001038,245.36053830001038,245.36053830001038,245.36053830001038,245.72706200001994,245.72706200001994,245.72706200001994,245.72706200001994,245.72706200001994,245.72706200001994,245.72706200001994,245.72706200001994,245.72706200001994,23,0,,,245.72706200001994,245.92910389997996,1000,245.92910389997996,1000,1000,1000,1000,1,num_2,0.46731660002842546,,22,11,2026-03-04_11h34.50.480,2026A_exp2,2022.2.4,59.90003881416092,
1000,1,4.9,0.0,1,0,79,79,72,,,,,246.4278564999695,247.0784088000073,247.0784088000073,247.57927649997873,45,45,247.57927649997873,247.57927649997873,247.57927649997873,247.57927649997873,247.57927649997873,247.57927649997873,247.57927649997873,247.57927649997873,247.57927649997873,247.9458912999835,247.9458912999835,247.9458912999835,247.9458912999835,247.9458912999835,247.9458912999835,247.9458912999835,247.9458912999835,247.9458912999835,23,0,,,247.9458912999835,248.1480925999931,1000,248.1480925999931,1000,1000,1000,1000,1,num_2,0.7126409999909811,,22,11,2026-03-04_11h34.50.480,2026A_exp2,2022.2.4,59.90003881416092,
1000,1,3.7,0.0,1,0,80,80,79,,,,,248.88007449998986,249.53078909998294,249.53078909998294,250.03197949996684,315,315,250.03197949996684,250.03197949996684,250.03197949996684,250.03197949996684,250.03197949996684,250.03197949996684,250.03197949996684,250.03197949996684,250.03197949996684,250.39827289996902,250.39827289996902,250.39827289996902,250.39827289996902,250.39827289996902,250.39827289996902,250.39827289996902,250.39827289996902,250.39827289996902,23,0,,,250.39827289996902,250.60053220001282,1000,250.60053220001282,1000,1000,1000,1000,1,num_2,0.44442209997214377,,22,11,2026-03-04_11h34.50.480,2026A_exp2,2022.2.4,59.90003881416092,
1,0,0.0,3.7,0,0,81,81,12,,,,,251.06562579999445,251.71618579997448,251.71618579997448,252.21747699996922,315,45,252.21747699996922,252.21747699996922,252.21747699996922,252.21747699996922,252.21747699996922,252.21747699996922,252.21747699996922,252.21747699996922,252.21747699996922,252.58358859998407,252.58358859998407,252.58358859998407,252.58358859998407,252.58358859998407,252.58358859998407,252.58358859998407,252.58358859998407,252.58358859998407,23,0,,,252.58358859998407,252.78380480001215,0.0,252.78380480001215,0,0.0,0,1,1000,num_1,0.5739161999663338,,22,11,2026-03-04_11h34.50.480,2026A_exp2,2022.2.4,59.90003881416092,
1000,1,6.1,0.0,1,0,82,82,60,,,,,253.38459219998913,254.0353169000009,254.0353169000009,254.51972549996572,45,315,254.51972549996572,254.51972549996572,254.51972549996572,254.51972549996572,254.51972549996572,254.51972549996572,254.51972549996572,254.51972549996572,254.51972549996572,254.88622970000142,254.88622970000142,254.88622970000142,254.88622970000142,254.88622970000142,254.88622970000142,254.88622970000142,254.88622970000142,254.88622970000142,23,0,,,254.88622970000142,255.08842759998515,1000,255.08842759998515,1000,1000,1000,1000,0,num_3,0.5080479999887757,,22,11,2026-03-04_11h34.50.480,2026A_exp2,2022.2.4,59.90003881416092,
1000,1,4.9,3.7,1,0,83,83,67,,,,,255.6200582999736,256.2709652999765,256.2709652999765,256.77195540000685,45,315,256.77195540000685,256.77195540000685,256.77195540000685,256.77195540000685,256.77195540000685,256.77195540000685,256.77195540000685,256.77195540000685,256.77195540000685,257.1217977000051,257.1217977000051,257.1217977000051,257.1217977000051,257.1217977000051,257.1217977000051,257.1217977000051,257.1217977000051,257.1217977000051,22,0,,,257.1217977000051,257.32313659996726,1000,257.32313659996726,1000,1000,1000,1000,0,num_3,0.5452116000233218,,22,11,2026-03-04_11h34.50.480,2026A_exp2,2022.2.4,59.90003881416092,
1,0,0.0,4.9,0,0,84,84,17,,,,,257.8891074999701,258.5399400999886,258.5399400999886,259.04076840000926,45,315,259.04076840000926,259.04076840000926,259.04076840000926,259.04076840000926,259.04076840000926,259.04076840000926,259.04076840000926,259.04076840000926,259.04076840000926,259.40721029997803,259.40721029997803,259.40721029997803,259.40721029997803,259.40721029997803,259.40721029997803,259.40721029997803,259.40721029997803,259.40721029997803,0,1,[0.0012495999690145254],[0.3671992999734357],259.40721029997803,259.6073566999985,0.0,259.6073566999985,0,0.0,0,1,1000,num_1,0.6539564999984577,,22,11,2026-03-04_11h34.50.480,2026A_exp2,2022.2.4,59.90003881416092,
1000,1,0.0,0.0,1,0,85,85,14,,,,,260.29165580001427,260.9423858000082,260.9423858000082,261.42661909997696,315,45,261.42661909997696,261.42661909997696,261.42661909997696,261.42661909997696,261.42661909997696,261.42661909997696,261.42661909997696,261.42661909997696,261.42661909997696,261.7929443999892,261.7929443999892,261.7929443999892,261.7929443999892,261.7929443999892,261.7929443999892,261.7929443999892,261.7929443999892,261.7929443999892,0,1,[0.001254800008609891],[0.3670309000299312],261.7929443999892,261.99496919999365,1000,261.99496919999365,1000,1000,1000,1000,0,num_3,0.6425341999856755,,22,11,2026-03-04_11h34.50.480,2026A_exp2,2022.2.4,59.90003881416092,
1000,1,6.1,0.0,0,0,86,86,33,,,,,262.6606010000105,263.3112443999853,263.3112443999853,263.8124442999833,315,315,263.8124442999833,263.8124442999833,263.8124442999833,263.8124442999833,263.8124442999833,263.8124442999833,263.8124442999833,263.8124442999833,263.8124442999833,264.1788107000175,264.1788107000175,264.1788107000175,264.1788107000175,264.1788107000175,264.1788107000175,264.1788107000175,264.1788107000175,264.1788107000175,23,0,,,264.1788107000175,264.38082819996634,1000,264.38082819996634,1000,1000,1000,1000,0,num_3,0.5442858000169508,,22,11,2026-03-04_11h34.50.480,2026A_exp2,2022.2.4,59.90003881416092,
1000,1,0.0,0.0,1,0,87,87,29,,,,,264.9460749999853,265.59692059998633,265.59692059998633,266.09801060002064,45,315,266.09801060002064,266.09801060002064,266.09801060002064,266.09801060002064,266.09801060002064,266.09801060002064,266.09801060002064,266.09801060002064,266.09801060002064,266.44781119999243,266.44781119999243,266.44781119999243,266.44781119999243,266.44781119999243,266.44781119999243,266.44781119999243,266.44781119999243,266.44781119999243,5,2,"[0.0010518000344745815, 0.18369080004049465]","[0.16718290001153946, 0.2839131000218913]",266.44781119999243,266.64962649997324,1000,266.6646958999918,1000,1000,1000,1000,0,num_3,0.4441697999718599,,22,11,2026-03-04_11h34.50.480,2026A_exp2,2022.2.4,59.90003881416092,
1000,1,4.9,4.9,0,0,88,88,42,,,,,267.1318685999722,267.78272620000644,267.78272620000644,268.28358689998277,45,315,268.28358689998277,268.28358689998277,268.28358689998277,268.28358689998277,268.28358689998277,268.28358689998277,268.28358689998277,268.28358689998277,268.28358689998277,268.6331907999702,268.6331907999702,268.6331907999702,268.6331907999702,268.6331907999702,268.6331907999702,268.6331907999702,268.6331907999702,268.6331907999702,22,0,,,268.6331907999702,268.83526099997107,1000,268.85023280000314,1000,1000,1000,1000,1,num_2,0.8342606999794953,,22,11,2026-03-04_11h34.50.480,2026A_exp2,2022.2.4,59.90003881416092,
1000,1,0.0,0.0,0,0,89,89,61,,,,,269.70103230001405,270.35168859997066,270.35168859997066,270.8526509999647,315,315,270.8526509999647,270.8526509999647,270.8526509999647,270.8526509999647,270.8526509999647,270.8526509999647,270.8526509999647,270.8526509999647,270.8526509999647,271.2190156999859,271.2190156999859,271.2190156999859,271.2190156999859,271.2190156999859,271.2190156999859,271.2190156999859,271.2190156999859,271.2190156999859,23,0,,,271.2190156999859,271.4212240999914,1000,271.4212240999914,1000,1000,1000,1000,1,num_2,0.47125890001188964,,22,11,2026-03-04_11h34.50.480,2026A_exp2,2022.2.4,59.90003881416092,
,,,,,,,,,,,,,,,,,,,,,,,,,,,,,,,,,,,,,,,,,,,,,,,,,,,,271.94932879996486,,,,,,,
