validity,detectorcomp,contrastCW,contrastCCW,precueCWorCCW,block_80trials.thisRepN,block_80trials.thisTrialN,block_80trials.thisN,block_80trials.thisIndex,etRecord.started,etRecord.stopped,text.started,text.stopped,text_4.started,text_4.stopped,text_6.started,text_6.stopped,oriCW,oriCCW,roi_2.started,grating_UR.started,grating_UL.started,grating_LR.started,grating_LL.started,noise_UR.started,noise_UL.started,noise_LR.started,noise_LL.started,roi_2.stopped,grating_UR.stopped,grating_UL.stopped,grating_LR.stopped,grating_LL.stopped,noise_UR.stopped,noise_UL.stopped,noise_LR.stopped,noise_LL.stopped,outframe,roi_2.numLooks,roi_2.timesOn,roi_2.timesOff,text_2.started,text_2.stopped,probedcontrast,key_resp.started,respdetect,relevantContrast,correctDetect,TorFdetect,respCWorCCW,key_resp.keys,key_resp.rt,feedback_display_.started,participantNo,blockNo,date,expName,psychopyVersion,frameRate,
1,0,0.0,4.9,1,0,0,0,54,7.389998063445091e-05,7.389998063445091e-05,49.40739159984514,51.41082899994217,51.41082899994217,52.06028539990075,52.06028539990075,52.56356669985689,45,45,52.56356669985689,52.56356669985689,52.56356669985689,52.56356669985689,52.56356669985689,52.56356669985689,52.56356669985689,52.56356669985689,52.56356669985689,52.911399099975824,52.911399099975824,52.911399099975824,52.911399099975824,52.911399099975824,52.911399099975824,52.911399099975824,52.911399099975824,52.911399099975824,0,1,[0.000961200101301074],[0.3678180000279099],52.911399099975824,53.11154869990423,4.9,53.11154869990423,1,4.9,1,1,1000,num_4,1.4197844001464546,,37,5,2026-03-13_17h46.51.741,2026A_exp2,2022.2.4,59.97224482923885,
1000,1,6.1,0.0,0,0,1,1,27,,,,,54.563042499823496,55.21366629982367,55.21366629982367,55.69797509978525,315,315,55.69797509978525,55.69797509978525,55.69797509978525,55.69797509978525,55.69797509978525,55.69797509978525,55.69797509978525,55.69797509978525,55.69797509978525,56.06449219980277,56.06449219980277,56.06449219980277,56.06449219980277,56.06449219980277,56.06449219980277,56.06449219980277,56.06449219980277,56.06449219980277,0,1,[0.0012481000740081072],[0.36703020008280873],56.06449219980277,56.269241199828684,1000,56.269241199828684,1000,1000,1000,1000,0,num_3,1.6779809000436217,,37,5,2026-03-13_17h46.51.741,2026A_exp2,2022.2.4,59.97224482923885,
1000,1,4.9,6.1,0,0,2,2,36,,,,,57.96625679987483,58.61699469992891,58.61699469992891,59.11811489984393,45,315,59.11811489984393,59.11811489984393,59.11811489984393,59.11811489984393,59.11811489984393,59.11811489984393,59.11811489984393,59.11811489984393,59.11811489984393,59.484605899779126,59.484605899779126,59.484605899779126,59.484605899779126,59.484605899779126,59.484605899779126,59.484605899779126,59.484605899779126,59.484605899779126,3,2,"[0.017208199948072433, 0.21700999978929758]","[0.18344369996339083, 0.367171699879691]",59.484605899779126,59.68643539980985,1000,59.68643539980985,1000,1000,1000,1000,1,num_2,1.269061699975282,,37,5,2026-03-13_17h46.51.741,2026A_exp2,2022.2.4,59.97224482923885,
0,0,4.9,0.0,0,0,3,3,84,,,,,60.98623269982636,61.63672889978625,61.63672889978625,62.13764789979905,45,45,62.13764789979905,62.13764789979905,62.13764789979905,62.13764789979905,62.13764789979905,62.13764789979905,62.13764789979905,62.13764789979905,62.13764789979905,62.50442959996872,62.50442959996872,62.50442959996872,62.50442959996872,62.50442959996872,62.50442959996872,62.50442959996872,62.50442959996872,62.50442959996872,0,1,[0.0012442998122423887],[0.3672028000000864],62.50442959996872,62.70451129996218,0.0,62.70451129996218,0,0.0,0,1,1000,num_1,0.9080334000755101,,37,5,2026-03-13_17h46.51.741,2026A_exp2,2022.2.4,59.97224482923885,
1000,1,0.0,3.7,1,0,4,4,4,,,,,63.63862939993851,64.28970909980126,64.28970909980126,64.78964169998653,45,45,64.78964169998653,64.78964169998653,64.78964169998653,64.78964169998653,64.78964169998653,64.78964169998653,64.78964169998653,64.78964169998653,64.78964169998653,65.14022849989124,65.14022849989124,65.14022849989124,65.14022849989124,65.14022849989124,65.14022849989124,65.14022849989124,65.14022849989124,65.14022849989124,0,1,[0.0045495000667870045],[0.36412160005420446],65.14022849989124,65.34233349980786,1000,65.34233349980786,1000,1000,1000,1000,1,num_2,0.7169973002746701,,37,5,2026-03-13_17h46.51.741,2026A_exp2,2022.2.4,59.97224482923885,
1000,1,4.9,3.7,1,0,5,5,78,,,,,66.07456559990533,66.72512129996903,66.72512129996903,67.22615689993836,45,315,67.22615689993836,67.22615689993836,67.22615689993836,67.22615689993836,67.22615689993836,67.22615689993836,67.22615689993836,67.22615689993836,67.22615689993836,67.59272929979488,67.59272929979488,67.59272929979488,67.59272929979488,67.59272929979488,67.59272929979488,67.59272929979488,67.59272929979488,67.59272929979488,0,1,[0.0012079000007361174],[0.36730569996871054],67.59272929979488,67.79517659987323,1000,67.79517659987323,1000,1000,1000,1000,0,num_3,0.6241276001092046,,37,5,2026-03-13_17h46.51.741,2026A_exp2,2022.2.4,59.97224482923885,
1,0,0.0,0.0,1,0,6,6,83,,,,,68.44338859990239,69.09416799992323,69.09416799992323,69.59527469985187,315,45,69.59527469985187,69.59527469985187,69.59527469985187,69.59527469985187,69.59527469985187,69.59527469985187,69.59527469985187,69.59527469985187,69.59527469985187,69.96173159987666,69.96173159987666,69.96173159987666,69.96173159987666,69.96173159987666,69.96173159987666,69.96173159987666,69.96173159987666,69.96173159987666,0,1,[0.0015660000499337912],[0.3668758000712842],69.96173159987666,70.16187199996784,0.0,70.16187199996784,0,0.0,0,1,1000,num_1,1.4424469999503344,,37,5,2026-03-13_17h46.51.741,2026A_exp2,2022.2.4,59.97224482923885,
1000,1,0.0,6.1,1,0,7,7,13,,,,,71.63002409995534,72.28043739986606,72.28043739986606,72.76502910000272,45,45,72.76502910000272,72.76502910000272,72.76502910000272,72.76502910000272,72.76502910000272,72.76502910000272,72.76502910000272,72.76502910000272,72.76502910000272,73.13168419990689,73.13168419990689,73.13168419990689,73.13168419990689,73.13168419990689,73.13168419990689,73.13168419990689,73.13168419990689,73.13168419990689,3,2,"[0.03354070009663701, 0.11697120009921491]","[0.10015569999814034, 0.36699349991977215]",73.13168419990689,73.33385699987411,1000,73.33385699987411,1000,1000,1000,1000,1,num_2,0.6546848001889884,,37,5,2026-03-13_17h46.51.741,2026A_exp2,2022.2.4,59.97224482923885,
0,0,0.0,0.0,1,0,8,8,44,,,,,74.01552789984271,74.66647469997406,74.66647469997406,75.16758819995448,315,45,75.16758819995448,75.16758819995448,75.16758819995448,75.16758819995448,75.16758819995448,75.16758819995448,75.16758819995448,75.16758819995448,75.16758819995448,75.53400240000337,75.53400240000337,75.53400240000337,75.53400240000337,75.53400240000337,75.53400240000337,75.53400240000337,75.53400240000337,75.53400240000337,0,1,[0.001221399987116456],[0.36746360012330115],75.53400240000337,75.73411009996198,0.0,75.73411009996198,1,0.0,0,0,1000,num_4,1.6533379000611603,,37,5,2026-03-13_17h46.51.741,2026A_exp2,2022.2.4,59.97224482923885,
0,0,4.9,0.0,0,0,9,9,40,,,,,77.4191290999297,78.06978329992853,78.06978329992853,78.55413289996795,45,315,78.55413289996795,78.55413289996795,78.55413289996795,78.55413289996795,78.55413289996795,78.55413289996795,78.55413289996795,78.55413289996795,78.55413289996795,78.92066239984706,78.92066239984706,78.92066239984706,78.92066239984706,78.92066239984706,78.92066239984706,78.92066239984706,78.92066239984706,78.92066239984706,0,1,[0.0012264000251889229],[0.36725979996845126],78.92066239984706,79.12094679987058,0.0,79.12094679987058,0,0.0,0,1,1000,num_1,0.7943118002731353,,37,5,2026-03-13_17h46.51.741,2026A_exp2,2022.2.4,59.97224482923885,
1000,1,3.7,0.0,0,0,10,10,39,,,,,79.93823719979264,80.58904059999622,80.58904059999622,81.07349829981104,45,45,81.07349829981104,81.07349829981104,81.07349829981104,81.07349829981104,81.07349829981104,81.07349829981104,81.07349829981104,81.07349829981104,81.07349829981104,81.4398799999617,81.4398799999617,81.4398799999617,81.4398799999617,81.4398799999617,81.4398799999617,81.4398799999617,81.4398799999617,81.4398799999617,0,1,[0.0007193000055849552],[0.3674210999161005],81.4398799999617,81.64189669978805,1000,81.64189669978805,1000,1000,1000,1000,0,num_3,0.5775093000847846,,37,5,2026-03-13_17h46.51.741,2026A_exp2,2022.2.4,59.97224482923885,
1000,1,3.7,3.7,0,0,11,11,59,,,,,82.24057209980674,82.89135920000263,82.89135920000263,83.39233789988793,45,45,83.39233789988793,83.39233789988793,83.39233789988793,83.39233789988793,83.39233789988793,83.39233789988793,83.39233789988793,83.39233789988793,83.39233789988793,83.75889139994979,83.75889139994979,83.75889139994979,83.75889139994979,83.75889139994979,83.75889139994979,83.75889139994979,83.75889139994979,83.75889139994979,23,0,,,83.75889139994979,83.96096119983122,1000,83.96096119983122,1000,1000,1000,1000,1,num_2,0.7223605001345277,,37,5,2026-03-13_17h46.51.741,2026A_exp2,2022.2.4,59.97224482923885,
0,0,3.7,4.9,0,0,12,12,77,,,,,84.70969940000214,85.36043259990402,85.36043259990402,85.86126669985242,315,315,85.86126669985242,85.86126669985242,85.86126669985242,85.86126669985242,85.86126669985242,85.86126669985242,85.86126669985242,85.86126669985242,85.86126669985242,86.2279070999939,86.2279070999939,86.2279070999939,86.2279070999939,86.2279070999939,86.2279070999939,86.2279070999939,86.2279070999939,86.2279070999939,23,0,,,86.2279070999939,86.4280682997778,4.9,86.4280682997778,1,4.9,1,1,1000,num_4,0.8151152001228184,,37,5,2026-03-13_17h46.51.741,2026A_exp2,2022.2.4,59.97224482923885,
1000,1,0.0,3.7,0,0,13,13,23,,,,,87.26225889986381,87.91299369977787,87.91299369977787,88.39740909985267,45,315,88.39740909985267,88.39740909985267,88.39740909985267,88.39740909985267,88.39740909985267,88.39740909985267,88.39740909985267,88.39740909985267,88.39740909985267,88.76389129995368,88.76389129995368,88.76389129995368,88.76389129995368,88.76389129995368,88.76389129995368,88.76389129995368,88.76389129995368,88.76389129995368,6,3,"[0.05024440004490316, 0.11707329982891679, 0.2338278000243008]","[0.08359409985132515, 0.2171065998263657, 0.3672964000143111]",88.76389129995368,88.96586649981327,1000,88.96586649981327,1000,1000,1000,1000,1,num_2,0.6142868001479656,,37,5,2026-03-13_17h46.51.741,2026A_exp2,2022.2.4,59.97224482923885,
1,0,3.7,6.1,1,0,14,14,68,,,,,89.5978416998405,90.24877239996567,90.24877239996567,90.74971039989032,315,315,90.74971039989032,90.74971039989032,90.74971039989032,90.74971039989032,90.74971039989032,90.74971039989032,90.74971039989032,90.74971039989032,90.74971039989032,91.11621159990318,91.11621159990318,91.11621159990318,91.11621159990318,91.11621159990318,91.11621159990318,91.11621159990318,91.11621159990318,91.11621159990318,0,1,[0.0012113999109715223],[0.3668309999629855],91.11621159990318,91.31647459999658,6.1,91.31647459999658,1,6.1,1,1,1000,num_4,0.7759494001511484,,37,5,2026-03-13_17h46.51.741,2026A_exp2,2022.2.4,59.97224482923885,
1,0,0.0,0.0,0,0,15,15,87,,,,,92.11705279978923,92.76783249992877,92.76783249992877,93.25230199983343,315,315,93.25230199983343,93.25230199983343,93.25230199983343,93.25230199983343,93.25230199983343,93.25230199983343,93.25230199983343,93.25230199983343,93.25230199983343,93.61887939996086,93.61887939996086,93.61887939996086,93.61887939996086,93.61887939996086,93.61887939996086,93.61887939996086,93.61887939996086,93.61887939996086,0,1,[0.0012058999855071306],[0.3669628999195993],93.61887939996086,93.81883859983645,0.0,93.81883859983645,1,0.0,0,0,1000,num_4,1.6975761000066996,,37,5,2026-03-13_17h46.51.741,2026A_exp2,2022.2.4,59.97224482923885,
1000,1,0.0,0.0,0,0,16,16,72,,,,,95.53709899983369,96.18780229985714,96.18780229985714,96.67230269988067,315,45,96.67230269988067,96.67230269988067,96.67230269988067,96.67230269988067,96.67230269988067,96.67230269988067,96.67230269988067,96.67230269988067,96.67230269988067,97.0388070999179,97.0388070999179,97.0388070999179,97.0388070999179,97.0388070999179,97.0388070999179,97.0388070999179,97.0388070999179,97.0388070999179,12,5,"[0.0012263001408427954, 0.08351170015521348, 0.200363100040704, 0.2837259001098573, 0.3337445000652224]","[0.03345460002310574, 0.1002434000838548, 0.26714720018208027, 0.30035350006073713, 0.36708290013484657]",97.0388070999179,97.23948499979451,1000,97.23948499979451,1000,1000,1000,1000,0,num_3,0.6287318000104278,,37,5,2026-03-13_17h46.51.741,2026A_exp2,2022.2.4,59.97224482923885,
1,0,4.9,4.9,1,0,17,17,9,,,,,97.88971299980767,98.54026819998398,98.54026819998398,99.04144649999216,315,315,99.04144649999216,99.04144649999216,99.04144649999216,99.04144649999216,99.04144649999216,99.04144649999216,99.04144649999216,99.04144649999216,99.04144649999216,99.40788959991187,99.40788959991187,99.40788959991187,99.40788959991187,99.40788959991187,99.40788959991187,99.40788959991187,99.40788959991187,99.40788959991187,0,1,[0.0012393000070005655],[0.36708189989440143],99.40788959991187,99.60803429991938,4.9,99.60803429991938,1,4.9,1,1,1000,num_4,1.507220600033179,,37,5,2026-03-13_17h46.51.741,2026A_exp2,2022.2.4,59.97224482923885,
1000,1,6.1,3.7,1,0,18,18,11,,,,,101.14245419995859,101.7767672999762,101.7767672999762,102.27803509985097,45,45,102.27803509985097,102.27803509985097,102.27803509985097,102.27803509985097,102.27803509985097,102.27803509985097,102.27803509985097,102.27803509985097,102.27803509985097,102.64428639994003,102.64428639994003,102.64428639994003,102.64428639994003,102.64428639994003,102.64428639994003,102.64428639994003,102.64428639994003,102.64428639994003,5,3,"[0.03371120011433959, 0.0669728999491781, 0.2839232999831438]","[0.05036440002731979, 0.2505894999485463, 0.3673696001060307]",102.64428639994003,102.84620379982516,1000,102.84620379982516,1000,1000,1000,1000,1,num_2,1.5570439000148326,,37,5,2026-03-13_17h46.51.741,2026A_exp2,2022.2.4,59.97224482923885,
1000,1,0.0,3.7,0,0,19,19,76,,,,,104.42933489987627,105.08024569996633,105.08024569996633,105.58105829986744,45,315,105.58105829986744,105.58105829986744,105.58105829986744,105.58105829986744,105.58105829986744,105.58105829986744,105.58105829986744,105.58105829986744,105.58105829986744,105.94771129987203,105.94771129987203,105.94771129987203,105.94771129987203,105.94771129987203,105.94771129987203,105.94771129987203,105.94771129987203,105.94771129987203,23,0,,,105.94771129987203,106.14956149994396,1000,106.14956149994396,1000,1000,1000,1000,1,num_2,1.0297606000676751,,37,5,2026-03-13_17h46.51.741,2026A_exp2,2022.2.4,59.97224482923885,
1000,1,0.0,0.0,1,0,20,20,3,,,,,107.19888309994712,107.84948239987716,107.84948239987716,108.35061599989422,315,315,108.35061599989422,108.35061599989422,108.35061599989422,108.35061599989422,108.35061599989422,108.35061599989422,108.35061599989422,108.35061599989422,108.35061599989422,108.71713479980826,108.71713479980826,108.71713479980826,108.71713479980826,108.71713479980826,108.71713479980826,108.71713479980826,108.71713479980826,108.71713479980826,19,2,"[0.11668059998191893, 0.31696319999173284]","[0.1501694000326097, 0.3503491999581456]",108.71713479980826,108.91924129985273,1000,108.91924129985273,1000,1000,1000,1000,1,num_2,0.9483318000566214,,37,5,2026-03-13_17h46.51.741,2026A_exp2,2022.2.4,59.97224482923885,
1,0,4.9,0.0,0,0,21,21,66,,,,,109.88498799991794,110.53597009996884,110.53597009996884,111.01994199980982,315,315,111.01994199980982,111.01994199980982,111.01994199980982,111.01994199980982,111.01994199980982,111.01994199980982,111.01994199980982,111.01994199980982,111.01994199980982,111.38654370000586,111.38654370000586,111.38654370000586,111.38654370000586,111.38654370000586,111.38654370000586,111.38654370000586,111.38654370000586,111.38654370000586,23,0,,,111.38654370000586,111.58657309995033,4.9,111.58657309995033,1,4.9,1,1,1000,num_4,0.8647337001748383,,37,5,2026-03-13_17h46.51.741,2026A_exp2,2022.2.4,59.97224482923885,
1000,1,3.7,0.0,0,0,22,22,69,,,,,112.47074669995345,113.12161569995806,113.12161569995806,113.60591789986938,315,315,113.60591789986938,113.60591789986938,113.60591789986938,113.60591789986938,113.60591789986938,113.60591789986938,113.60591789986938,113.60591789986938,113.60591789986938,113.97251849994063,113.97251849994063,113.97251849994063,113.97251849994063,113.97251849994063,113.97251849994063,113.97251849994063,113.97251849994063,113.97251849994063,3,2,"[0.0012000000569969416, 0.13358420017175376]","[0.0835738000459969, 0.3667215001769364]",113.97251849994063,114.17455349978991,1000,114.17455349978991,1000,1000,1000,1000,0,num_3,0.6378381000831723,,37,5,2026-03-13_17h46.51.741,2026A_exp2,2022.2.4,59.97224482923885,
1000,1,0.0,0.0,1,0,23,23,73,,,,,114.83978009992279,115.49038899992593,115.49038899992593,115.99155729985796,315,315,115.99155729985796,115.99155729985796,115.99155729985796,115.99155729985796,115.99155729985796,115.99155729985796,115.99155729985796,115.99155729985796,115.99155729985796,116.35795699991286,116.35795699991286,116.35795699991286,116.35795699991286,116.35795699991286,116.35795699991286,116.35795699991286,116.35795699991286,116.35795699991286,19,3,"[0.11717629991471767, 0.25063779996708035, 0.36730320006608963]","[0.1507564999628812, 0.26739949989132583, 0.3673080999869853]",116.35795699991286,116.56022989982739,1000,116.56022989982739,1000,1000,1000,1000,0,num_3,1.2828065000940114,,37,5,2026-03-13_17h46.51.741,2026A_exp2,2022.2.4,59.97224482923885,
1000,1,0.0,0.0,1,0,24,24,2,,,,,117.85948909982108,118.51205439982004,118.51205439982004,119.01143149985,45,315,119.01143149985,119.01143149985,119.01143149985,119.01143149985,119.01143149985,119.01143149985,119.01143149985,119.01143149985,119.01143149985,119.37783779995516,119.37783779995516,119.37783779995516,119.37783779995516,119.37783779995516,119.37783779995516,119.37783779995516,119.37783779995516,119.37783779995516,17,6,"[0.08344780001789331, 0.15050690015777946, 0.20052390010096133, 0.2338509000837803, 0.3171560999471694, 0.350499700056389]","[0.10018840013071895, 0.16701030009426177, 0.21709830011241138, 0.25057290005497634, 0.3339884001761675, 0.36732250009663403]",119.37783779995516,119.57971349987201,1000,119.57971349987201,1000,1000,1000,1000,1,num_2,0.7842836000490934,,37,5,2026-03-13_17h46.51.741,2026A_exp2,2022.2.4,59.97224482923885,
1000,1,4.9,0.0,1,0,25,25,48,,,,,120.39562569977716,121.04616409982555,121.04616409982555,121.54730279999785,45,315,121.54730279999785,121.54730279999785,121.54730279999785,121.54730279999785,121.54730279999785,121.54730279999785,121.54730279999785,121.54730279999785,121.54730279999785,121.89711829996668,121.89711829996668,121.89711829996668,121.89711829996668,121.89711829996668,121.89711829996668,121.89711829996668,121.89711829996668,121.89711829996668,22,0,,,121.89711829996668,122.09917739988305,1000,122.11394319985993,1000,1000,1000,1000,0,num_3,0.7063470999710262,,37,5,2026-03-13_17h46.51.741,2026A_exp2,2022.2.4,59.97224482923885,
1000,1,6.1,0.0,1,0,26,26,79,,,,,122.84778129984625,123.49858669983223,123.49858669983223,123.99977009999566,45,315,123.99977009999566,123.99977009999566,123.99977009999566,123.99977009999566,123.99977009999566,123.99977009999566,123.99977009999566,123.99977009999566,123.99977009999566,124.36615399993025,124.36615399993025,124.36615399993025,124.36615399993025,124.36615399993025,124.36615399993025,124.36615399993025,124.36615399993025,124.36615399993025,15,4,"[0.03374039987102151, 0.21738819987513125, 0.2836786999832839, 0.3668803998734802]","[0.050490800058469176, 0.25062439986504614, 0.35042489995248616, 0.36688330001197755]",124.36615399993025,124.56815229984932,1000,124.56815229984932,1000,1000,1000,1000,0,num_3,0.5796623001806438,,37,5,2026-03-13_17h46.51.741,2026A_exp2,2022.2.4,59.97224482923885,
1,0,3.7,0.0,0,0,27,27,10,,,,,125.16685999999754,125.81756349978969,125.81756349978969,126.31860609981231,45,315,126.31860609981231,126.31860609981231,126.31860609981231,126.31860609981231,126.31860609981231,126.31860609981231,126.31860609981231,126.31860609981231,126.31860609981231,126.68522959994152,126.68522959994152,126.68522959994152,126.68522959994152,126.68522959994152,126.68522959994152,126.68522959994152,126.68522959994152,126.68522959994152,15,1,[0.01719869999215007],[0.1332499000709504],126.68522959994152,126.8854405998718,3.7,126.8854405998718,1,3.7,1,1,1000,num_4,0.7105562000069767,,37,5,2026-03-13_17h46.51.741,2026A_exp2,2022.2.4,59.97224482923885,
1000,1,3.7,0.0,0,0,28,28,86,,,,,127.6192590999417,128.2698931999039,128.2698931999039,128.7543633999303,315,315,128.7543633999303,128.7543633999303,128.7543633999303,128.7543633999303,128.7543633999303,128.7543633999303,128.7543633999303,128.7543633999303,128.7543633999303,129.12085169996135,129.12085169996135,129.12085169996135,129.12085169996135,129.12085169996135,129.12085169996135,129.12085169996135,129.12085169996135,129.12085169996135,0,1,[0.001222599996253848],[0.36699229991063476],129.12085169996135,129.32273969985545,1000,129.32273969985545,1000,1000,1000,1000,0,num_3,0.5294494999106973,,37,5,2026-03-13_17h46.51.741,2026A_exp2,2022.2.4,59.97224482923885,
1000,1,0.0,0.0,0,0,29,29,62,,,,,129.87148739979602,130.52205339982174,130.52205339982174,131.02351139998063,45,315,131.02351139998063,131.02351139998063,131.02351139998063,131.02351139998063,131.02351139998063,131.02351139998063,131.02351139998063,131.02351139998063,131.02351139998063,131.38959529995918,131.38959529995918,131.38959529995918,131.38959529995918,131.38959529995918,131.38959529995918,131.38959529995918,131.38959529995918,131.38959529995918,0,1,[0.0007372999098151922],[0.36694890004582703],131.38959529995918,131.5918661998585,1000,131.5918661998585,1000,1000,1000,1000,0,num_3,0.5871989000588655,,37,5,2026-03-13_17h46.51.741,2026A_exp2,2022.2.4,59.97224482923885,
1000,1,4.9,6.1,1,0,30,30,5,,,,,132.20703339995816,132.8414014999289,132.8414014999289,133.341997299809,45,315,133.341997299809,133.341997299809,133.341997299809,133.341997299809,133.341997299809,133.341997299809,133.341997299809,133.341997299809,133.341997299809,133.70884419977665,133.70884419977665,133.70884419977665,133.70884419977665,133.70884419977665,133.70884419977665,133.70884419977665,133.70884419977665,133.70884419977665,0,1,[0.0012229999992996454],[0.36683780001476407],133.70884419977665,133.910773599986,1000,133.910773599986,1000,1000,1000,1000,1,num_2,0.5891581999603659,,37,5,2026-03-13_17h46.51.741,2026A_exp2,2022.2.4,59.97224482923885,
1,0,0.0,6.1,1,0,31,31,19,,,,,134.52611809992231,135.17693089996465,135.17693089996465,135.67809249996208,45,315,135.67809249996208,135.67809249996208,135.67809249996208,135.67809249996208,135.67809249996208,135.67809249996208,135.67809249996208,135.67809249996208,135.67809249996208,136.04445599997416,136.04445599997416,136.04445599997416,136.04445599997416,136.04445599997416,136.04445599997416,136.04445599997416,136.04445599997416,136.04445599997416,0,1,[0.0012127000372856855],[0.367031600093469],136.04445599997416,136.24460959993303,6.1,136.24460959993303,1,6.1,1,1,1000,num_4,0.8235352002084255,,37,5,2026-03-13_17h46.51.741,2026A_exp2,2022.2.4,59.97224482923885,
1000,1,0.0,0.0,0,0,32,32,64,,,,,137.09534299978986,137.74622549978085,137.74622549978085,138.23036409984343,315,315,138.23036409984343,138.23036409984343,138.23036409984343,138.23036409984343,138.23036409984343,138.23036409984343,138.23036409984343,138.23036409984343,138.23036409984343,138.59689669986255,138.59689669986255,138.59689669986255,138.59689669986255,138.59689669986255,138.59689669986255,138.59689669986255,138.59689669986255,138.59689669986255,5,3,"[0.0011970000341534615, 0.1001371000893414, 0.18357960018329322]","[0.08339460007846355, 0.11666820012032986, 0.36700180009938776]",138.59689669986255,138.79903139988892,1000,138.79903139988892,1000,1000,1000,1000,1,num_2,0.861360700102523,,37,5,2026-03-13_17h46.51.741,2026A_exp2,2022.2.4,59.97224482923885,
1000,1,0.0,0.0,0,0,33,33,45,,,,,139.68123559979722,140.33216529991478,140.33216529991478,140.83324549999088,315,315,140.83324549999088,140.83324549999088,140.83324549999088,140.83324549999088,140.83324549999088,140.83324549999088,140.83324549999088,140.83324549999088,140.83324549999088,141.19966489984654,141.19966489984654,141.19966489984654,141.19966489984654,141.19966489984654,141.19966489984654,141.19966489984654,141.19966489984654,141.19966489984654,23,0,,,141.19966489984654,141.39991199993528,1000,141.39991199993528,1000,1000,1000,1000,1,num_2,0.5395359001122415,,37,5,2026-03-13_17h46.51.741,2026A_exp2,2022.2.4,59.97224482923885,
1000,1,0.0,0.0,0,0,34,34,65,,,,,141.96694259997457,142.61775539978407,142.61775539978407,143.11876679980196,315,315,143.11876679980196,143.11876679980196,143.11876679980196,143.11876679980196,143.11876679980196,143.11876679980196,143.11876679980196,143.11876679980196,143.11876679980196,143.48526509990916,143.48526509990916,143.48526509990916,143.48526509990916,143.48526509990916,143.48526509990916,143.48526509990916,143.48526509990916,143.48526509990916,23,0,,,143.48526509990916,143.68739549978636,1000,143.68739549978636,1000,1000,1000,1000,1,num_2,0.29305250011384487,,37,5,2026-03-13_17h46.51.741,2026A_exp2,2022.2.4,59.97224482923885,
1000,1,6.1,6.1,1,0,35,35,22,,,,,144.0022407998331,144.6530362998601,144.6530362998601,145.1542088999413,315,45,145.1542088999413,145.1542088999413,145.1542088999413,145.1542088999413,145.1542088999413,145.1542088999413,145.1542088999413,145.1542088999413,145.1542088999413,145.52066449983977,145.52066449983977,145.52066449983977,145.52066449983977,145.52066449983977,145.52066449983977,145.52066449983977,145.52066449983977,145.52066449983977,22,1,[0.06675420003011823],[0.08343000011518598],145.52066449983977,145.7225790999364,1000,145.7225790999364,1000,1000,1000,1000,0,num_3,1.5294622001238167,,37,5,2026-03-13_17h46.51.741,2026A_exp2,2022.2.4,59.97224482923885,
1000,1,0.0,6.1,1,0,36,36,74,,,,,147.27222319995053,147.92306049983017,147.92306049983017,148.423917299835,45,45,148.423917299835,148.423917299835,148.423917299835,148.423917299835,148.423917299835,148.423917299835,148.423917299835,148.423917299835,148.423917299835,148.7737970999442,148.7737970999442,148.7737970999442,148.7737970999442,148.7737970999442,148.7737970999442,148.7737970999442,148.7737970999442,148.7737970999442,4,5,"[0.0012161999475210905, 0.15063999989069998, 0.26758899982087314, 0.3009573998861015, 0.3341726998332888]","[0.13404249981977046, 0.25074919988401234, 0.28422999987378716, 0.3176312998402864, 0.35132170002907515]",148.7737970999442,148.97584199998528,1000,148.99080549995415,1000,1000,1000,1000,1,num_2,0.5169421001337469,,37,5,2026-03-13_17h46.51.741,2026A_exp2,2022.2.4,59.97224482923885,
0,0,6.1,3.7,0,0,37,37,49,,,,,149.5244989998173,150.17527299979702,150.17527299979702,150.67644879990257,45,315,150.67644879990257,150.67644879990257,150.67644879990257,150.67644879990257,150.67644879990257,150.67644879990257,150.67644879990257,150.67644879990257,150.67644879990257,151.04276099987328,151.04276099987328,151.04276099987328,151.04276099987328,151.04276099987328,151.04276099987328,151.04276099987328,151.04276099987328,151.04276099987328,15,6,"[0.0174109002109617, 0.08350140019319952, 0.11689980002120137, 0.20034510013647377, 0.2838142002001405, 0.3503020000644028]","[0.033409500028938055, 0.1002036000136286, 0.15017340006306767, 0.23370570014230907, 0.30035860021598637, 0.36708310013636947]",151.04276099987328,151.24292059987783,3.7,151.24292059987783,0,3.7,1,0,1000,num_1,1.6409537000581622,,37,5,2026-03-13_17h46.51.741,2026A_exp2,2022.2.4,59.97224482923885,
1000,1,6.1,4.9,0,0,38,38,51,,,,,152.91113079991192,153.56201419979334,153.56201419979334,154.0464557998348,315,45,154.0464557998348,154.0464557998348,154.0464557998348,154.0464557998348,154.0464557998348,154.0464557998348,154.0464557998348,154.0464557998348,154.0464557998348,154.41287649981678,154.41287649981678,154.41287649981678,154.41287649981678,154.41287649981678,154.41287649981678,154.41287649981678,154.41287649981678,154.41287649981678,22,1,[0.333805900067091],[0.3505176999606192],154.41287649981678,154.61491829995066,1000,154.61491829995066,1000,1000,1000,1000,1,num_2,0.9410185001324862,,37,5,2026-03-13_17h46.51.741,2026A_exp2,2022.2.4,59.97224482923885,
1,0,4.9,6.1,0,0,39,39,82,,,,,155.58051989995874,156.23137099994346,156.23137099994346,156.73245889996178,45,45,156.73245889996178,156.73245889996178,156.73245889996178,156.73245889996178,156.73245889996178,156.73245889996178,156.73245889996178,156.73245889996178,156.73245889996178,157.08216929994524,157.08216929994524,157.08216929994524,157.08216929994524,157.08216929994524,157.08216929994524,157.08216929994524,157.08216929994524,157.08216929994524,22,0,,,157.08216929994524,157.2824196999427,4.9,157.29900799994357,1,4.9,1,1,1000,num_4,2.1372926000040025,,37,5,2026-03-13_17h46.51.741,2026A_exp2,2022.2.4,59.97224482923885,
1000,1,0.0,6.1,1,0,40,40,42,,,,,159.46772119984962,160.11855829996057,160.11855829996057,160.60276869987138,315,315,160.60276869987138,160.60276869987138,160.60276869987138,160.60276869987138,160.60276869987138,160.60276869987138,160.60276869987138,160.60276869987138,160.60276869987138,160.96936569991522,160.96936569991522,160.96936569991522,160.96936569991522,160.96936569991522,160.96936569991522,160.96936569991522,160.96936569991522,160.96936569991522,23,0,,,160.96936569991522,161.17112149996683,1000,161.17112149996683,1000,1000,1000,1000,1,num_2,0.7213558999355882,,37,5,2026-03-13_17h46.51.741,2026A_exp2,2022.2.4,59.97224482923885,
0,0,6.1,0.0,1,0,41,41,52,,,,,161.92034229985438,162.57104399986565,162.57104399986565,163.07207289990038,45,315,163.07207289990038,163.07207289990038,163.07207289990038,163.07207289990038,163.07207289990038,163.07207289990038,163.07207289990038,163.07207289990038,163.07207289990038,163.421727999812,163.421727999812,163.421727999812,163.421727999812,163.421727999812,163.421727999812,163.421727999812,163.421727999812,163.421727999812,22,0,,,163.421727999812,163.62205829983577,6.1,163.62205829983577,1,6.1,1,1,1000,num_4,0.878130900207907,,37,5,2026-03-13_17h46.51.741,2026A_exp2,2022.2.4,59.97224482923885,
1,0,0.0,6.1,0,0,42,42,24,,,,,164.52279179985635,165.1735136997886,165.1735136997886,165.65808839979582,315,315,165.65808839979582,165.65808839979582,165.65808839979582,165.65808839979582,165.65808839979582,165.65808839979582,165.65808839979582,165.65808839979582,165.65808839979582,166.02434529992752,166.02434529992752,166.02434529992752,166.02434529992752,166.02434529992752,166.02434529992752,166.02434529992752,166.02434529992752,166.02434529992752,23,0,,,166.02434529992752,166.22469539986923,0.0,166.22469539986923,0,0.0,0,1,1000,num_1,1.1067329000215977,,37,5,2026-03-13_17h46.51.741,2026A_exp2,2022.2.4,59.97224482923885,
1000,1,6.1,0.0,0,0,43,43,58,,,,,167.3589146998711,168.00977429980412,168.00977429980412,168.4940540997777,315,315,168.4940540997777,168.4940540997777,168.4940540997777,168.4940540997777,168.4940540997777,168.4940540997777,168.4940540997777,168.4940540997777,168.4940540997777,168.86050319997594,168.86050319997594,168.86050319997594,168.86050319997594,168.86050319997594,168.86050319997594,168.86050319997594,168.86050319997594,168.86050319997594,0,1,[0.0012335998471826315],[0.3664034998510033],168.86050319997594,169.0626334999688,1000,169.0626334999688,1000,1000,1000,1000,0,num_3,0.6607333000283688,,37,5,2026-03-13_17h46.51.741,2026A_exp2,2022.2.4,59.97224482923885,
1000,1,0.0,3.7,0,0,44,44,21,,,,,169.7446626999881,170.39556309999898,170.39556309999898,170.89654369978234,45,315,170.89654369978234,170.89654369978234,170.89654369978234,170.89654369978234,170.89654369978234,170.89654369978234,170.89654369978234,170.89654369978234,170.89654369978234,171.2628779998049,171.2628779998049,171.2628779998049,171.2628779998049,171.2628779998049,171.2628779998049,171.2628779998049,171.2628779998049,171.2628779998049,23,0,,,171.2628779998049,171.46483729989268,1000,171.46483729989268,1000,1000,1000,1000,1,num_2,0.5783620001748204,,37,5,2026-03-13_17h46.51.741,2026A_exp2,2022.2.4,59.97224482923885,
0,0,6.1,0.0,1,0,45,45,25,,,,,172.06355159985833,172.71448059985414,172.71448059985414,173.2154488998931,315,315,173.2154488998931,173.2154488998931,173.2154488998931,173.2154488998931,173.2154488998931,173.2154488998931,173.2154488998931,173.2154488998931,173.2154488998931,173.5819967999123,173.5819967999123,173.5819967999123,173.5819967999123,173.5819967999123,173.5819967999123,173.5819967999123,173.5819967999123,173.5819967999123,23,0,,,173.5819967999123,173.7820856999606,6.1,173.7820856999606,1,6.1,1,1,1000,num_4,1.582239800132811,,37,5,2026-03-13_17h46.51.741,2026A_exp2,2022.2.4,59.97224482923885,
1,0,3.7,0.0,1,0,46,46,30,,,,,175.3836763999425,176.03446449991316,176.03446449991316,176.51882609981112,315,45,176.51882609981112,176.51882609981112,176.51882609981112,176.51882609981112,176.51882609981112,176.51882609981112,176.51882609981112,176.51882609981112,176.51882609981112,176.88504459988326,176.88504459988326,176.88504459988326,176.88504459988326,176.88504459988326,176.88504459988326,176.88504459988326,176.88504459988326,176.88504459988326,21,1,[0.10021629999391735],[0.13357560010626912],176.88504459988326,177.08548089978285,0.0,177.08548089978285,0,0.0,0,1,1000,num_1,1.2697187000885606,,37,5,2026-03-13_17h46.51.741,2026A_exp2,2022.2.4,59.97224482923885,
1000,1,0.0,0.0,1,0,47,47,29,,,,,178.38652509986423,179.04786399984732,179.04786399984732,179.5218018000014,315,45,179.5218018000014,179.5218018000014,179.5218018000014,179.5218018000014,179.5218018000014,179.5218018000014,179.5218018000014,179.5218018000014,179.5218018000014,179.88836280000396,179.88836280000396,179.88836280000396,179.88836280000396,179.88836280000396,179.88836280000396,179.88836280000396,179.88836280000396,179.88836280000396,23,0,,,179.88836280000396,180.09037579991855,1000,180.09037579991855,1000,1000,1000,1000,1,num_2,0.5686851001810282,,37,5,2026-03-13_17h46.51.741,2026A_exp2,2022.2.4,59.97224482923885,
1,0,0.0,0.0,1,0,48,48,33,,,,,180.68893089983612,181.33978759986348,181.33978759986348,181.84092819993384,315,45,181.84092819993384,181.84092819993384,181.84092819993384,181.84092819993384,181.84092819993384,181.84092819993384,181.84092819993384,181.84092819993384,181.84092819993384,182.20732689998113,182.20732689998113,182.20732689998113,182.20732689998113,182.20732689998113,182.20732689998113,182.20732689998113,182.20732689998113,182.20732689998113,23,0,,,182.20732689998113,182.40756859979592,0.0,182.40756859979592,1,0.0,0,0,1000,num_4,1.39666340011172,,37,5,2026-03-13_17h46.51.741,2026A_exp2,2022.2.4,59.97224482923885,
0,0,0.0,0.0,0,0,49,49,15,,,,,183.82532949978486,184.47636629990302,184.47636629990302,184.96047759987414,315,45,184.96047759987414,184.96047759987414,184.96047759987414,184.96047759987414,184.96047759987414,184.96047759987414,184.96047759987414,184.96047759987414,184.96047759987414,185.32709319982678,185.32709319982678,185.32709319982678,185.32709319982678,185.32709319982678,185.32709319982678,185.32709319982678,185.32709319982678,185.32709319982678,0,1,[0.0012366001028567553],[0.3671709999907762],185.32709319982678,185.52714789984748,0.0,185.52714789984748,0,0.0,0,1,1000,num_1,1.1725982001516968,,37,5,2026-03-13_17h46.51.741,2026A_exp2,2022.2.4,59.97224482923885,
1000,1,0.0,0.0,1,0,50,50,55,,,,,186.728371999925,187.37920519988984,187.37920519988984,187.8634881998878,45,315,187.8634881998878,187.8634881998878,187.8634881998878,187.8634881998878,187.8634881998878,187.8634881998878,187.8634881998878,187.8634881998878,187.8634881998878,188.2300849999301,188.2300849999301,188.2300849999301,188.2300849999301,188.2300849999301,188.2300849999301,188.2300849999301,188.2300849999301,188.2300849999301,17,3,"[0.033531200140714645, 0.23372170003131032, 0.3670644999947399]","[0.06688400008715689, 0.30039070011116564, 0.36706910002976656]",188.2300849999301,188.4324433999136,1000,188.4324433999136,1000,1000,1000,1000,0,num_3,1.0118306002113968,,37,5,2026-03-13_17h46.51.741,2026A_exp2,2022.2.4,59.97224482923885,
1,0,6.1,0.0,0,0,51,51,85,,,,,189.4643751999829,190.115268799942,190.115268799942,190.616102400003,45,315,190.616102400003,190.616102400003,190.616102400003,190.616102400003,190.616102400003,190.616102400003,190.616102400003,190.616102400003,190.616102400003,190.9827765999362,190.9827765999362,190.9827765999362,190.9827765999362,190.9827765999362,190.9827765999362,190.9827765999362,190.9827765999362,190.9827765999362,19,2,"[0.16713760001584888, 0.35053379996679723]","[0.20064659998752177, 0.3672017001081258]",190.9827765999362,191.18324229982682,6.1,191.18324229982682,1,6.1,1,1,1000,num_4,0.7963581001386046,,37,5,2026-03-13_17h46.51.741,2026A_exp2,2022.2.4,59.97224482923885,
1000,1,3.7,6.1,1,0,52,52,75,,,,,192.00022469996475,192.65097819990478,192.65097819990478,193.1354664999526,45,315,193.1354664999526,193.1354664999526,193.1354664999526,193.1354664999526,193.1354664999526,193.1354664999526,193.1354664999526,193.1354664999526,193.1354664999526,193.5019018999301,193.5019018999301,193.5019018999301,193.5019018999301,193.5019018999301,193.5019018999301,193.5019018999301,193.5019018999301,193.5019018999301,23,0,,,193.5019018999301,193.70373109984212,1000,193.70373109984212,1000,1000,1000,1000,1,num_2,0.6034975000657141,,37,5,2026-03-13_17h46.51.741,2026A_exp2,2022.2.4,59.97224482923885,
1,0,0.0,0.0,1,0,53,53,6,,,,,194.33596609998494,194.9867016999051,194.9867016999051,195.48766799992882,45,315,195.48766799992882,195.48766799992882,195.48766799992882,195.48766799992882,195.48766799992882,195.48766799992882,195.48766799992882,195.48766799992882,195.48766799992882,195.85429319995455,195.85429319995455,195.85429319995455,195.85429319995455,195.85429319995455,195.85429319995455,195.85429319995455,195.85429319995455,195.85429319995455,0,1,[0.0012337998487055302],[0.36721649998798966],195.85429319995455,196.05442139995284,0.0,196.05442139995284,0,0.0,0,1,1000,num_1,1.829917100025341,,37,5,2026-03-13_17h46.51.741,2026A_exp2,2022.2.4,59.97224482923885,
0,0,3.7,0.0,1,0,54,54,1,,,,,197.90618349984288,198.55698449979536,198.55698449979536,199.04143979982473,45,315,199.04143979982473,199.04143979982473,199.04143979982473,199.04143979982473,199.04143979982473,199.04143979982473,199.04143979982473,199.04143979982473,199.04143979982473,199.40786209981889,199.40786209981889,199.40786209981889,199.40786209981889,199.40786209981889,199.40786209981889,199.40786209981889,199.40786209981889,199.40786209981889,17,5,"[0.1673206000123173, 0.20069590001367033, 0.2671442998107523, 0.3174872000236064, 0.36751349992118776]","[0.1839341998565942, 0.21735789999365807, 0.2835730998776853, 0.3508607998955995, 0.36751879984512925]",199.40786209981889,199.6080626999028,3.7,199.6080626999028,1,3.7,1,1,1000,num_4,0.7240640001837164,,37,5,2026-03-13_17h46.51.741,2026A_exp2,2022.2.4,59.97224482923885,
1,0,6.1,0.0,1,0,55,55,17,,,,,200.3585790998768,201.00920919980854,201.00920919980854,201.49376300000586,315,45,201.49376300000586,201.49376300000586,201.49376300000586,201.49376300000586,201.49376300000586,201.49376300000586,201.49376300000586,201.49376300000586,201.49376300000586,201.87662729993463,201.87662729993463,201.87662729993463,201.87662729993463,201.87662729993463,201.87662729993463,201.87662729993463,201.87662729993463,201.87662729993463,10,7,"[0.017334600212052464, 0.05007280013523996, 0.1001371000893414, 0.1668004000093788, 0.20020220009610057, 0.23356660013087094, 0.34954000008292496]","[0.03349729999899864, 0.06686620018444955, 0.11680390010587871, 0.18353210017085075, 0.21657320018857718, 0.33315390022471547, 0.38294590008445084]",201.87662729993463,202.07709429995157,0.0,202.07709429995157,0,0.0,0,1,1000,num_1,0.8634106002282351,,37,5,2026-03-13_17h46.51.741,2026A_exp2,2022.2.4,59.97224482923885,
1000,1,0.0,3.7,1,0,56,56,88,,,,,202.96121839992702,203.61199099989608,203.61199099989608,204.09649869985878,315,315,204.09649869985878,204.09649869985878,204.09649869985878,204.09649869985878,204.09649869985878,204.09649869985878,204.09649869985878,204.09649869985878,204.09649869985878,204.462925999891,204.462925999891,204.462925999891,204.462925999891,204.462925999891,204.462925999891,204.462925999891,204.462925999891,204.462925999891,0,1,[0.0015198001638054848],[0.3667362001724541],204.462925999891,204.66496779979207,1000,204.66496779979207,1000,1000,1000,1000,1,num_2,0.7703858001623303,,37,5,2026-03-13_17h46.51.741,2026A_exp2,2022.2.4,59.97224482923885,
1000,1,4.9,0.0,1,0,57,57,67,,,,,205.46402829978615,206.114455799805,206.114455799805,206.59895209991373,45,45,206.59895209991373,206.59895209991373,206.59895209991373,206.59895209991373,206.59895209991373,206.59895209991373,206.59895209991373,206.59895209991373,206.59895209991373,206.9653135999106,206.9653135999106,206.9653135999106,206.9653135999106,206.9653135999106,206.9653135999106,206.9653135999106,206.9653135999106,206.9653135999106,23,0,,,206.9653135999106,207.16745609999634,1000,207.16745609999634,1000,1000,1000,1000,0,num_3,0.49281940003857017,,37,5,2026-03-13_17h46.51.741,2026A_exp2,2022.2.4,59.97224482923885,
1000,1,4.9,3.7,0,0,58,58,28,,,,,207.68268729979172,208.33329379977658,208.33329379977658,208.83457909990102,315,315,208.83457909990102,208.83457909990102,208.83457909990102,208.83457909990102,208.83457909990102,208.83457909990102,208.83457909990102,208.83457909990102,208.83457909990102,209.20099649997428,209.20099649997428,209.20099649997428,209.20099649997428,209.20099649997428,209.20099649997428,209.20099649997428,209.20099649997428,209.20099649997428,23,0,,,209.20099649997428,209.40274959988892,1000,209.40274959988892,1000,1000,1000,1000,0,num_3,0.512663499917835,,37,5,2026-03-13_17h46.51.741,2026A_exp2,2022.2.4,59.97224482923885,
1,0,0.0,4.9,0,0,59,59,32,,,,,209.93504629982635,210.58572899992578,210.58572899992578,211.08667519991286,315,315,211.08667519991286,211.08667519991286,211.08667519991286,211.08667519991286,211.08667519991286,211.08667519991286,211.08667519991286,211.08667519991286,211.08667519991286,211.45312669989653,211.45312669989653,211.45312669989653,211.45312669989653,211.45312669989653,211.45312669989653,211.45312669989653,211.45312669989653,211.45312669989653,4,2,"[0.03346229996532202, 0.20038429996930063]","[0.18363460013642907, 0.36717250011861324]",211.45312669989653,211.6570429999847,0.0,211.6570429999847,0,0.0,0,1,1000,num_1,1.891386599978432,,37,5,2026-03-13_17h46.51.741,2026A_exp2,2022.2.4,59.97224482923885,
1000,1,0.0,6.1,0,0,60,60,20,,,,,213.5718321998138,214.22265169979073,214.22265169979073,214.70713100000285,315,315,214.70713100000285,214.70713100000285,214.70713100000285,214.70713100000285,214.70713100000285,214.70713100000285,214.70713100000285,214.70713100000285,214.70713100000285,215.0733319998253,215.0733319998253,215.0733319998253,215.0733319998253,215.0733319998253,215.0733319998253,215.0733319998253,215.0733319998253,215.0733319998253,11,4,"[0.001201000064611435, 0.11706740013323724, 0.1671319999732077, 0.30059240013360977]","[0.1003444001544267, 0.1504141001496464, 0.20050489995628595, 0.31733059999533]",215.0733319998253,215.2755054999143,1000,215.2755054999143,1000,1000,1000,1000,1,num_2,0.5606627999804914,,37,5,2026-03-13_17h46.51.741,2026A_exp2,2022.2.4,59.97224482923885,
1000,1,4.9,0.0,1,0,61,61,12,,,,,215.85748569993302,216.50811269995756,216.50811269995756,217.00944409985095,315,45,217.00944409985095,217.00944409985095,217.00944409985095,217.00944409985095,217.00944409985095,217.00944409985095,217.00944409985095,217.00944409985095,217.00944409985095,217.37579409987666,217.37579409987666,217.37579409987666,217.37579409987666,217.37579409987666,217.37579409987666,217.37579409987666,217.37579409987666,217.37579409987666,23,0,,,217.37579409987666,217.57705919980071,1000,217.57705919980071,1000,1000,1000,1000,0,num_3,0.5551830001641065,,37,5,2026-03-13_17h46.51.741,2026A_exp2,2022.2.4,59.97224482923885,
1000,1,0.0,0.0,0,0,62,62,7,,,,,218.15977759985253,218.81059009977616,218.81059009977616,219.31172509980388,315,45,219.31172509980388,219.31172509980388,219.31172509980388,219.31172509980388,219.31172509980388,219.31172509980388,219.31172509980388,219.31172509980388,219.31172509980388,219.6780982997734,219.6780982997734,219.6780982997734,219.6780982997734,219.6780982997734,219.6780982997734,219.6780982997734,219.6780982997734,219.6780982997734,23,0,,,219.6780982997734,219.8800936997868,1000,219.8800936997868,1000,1000,1000,1000,0,num_3,0.6761891001369804,,37,5,2026-03-13_17h46.51.741,2026A_exp2,2022.2.4,59.97224482923885,
1,0,0.0,4.9,0,0,63,63,14,,,,,220.57886859984137,221.22985569993034,221.22985569993034,221.7305284999311,315,45,221.7305284999311,221.7305284999311,221.7305284999311,221.7305284999311,221.7305284999311,221.7305284999311,221.7305284999311,221.7305284999311,221.7305284999311,222.09718339983374,222.09718339983374,222.09718339983374,222.09718339983374,222.09718339983374,222.09718339983374,222.09718339983374,222.09718339983374,222.09718339983374,23,0,,,222.09718339983374,222.29739749990404,0.0,222.29739749990404,0,0.0,0,1,1000,num_1,1.138272400246933,,37,5,2026-03-13_17h46.51.741,2026A_exp2,2022.2.4,59.97224482923885,
1000,1,0.0,4.9,0,0,64,64,8,,,,,223.46532459999435,224.09923249995336,224.09923249995336,224.60020349989645,315,45,224.60020349989645,224.60020349989645,224.60020349989645,224.60020349989645,224.60020349989645,224.60020349989645,224.60020349989645,224.60020349989645,224.60020349989645,224.96666719997302,224.96666719997302,224.96666719997302,224.96666719997302,224.96666719997302,224.96666719997302,224.96666719997302,224.96666719997302,224.96666719997302,22,1,[0.11709499987773597],[0.13398879999294877],224.96666719997302,225.16871319990605,1000,225.16871319990605,1000,1000,1000,1000,1,num_2,0.6664423001930118,,37,5,2026-03-13_17h46.51.741,2026A_exp2,2022.2.4,59.97224482923885,
1000,1,3.7,4.9,1,0,65,65,71,,,,,225.85078209987842,226.50152559997514,226.50152559997514,226.98601699993014,45,45,226.98601699993014,226.98601699993014,226.98601699993014,226.98601699993014,226.98601699993014,226.98601699993014,226.98601699993014,226.98601699993014,226.98601699993014,227.35239419993013,227.35239419993013,227.35239419993013,227.35239419993013,227.35239419993013,227.35239419993013,227.35239419993013,227.35239419993013,227.35239419993013,12,4,"[0.033341099973767996, 0.13370219990611076, 0.23366990010254085, 0.36714249989017844]","[0.08349430002272129, 0.16699429997242987, 0.3171629998832941, 0.3671478000469506]",227.35239419993013,227.55495389993303,1000,227.55495389993303,1000,1000,1000,1000,1,num_2,1.3762568000238389,,37,5,2026-03-13_17h46.51.741,2026A_exp2,2022.2.4,59.97224482923885,
1000,1,3.7,6.1,0,0,66,66,60,,,,,228.953888699878,229.60461139981635,229.60461139981635,230.1058357998263,315,45,230.1058357998263,230.1058357998263,230.1058357998263,230.1058357998263,230.1058357998263,230.1058357998263,230.1058357998263,230.1058357998263,230.1058357998263,230.472238099901,230.472238099901,230.472238099901,230.472238099901,230.472238099901,230.472238099901,230.472238099901,230.472238099901,230.472238099901,15,6,"[0.06681789993308485, 0.10031650005839765, 0.13355450006201863, 0.21705249999649823, 0.283692300086841, 0.3503099998924881]","[0.08347199996933341, 0.11691099987365305, 0.1501986999064684, 0.23363459995016456, 0.3335611999500543, 0.367236299905926]",230.472238099901,230.6740412998479,1000,230.6740412998479,1000,1000,1000,1000,1,num_2,0.5773463002406061,,37,5,2026-03-13_17h46.51.741,2026A_exp2,2022.2.4,59.97224482923885,
0,0,6.1,0.0,0,0,67,67,41,,,,,231.27325539989397,231.9237602998037,231.9237602998037,232.40818129992113,45,315,232.40818129992113,232.40818129992113,232.40818129992113,232.40818129992113,232.40818129992113,232.40818129992113,232.40818129992113,232.40818129992113,232.40818129992113,232.77455429988913,232.77455429988913,232.77455429988913,232.77455429988913,232.77455429988913,232.77455429988913,232.77455429988913,232.77455429988913,232.77455429988913,0,1,[0.0012064999900758266],[0.36727520008571446],232.77455429988913,232.97456679982133,0.0,232.97456679982133,0,0.0,0,1,1000,num_1,0.7491249002050608,,37,5,2026-03-13_17h46.51.741,2026A_exp2,2022.2.4,59.97224482923885,
1000,1,0.0,0.0,1,0,68,68,56,,,,,233.7419235999696,234.40346209984273,234.40346209984273,234.8792334999889,45,45,234.8792334999889,234.8792334999889,234.8792334999889,234.8792334999889,234.8792334999889,234.8792334999889,234.8792334999889,234.8792334999889,234.8792334999889,235.2436567998957,235.2436567998957,235.2436567998957,235.2436567998957,235.2436567998957,235.2436567998957,235.2436567998957,235.2436567998957,235.2436567998957,0,1,[0.002137900097295642],[0.36710420018061996],235.2436567998957,235.44545409991406,1000,235.44545409991406,1000,1000,1000,1000,1,num_2,0.7816652001347393,,37,5,2026-03-13_17h46.51.741,2026A_exp2,2022.2.4,59.97224482923885,
1,0,0.0,0.0,1,0,69,69,31,,,,,236.2449715998955,236.89537329995073,236.89537329995073,237.37970559997484,315,315,237.37970559997484,237.37970559997484,237.37970559997484,237.37970559997484,237.37970559997484,237.37970559997484,237.37970559997484,237.37970559997484,237.37970559997484,237.74606149992906,237.74606149992906,237.74606149992906,237.74606149992906,237.74606149992906,237.74606149992906,237.74606149992906,237.74606149992906,237.74606149992906,15,3,"[0.04999079997651279, 0.15019129985012114, 0.25029079988598824]","[0.06691990001127124, 0.2169229998253286, 0.28368330001831055]",237.74606149992906,237.9463426999282,0.0,237.9463426999282,1,0.0,0,0,1000,num_4,1.017184500116855,,37,5,2026-03-13_17h46.51.741,2026A_exp2,2022.2.4,59.97224482923885,
1000,1,4.9,0.0,0,0,70,70,50,,,,,238.98050869978033,239.63133939984255,239.63133939984255,240.11572679993697,45,315,240.11572679993697,240.11572679993697,240.11572679993697,240.11572679993697,240.11572679993697,240.11572679993697,240.11572679993697,240.11572679993697,240.11572679993697,240.48219029977918,240.48219029977918,240.48219029977918,240.48219029977918,240.48219029977918,240.48219029977918,240.48219029977918,240.48219029977918,240.48219029977918,23,0,,,240.48219029977918,240.6843818000052,1000,240.6843818000052,1000,1000,1000,1000,0,num_3,0.503571400186047,,37,5,2026-03-13_17h46.51.741,2026A_exp2,2022.2.4,59.97224482923885,
1,0,6.1,6.1,1,0,71,71,47,,,,,241.21620239992626,241.8669408999849,241.8669408999849,242.36815799982287,45,315,242.36815799982287,242.36815799982287,242.36815799982287,242.36815799982287,242.36815799982287,242.36815799982287,242.36815799982287,242.36815799982287,242.36815799982287,242.717901899945,242.717901899945,242.717901899945,242.717901899945,242.717901899945,242.717901899945,242.717901899945,242.717901899945,242.717901899945,22,0,,,242.717901899945,242.9179642999079,6.1,242.9179642999079,1,6.1,1,1,1000,num_4,1.085408000042662,,37,5,2026-03-13_17h46.51.741,2026A_exp2,2022.2.4,59.97224482923885,
0,0,0.0,3.7,1,0,72,72,53,,,,,244.018967699958,244.6697370999027,244.6697370999027,245.1541650998406,45,45,245.1541650998406,245.1541650998406,245.1541650998406,245.1541650998406,245.1541650998406,245.1541650998406,245.1541650998406,245.1541650998406,245.1541650998406,245.52062089997344,245.52062089997344,245.52062089997344,245.52062089997344,245.52062089997344,245.52062089997344,245.52062089997344,245.52062089997344,245.52062089997344,14,4,"[0.0012827999889850616, 0.16691450006328523, 0.23360610008239746, 0.26714339992031455]","[0.017370000015944242, 0.18364170007407665, 0.2503569000400603, 0.36713659996166825]",245.52062089997344,245.72064169985242,0.0,245.72064169985242,0,0.0,0,1,1000,num_1,0.9239275001455098,,37,5,2026-03-13_17h46.51.741,2026A_exp2,2022.2.4,59.97224482923885,
1000,1,3.7,0.0,0,0,73,73,35,,,,,246.67182039981708,247.30571579979733,247.30571579979733,247.80688159982674,315,45,247.80688159982674,247.80688159982674,247.80688159982674,247.80688159982674,247.80688159982674,247.80688159982674,247.80688159982674,247.80688159982674,247.80688159982674,248.17295939987525,248.17295939987525,248.17295939987525,248.17295939987525,248.17295939987525,248.17295939987525,248.17295939987525,248.17295939987525,248.17295939987525,1,1,[0.017206600168719888],[0.36655010003596544],248.17295939987525,248.37501819990575,1000,248.37501819990575,1000,1000,1000,1000,0,num_3,0.5971054001711309,,37,5,2026-03-13_17h46.51.741,2026A_exp2,2022.2.4,59.97224482923885,
1,0,0.0,0.0,0,0,74,74,80,,,,,248.99056929978542,249.64130089990795,249.64130089990795,250.1425552999135,315,315,250.1425552999135,250.1425552999135,250.1425552999135,250.1425552999135,250.1425552999135,250.1425552999135,250.1425552999135,250.1425552999135,250.1425552999135,250.50874019996263,250.50874019996263,250.50874019996263,250.50874019996263,250.50874019996263,250.50874019996263,250.50874019996263,250.50874019996263,250.50874019996263,0,1,[0.0012413999065756798],[0.36705529992468655],250.50874019996263,250.70919119985774,0.0,250.70919119985774,1,0.0,0,0,1000,num_4,2.6305168999824673,,37,5,2026-03-13_17h46.51.741,2026A_exp2,2022.2.4,59.97224482923885,
1,0,3.7,0.0,0,0,75,75,26,,,,,253.3616183998529,254.01249449979514,254.01249449979514,254.49669849989004,45,45,254.49669849989004,254.49669849989004,254.49669849989004,254.49669849989004,254.49669849989004,254.49669849989004,254.49669849989004,254.49669849989004,254.49669849989004,254.8631978998892,254.8631978998892,254.8631978998892,254.8631978998892,254.8631978998892,254.8631978998892,254.8631978998892,254.8631978998892,254.8631978998892,23,0,,,254.8631978998892,255.06342209992,3.7,255.06342209992,1,3.7,1,1,1000,num_4,0.8357077001128346,,37,5,2026-03-13_17h46.51.741,2026A_exp2,2022.2.4,59.97224482923885,
1000,1,0.0,0.0,0,0,76,76,89,,,,,255.93098199996166,256.58163059991784,256.58163059991784,257.06608139979653,45,45,257.06608139979653,257.06608139979653,257.06608139979653,257.06608139979653,257.06608139979653,257.06608139979653,257.06608139979653,257.06608139979653,257.06608139979653,257.43251799978316,257.43251799978316,257.43251799978316,257.43251799978316,257.43251799978316,257.43251799978316,257.43251799978316,257.43251799978316,257.43251799978316,23,0,,,257.43251799978316,257.6348495997954,1000,257.6348495997954,1000,1000,1000,1000,0,num_3,0.6883416001219302,,37,5,2026-03-13_17h46.51.741,2026A_exp2,2022.2.4,59.97224482923885,
1000,1,0.0,3.7,0,0,77,77,43,,,,,258.34998619998805,259.0009530999232,259.0009530999232,259.5017085999716,315,315,259.5017085999716,259.5017085999716,259.5017085999716,259.5017085999716,259.5017085999716,259.5017085999716,259.5017085999716,259.5017085999716,259.5017085999716,259.85153309977613,259.85153309977613,259.85153309977613,259.85153309977613,259.85153309977613,259.85153309977613,259.85153309977613,259.85153309977613,259.85153309977613,22,0,,,259.85153309977613,260.05394709995016,1000,260.0684698999394,1000,1000,1000,1000,1,num_2,0.5749427000992,,37,5,2026-03-13_17h46.51.741,2026A_exp2,2022.2.4,59.97224482923885,
1,0,0.0,0.0,1,0,78,78,38,,,,,260.66905209980905,261.31971419998445,261.31971419998445,261.82089109998196,315,315,261.82089109998196,261.82089109998196,261.82089109998196,261.82089109998196,261.82089109998196,261.82089109998196,261.82089109998196,261.82089109998196,261.82089109998196,262.1873107999563,262.1873107999563,262.1873107999563,262.1873107999563,262.1873107999563,262.1873107999563,262.1873107999563,262.1873107999563,262.1873107999563,23,0,,,262.1873107999563,262.3874162998982,0.0,262.3874162998982,1,0.0,0,0,1000,num_4,0.8962026000954211,,37,5,2026-03-13_17h46.51.741,2026A_exp2,2022.2.4,59.97224482923885,
1000,1,0.0,4.9,1,0,79,79,37,,,,,263.30498099979013,263.9389643999748,263.9389643999748,264.440071699908,45,315,264.440071699908,264.440071699908,264.440071699908,264.440071699908,264.440071699908,264.440071699908,264.440071699908,264.440071699908,264.440071699908,264.8066050999332,264.8066050999332,264.8066050999332,264.8066050999332,264.8066050999332,264.8066050999332,264.8066050999332,264.8066050999332,264.8066050999332,23,0,,,264.8066050999332,265.0085143998731,1000,265.0085143998731,1000,1000,1000,1000,1,num_2,0.683260700199753,,37,5,2026-03-13_17h46.51.741,2026A_exp2,2022.2.4,59.97224482923885,
1,0,0.0,6.1,1,0,80,80,46,,,,,265.70733219990507,266.3581003998406,266.3581003998406,266.8592084997799,315,45,266.8592084997799,266.8592084997799,266.8592084997799,266.8592084997799,266.8592084997799,266.8592084997799,266.8592084997799,266.8592084997799,266.8592084997799,267.22547649987973,267.22547649987973,267.22547649987973,267.22547649987973,267.22547649987973,267.22547649987973,267.22547649987973,267.22547649987973,267.22547649987973,23,0,,,267.22547649987973,267.4259014998097,6.1,267.4259014998097,1,6.1,1,1,1000,num_4,0.5946395001374185,,37,5,2026-03-13_17h46.51.741,2026A_exp2,2022.2.4,59.97224482923885,
1000,1,0.0,6.1,0,0,81,81,61,,,,,268.04462830000557,268.69377189991064,268.69377189991064,269.19492379995063,45,45,269.19492379995063,269.19492379995063,269.19492379995063,269.19492379995063,269.19492379995063,269.19492379995063,269.19492379995063,269.19492379995063,269.19492379995063,269.5613361999858,269.5613361999858,269.5613361999858,269.5613361999858,269.5613361999858,269.5613361999858,269.5613361999858,269.5613361999858,269.5613361999858,23,0,,,269.5613361999858,269.76343779987656,1000,269.76343779987656,1000,1000,1000,1000,1,num_2,0.5518273999914527,,37,5,2026-03-13_17h46.51.741,2026A_exp2,2022.2.4,59.97224482923885,
1000,1,0.0,3.7,0,0,82,82,63,,,,,270.345332399942,270.99608039995655,270.99608039995655,271.4970648000017,45,315,271.4970648000017,271.4970648000017,271.4970648000017,271.4970648000017,271.4970648000017,271.4970648000017,271.4970648000017,271.4970648000017,271.4970648000017,271.86370459990576,271.86370459990576,271.86370459990576,271.86370459990576,271.86370459990576,271.86370459990576,271.86370459990576,271.86370459990576,271.86370459990576,23,0,,,271.86370459990576,272.0655476998072,1000,272.0655476998072,1000,1000,1000,1000,0,num_3,0.8976210001856089,,37,5,2026-03-13_17h46.51.741,2026A_exp2,2022.2.4,59.97224482923885,
0,0,3.7,0.0,0,0,83,83,18,,,,,272.9812192998361,273.6323101997841,273.6323101997841,274.13835319993086,45,45,274.13835319993086,274.13835319993086,274.13835319993086,274.13835319993086,274.13835319993086,274.13835319993086,274.13835319993086,274.13835319993086,274.13835319993086,274.48282969999127,274.48282969999127,274.48282969999127,274.48282969999127,274.48282969999127,274.48282969999127,274.48282969999127,274.48282969999127,274.48282969999127,22,0,,,274.48282969999127,274.682862999849,0.0,274.6996129998006,0,0.0,0,1,1000,num_1,1.0084213002119213,,37,5,2026-03-13_17h46.51.741,2026A_exp2,2022.2.4,59.97224482923885,
1000,1,6.1,4.9,0,0,84,84,81,,,,,275.7342768998351,276.3849843998905,276.3849843998905,276.8691046999302,315,45,276.8691046999302,276.8691046999302,276.8691046999302,276.8691046999302,276.8691046999302,276.8691046999302,276.8691046999302,276.8691046999302,276.8691046999302,277.23560999985784,277.23560999985784,277.23560999985784,277.23560999985784,277.23560999985784,277.23560999985784,277.23560999985784,277.23560999985784,277.23560999985784,23,0,,,277.23560999985784,277.4376160998363,1000,277.4376160998363,1000,1000,1000,1000,1,num_2,1.1504064002074301,,37,5,2026-03-13_17h46.51.741,2026A_exp2,2022.2.4,59.97224482923885,
1,0,0.0,4.9,0,0,85,85,70,,,,,278.6036694999784,279.2543309999164,279.2543309999164,279.75535519979894,45,45,279.75535519979894,279.75535519979894,279.75535519979894,279.75535519979894,279.75535519979894,279.75535519979894,279.75535519979894,279.75535519979894,279.75535519979894,280.1217883999925,280.1217883999925,280.1217883999925,280.1217883999925,280.1217883999925,280.1217883999925,280.1217883999925,280.1217883999925,280.1217883999925,23,0,,,280.1217883999925,280.32196119986475,0.0,280.32196119986475,0,0.0,0,1,1000,num_1,0.986275200266391,,37,5,2026-03-13_17h46.51.741,2026A_exp2,2022.2.4,59.97224482923885,
1000,1,0.0,6.1,0,0,86,86,16,,,,,281.3395818998106,281.99031879985705,281.99031879985705,282.47499969997443,315,45,282.47499969997443,282.47499969997443,282.47499969997443,282.47499969997443,282.47499969997443,282.47499969997443,282.47499969997443,282.47499969997443,282.47499969997443,282.8577933998313,282.8577933998313,282.8577933998313,282.8577933998313,282.8577933998313,282.8577933998313,282.8577933998313,282.8577933998313,282.8577933998313,17,5,"[0.03322540014050901, 0.08393290010280907, 0.11721900012344122, 0.16725870012305677, 0.20057009998708963]","[0.06683470006100833, 0.100574100157246, 0.1506717000156641, 0.1840133999940008, 0.2173107999842614]",282.8577933998313,283.0597556999419,1000,283.0597556999419,1000,1000,1000,1000,1,num_2,0.5674974001012743,,37,5,2026-03-13_17h46.51.741,2026A_exp2,2022.2.4,59.97224482923885,
1000,1,0.0,0.0,0,0,87,87,57,,,,,283.6587186998222,284.30945049994625,284.30945049994625,284.8103260998614,45,315,284.8103260998614,284.8103260998614,284.8103260998614,284.8103260998614,284.8103260998614,284.8103260998614,284.8103260998614,284.8103260998614,284.8103260998614,285.1602542998735,285.1602542998735,285.1602542998735,285.1602542998735,285.1602542998735,285.1602542998735,285.1602542998735,285.1602542998735,285.1602542998735,22,0,,,285.1602542998735,285.3625005998183,1000,285.3625005998183,1000,1000,1000,1000,0,num_3,0.7045265000779182,,37,5,2026-03-13_17h46.51.741,2026A_exp2,2022.2.4,59.97224482923885,
1,0,4.9,0.0,1,0,88,88,34,,,,,286.0945928997826,286.7452310998924,286.7452310998924,287.2294643998612,45,45,287.2294643998612,287.2294643998612,287.2294643998612,287.2294643998612,287.2294643998612,287.2294643998612,287.2294643998612,287.2294643998612,287.2294643998612,287.5960600997787,287.5960600997787,287.5960600997787,287.5960600997787,287.5960600997787,287.5960600997787,287.5960600997787,287.5960600997787,287.5960600997787,23,0,,,287.5960600997787,287.7961688998621,0.0,287.7961688998621,0,0.0,0,1,1000,num_1,1.0396902998909354,,37,5,2026-03-13_17h46.51.741,2026A_exp2,2022.2.4,59.97224482923885,
1000,1,0.0,4.9,0,0,89,89,0,,,,,288.8638927999418,289.5146254999563,289.5146254999563,289.9989825999364,45,45,289.9989825999364,289.9989825999364,289.9989825999364,289.9989825999364,289.9989825999364,289.9989825999364,289.9989825999364,289.9989825999364,289.9989825999364,290.3653633999638,290.3653633999638,290.3653633999638,290.3653633999638,290.3653633999638,290.3653633999638,290.3653633999638,290.3653633999638,290.3653633999638,23,0,,,290.3653633999638,290.5674596999306,1000,290.5674596999306,1000,1000,1000,1000,1,num_2,0.5408039002213627,,37,5,2026-03-13_17h46.51.741,2026A_exp2,2022.2.4,59.97224482923885,
,,,,,,,,,,,,,,,,,,,,,,,,,,,,,,,,,,,,,,,,,,,,,,,,,,,,291.14092059992254,,,,,,,
