validity,detectorcomp,contrastCW,contrastCCW,precueCWorCCW,block_80trials.thisRepN,block_80trials.thisTrialN,block_80trials.thisN,block_80trials.thisIndex,etRecord.started,etRecord.stopped,text.started,text.stopped,text_4.started,text_4.stopped,text_6.started,text_6.stopped,oriCW,oriCCW,roi_2.started,grating_UR.started,grating_UL.started,grating_LR.started,grating_LL.started,noise_UR.started,noise_UL.started,noise_LR.started,noise_LL.started,roi_2.stopped,grating_UR.stopped,grating_UL.stopped,grating_LR.stopped,grating_LL.stopped,noise_UR.stopped,noise_UL.stopped,noise_LR.stopped,noise_LL.stopped,outframe,roi_2.numLooks,roi_2.timesOn,roi_2.timesOff,text_2.started,text_2.stopped,probedcontrast,key_resp.started,respdetect,relevantContrast,correctDetect,TorFdetect,respCWorCCW,key_resp.keys,key_resp.rt,feedback_display_.started,participantNo,blockNo,date,expName,psychopyVersion,frameRate,
1,0,3.7,6.1,0,0,0,0,55,3.2700132578611374e-05,3.2700132578611374e-05,54.01177030010149,56.03329770010896,56.03329770010896,56.666832000017166,56.666832000017166,57.16783250006847,315,315,57.16783250006847,57.16783250006847,57.16783250006847,57.16783250006847,57.16783250006847,57.16783250006847,57.16783250006847,57.16783250006847,57.16783250006847,57.533813500078395,57.533813500078395,57.533813500078395,57.533813500078395,57.533813500078395,57.533813500078395,57.533813500078395,57.533813500078395,57.533813500078395,24,0,,,57.533813500078395,57.73407740006223,3.7,57.73407740006223,0,3.7,1,0,1000,num_1,0.49054670007899404,,35,16,2026-03-13_14h43.50.230,2026A_exp2,2022.2.4,59.60964032097722,
1,0,3.7,0.0,1,0,1,1,59,,,,,58.25097030005418,58.901796700200066,58.901796700200066,59.38632030016743,315,315,59.38632030016743,59.38632030016743,59.38632030016743,59.38632030016743,59.38632030016743,59.38632030016743,59.38632030016743,59.38632030016743,59.38632030016743,59.75252189999446,59.75252189999446,59.75252189999446,59.75252189999446,59.75252189999446,59.75252189999446,59.75252189999446,59.75252189999446,59.75252189999446,18,3,"[0.13359920005314052, 0.30029319995082915, 0.3505126000382006]","[0.15040290006436408, 0.317166400142014, 0.3673672000877559]",59.75252189999446,59.952764600049704,0.0,59.952764600049704,0,0.0,0,1,1000,num_1,0.3850416000932455,,35,16,2026-03-13_14h43.50.230,2026A_exp2,2022.2.4,59.60964032097722,
1000,1,0.0,4.9,0,0,2,2,9,,,,,60.36998860002495,61.020572600187734,61.020572600187734,61.50504990015179,45,45,61.50504990015179,61.50504990015179,61.50504990015179,61.50504990015179,61.50504990015179,61.50504990015179,61.50504990015179,61.50504990015179,61.50504990015179,61.871397900162265,61.871397900162265,61.871397900162265,61.871397900162265,61.871397900162265,61.871397900162265,61.871397900162265,61.871397900162265,61.871397900162265,13,5,"[0.017491500126197934, 0.06704360013827682, 0.21704350016079843, 0.267313500167802, 0.3673334000632167]","[0.03371730004437268, 0.10018710000440478, 0.2504504001699388, 0.3338699999731034, 0.3673384999856353]",61.871397900162265,62.07669540005736,1000,62.07669540005736,1000,1000,1000,1000,0,num_3,0.5012650999706239,,35,16,2026-03-13_14h43.50.230,2026A_exp2,2022.2.4,59.60964032097722,
1000,1,6.1,3.7,0,0,3,3,61,,,,,62.60548819997348,63.25611390010454,63.25611390010454,63.75736470008269,45,45,63.75736470008269,63.75736470008269,63.75736470008269,63.75736470008269,63.75736470008269,63.75736470008269,63.75736470008269,63.75736470008269,63.75736470008269,64.12375250016339,64.12375250016339,64.12375250016339,64.12375250016339,64.12375250016339,64.12375250016339,64.12375250016339,64.12375250016339,64.12375250016339,12,6,"[0.033701200038194656, 0.06696480000391603, 0.16711929999291897, 0.20056350016966462, 0.3172009000554681, 0.36725420015864074]","[0.05024680006317794, 0.08382109995000064, 0.1837778000626713, 0.284056399948895, 0.35067650000564754, 0.36725910007953644]",64.12375250016339,64.32542530004866,1000,64.32542530004866,1000,1000,1000,1000,0,num_3,0.3642043999861926,,35,16,2026-03-13_14h43.50.230,2026A_exp2,2022.2.4,59.60964032097722,
1,0,6.1,6.1,1,0,4,4,89,,,,,64.70780099998228,65.35835240012966,65.35835240012966,65.85935360006988,45,45,65.85935360006988,65.85935360006988,65.85935360006988,65.85935360006988,65.85935360006988,65.85935360006988,65.85935360006988,65.85935360006988,65.85935360006988,66.20910260011442,66.20910260011442,66.20910260011442,66.20910260011442,66.20910260011442,66.20910260011442,66.20910260011442,66.20910260011442,66.20910260011442,4,3,"[0.0012428001500666142, 0.2674794001504779, 0.3175057000480592]","[0.2508765000384301, 0.2840690000448376, 0.3512039000634104]",66.20910260011442,66.40924330009148,6.1,66.40924330009148,0,6.1,1,0,1000,num_1,0.5200956000480801,,35,16,2026-03-13_14h43.50.230,2026A_exp2,2022.2.4,59.60964032097722,
1000,1,4.9,4.9,1,0,5,5,60,,,,,66.95976940006949,67.61052460013889,67.61052460013889,68.11164220003411,315,315,68.11164220003411,68.11164220003411,68.11164220003411,68.11164220003411,68.11164220003411,68.11164220003411,68.11164220003411,68.11164220003411,68.11164220003411,68.46140070003457,68.46140070003457,68.46140070003457,68.46140070003457,68.46140070003457,68.46140070003457,68.46140070003457,68.46140070003457,68.46140070003457,15,4,"[0.001288499915972352, 0.06695989985018969, 0.23372649983502924, 0.3172062998637557]","[0.017348199849948287, 0.10052959993481636, 0.2838702998124063, 0.33382329996675253]",68.46140070003457,68.66340800002217,1000,68.66340800002217,1000,1000,1000,1000,0,num_3,0.42637250013649464,,35,16,2026-03-13_14h43.50.230,2026A_exp2,2022.2.4,59.60964032097722,
1,0,0.0,3.7,0,0,6,6,22,,,,,69.11205800017342,69.76279240008444,69.76279240008444,70.26388240000233,315,315,70.26388240000233,70.26388240000233,70.26388240000233,70.26388240000233,70.26388240000233,70.26388240000233,70.26388240000233,70.26388240000233,70.26388240000233,70.6303011002019,70.6303011002019,70.6303011002019,70.6303011002019,70.6303011002019,70.6303011002019,70.6303011002019,70.6303011002019,70.6303011002019,16,4,"[0.10023940005339682, 0.1336070999968797, 0.28368310001678765, 0.3338289000093937]","[0.11696649994701147, 0.16699180006980896, 0.30018380004912615, 0.3670590999536216]",70.6303011002019,70.83029870013706,0.0,70.83029870013706,0,0.0,0,1,1000,num_1,0.44256160012446344,,35,16,2026-03-13_14h43.50.230,2026A_exp2,2022.2.4,59.60964032097722,
1,0,0.0,6.1,0,0,7,7,72,,,,,71.29778150003403,71.94820470013656,71.94820470013656,72.4324489000719,45,315,72.4324489000719,72.4324489000719,72.4324489000719,72.4324489000719,72.4324489000719,72.4324489000719,72.4324489000719,72.4324489000719,72.4324489000719,72.79905090015382,72.79905090015382,72.79905090015382,72.79905090015382,72.79905090015382,72.79905090015382,72.79905090015382,72.79905090015382,72.79905090015382,23,0,,,72.79905090015382,72.99920920003206,0.0,72.99920920003206,0,0.0,0,1,1000,num_1,0.4179227000568062,,35,16,2026-03-13_14h43.50.230,2026A_exp2,2022.2.4,59.60964032097722,
1000,1,0.0,0.0,0,0,8,8,47,,,,,73.44975150004029,74.10040670004673,74.10040670004673,74.58459350001067,45,45,74.58459350001067,74.58459350001067,74.58459350001067,74.58459350001067,74.58459350001067,74.58459350001067,74.58459350001067,74.58459350001067,74.58459350001067,74.95123500004411,74.95123500004411,74.95123500004411,74.95123500004411,74.95123500004411,74.95123500004411,74.95123500004411,74.95123500004411,74.95123500004411,23,0,,,74.95123500004411,75.15338849998079,1000,75.15338849998079,1000,1000,1000,1000,1,num_2,0.5364473999943584,,35,16,2026-03-13_14h43.50.230,2026A_exp2,2022.2.4,59.60964032097722,
1000,1,6.1,0.0,0,0,9,9,68,,,,,75.71860370016657,76.36933790007606,76.36933790007606,76.87049330002628,45,45,76.87049330002628,76.87049330002628,76.87049330002628,76.87049330002628,76.87049330002628,76.87049330002628,76.87049330002628,76.87049330002628,76.87049330002628,77.23689890000969,77.23689890000969,77.23689890000969,77.23689890000969,77.23689890000969,77.23689890000969,77.23689890000969,77.23689890000969,77.23689890000969,20,2,"[0.0012337998487055302, 0.08352490002289414]","[0.017544399946928024, 0.10013079992495477]",77.23689890000969,77.4386651001405,1000,77.4386651001405,1000,1000,1000,1000,0,num_3,0.21837690006941557,,35,16,2026-03-13_14h43.50.230,2026A_exp2,2022.2.4,59.60964032097722,
1000,1,0.0,0.0,1,0,10,10,62,,,,,77.6872193000745,78.33801010018215,78.33801010018215,78.83907450013794,315,45,78.83907450013794,78.83907450013794,78.83907450013794,78.83907450013794,78.83907450013794,78.83907450013794,78.83907450013794,78.83907450013794,78.83907450013794,79.20549149997532,79.20549149997532,79.20549149997532,79.20549149997532,79.20549149997532,79.20549149997532,79.20549149997532,79.20549149997532,79.20549149997532,23,0,,,79.20549149997532,79.40754410019144,1000,79.40754410019144,1000,1000,1000,1000,1,num_2,0.08112090011127293,,35,16,2026-03-13_14h43.50.230,2026A_exp2,2022.2.4,59.60964032097722,
1000,1,3.7,3.7,1,0,11,11,88,,,,,79.50567930005491,80.1564609000925,80.1564609000925,80.65760769997723,315,45,80.65760769997723,80.65760769997723,80.65760769997723,80.65760769997723,80.65760769997723,80.65760769997723,80.65760769997723,80.65760769997723,80.65760769997723,81.0239093999844,81.0239093999844,81.0239093999844,81.0239093999844,81.0239093999844,81.0239093999844,81.0239093999844,81.0239093999844,81.0239093999844,23,0,,,81.0239093999844,81.22597280004993,1000,81.22597280004993,1000,1000,1000,1000,0,num_3,0.07932899985462427,,35,16,2026-03-13_14h43.50.230,2026A_exp2,2022.2.4,59.60964032097722,
1000,1,6.1,4.9,0,0,12,12,77,,,,,81.32422489998862,81.97476540016942,81.97476540016942,82.47605739999563,315,45,82.47605739999563,82.47605739999563,82.47605739999563,82.47605739999563,82.47605739999563,82.47605739999563,82.47605739999563,82.47605739999563,82.47605739999563,82.84249170008115,82.84249170008115,82.84249170008115,82.84249170008115,82.84249170008115,82.84249170008115,82.84249170008115,82.84249170008115,82.84249170008115,19,4,"[0.0012117000296711922, 0.1670045000500977, 0.26753050019033253, 0.31721180002205074]","[0.01748630008660257, 0.18360280012711883, 0.2836671001277864, 0.3337419000454247]",82.84249170008115,83.04402630007826,1000,83.04402630007826,1000,1000,1000,1000,0,num_3,0.23746769991703331,,35,16,2026-03-13_14h43.50.230,2026A_exp2,2022.2.4,59.60964032097722,
1,0,6.1,0.0,1,0,13,13,38,,,,,83.30959980003536,83.96012699999847,83.96012699999847,84.4614004001487,45,315,84.4614004001487,84.4614004001487,84.4614004001487,84.4614004001487,84.4614004001487,84.4614004001487,84.4614004001487,84.4614004001487,84.4614004001487,84.82779690017924,84.82779690017924,84.82779690017924,84.82779690017924,84.82779690017924,84.82779690017924,84.82779690017924,84.82779690017924,84.82779690017924,21,1,[0.28337349998764694],[0.3169998999219388],84.82779690017924,85.0279417000711,0.0,85.0279417000711,0,0.0,0,1,1000,num_1,0.9652874001767486,,35,16,2026-03-13_14h43.50.230,2026A_exp2,2022.2.4,59.60964032097722,
1000,1,0.0,0.0,1,0,14,14,42,,,,,86.01209740014747,86.66307850019075,86.66307850019075,87.14732730016112,315,315,87.14732730016112,87.14732730016112,87.14732730016112,87.14732730016112,87.14732730016112,87.14732730016112,87.14732730016112,87.14732730016112,87.14732730016112,87.51379130012356,87.51379130012356,87.51379130012356,87.51379130012356,87.51379130012356,87.51379130012356,87.51379130012356,87.51379130012356,87.51379130012356,23,0,,,87.51379130012356,87.71611060015857,1000,87.71611060015857,1000,1000,1000,1000,0,num_3,0.1492109999526292,,35,16,2026-03-13_14h43.50.230,2026A_exp2,2022.2.4,59.60964032097722,
1000,1,0.0,3.7,1,0,15,15,75,,,,,87.88071880000643,88.53143119998276,88.53143119998276,89.03250359999947,315,45,89.03250359999947,89.03250359999947,89.03250359999947,89.03250359999947,89.03250359999947,89.03250359999947,89.03250359999947,89.03250359999947,89.03250359999947,89.3990696000401,89.3990696000401,89.3990696000401,89.3990696000401,89.3990696000401,89.3990696000401,89.3990696000401,89.3990696000401,89.3990696000401,8,5,"[0.001240499783307314, 0.05029689986258745, 0.1673464998602867, 0.2337726999539882, 0.28387139993719757]","[0.0335360998287797, 0.15026779985055327, 0.20036229980178177, 0.2503833998925984, 0.3338281998876482]",89.3990696000401,89.60084170009941,1000,89.60084170009941,1000,1000,1000,1000,1,num_2,0.0730447000823915,,35,16,2026-03-13_14h43.50.230,2026A_exp2,2022.2.4,59.60964032097722,
1,0,3.7,3.7,1,0,16,16,64,,,,,89.69933520001359,90.34999440005049,90.34999440005049,90.85106690018438,315,45,90.85106690018438,90.85106690018438,90.85106690018438,90.85106690018438,90.85106690018438,90.85106690018438,90.85106690018438,90.85106690018438,90.85106690018438,91.21764970012009,91.21764970012009,91.21764970012009,91.21764970012009,91.21764970012009,91.21764970012009,91.21764970012009,91.21764970012009,91.21764970012009,20,2,"[0.11694460012950003, 0.26705919997766614]","[0.15029210015200078, 0.3003711001947522]",91.21764970012009,91.4176443000324,3.7,91.4176443000324,0,3.7,1,0,1000,num_1,0.6552112000063062,,35,16,2026-03-13_14h43.50.230,2026A_exp2,2022.2.4,59.60964032097722,
1000,1,6.1,0.0,0,0,17,17,8,,,,,92.10180730000138,92.73563650017604,92.73563650017604,93.23670310014859,45,315,93.23670310014859,93.23670310014859,93.23670310014859,93.23670310014859,93.23670310014859,93.23670310014859,93.23670310014859,93.23670310014859,93.23670310014859,93.6032585001085,93.6032585001085,93.6032585001085,93.6032585001085,93.6032585001085,93.6032585001085,93.6032585001085,93.6032585001085,93.6032585001085,20,2,"[0.017280400032177567, 0.11674219998531044]","[0.05011390009894967, 0.1337107999715954]",93.6032585001085,93.80547390016727,1000,93.80547390016727,1000,1000,1000,1000,0,num_3,0.05121309985406697,,35,16,2026-03-13_14h43.50.230,2026A_exp2,2022.2.4,59.60964032097722,
1,0,0.0,0.0,1,0,18,18,53,,,,,93.88674110011198,94.53743390017189,94.53743390017189,95.03857880015858,315,45,95.03857880015858,95.03857880015858,95.03857880015858,95.03857880015858,95.03857880015858,95.03857880015858,95.03857880015858,95.03857880015858,95.03857880015858,95.40494000003673,95.40494000003673,95.40494000003673,95.40494000003673,95.40494000003673,95.40494000003673,95.40494000003673,95.40494000003673,95.40494000003673,21,1,[0.15025169984437525],[0.18377289990894496],95.40494000003673,95.60508800018579,0.0,95.60508800018579,0,0.0,0,1,1000,num_1,0.5237084999680519,,35,16,2026-03-13_14h43.50.230,2026A_exp2,2022.2.4,59.60964032097722,
1000,1,3.7,6.1,0,0,19,19,81,,,,,96.15562520013191,96.80642560007982,96.80642560007982,97.29074600012973,45,45,97.29074600012973,97.29074600012973,97.29074600012973,97.29074600012973,97.29074600012973,97.29074600012973,97.29074600012973,97.29074600012973,97.29074600012973,97.65732100000605,97.65732100000605,97.65732100000605,97.65732100000605,97.65732100000605,97.65732100000605,97.65732100000605,97.65732100000605,97.65732100000605,14,5,"[0.001272199908271432, 0.11675469996407628, 0.21682480000890791, 0.2667958000674844, 0.35049109999090433]","[0.033448100090026855, 0.13355490006506443, 0.2336633000522852, 0.3170344999525696, 0.36713559995405376]",97.65732100000605,97.85917210020125,1000,97.85917210020125,1000,1000,1000,1000,0,num_3,0.24554320005699992,,35,16,2026-03-13_14h43.50.230,2026A_exp2,2022.2.4,59.60964032097722,
1,0,0.0,3.7,1,0,20,20,25,,,,,98.1242826001253,98.77500010002404,98.77500010002404,99.2761637000367,45,315,99.2761637000367,99.2761637000367,99.2761637000367,99.2761637000367,99.2761637000367,99.2761637000367,99.2761637000367,99.2761637000367,99.2761637000367,99.64259529998526,99.64259529998526,99.64259529998526,99.64259529998526,99.64259529998526,99.64259529998526,99.64259529998526,99.64259529998526,99.64259529998526,19,3,"[0.0012437999248504639, 0.06697609997354448, 0.3506992000620812]","[0.01752589992247522, 0.10047439998015761, 0.36725839995779097]",99.64259529998526,99.84265190013684,3.7,99.84265190013684,0,3.7,1,0,1000,num_1,0.150560500100255,,35,16,2026-03-13_14h43.50.230,2026A_exp2,2022.2.4,59.60964032097722,
1000,1,4.9,3.7,1,0,21,21,14,,,,,100.00943420012482,100.66017820010893,100.66017820010893,101.161429699976,45,315,101.161429699976,101.161429699976,101.161429699976,101.161429699976,101.161429699976,101.161429699976,101.161429699976,101.161429699976,101.161429699976,101.51115799997933,101.51115799997933,101.51115799997933,101.51115799997933,101.51115799997933,101.51115799997933,101.51115799997933,101.51115799997933,101.51115799997933,5,5,"[0.0013311998918652534, 0.05003089993260801, 0.10028529982082546, 0.21688879979774356, 0.25025869999080896]","[0.03348939982242882, 0.06670279987156391, 0.20036459993571043, 0.23358119977638125, 0.3504206999205053]",101.51115799997933,101.71320750005543,1000,101.71320750005543,1000,1000,1000,1000,0,num_3,0.11182529991492629,,35,16,2026-03-13_14h43.50.230,2026A_exp2,2022.2.4,59.60964032097722,
1000,1,3.7,3.7,0,0,22,22,16,,,,,101.84469710011035,102.4955246001482,102.4955246001482,102.99656090000644,45,45,102.99656090000644,102.99656090000644,102.99656090000644,102.99656090000644,102.99656090000644,102.99656090000644,102.99656090000644,102.99656090000644,102.99656090000644,103.36299190018326,103.36299190018326,103.36299190018326,103.36299190018326,103.36299190018326,103.36299190018326,103.36299190018326,103.36299190018326,103.36299190018326,23,0,,,103.36299190018326,103.56518819998018,1000,103.56518819998018,1000,1000,1000,1000,0,num_3,0.23675300017930567,,35,16,2026-03-13_14h43.50.230,2026A_exp2,2022.2.4,59.60964032097722,
1000,1,0.0,3.7,0,0,23,23,32,,,,,103.82998460019007,104.48051959997974,104.48051959997974,104.9818874001503,315,315,104.9818874001503,104.9818874001503,104.9818874001503,104.9818874001503,104.9818874001503,104.9818874001503,104.9818874001503,104.9818874001503,104.9818874001503,105.34829660016112,105.34829660016112,105.34829660016112,105.34829660016112,105.34829660016112,105.34829660016112,105.34829660016112,105.34829660016112,105.34829660016112,15,3,"[0.05012680008076131, 0.18372620013542473, 0.2670341001357883]","[0.13354189996607602, 0.2170776000712067, 0.2836911000777036]",105.34829660016112,105.55039900005795,1000,105.55039900005795,1000,1000,1000,1000,1,num_2,0.5066179998684675,,35,16,2026-03-13_14h43.50.230,2026A_exp2,2022.2.4,59.60964032097722,
1000,1,6.1,6.1,0,0,24,24,56,,,,,106.08235789998434,106.73294100002386,106.73294100002386,107.23407120001502,45,315,107.23407120001502,107.23407120001502,107.23407120001502,107.23407120001502,107.23407120001502,107.23407120001502,107.23407120001502,107.23407120001502,107.23407120001502,107.60063640004955,107.60063640004955,107.60063640004955,107.60063640004955,107.60063640004955,107.60063640004955,107.60063640004955,107.60063640004955,107.60063640004955,23,0,,,107.60063640004955,107.80258660018444,1000,107.80258660018444,1000,1000,1000,1000,0,num_3,0.1435005001258105,,35,16,2026-03-13_14h43.50.230,2026A_exp2,2022.2.4,59.60964032097722,
1,0,0.0,4.9,1,0,25,25,65,,,,,107.96735300007276,108.61811260017566,108.61811260017566,109.11930350004695,45,45,109.11930350004695,109.11930350004695,109.11930350004695,109.11930350004695,109.11930350004695,109.11930350004695,109.11930350004695,109.11930350004695,109.11930350004695,109.48575350013562,109.48575350013562,109.48575350013562,109.48575350013562,109.48575350013562,109.48575350013562,109.48575350013562,109.48575350013562,109.48575350013562,6,3,"[0.0012052999809384346, 0.08353199996054173, 0.16772220004349947]","[0.0174002000130713, 0.13352799997664988, 0.36719619994983077]",109.48575350013562,109.68596440018155,4.9,109.68596440018155,0,4.9,1,0,1000,num_1,0.27489469991996884,,35,16,2026-03-13_14h43.50.230,2026A_exp2,2022.2.4,59.60964032097722,
1,0,4.9,0.0,1,0,26,26,15,,,,,109.98611490009353,110.636984199984,110.636984199984,111.12138790008612,45,315,111.12138790008612,111.12138790008612,111.12138790008612,111.12138790008612,111.12138790008612,111.12138790008612,111.12138790008612,111.12138790008612,111.12138790008612,111.48761530010961,111.48761530010961,111.48761530010961,111.48761530010961,111.48761530010961,111.48761530010961,111.48761530010961,111.48761530010961,111.48761530010961,3,2,"[0.0011935001239180565, 0.31689320015721023]","[0.3002701001241803, 0.35029740002937615]",111.48761530010961,111.68798200017773,0.0,111.68798200017773,1,0.0,0,0,1000,num_4,0.5779534999746829,,35,16,2026-03-13_14h43.50.230,2026A_exp2,2022.2.4,59.60964032097722,
1000,1,6.1,6.1,0,0,27,27,74,,,,,112.28845930006355,112.93922560010105,112.93922560010105,113.44026030017994,45,315,113.44026030017994,113.44026030017994,113.44026030017994,113.44026030017994,113.44026030017994,113.44026030017994,113.44026030017994,113.44026030017994,113.44026030017994,113.78993940004148,113.78993940004148,113.78993940004148,113.78993940004148,113.78993940004148,113.78993940004148,113.78993940004148,113.78993940004148,113.78993940004148,22,0,,,113.78993940004148,113.99236230016686,1000,113.99236230016686,1000,1000,1000,1000,0,num_3,0.3365883999504149,,35,16,2026-03-13_14h43.50.230,2026A_exp2,2022.2.4,59.60964032097722,
1000,1,3.7,0.0,1,0,28,28,33,,,,,114.35720159998164,115.00798520003445,115.00798520003445,115.5090936999768,45,45,115.5090936999768,115.5090936999768,115.5090936999768,115.5090936999768,115.5090936999768,115.5090936999768,115.5090936999768,115.5090936999768,115.5090936999768,115.87551430007443,115.87551430007443,115.87551430007443,115.87551430007443,115.87551430007443,115.87551430007443,115.87551430007443,115.87551430007443,115.87551430007443,0,1,[0.001200699945911765],[0.36711729993112385],115.87551430007443,116.07751119998284,1000,116.07751119998284,1000,1000,1000,1000,0,num_3,0.3478232999332249,,35,16,2026-03-13_14h43.50.230,2026A_exp2,2022.2.4,59.60964032097722,
1,0,6.1,0.0,1,0,29,29,54,,,,,116.4425888999831,117.0933689000085,117.0933689000085,117.59418920008466,315,45,117.59418920008466,117.59418920008466,117.59418920008466,117.59418920008466,117.59418920008466,117.59418920008466,117.59418920008466,117.59418920008466,117.59418920008466,117.94483880000189,117.94483880000189,117.94483880000189,117.94483880000189,117.94483880000189,117.94483880000189,117.94483880000189,117.94483880000189,117.94483880000189,21,1,[0.16757609997875988],[0.18429709994234145],117.94483880000189,118.1471607000567,0.0,118.16127340006642,0,0.0,0,1,1000,num_1,0.4088200000114739,,35,16,2026-03-13_14h43.50.230,2026A_exp2,2022.2.4,59.60964032097722,
1,0,6.1,6.1,0,0,30,30,51,,,,,118.59480940015055,119.25588670000434,119.25588670000434,119.75090069998987,45,315,119.75090069998987,119.75090069998987,119.75090069998987,119.75090069998987,119.75090069998987,119.75090069998987,119.75090069998987,119.75090069998987,119.75090069998987,120.0964369000867,120.0964369000867,120.0964369000867,120.0964369000867,120.0964369000867,120.0964369000867,120.0964369000867,120.0964369000867,120.0964369000867,22,0,,,120.0964369000867,120.29670880013146,6.1,120.29670880013146,1,6.1,1,1,1000,num_4,0.6091767000034451,,35,16,2026-03-13_14h43.50.230,2026A_exp2,2022.2.4,59.60964032097722,
1,0,3.7,4.9,0,0,31,31,84,,,,,120.93030710006133,121.58117890008725,121.58117890008725,122.06565530016087,315,315,122.06565530016087,122.06565530016087,122.06565530016087,122.06565530016087,122.06565530016087,122.06565530016087,122.06565530016087,122.06565530016087,122.06565530016087,122.43202680000104,122.43202680000104,122.43202680000104,122.43202680000104,122.43202680000104,122.43202680000104,122.43202680000104,122.43202680000104,122.43202680000104,2,2,"[0.001379600027576089, 0.30039949994534254]","[0.26697629992850125, 0.3670194000005722]",122.43202680000104,122.6321440001484,3.7,122.6321440001484,1,3.7,1,1,1000,num_4,0.3937702998518944,,35,16,2026-03-13_14h43.50.230,2026A_exp2,2022.2.4,59.60964032097722,
1000,1,4.9,4.9,0,0,32,32,34,,,,,123.04915029997937,123.69982270011678,123.69982270011678,124.18441070010886,315,315,124.18441070010886,124.18441070010886,124.18441070010886,124.18441070010886,124.18441070010886,124.18441070010886,124.18441070010886,124.18441070010886,124.18441070010886,124.55076910019852,124.55076910019852,124.55076910019852,124.55076910019852,124.55076910019852,124.55076910019852,124.55076910019852,124.55076910019852,124.55076910019852,23,0,,,124.55076910019852,124.7520960001275,1000,124.7520960001275,1000,1000,1000,1000,0,num_3,0.3447291001211852,,35,16,2026-03-13_14h43.50.230,2026A_exp2,2022.2.4,59.60964032097722,
1,0,0.0,0.0,0,0,33,33,19,,,,,125.11818750016391,125.76870090002194,125.76870090002194,126.25315970019437,45,315,126.25315970019437,126.25315970019437,126.25315970019437,126.25315970019437,126.25315970019437,126.25315970019437,126.25315970019437,126.25315970019437,126.25315970019437,126.61943259998225,126.61943259998225,126.61943259998225,126.61943259998225,126.61943259998225,126.61943259998225,126.61943259998225,126.61943259998225,126.61943259998225,23,0,,,126.61943259998225,126.82109740003943,0.0,126.82109740003943,0,0.0,0,1,1000,num_1,0.5398026998154819,,35,16,2026-03-13_14h43.50.230,2026A_exp2,2022.2.4,59.60964032097722,
1000,1,4.9,0.0,0,0,34,34,78,,,,,127.3867154000327,128.03757350007072,128.03757350007072,128.52210030006245,45,45,128.52210030006245,128.52210030006245,128.52210030006245,128.52210030006245,128.52210030006245,128.52210030006245,128.52210030006245,128.52210030006245,128.52210030006245,128.88846060005017,128.88846060005017,128.88846060005017,128.88846060005017,128.88846060005017,128.88846060005017,128.88846060005017,128.88846060005017,128.88846060005017,13,5,"[0.017402300145477057, 0.15037439996376634, 0.2002746001817286, 0.2504374000709504, 0.35049720015376806]","[0.0668240999802947, 0.18351140012964606, 0.2337029001209885, 0.2670660000294447, 0.36694910004734993]",128.88846060005017,129.09080590005033,1000,129.09080590005033,1000,1000,1000,1000,0,num_3,0.1268813000060618,,35,16,2026-03-13_14h43.50.230,2026A_exp2,2022.2.4,59.60964032097722,
1,0,3.7,4.9,0,0,35,35,31,,,,,129.2389477000106,129.8895107000135,129.8895107000135,130.37386160017923,45,315,130.37386160017923,130.37386160017923,130.37386160017923,130.37386160017923,130.37386160017923,130.37386160017923,130.37386160017923,130.37386160017923,130.37386160017923,130.7400766001083,130.7400766001083,130.7400766001083,130.7400766001083,130.7400766001083,130.7400766001083,130.7400766001083,130.7400766001083,130.7400766001083,23,0,,,130.7400766001083,130.94040980003774,3.7,130.94040980003774,0,3.7,1,0,1000,num_1,0.4203215998131782,,35,16,2026-03-13_14h43.50.230,2026A_exp2,2022.2.4,59.60964032097722,
0,0,0.0,0.0,0,0,36,36,67,,,,,131.3907736002002,132.02502990001813,132.02502990001813,132.52613680018112,315,45,132.52613680018112,132.52613680018112,132.52613680018112,132.52613680018112,132.52613680018112,132.52613680018112,132.52613680018112,132.52613680018112,132.52613680018112,132.89230610011145,132.89230610011145,132.89230610011145,132.89230610011145,132.89230610011145,132.89230610011145,132.89230610011145,132.89230610011145,132.89230610011145,22,1,[0.13368359999731183],[0.15024739992804825],132.89230610011145,133.09272700012662,0.0,133.09272700012662,0,0.0,0,1,1000,num_1,0.4847561998758465,,35,16,2026-03-13_14h43.50.230,2026A_exp2,2022.2.4,59.60964032097722,
1,0,0.0,6.1,0,0,37,37,57,,,,,133.5929811000824,134.24384030001238,134.24384030001238,134.7449078001082,315,315,134.7449078001082,134.7449078001082,134.7449078001082,134.7449078001082,134.7449078001082,134.7449078001082,134.7449078001082,134.7449078001082,134.7449078001082,135.1113962000236,135.1113962000236,135.1113962000236,135.1113962000236,135.1113962000236,135.1113962000236,135.1113962000236,135.1113962000236,135.1113962000236,23,0,,,135.1113962000236,135.31160700018518,0.0,135.31160700018518,0,0.0,0,1,1000,num_1,0.9857580000534654,,35,16,2026-03-13_14h43.50.230,2026A_exp2,2022.2.4,59.60964032097722,
1,0,0.0,0.0,0,0,38,38,29,,,,,136.32911940012127,136.97996730008163,136.97996730008163,137.46437719999813,45,315,137.46437719999813,137.46437719999813,137.46437719999813,137.46437719999813,137.46437719999813,137.46437719999813,137.46437719999813,137.46437719999813,137.46437719999813,137.8307325001806,137.8307325001806,137.8307325001806,137.8307325001806,137.8307325001806,137.8307325001806,137.8307325001806,137.8307325001806,137.8307325001806,5,5,"[0.001202200073748827, 0.05035280017182231, 0.16708220005966723, 0.233843200141564, 0.36732219997793436]","[0.03370809997431934, 0.15042220009490848, 0.20043460000306368, 0.3507181000895798, 0.3673272000160068]",137.8307325001806,138.03101540007629,0.0,138.03101540007629,0,0.0,0,1,1000,num_1,0.4816370999906212,,35,16,2026-03-13_14h43.50.230,2026A_exp2,2022.2.4,59.60964032097722,
1,0,0.0,4.9,0,0,39,39,35,,,,,138.53146290010773,139.18216850003228,139.18216850003228,139.66642480017617,45,315,139.66642480017617,139.66642480017617,139.66642480017617,139.66642480017617,139.66642480017617,139.66642480017617,139.66642480017617,139.66642480017617,139.66642480017617,140.03290990018286,140.03290990018286,140.03290990018286,140.03290990018286,140.03290990018286,140.03290990018286,140.03290990018286,140.03290990018286,140.03290990018286,2,2,"[0.0008165999315679073, 0.16752759995870292]","[0.13406109996140003, 0.36764599988237023]",140.03290990018286,140.2330692000687,0.0,140.2330692000687,0,0.0,0,1,1000,num_1,0.688071500044316,,35,16,2026-03-13_14h43.50.230,2026A_exp2,2022.2.4,59.60964032097722,
1000,1,0.0,3.7,1,0,40,40,43,,,,,140.95037990016863,141.60115390014835,141.60115390014835,142.08569990005344,315,315,142.08569990005344,142.08569990005344,142.08569990005344,142.08569990005344,142.08569990005344,142.08569990005344,142.08569990005344,142.08569990005344,142.08569990005344,142.45188020006754,142.45188020006754,142.45188020006754,142.45188020006754,142.45188020006754,142.45188020006754,142.45188020006754,142.45188020006754,142.45188020006754,1,2,"[0.0012368999887257814, 0.2171362000517547]","[0.20035629998892546, 0.36714850016869605]",142.45188020006754,142.65429890016094,1000,142.65429890016094,1000,1000,1000,1000,0,num_3,0.4433250001166016,,35,16,2026-03-13_14h43.50.230,2026A_exp2,2022.2.4,59.60964032097722,
1,0,6.1,6.1,0,0,41,41,11,,,,,143.11936430004425,143.770094800042,143.770094800042,144.27108240011148,45,315,144.27108240011148,144.27108240011148,144.27108240011148,144.27108240011148,144.27108240011148,144.27108240011148,144.27108240011148,144.27108240011148,144.27108240011148,144.6375806001015,144.6375806001015,144.6375806001015,144.6375806001015,144.6375806001015,144.6375806001015,144.6375806001015,144.6375806001015,144.6375806001015,11,2,"[0.001253299880772829, 0.2004070000257343]","[0.16704480000771582, 0.23357969988137484]",144.6375806001015,144.83773370017298,6.1,144.83773370017298,0,6.1,1,0,1000,num_1,0.5630946001037955,,35,16,2026-03-13_14h43.50.230,2026A_exp2,2022.2.4,59.60964032097722,
1000,1,3.7,0.0,0,0,42,42,37,,,,,145.42148730019107,146.07227400015108,146.07227400015108,146.57349580014125,45,45,146.57349580014125,146.57349580014125,146.57349580014125,146.57349580014125,146.57349580014125,146.57349580014125,146.57349580014125,146.57349580014125,146.57349580014125,146.92323680012487,146.92323680012487,146.92323680012487,146.92323680012487,146.92323680012487,146.92323680012487,146.92323680012487,146.92323680012487,146.92323680012487,22,0,,,146.92323680012487,147.12478339998052,1000,147.12478339998052,1000,1000,1000,1000,0,num_3,0.35708320001140237,,35,16,2026-03-13_14h43.50.230,2026A_exp2,2022.2.4,59.60964032097722,
1000,1,4.9,0.0,1,0,43,43,28,,,,,147.50697260000743,148.1576112001203,148.1576112001203,148.6589594001416,315,45,148.6589594001416,148.6589594001416,148.6589594001416,148.6589594001416,148.6589594001416,148.6589594001416,148.6589594001416,148.6589594001416,148.6589594001416,149.0251550001558,149.0251550001558,149.0251550001558,149.0251550001558,149.0251550001558,149.0251550001558,149.0251550001558,149.0251550001558,149.0251550001558,23,0,,,149.0251550001558,149.22787870001048,1000,149.22787870001048,1000,1000,1000,1000,0,num_3,0.44567320006899536,,35,16,2026-03-13_14h43.50.230,2026A_exp2,2022.2.4,59.60964032097722,
1000,1,0.0,0.0,1,0,44,44,70,,,,,149.69254900002852,150.34330770000815,150.34330770000815,150.84442910016514,45,45,150.84442910016514,150.84442910016514,150.84442910016514,150.84442910016514,150.84442910016514,150.84442910016514,150.84442910016514,150.84442910016514,150.84442910016514,151.21067250007764,151.21067250007764,151.21067250007764,151.21067250007764,151.21067250007764,151.21067250007764,151.21067250007764,151.21067250007764,151.21067250007764,6,6,"[0.0012655002065002918, 0.05053320014849305, 0.2005492001771927, 0.2506419999990612, 0.30062170000746846, 0.33420140016824007]","[0.03366810013540089, 0.1838359001558274, 0.21723000006750226, 0.283938700100407, 0.3174245001282543, 0.3672681001480669]",151.21067250007764,151.41269950009882,1000,151.41269950009882,1000,1000,1000,1000,1,num_2,0.42909500002861023,,35,16,2026-03-13_14h43.50.230,2026A_exp2,2022.2.4,59.60964032097722,
1,0,6.1,0.0,0,0,45,45,24,,,,,151.86155020003207,152.51217410014942,152.51217410014942,153.01308340020478,315,315,153.01308340020478,153.01308340020478,153.01308340020478,153.01308340020478,153.01308340020478,153.01308340020478,153.01308340020478,153.01308340020478,153.01308340020478,153.37950410018675,153.37950410018675,153.37950410018675,153.37950410018675,153.37950410018675,153.37950410018675,153.37950410018675,153.37950410018675,153.37950410018675,0,1,[0.001199499936774373],[0.3671953999437392],153.37950410018675,153.57970850006677,6.1,153.57970850006677,1,6.1,1,1,1000,num_4,0.8057347999420017,,35,16,2026-03-13_14h43.50.230,2026A_exp2,2022.2.4,59.60964032097722,
1,0,0.0,0.0,0,0,46,46,0,,,,,154.41380320000462,155.06471509998664,155.06471509998664,155.5491667999886,315,45,155.5491667999886,155.5491667999886,155.5491667999886,155.5491667999886,155.5491667999886,155.5491667999886,155.5491667999886,155.5491667999886,155.5491667999886,155.91557510010898,155.91557510010898,155.91557510010898,155.91557510010898,155.91557510010898,155.91557510010898,155.91557510010898,155.91557510010898,155.91557510010898,16,4,"[0.0012089000083506107, 0.050023100106045604, 0.20019550016149879, 0.2502101000864059]","[0.017368300119414926, 0.083492900012061, 0.21685630013234913, 0.28348530014045537]",155.91557510010898,156.11576980003156,0.0,156.11576980003156,0,0.0,0,1,1000,num_1,0.629251099890098,,35,16,2026-03-13_14h43.50.230,2026A_exp2,2022.2.4,59.60964032097722,
0,0,0.0,0.0,0,0,47,47,69,,,,,156.76621120003983,157.41711809998378,157.41711809998378,157.90130440006033,45,315,157.90130440006033,157.90130440006033,157.90130440006033,157.90130440006033,157.90130440006033,157.90130440006033,157.90130440006033,157.90130440006033,157.90130440006033,158.26773870014586,158.26773870014586,158.26773870014586,158.26773870014586,158.26773870014586,158.26773870014586,158.26773870014586,158.26773870014586,158.26773870014586,23,0,,,158.26773870014586,158.46805450017564,0.0,158.46805450017564,0,0.0,0,1,1000,num_1,0.48547159996815026,,35,16,2026-03-13_14h43.50.230,2026A_exp2,2022.2.4,59.60964032097722,
1,0,0.0,0.0,1,0,48,48,82,,,,,158.9851398000028,159.63597870012745,159.63597870012745,160.12035420001484,45,315,160.12035420001484,160.12035420001484,160.12035420001484,160.12035420001484,160.12035420001484,160.12035420001484,160.12035420001484,160.12035420001484,160.12035420001484,160.4865574000869,160.4865574000869,160.4865574000869,160.4865574000869,160.4865574000869,160.4865574000869,160.4865574000869,160.4865574000869,160.4865574000869,22,1,[0.23372710007242858],[0.2504463999066502],160.4865574000869,160.6869328999892,0.0,160.6869328999892,0,0.0,0,1,1000,num_1,0.36262959986925125,,35,16,2026-03-13_14h43.50.230,2026A_exp2,2022.2.4,59.60964032097722,
1000,1,0.0,6.1,0,0,49,49,83,,,,,161.0705063000787,161.72133820015006,161.72133820015006,162.2057177000679,315,45,162.2057177000679,162.2057177000679,162.2057177000679,162.2057177000679,162.2057177000679,162.2057177000679,162.2057177000679,162.2057177000679,162.2057177000679,162.57188070006669,162.57188070006669,162.57188070006669,162.57188070006669,162.57188070006669,162.57188070006669,162.57188070006669,162.57188070006669,162.57188070006669,16,4,"[0.01729190000332892, 0.13357229996472597, 0.2837062000762671, 0.3171431999653578]","[0.03337630000896752, 0.18378220009617507, 0.3003469998948276, 0.33377479994669557]",162.57188070006669,162.7745177000761,1000,162.7745177000761,1000,1000,1000,1000,0,num_3,0.5062907999381423,,35,16,2026-03-13_14h43.50.230,2026A_exp2,2022.2.4,59.60964032097722,
1,0,6.1,3.7,0,0,50,50,86,,,,,163.30612880014814,163.95696340012364,163.95696340012364,164.46471250010654,315,315,164.46471250010654,164.46471250010654,164.46471250010654,164.46471250010654,164.46471250010654,164.46471250010654,164.46471250010654,164.46471250010654,164.46471250010654,164.8244185000658,164.8244185000658,164.8244185000658,164.8244185000658,164.8244185000658,164.8244185000658,164.8244185000658,164.8244185000658,164.8244185000658,1,2,"[0.0026362999342381954, 0.33049460011534393]","[0.3137257001362741, 0.36412809998728335]",164.8244185000658,165.02483550016768,6.1,165.02483550016768,0,6.1,1,0,1000,num_1,0.3199000000022352,,35,16,2026-03-13_14h43.50.230,2026A_exp2,2022.2.4,59.60964032097722,
1000,1,0.0,0.0,0,0,51,51,5,,,,,165.37480900017545,166.02551680011675,166.02551680011675,166.51010449999012,315,315,166.51010449999012,166.51010449999012,166.51010449999012,166.51010449999012,166.51010449999012,166.51010449999012,166.51010449999012,166.51010449999012,166.51010449999012,166.87651530001312,166.87651530001312,166.87651530001312,166.87651530001312,166.87651530001312,166.87651530001312,166.87651530001312,166.87651530001312,166.87651530001312,4,5,"[0.0012781000696122646, 0.06682519987225533, 0.15031459997408092, 0.21669339993968606, 0.2834900999441743]","[0.0501176998950541, 0.13357679988257587, 0.20026169996708632, 0.2668407999444753, 0.3672137998510152]",166.87651530001312,167.0786774000153,1000,167.0786774000153,1000,1000,1000,1000,0,num_3,0.5543387001380324,,35,16,2026-03-13_14h43.50.230,2026A_exp2,2022.2.4,59.60964032097722,
1000,1,4.9,4.9,1,0,52,52,85,,,,,167.6603193001356,168.31119000003673,168.31119000003673,168.8122405000031,45,45,168.8122405000031,168.8122405000031,168.8122405000031,168.8122405000031,168.8122405000031,168.8122405000031,168.8122405000031,168.8122405000031,168.8122405000031,169.17881830013357,169.17881830013357,169.17881830013357,169.17881830013357,169.17881830013357,169.17881830013357,169.17881830013357,169.17881830013357,169.17881830013357,9,6,"[0.0012145000509917736, 0.0838323999196291, 0.1505233000498265, 0.21727070002816617, 0.2672598999924958, 0.35071679996326566]","[0.06688699987716973, 0.10046089999377728, 0.18383789993822575, 0.250735699897632, 0.3339742999523878, 0.3673946000635624]",169.17881830013357,169.38101060013287,1000,169.38101060013287,1000,1000,1000,1000,1,num_2,0.5397676001302898,,35,16,2026-03-13_14h43.50.230,2026A_exp2,2022.2.4,59.60964032097722,
0,0,3.7,3.7,0,0,53,53,63,,,,,169.94606330012903,170.59688770002685,170.59688770002685,171.09786520013586,315,45,171.09786520013586,171.09786520013586,171.09786520013586,171.09786520013586,171.09786520013586,171.09786520013586,171.09786520013586,171.09786520013586,171.09786520013586,171.46438390016556,171.46438390016556,171.46438390016556,171.46438390016556,171.46438390016556,171.46438390016556,171.46438390016556,171.46438390016556,171.46438390016556,3,3,"[0.001200699945911765, 0.10013959999196231, 0.2168654000852257]","[0.06676160008646548, 0.20026520011015236, 0.3669915001373738]",171.46438390016556,171.66445080004632,3.7,171.66445080004632,0,3.7,1,0,1000,num_1,0.4571242998354137,,35,16,2026-03-13_14h43.50.230,2026A_exp2,2022.2.4,59.60964032097722,
1000,1,4.9,0.0,1,0,54,54,7,,,,,172.14833310013637,172.7991270001512,172.7991270001512,173.2870680000633,315,45,173.2870680000633,173.2870680000633,173.2870680000633,173.2870680000633,173.2870680000633,173.2870680000633,173.2870680000633,173.2870680000633,173.2870680000633,173.64994970010594,173.64994970010594,173.64994970010594,173.64994970010594,173.64994970010594,173.64994970010594,173.64994970010594,173.64994970010594,173.64994970010594,1,1,[0.0024016001261770725],[0.3658286000136286],173.64994970010594,173.8518924000673,1000,173.8518924000673,1000,1000,1000,1000,0,num_3,0.46089249989017844,,35,16,2026-03-13_14h43.50.230,2026A_exp2,2022.2.4,59.60964032097722,
1,0,4.9,0.0,0,0,55,55,23,,,,,174.3338010001462,174.9845889999997,174.9845889999997,175.48560360004194,315,45,175.48560360004194,175.48560360004194,175.48560360004194,175.48560360004194,175.48560360004194,175.48560360004194,175.48560360004194,175.48560360004194,175.48560360004194,175.8521245000884,175.8521245000884,175.8521245000884,175.8521245000884,175.8521245000884,175.8521245000884,175.8521245000884,175.8521245000884,175.8521245000884,11,5,"[0.001247200183570385, 0.05013129999861121, 0.1336455000564456, 0.1999101999681443, 0.2837968000676483]","[0.017209600191563368, 0.11674690013751388, 0.15025930013507605, 0.26696790009737015, 0.31693290011025965]",175.8521245000884,176.05235440004617,4.9,176.05235440004617,1,4.9,1,1,1000,num_4,0.7897383000236005,,35,16,2026-03-13_14h43.50.230,2026A_exp2,2022.2.4,59.60964032097722,
1000,1,6.1,0.0,0,0,56,56,58,,,,,176.8696216000244,177.52047730004415,177.52047730004415,178.0048322000075,315,45,178.0048322000075,178.0048322000075,178.0048322000075,178.0048322000075,178.0048322000075,178.0048322000075,178.0048322000075,178.0048322000075,178.0048322000075,178.3712860001251,178.3712860001251,178.3712860001251,178.3712860001251,178.3712860001251,178.3712860001251,178.3712860001251,178.3712860001251,178.3712860001251,22,1,[0.3003825999330729],[0.3171291998587549],178.3712860001251,178.57314420002513,1000,178.57314420002513,1000,1000,1000,1000,0,num_3,0.38871470000594854,,35,16,2026-03-13_14h43.50.230,2026A_exp2,2022.2.4,59.60964032097722,
1000,1,6.1,0.0,1,0,57,57,52,,,,,178.98847190011293,179.63913540006615,179.63913540006615,180.14027040009387,315,315,180.14027040009387,180.14027040009387,180.14027040009387,180.14027040009387,180.14027040009387,180.14027040009387,180.14027040009387,180.14027040009387,180.14027040009387,180.50684839999303,180.50684839999303,180.50684839999303,180.50684839999303,180.50684839999303,180.50684839999303,180.50684839999303,180.50684839999303,180.50684839999303,23,0,,,180.50684839999303,180.7089901000727,1000,180.7089901000727,1000,1000,1000,1000,0,num_3,0.49216239992529154,,35,16,2026-03-13_14h43.50.230,2026A_exp2,2022.2.4,59.60964032097722,
1,0,3.7,6.1,1,0,58,58,6,,,,,181.2242487000767,181.8748347000219,181.8748347000219,182.37598130013794,315,315,182.37598130013794,182.37598130013794,182.37598130013794,182.37598130013794,182.37598130013794,182.37598130013794,182.37598130013794,182.37598130013794,182.37598130013794,182.7256875000894,182.7256875000894,182.7256875000894,182.7256875000894,182.7256875000894,182.7256875000894,182.7256875000894,182.7256875000894,182.7256875000894,21,1,[0.0012012000661343336],[0.01768129994161427],182.7256875000894,182.92580180009827,6.1,182.92580180009827,1,6.1,1,1,1000,num_4,0.7159254001453519,,35,16,2026-03-13_14h43.50.230,2026A_exp2,2022.2.4,59.60964032097722,
1000,1,6.1,0.0,1,0,59,59,79,,,,,183.65981600014493,184.31076540006325,184.31076540006325,184.80012730020098,315,315,184.80012730020098,184.80012730020098,184.80012730020098,184.80012730020098,184.80012730020098,184.80012730020098,184.80012730020098,184.80012730020098,184.80012730020098,185.1615030001849,185.1615030001849,185.1615030001849,185.1615030001849,185.1615030001849,185.1615030001849,185.1615030001849,185.1615030001849,185.1615030001849,8,2,"[0.0025228001177310944, 0.26686260011047125]","[0.23358989995904267, 0.28376540006138384]",185.1615030001849,185.3710560000036,1000,185.3710560000036,1000,1000,1000,1000,0,num_3,0.3989784999284893,,35,16,2026-03-13_14h43.50.230,2026A_exp2,2022.2.4,59.60964032097722,
1000,1,3.7,0.0,1,0,60,60,21,,,,,185.79519970016554,186.44609330012463,186.44609330012463,186.94719019997865,315,315,186.94719019997865,186.94719019997865,186.94719019997865,186.94719019997865,186.94719019997865,186.94719019997865,186.94719019997865,186.94719019997865,186.94719019997865,187.31362939998507,187.31362939998507,187.31362939998507,187.31362939998507,187.31362939998507,187.31362939998507,187.31362939998507,187.31362939998507,187.31362939998507,23,0,,,187.31362939998507,187.5137877999805,1000,187.5137877999805,1000,1000,1000,1000,0,num_3,0.3923295000568032,,35,16,2026-03-13_14h43.50.230,2026A_exp2,2022.2.4,59.60964032097722,
1,0,0.0,4.9,1,0,61,61,36,,,,,187.930743600009,188.58138900017366,188.58138900017366,189.08264710009098,315,45,189.08264710009098,189.08264710009098,189.08264710009098,189.08264710009098,189.08264710009098,189.08264710009098,189.08264710009098,189.08264710009098,189.08264710009098,189.44910920015536,189.44910920015536,189.44910920015536,189.44910920015536,189.44910920015536,189.44910920015536,189.44910920015536,189.44910920015536,189.44910920015536,17,2,"[0.050115999998524785, 0.13352919998578727]","[0.11699880007654428, 0.1668585001025349]",189.44910920015536,189.64925630018115,4.9,189.64925630018115,0,4.9,1,0,1000,num_1,0.7838026001118124,,35,16,2026-03-13_14h43.50.230,2026A_exp2,2022.2.4,59.60964032097722,
1000,1,0.0,0.0,1,0,62,62,39,,,,,190.44998330017552,191.1006386000663,191.1006386000663,191.58542270003818,315,45,191.58542270003818,191.58542270003818,191.58542270003818,191.58542270003818,191.58542270003818,191.58542270003818,191.58542270003818,191.58542270003818,191.58542270003818,191.95139190019108,191.95139190019108,191.95139190019108,191.95139190019108,191.95139190019108,191.95139190019108,191.95139190019108,191.95139190019108,191.95139190019108,23,0,,,191.95139190019108,192.15409940015525,1000,192.15409940015525,1000,1000,1000,1000,0,num_3,0.3911270000971854,,35,16,2026-03-13_14h43.50.230,2026A_exp2,2022.2.4,59.60964032097722,
1,0,6.1,4.9,0,0,63,63,30,,,,,192.56869230000302,193.21935220016167,193.21935220016167,193.72052710014395,315,315,193.72052710014395,193.72052710014395,193.72052710014395,193.72052710014395,193.72052710014395,193.72052710014395,193.72052710014395,193.72052710014395,193.72052710014395,194.08706540009007,194.08706540009007,194.08706540009007,194.08706540009007,194.08706540009007,194.08706540009007,194.08706540009007,194.08706540009007,194.08706540009007,23,0,,,194.08706540009007,194.28724219999276,6.1,194.28724219999276,1,6.1,1,1,1000,num_4,0.7144861998967826,,35,16,2026-03-13_14h43.50.230,2026A_exp2,2022.2.4,59.60964032097722,
0,0,0.0,0.0,0,0,64,64,4,,,,,195.02150960010476,195.67201249999925,195.67201249999925,196.15628840005957,45,315,196.15628840005957,196.15628840005957,196.15628840005957,196.15628840005957,196.15628840005957,196.15628840005957,196.15628840005957,196.15628840005957,196.15628840005957,196.52277870010585,196.52277870010585,196.52277870010585,196.52277870010585,196.52277870010585,196.52277870010585,196.52277870010585,196.52277870010585,196.52277870010585,23,0,,,196.52277870010585,196.72286750003695,0.0,196.72286750003695,0,0.0,0,1,1000,num_1,0.6059989000204951,,35,16,2026-03-13_14h43.50.230,2026A_exp2,2022.2.4,59.60964032097722,
1000,1,0.0,0.0,0,0,65,65,41,,,,,197.35674499999732,198.0076167001389,198.0076167001389,198.49190510017797,45,315,198.49190510017797,198.49190510017797,198.49190510017797,198.49190510017797,198.49190510017797,198.49190510017797,198.49190510017797,198.49190510017797,198.49190510017797,198.85846310015768,198.85846310015768,198.85846310015768,198.85846310015768,198.85846310015768,198.85846310015768,198.85846310015768,198.85846310015768,198.85846310015768,23,0,,,198.85846310015768,199.06038890010677,1000,199.06038890010677,1000,1000,1000,1000,0,num_3,0.40516980015672743,,35,16,2026-03-13_14h43.50.230,2026A_exp2,2022.2.4,59.60964032097722,
1000,1,0.0,4.9,1,0,66,66,73,,,,,199.49222760018893,200.1430635000579,200.1430635000579,200.64421489997767,315,45,200.64421489997767,200.64421489997767,200.64421489997767,200.64421489997767,200.64421489997767,200.64421489997767,200.64421489997767,200.64421489997767,200.64421489997767,201.01056920015253,201.01056920015253,201.01056920015253,201.01056920015253,201.01056920015253,201.01056920015253,201.01056920015253,201.01056920015253,201.01056920015253,13,5,"[0.03385340003296733, 0.10070269997231662, 0.16736009996384382, 0.234097900101915, 0.33413599990308285]","[0.050295700086280704, 0.13395359995774925, 0.20063350000418723, 0.30081599997356534, 0.35082100005820394]",201.01056920015253,201.21281519997865,1000,201.21281519997865,1000,1000,1000,1000,1,num_2,0.5404819999821484,,35,16,2026-03-13_14h43.50.230,2026A_exp2,2022.2.4,59.60964032097722,
1000,1,6.1,0.0,0,0,67,67,80,,,,,201.77792660007253,202.43942740000784,202.43942740000784,202.934899300104,315,45,202.934899300104,202.934899300104,202.934899300104,202.934899300104,202.934899300104,202.934899300104,202.934899300104,202.934899300104,202.934899300104,203.29621890001,203.29621890001,203.29621890001,203.29621890001,203.29621890001,203.29621890001,203.29621890001,203.29621890001,203.29621890001,21,2,"[0.2827548000495881, 0.3491894998587668]","[0.2990728998556733, 0.36586229992099106]",203.29621890001,203.4980262001045,1000,203.4980262001045,1000,1000,1000,1000,0,num_3,0.2869028002023697,,35,16,2026-03-13_14h43.50.230,2026A_exp2,2022.2.4,59.60964032097722,
0,0,3.7,6.1,1,0,68,68,17,,,,,203.81328770006076,204.46381129999645,204.46381129999645,204.96522980020382,45,315,204.96522980020382,204.96522980020382,204.96522980020382,204.96522980020382,204.96522980020382,204.96522980020382,204.96522980020382,204.96522980020382,204.96522980020382,205.3316357000731,205.3316357000731,205.3316357000731,205.3316357000731,205.3316357000731,205.3316357000731,205.3316357000731,205.3316357000731,205.3316357000731,4,3,"[0.0011921001132577658, 0.06684730015695095, 0.35047219996340573]","[0.03348890016786754, 0.31703900010325015, 0.3670783000998199]",205.3316357000731,205.5317608001642,3.7,205.5317608001642,0,3.7,1,0,1000,num_1,0.5816622001584619,,35,16,2026-03-13_14h43.50.230,2026A_exp2,2022.2.4,59.60964032097722,
1000,1,0.0,0.0,1,0,69,69,40,,,,,206.132406800054,206.78322169999592,206.78322169999592,207.2673973001074,45,315,207.2673973001074,207.2673973001074,207.2673973001074,207.2673973001074,207.2673973001074,207.2673973001074,207.2673973001074,207.2673973001074,207.2673973001074,207.63383020018227,207.63383020018227,207.63383020018227,207.63383020018227,207.63383020018227,207.63383020018227,207.63383020018227,207.63383020018227,207.63383020018227,23,0,,,207.63383020018227,207.83593920012936,1000,207.83593920012936,1000,1000,1000,1000,0,num_3,0.26151280011981726,,35,16,2026-03-13_14h43.50.230,2026A_exp2,2022.2.4,59.60964032097722,
1,0,0.0,0.0,0,0,70,70,66,,,,,208.11756590008736,208.7684202999808,208.7684202999808,209.2693837999832,315,45,209.2693837999832,209.2693837999832,209.2693837999832,209.2693837999832,209.2693837999832,209.2693837999832,209.2693837999832,209.2693837999832,209.2693837999832,209.6359325000085,209.6359325000085,209.6359325000085,209.6359325000085,209.6359325000085,209.6359325000085,209.6359325000085,209.6359325000085,209.6359325000085,23,0,,,209.6359325000085,209.83611280005425,0.0,209.83611280005425,0,0.0,0,1,1000,num_1,0.3735056999139488,,35,16,2026-03-13_14h43.50.230,2026A_exp2,2022.2.4,59.60964032097722,
1,0,0.0,0.0,0,0,71,71,49,,,,,210.2363654000219,210.8870145000983,210.8870145000983,211.37146060005762,315,45,211.37146060005762,211.37146060005762,211.37146060005762,211.37146060005762,211.37146060005762,211.37146060005762,211.37146060005762,211.37146060005762,211.37146060005762,211.7379786001984,211.7379786001984,211.7379786001984,211.7379786001984,211.7379786001984,211.7379786001984,211.7379786001984,211.7379786001984,211.7379786001984,22,1,[0.33374449983239174],[0.3504582999739796],211.7379786001984,211.93815629999153,0.0,211.93815629999153,0,0.0,0,1,1000,num_1,0.44776320015080273,,35,16,2026-03-13_14h43.50.230,2026A_exp2,2022.2.4,59.60964032097722,
1000,1,0.0,0.0,1,0,72,72,71,,,,,212.40516760013998,213.0559698001016,213.0559698001016,213.54028489999473,315,45,213.54028489999473,213.54028489999473,213.54028489999473,213.54028489999473,213.54028489999473,213.54028489999473,213.54028489999473,213.54028489999473,213.54028489999473,213.90671870019287,213.90671870019287,213.90671870019287,213.90671870019287,213.90671870019287,213.90671870019287,213.90671870019287,213.90671870019287,213.90671870019287,22,1,[0.3170187999494374],[0.3336888998746872],213.90671870019287,214.1091165000107,1000,214.1091165000107,1000,1000,1000,1000,1,num_2,0.45947850006632507,,35,16,2026-03-13_14h43.50.230,2026A_exp2,2022.2.4,59.60964032097722,
1,0,0.0,3.7,0,0,73,73,2,,,,,214.5908213001676,215.24153490015306,215.24153490015306,215.74258730001748,315,45,215.74258730001748,215.74258730001748,215.74258730001748,215.74258730001748,215.74258730001748,215.74258730001748,215.74258730001748,215.74258730001748,215.74258730001748,216.1088851999957,216.1088851999957,216.1088851999957,216.1088851999957,216.1088851999957,216.1088851999957,216.1088851999957,216.1088851999957,216.1088851999957,23,0,,,216.1088851999957,216.30887440009974,0.0,216.30887440009974,0,0.0,0,1,1000,num_1,0.5325670000165701,,35,16,2026-03-13_14h43.50.230,2026A_exp2,2022.2.4,59.60964032097722,
1000,1,0.0,4.9,0,0,74,74,27,,,,,216.85962460003793,217.5104096001014,217.5104096001014,217.994858100079,315,315,217.994858100079,217.994858100079,217.994858100079,217.994858100079,217.994858100079,217.994858100079,217.994858100079,217.994858100079,217.994858100079,218.37820370006375,218.37820370006375,218.37820370006375,218.37820370006375,218.37820370006375,218.37820370006375,218.37820370006375,218.37820370006375,218.37820370006375,24,0,,,218.37820370006375,218.5782702001743,1000,218.5782702001743,1000,1000,1000,1000,1,num_2,0.3755952001083642,,35,16,2026-03-13_14h43.50.230,2026A_exp2,2022.2.4,59.60964032097722,
1,0,4.9,0.0,0,0,75,75,87,,,,,218.97838460002095,219.62919650017284,219.62919650017284,220.13021400012076,45,45,220.13021400012076,220.13021400012076,220.13021400012076,220.13021400012076,220.13021400012076,220.13021400012076,220.13021400012076,220.13021400012076,220.13021400012076,220.49677700013854,220.49677700013854,220.49677700013854,220.49677700013854,220.49677700013854,220.49677700013854,220.49677700013854,220.49677700013854,220.49677700013854,21,1,[0.033407599898055196],[0.06680829985998571],220.49677700013854,220.69688370008953,4.9,220.69688370008953,0,4.9,1,0,1000,num_1,0.5198700001928955,,35,16,2026-03-13_14h43.50.230,2026A_exp2,2022.2.4,59.60964032097722,
1,0,0.0,3.7,1,0,76,76,12,,,,,221.2472656001337,221.89821230014786,221.89821230014786,222.3824674000498,315,45,222.3824674000498,222.3824674000498,222.3824674000498,222.3824674000498,222.3824674000498,222.3824674000498,222.3824674000498,222.3824674000498,222.3824674000498,222.74894620012492,222.74894620012492,222.74894620012492,222.74894620012492,222.74894620012492,222.74894620012492,222.74894620012492,222.74894620012492,222.74894620012492,23,0,,,222.74894620012492,222.9492726000026,3.7,222.9492726000026,0,3.7,1,0,1000,num_1,0.196021500043571,,35,16,2026-03-13_14h43.50.230,2026A_exp2,2022.2.4,59.60964032097722,
1,0,0.0,3.7,1,0,77,77,10,,,,,223.16593170003034,223.81675019999966,223.81675019999966,224.30118299997412,45,315,224.30118299997412,224.30118299997412,224.30118299997412,224.30118299997412,224.30118299997412,224.30118299997412,224.30118299997412,224.30118299997412,224.30118299997412,224.6678857000079,224.6678857000079,224.6678857000079,224.6678857000079,224.6678857000079,224.6678857000079,224.6678857000079,224.6678857000079,224.6678857000079,18,1,[0.0012326999567449093],[0.08353389985859394],224.6678857000079,224.8678017000202,3.7,224.8678017000202,0,3.7,1,0,1000,num_1,0.17405780008994043,,35,16,2026-03-13_14h43.50.230,2026A_exp2,2022.2.4,59.60964032097722,
1000,1,6.1,4.9,1,0,78,78,76,,,,,225.06787110003643,225.71852790005505,225.71852790005505,226.20317440014333,315,45,226.20317440014333,226.20317440014333,226.20317440014333,226.20317440014333,226.20317440014333,226.20317440014333,226.20317440014333,226.20317440014333,226.20317440014333,226.5694742000196,226.5694742000196,226.5694742000196,226.5694742000196,226.5694742000196,226.5694742000196,226.5694742000196,226.5694742000196,226.5694742000196,23,0,,,226.5694742000196,226.77112510008737,1000,226.77112510008737,1000,1000,1000,1000,0,num_3,0.1501317999791354,,35,16,2026-03-13_14h43.50.230,2026A_exp2,2022.2.4,59.60964032097722,
1,0,0.0,3.7,0,0,79,79,1,,,,,226.9364628000185,227.58704820019193,227.58704820019193,228.08834430016577,315,315,228.08834430016577,228.08834430016577,228.08834430016577,228.08834430016577,228.08834430016577,228.08834430016577,228.08834430016577,228.08834430016577,228.08834430016577,228.45476880017668,228.45476880017668,228.45476880017668,228.45476880017668,228.45476880017668,228.45476880017668,228.45476880017668,228.45476880017668,228.45476880017668,23,0,,,228.45476880017668,228.65485540009104,0.0,228.65485540009104,0,0.0,0,1,1000,num_1,0.42617299989797175,,35,16,2026-03-13_14h43.50.230,2026A_exp2,2022.2.4,59.60964032097722,
1000,1,3.7,4.9,0,0,80,80,13,,,,,229.1073474001605,229.75756860012189,229.75756860012189,230.26280510006472,45,315,230.26280510006472,230.26280510006472,230.26280510006472,230.26280510006472,230.26280510006472,230.26280510006472,230.26280510006472,230.26280510006472,230.26280510006472,230.62355000013486,230.62355000013486,230.62355000013486,230.62355000013486,230.62355000013486,230.62355000013486,230.62355000013486,230.62355000013486,230.62355000013486,17,5,"[0.08248219988308847, 0.13248110003769398, 0.1992373000830412, 0.28276650002226233, 0.3162734000943601]","[0.09904489992186427, 0.14917019987478852, 0.2159690000116825, 0.29928759997710586, 0.33256889996118844]",230.62355000013486,230.82884309999645,1000,230.82884309999645,1000,1000,1000,1000,0,num_3,0.20436229999177158,,35,16,2026-03-13_14h43.50.230,2026A_exp2,2022.2.4,59.60964032097722,
1000,1,4.9,0.0,0,0,81,81,20,,,,,231.05737200006843,231.70784430019557,231.70784430019557,232.20901370001957,45,45,232.20901370001957,232.20901370001957,232.20901370001957,232.20901370001957,232.20901370001957,232.20901370001957,232.20901370001957,232.20901370001957,232.20901370001957,232.57533480017446,232.57533480017446,232.57533480017446,232.57533480017446,232.57533480017446,232.57533480017446,232.57533480017446,232.57533480017446,232.57533480017446,9,3,"[0.08345480007119477, 0.18345410004258156, 0.2336645000614226]","[0.13352179992944002, 0.21671690000221133, 0.36707419995218515]",232.57533480017446,232.77761160000227,1000,232.77761160000227,1000,1000,1000,1000,0,num_3,0.4157362000551075,,35,16,2026-03-13_14h43.50.230,2026A_exp2,2022.2.4,59.60964032097722,
1000,1,4.9,6.1,1,0,82,82,18,,,,,233.2095707000699,233.8602043001447,233.8602043001447,234.36140920012258,45,315,234.36140920012258,234.36140920012258,234.36140920012258,234.36140920012258,234.36140920012258,234.36140920012258,234.36140920012258,234.36140920012258,234.36140920012258,234.72761030006222,234.72761030006222,234.72761030006222,234.72761030006222,234.72761030006222,234.72761030006222,234.72761030006222,234.72761030006222,234.72761030006222,21,2,"[0.267006800044328, 0.31674350006505847]","[0.283458000048995, 0.3335843998938799]",234.72761030006222,234.9295269001741,1000,234.9295269001741,1000,1000,1000,1000,1,num_2,0.24837230006232858,,35,16,2026-03-13_14h43.50.230,2026A_exp2,2022.2.4,59.60964032097722,
1000,1,3.7,3.7,1,0,83,83,46,,,,,235.19502670015208,235.8453244001139,235.8453244001139,236.3464617000427,315,45,236.3464617000427,236.3464617000427,236.3464617000427,236.3464617000427,236.3464617000427,236.3464617000427,236.3464617000427,236.3464617000427,236.3464617000427,236.71290210005827,236.71290210005827,236.71290210005827,236.71290210005827,236.71290210005827,236.71290210005827,236.71290210005827,236.71290210005827,236.71290210005827,22,1,[0.10019330005161464],[0.11684500006958842],236.71290210005827,236.9148309000302,1000,236.9148309000302,1000,1000,1000,1000,0,num_3,0.3824707998428494,,35,16,2026-03-13_14h43.50.230,2026A_exp2,2022.2.4,59.60964032097722,
1000,1,6.1,6.1,0,0,84,84,50,,,,,237.313656500075,237.96417960012332,237.96417960012332,238.4652003000956,315,45,238.4652003000956,238.4652003000956,238.4652003000956,238.4652003000956,238.4652003000956,238.4652003000956,238.4652003000956,238.4652003000956,238.4652003000956,238.83175090001896,238.83175090001896,238.83175090001896,238.83175090001896,238.83175090001896,238.83175090001896,238.83175090001896,238.83175090001896,238.83175090001896,21,1,[0.25001289998181164],[0.28355120006017387],238.83175090001896,239.03376030013897,1000,239.03376030013897,1000,1000,1000,1000,0,num_3,0.3036821000277996,,35,16,2026-03-13_14h43.50.230,2026A_exp2,2022.2.4,59.60964032097722,
1000,1,0.0,6.1,1,0,85,85,3,,,,,239.36571649997495,240.01637980015948,240.01637980015948,240.51730659999885,45,45,240.51730659999885,240.51730659999885,240.51730659999885,240.51730659999885,240.51730659999885,240.51730659999885,240.51730659999885,240.51730659999885,240.51730659999885,240.8836327001918,240.8836327001918,240.8836327001918,240.8836327001918,240.8836327001918,240.8836327001918,240.8836327001918,240.8836327001918,240.8836327001918,22,1,[0.08376349997706711],[0.10017969994805753],240.8836327001918,241.08583650016226,1000,241.08583650016226,1000,1000,1000,1000,1,num_2,0.29159400006756186,,35,16,2026-03-13_14h43.50.230,2026A_exp2,2022.2.4,59.60964032097722,
1000,1,4.9,4.9,1,0,86,86,26,,,,,241.4010235001333,242.05160580016673,242.05160580016673,242.55277770012617,45,315,242.55277770012617,242.55277770012617,242.55277770012617,242.55277770012617,242.55277770012617,242.55277770012617,242.55277770012617,242.55277770012617,242.55277770012617,242.9191452001687,242.9191452001687,242.9191452001687,242.9191452001687,242.9191452001687,242.9191452001687,242.9191452001687,242.9191452001687,242.9191452001687,23,0,,,242.9191452001687,243.12161769997329,1000,243.12161769997329,1000,1000,1000,1000,0,num_3,0.2796555000822991,,35,16,2026-03-13_14h43.50.230,2026A_exp2,2022.2.4,59.60964032097722,
1000,1,6.1,3.7,1,0,87,87,45,,,,,243.41986280004494,244.0702246001456,244.0702246001456,244.55465480010025,315,315,244.55465480010025,244.55465480010025,244.55465480010025,244.55465480010025,244.55465480010025,244.55465480010025,244.55465480010025,244.55465480010025,244.55465480010025,244.9212877000682,244.9212877000682,244.9212877000682,244.9212877000682,244.9212877000682,244.9212877000682,244.9212877000682,244.9212877000682,244.9212877000682,21,2,"[0.21724110003560781, 0.3001355999149382]","[0.23377589997835457, 0.3169933999888599]",244.9212877000682,245.12322810012847,1000,245.12322810012847,1000,1000,1000,1000,0,num_3,0.11052210000343621,,35,16,2026-03-13_14h43.50.230,2026A_exp2,2022.2.4,59.60964032097722,
1000,1,3.7,0.0,1,0,88,88,44,,,,,245.2549016000703,245.90505450009368,245.90505450009368,246.40642150002532,45,315,246.40642150002532,246.40642150002532,246.40642150002532,246.40642150002532,246.40642150002532,246.40642150002532,246.40642150002532,246.40642150002532,246.40642150002532,246.77299399999902,246.77299399999902,246.77299399999902,246.77299399999902,246.77299399999902,246.77299399999902,246.77299399999902,246.77299399999902,246.77299399999902,18,4,"[0.0012384001165628433, 0.03325220011174679, 0.10023460001684725, 0.15030700014904141]","[0.017113500041887164, 0.06688910000957549, 0.1168301000725478, 0.16697930009104311]",246.77299399999902,246.97489410010166,1000,246.97489410010166,1000,1000,1000,1000,0,num_3,0.4983193001244217,,35,16,2026-03-13_14h43.50.230,2026A_exp2,2022.2.4,59.60964032097722,
1,0,4.9,0.0,1,0,89,89,48,,,,,247.49035740015097,248.14112940011546,248.14112940011546,248.64221810013987,315,45,248.64221810013987,248.64221810013987,248.64221810013987,248.64221810013987,248.64221810013987,248.64221810013987,248.64221810013987,248.64221810013987,248.64221810013987,249.00860830000602,249.00860830000602,249.00860830000602,249.00860830000602,249.00860830000602,249.00860830000602,249.00860830000602,249.00860830000602,249.00860830000602,19,4,"[0.0012487999629229307, 0.06678050011396408, 0.15030660014599562, 0.20022350014187396]","[0.017345100175589323, 0.08353370008990169, 0.16679339995607734, 0.2169296001084149]",249.00860830000602,249.20872350013815,0.0,249.20872350013815,0,0.0,0,1,1000,num_1,0.5372143001295626,,35,16,2026-03-13_14h43.50.230,2026A_exp2,2022.2.4,59.60964032097722,
,,,,,,,,,,,,,,,,,,,,,,,,,,,,,,,,,,,,,,,,,,,,,,,,,,,,249.7849105000496,,,,,,,
