validity,detectorcomp,contrastCW,contrastCCW,precueCWorCCW,block_80trials.thisRepN,block_80trials.thisTrialN,block_80trials.thisN,block_80trials.thisIndex,etRecord.started,etRecord.stopped,text.started,text.stopped,text_4.started,text_4.stopped,text_6.started,text_6.stopped,oriCW,oriCCW,roi_2.started,grating_UR.started,grating_UL.started,grating_LR.started,grating_LL.started,noise_UR.started,noise_UL.started,noise_LR.started,noise_LL.started,roi_2.stopped,grating_UR.stopped,grating_UL.stopped,grating_LR.stopped,grating_LL.stopped,noise_UR.stopped,noise_UL.stopped,noise_LR.stopped,noise_LL.stopped,outframe,roi_2.numLooks,roi_2.timesOn,roi_2.timesOff,text_2.started,text_2.stopped,probedcontrast,key_resp.started,respdetect,relevantContrast,correctDetect,TorFdetect,respCWorCCW,key_resp.keys,key_resp.rt,feedback_display_.started,participantNo,blockNo,date,expName,psychopyVersion,frameRate,
1000,1,0.0,3.7,1,0,0,0,67,5.8399979025125504e-05,5.8399979025125504e-05,49.218994299997576,51.2217251000111,51.2217251000111,51.853961599990726,51.853961599990726,52.376718599989545,315,45,52.376718599989545,52.376718599989545,52.376718599989545,52.376718599989545,52.376718599989545,52.376718599989545,52.376718599989545,52.376718599989545,52.376718599989545,52.721389599959366,52.721389599959366,52.721389599959366,52.721389599959366,52.721389599959366,52.721389599959366,52.721389599959366,52.721389599959366,52.721389599959366,0,1,[0.0009734999621286988],[0.3668134000035934],52.721389599959366,52.932302100001834,1000,52.932302100001834,1000,1000,1000,1000,0,num_3,0.5718633999931626,,27,7,2026-03-05_13h40.31.716,2026A_exp2,2022.2.4,59.946144378568746,
1,0,6.1,6.1,1,0,1,1,49,,,,,53.52256359998137,54.17310349998297,54.17310349998297,54.65750540001318,315,45,54.65750540001318,54.65750540001318,54.65750540001318,54.65750540001318,54.65750540001318,54.65750540001318,54.65750540001318,54.65750540001318,54.65750540001318,55.023739199968986,55.023739199968986,55.023739199968986,55.023739199968986,55.023739199968986,55.023739199968986,55.023739199968986,55.023739199968986,55.023739199968986,23,0,,,55.023739199968986,55.22422189998906,6.1,55.22422189998906,1,6.1,1,1,1000,num_4,0.5268470000009984,,27,7,2026-03-05_13h40.31.716,2026A_exp2,2022.2.4,59.946144378568746,
1000,1,3.7,0.0,0,0,2,2,81,,,,,55.77485779998824,56.42577229999006,56.42577229999006,56.90975130000152,45,45,56.90975130000152,56.90975130000152,56.90975130000152,56.90975130000152,56.90975130000152,56.90975130000152,56.90975130000152,56.90975130000152,56.90975130000152,57.276304800005164,57.276304800005164,57.276304800005164,57.276304800005164,57.276304800005164,57.276304800005164,57.276304800005164,57.276304800005164,57.276304800005164,23,0,,,57.276304800005164,57.47806190000847,1000,57.47806190000847,1000,1000,1000,1000,0,num_3,0.5213190999929793,,27,7,2026-03-05_13h40.31.716,2026A_exp2,2022.2.4,59.946144378568746,
1,0,0.0,3.7,1,0,3,3,30,,,,,58.02712699997937,58.6777604999952,58.6777604999952,59.178746599995065,45,45,59.178746599995065,59.178746599995065,59.178746599995065,59.178746599995065,59.178746599995065,59.178746599995065,59.178746599995065,59.178746599995065,59.178746599995065,59.545188599964604,59.545188599964604,59.545188599964604,59.545188599964604,59.545188599964604,59.545188599964604,59.545188599964604,59.545188599964604,59.545188599964604,1,2,"[0.0012605999945662916, 0.06689660000847653]","[0.05034299998078495, 0.36724409996531904]",59.545188599964604,59.74544829997467,3.7,59.74544829997467,1,3.7,1,1,1000,num_4,0.6223685999866575,,27,7,2026-03-05_13h40.31.716,2026A_exp2,2022.2.4,59.946144378568746,
1,0,4.9,6.1,0,0,4,4,29,,,,,60.3961382000125,61.04750089999288,61.04750089999288,61.53103119996376,315,315,61.53103119996376,61.53103119996376,61.53103119996376,61.53103119996376,61.53103119996376,61.53103119996376,61.53103119996376,61.53103119996376,61.53103119996376,61.89760490000481,61.89760490000481,61.89760490000481,61.89760490000481,61.89760490000481,61.89760490000481,61.89760490000481,61.89760490000481,61.89760490000481,23,0,,,61.89760490000481,62.09739690000424,4.9,62.09739690000424,0,4.9,1,0,1000,num_1,0.7263711999985389,,27,7,2026-03-05_13h40.31.716,2026A_exp2,2022.2.4,59.946144378568746,
1000,1,0.0,0.0,0,0,5,5,13,,,,,62.848488999996334,63.49910239997553,63.49910239997553,63.983515799976885,315,45,63.983515799976885,63.983515799976885,63.983515799976885,63.983515799976885,63.983515799976885,63.983515799976885,63.983515799976885,63.983515799976885,63.983515799976885,64.35005760000786,64.35005760000786,64.35005760000786,64.35005760000786,64.35005760000786,64.35005760000786,64.35005760000786,64.35005760000786,64.35005760000786,23,0,,,64.35005760000786,64.55192950001219,1000,64.55192950001219,1000,1000,1000,1000,0,num_3,0.5994709999649785,,27,7,2026-03-05_13h40.31.716,2026A_exp2,2022.2.4,59.946144378568746,
1,0,0.0,0.0,1,0,6,6,58,,,,,65.16738830000395,65.81812349997927,65.81812349997927,66.31934129999718,45,45,66.31934129999718,66.31934129999718,66.31934129999718,66.31934129999718,66.31934129999718,66.31934129999718,66.31934129999718,66.31934129999718,66.31934129999718,66.6857408999931,66.6857408999931,66.6857408999931,66.6857408999931,66.6857408999931,66.6857408999931,66.6857408999931,66.6857408999931,66.6857408999931,23,0,,,66.6857408999931,66.88579299999401,0.0,66.88579299999401,0,0.0,0,1,1000,num_1,0.5856962000252679,,27,7,2026-03-05_13h40.31.716,2026A_exp2,2022.2.4,59.946144378568746,
1000,1,3.7,0.0,1,0,7,7,38,,,,,67.50323039997602,68.15384509996511,68.15384509996511,68.63831099995878,45,315,68.63831099995878,68.63831099995878,68.63831099995878,68.63831099995878,68.63831099995878,68.63831099995878,68.63831099995878,68.63831099995878,68.63831099995878,69.00462429999607,69.00462429999607,69.00462429999607,69.00462429999607,69.00462429999607,69.00462429999607,69.00462429999607,69.00462429999607,69.00462429999607,23,0,,,69.00462429999607,69.20698459999403,1000,69.20698459999403,1000,1000,1000,1000,0,num_3,0.5926396999857388,,27,7,2026-03-05_13h40.31.716,2026A_exp2,2022.2.4,59.946144378568746,
1000,1,0.0,4.9,1,0,8,8,72,,,,,69.8221879999619,70.47289420000743,70.47289420000743,70.97389650001423,315,45,70.97389650001423,70.97389650001423,70.97389650001423,70.97389650001423,70.97389650001423,70.97389650001423,70.97389650001423,70.97389650001423,70.97389650001423,71.34033539996017,71.34033539996017,71.34033539996017,71.34033539996017,71.34033539996017,71.34033539996017,71.34033539996017,71.34033539996017,71.34033539996017,23,0,,,71.34033539996017,71.54237199999625,1000,71.54237199999625,1000,1000,1000,1000,1,num_2,0.4332969000097364,,27,7,2026-03-05_13h40.31.716,2026A_exp2,2022.2.4,59.946144378568746,
0,0,3.7,3.7,1,0,9,9,62,,,,,71.9910635999986,72.64172219997272,72.64172219997272,73.14279949996853,315,45,73.14279949996853,73.14279949996853,73.14279949996853,73.14279949996853,73.14279949996853,73.14279949996853,73.14279949996853,73.14279949996853,73.14279949996853,73.50921190000372,73.50921190000372,73.50921190000372,73.50921190000372,73.50921190000372,73.50921190000372,73.50921190000372,73.50921190000372,73.50921190000372,23,0,,,73.50921190000372,73.70919039996807,3.7,73.70919039996807,1,3.7,1,1,1000,num_4,0.8017771999584511,,27,7,2026-03-05_13h40.31.716,2026A_exp2,2022.2.4,59.946144378568746,
1,0,6.1,0.0,0,0,10,10,51,,,,,74.54353729996365,75.17754559998866,75.17754559998866,75.67854980000993,315,45,75.67854980000993,75.67854980000993,75.67854980000993,75.67854980000993,75.67854980000993,75.67854980000993,75.67854980000993,75.67854980000993,75.67854980000993,76.04524369997671,76.04524369997671,76.04524369997671,76.04524369997671,76.04524369997671,76.04524369997671,76.04524369997671,76.04524369997671,76.04524369997671,23,0,,,76.04524369997671,76.24525949999224,6.1,76.24525949999224,1,6.1,1,1,1000,num_4,0.7070819999789819,,27,7,2026-03-05_13h40.31.716,2026A_exp2,2022.2.4,59.946144378568746,
0,0,0.0,4.9,1,0,11,11,33,,,,,76.97920959995827,77.62988650001353,77.62988650001353,78.11433239997132,315,315,78.11433239997132,78.11433239997132,78.11433239997132,78.11433239997132,78.11433239997132,78.11433239997132,78.11433239997132,78.11433239997132,78.11433239997132,78.4808557999786,78.4808557999786,78.4808557999786,78.4808557999786,78.4808557999786,78.4808557999786,78.4808557999786,78.4808557999786,78.4808557999786,23,0,,,78.4808557999786,78.68117539997911,0.0,78.68117539997911,0,0.0,0,1,1000,num_1,0.7502754000015557,,27,7,2026-03-05_13h40.31.716,2026A_exp2,2022.2.4,59.946144378568746,
0,0,0.0,4.9,0,0,12,12,65,,,,,79.44837249995908,80.09903909999412,80.09903909999412,80.58352300000843,315,45,80.58352300000843,80.58352300000843,80.58352300000843,80.58352300000843,80.58352300000843,80.58352300000843,80.58352300000843,80.58352300000843,80.58352300000843,80.95001129998127,80.95001129998127,80.95001129998127,80.95001129998127,80.95001129998127,80.95001129998127,80.95001129998127,80.95001129998127,80.95001129998127,23,0,,,80.95001129998127,81.15009830001509,4.9,81.15009830001509,1,4.9,1,1,1000,num_4,0.7054983000271022,,27,7,2026-03-05_13h40.31.716,2026A_exp2,2022.2.4,59.946144378568746,
1000,1,0.0,3.7,1,0,13,13,1,,,,,81.88405250001233,82.53481869999086,82.53481869999086,83.01933109998936,315,45,83.01933109998936,83.01933109998936,83.01933109998936,83.01933109998936,83.01933109998936,83.01933109998936,83.01933109998936,83.01933109998936,83.01933109998936,83.38566299999366,83.38566299999366,83.38566299999366,83.38566299999366,83.38566299999366,83.38566299999366,83.38566299999366,83.38566299999366,83.38566299999366,0,1,[0.001257800031453371],[0.3670507000060752],83.38566299999366,83.58779590000631,1000,83.58779590000631,1000,1000,1000,1000,1,num_2,0.5803091000416316,,27,7,2026-03-05_13h40.31.716,2026A_exp2,2022.2.4,59.946144378568746,
1000,1,0.0,0.0,1,0,14,14,88,,,,,84.18648299999768,84.83740219997708,84.83740219997708,85.33814000000712,315,315,85.33814000000712,85.33814000000712,85.33814000000712,85.33814000000712,85.33814000000712,85.33814000000712,85.33814000000712,85.33814000000712,85.33814000000712,85.70458829996642,85.70458829996642,85.70458829996642,85.70458829996642,85.70458829996642,85.70458829996642,85.70458829996642,85.70458829996642,85.70458829996642,23,0,,,85.70458829996642,85.90693970001303,1000,85.90693970001303,1000,1000,1000,1000,0,num_3,0.5734395000035875,,27,7,2026-03-05_13h40.31.716,2026A_exp2,2022.2.4,59.946144378568746,
1000,1,6.1,4.9,1,0,15,15,86,,,,,86.50540669995826,87.15611679997528,87.15611679997528,87.65712559997337,315,315,87.65712559997337,87.65712559997337,87.65712559997337,87.65712559997337,87.65712559997337,87.65712559997337,87.65712559997337,87.65712559997337,87.65712559997337,88.02360710001085,88.02360710001085,88.02360710001085,88.02360710001085,88.02360710001085,88.02360710001085,88.02360710001085,88.02360710001085,88.02360710001085,23,0,,,88.02360710001085,88.22534989996348,1000,88.22534989996348,1000,1000,1000,1000,0,num_3,0.5181896000285633,,27,7,2026-03-05_13h40.31.716,2026A_exp2,2022.2.4,59.946144378568746,
0,0,4.9,6.1,1,0,16,16,70,,,,,88.7743820999749,89.42509749997407,89.42509749997407,89.90956830000505,45,315,89.90956830000505,89.90956830000505,89.90956830000505,89.90956830000505,89.90956830000505,89.90956830000505,89.90956830000505,89.90956830000505,89.90956830000505,90.29235979996156,90.29235979996156,90.29235979996156,90.29235979996156,90.29235979996156,90.29235979996156,90.29235979996156,90.29235979996156,90.29235979996156,24,0,,,90.29235979996156,90.49289970000973,4.9,90.49289970000973,0,4.9,1,0,1000,num_1,0.6746598000172526,,27,7,2026-03-05_13h40.31.716,2026A_exp2,2022.2.4,59.946144378568746,
1,0,3.7,0.0,0,0,17,17,3,,,,,91.1935616999981,91.84404970001196,91.84404970001196,92.32826939999359,45,315,92.32826939999359,92.32826939999359,92.32826939999359,92.32826939999359,92.32826939999359,92.32826939999359,92.32826939999359,92.32826939999359,92.32826939999359,92.69507299998077,92.69507299998077,92.69507299998077,92.69507299998077,92.69507299998077,92.69507299998077,92.69507299998077,92.69507299998077,92.69507299998077,23,0,,,92.69507299998077,92.89521379995858,3.7,92.89521379995858,1,3.7,1,1,1000,num_4,0.6482336000190116,,27,7,2026-03-05_13h40.31.716,2026A_exp2,2022.2.4,59.946144378568746,
1,0,0.0,0.0,0,0,18,18,61,,,,,93.5624039999675,94.21324229997117,94.21324229997117,94.71009830001276,315,315,94.71009830001276,94.71009830001276,94.71009830001276,94.71009830001276,94.71009830001276,94.71009830001276,94.71009830001276,94.71009830001276,94.71009830001276,95.06405360001372,95.06405360001372,95.06405360001372,95.06405360001372,95.06405360001372,95.06405360001372,95.06405360001372,95.06405360001372,95.06405360001372,23,0,,,95.06405360001372,95.26773099997081,0.0,95.26773099997081,0,0.0,0,1,1000,num_1,0.6193017000332475,,27,7,2026-03-05_13h40.31.716,2026A_exp2,2022.2.4,59.946144378568746,
1,0,3.7,0.0,0,0,19,19,10,,,,,95.91487649996998,96.56561980000697,96.56561980000697,97.06660540000303,45,315,97.06660540000303,97.06660540000303,97.06660540000303,97.06660540000303,97.06660540000303,97.06660540000303,97.06660540000303,97.06660540000303,97.06660540000303,97.43297859997256,97.43297859997256,97.43297859997256,97.43297859997256,97.43297859997256,97.43297859997256,97.43297859997256,97.43297859997256,97.43297859997256,23,0,,,97.43297859997256,97.63314960000571,3.7,97.63314960000571,1,3.7,1,1,1000,num_4,0.518540800025221,,27,7,2026-03-05_13h40.31.716,2026A_exp2,2022.2.4,59.946144378568746,
1,0,4.9,6.1,1,0,20,20,36,,,,,98.18388859997503,98.83456479996676,98.83456479996676,99.31886850000592,45,45,99.31886850000592,99.31886850000592,99.31886850000592,99.31886850000592,99.31886850000592,99.31886850000592,99.31886850000592,99.31886850000592,99.31886850000592,99.68504439998651,99.68504439998651,99.68504439998651,99.68504439998651,99.68504439998651,99.68504439998651,99.68504439998651,99.68504439998651,99.68504439998651,23,0,,,99.68504439998651,99.89561909995973,6.1,99.89561909995973,1,6.1,1,1,1000,num_4,0.6313792000291869,,27,7,2026-03-05_13h40.31.716,2026A_exp2,2022.2.4,59.946144378568746,
1,0,3.7,3.7,0,0,21,21,60,,,,,100.55294019996654,101.20343180000782,101.20343180000782,101.7045647999621,315,45,101.7045647999621,101.7045647999621,101.7045647999621,101.7045647999621,101.7045647999621,101.7045647999621,101.7045647999621,101.7045647999621,101.7045647999621,102.07103649998317,102.07103649998317,102.07103649998317,102.07103649998317,102.07103649998317,102.07103649998317,102.07103649998317,102.07103649998317,102.07103649998317,23,0,,,102.07103649998317,102.27128260000609,3.7,102.27128260000609,0,3.7,1,0,1000,num_1,1.2717484000022523,,27,7,2026-03-05_13h40.31.716,2026A_exp2,2022.2.4,59.946144378568746,
0,0,0.0,0.0,1,0,22,22,14,,,,,103.57250269997166,104.22323299996788,104.22323299996788,104.70746189996134,315,45,104.70746189996134,104.70746189996134,104.70746189996134,104.70746189996134,104.70746189996134,104.70746189996134,104.70746189996134,104.70746189996134,104.70746189996134,105.07402880000882,105.07402880000882,105.07402880000882,105.07402880000882,105.07402880000882,105.07402880000882,105.07402880000882,105.07402880000882,105.07402880000882,23,0,,,105.07402880000882,105.2742071999819,0.0,105.2742071999819,1,0.0,0,0,1000,num_4,0.8449600000167266,,27,7,2026-03-05_13h40.31.716,2026A_exp2,2022.2.4,59.946144378568746,
1000,1,4.9,0.0,1,0,23,23,56,,,,,106.14175599999726,106.77570689999266,106.77570689999266,107.27690449997317,315,315,107.27690449997317,107.27690449997317,107.27690449997317,107.27690449997317,107.27690449997317,107.27690449997317,107.27690449997317,107.27690449997317,107.27690449997317,107.64331129996572,107.64331129996572,107.64331129996572,107.64331129996572,107.64331129996572,107.64331129996572,107.64331129996572,107.64331129996572,107.64331129996572,23,0,,,107.64331129996572,107.84474939998472,1000,107.84474939998472,1000,1000,1000,1000,0,num_3,0.5469046999933198,,27,7,2026-03-05_13h40.31.716,2026A_exp2,2022.2.4,59.946144378568746,
1,0,0.0,4.9,1,0,24,24,41,,,,,108.4107151000062,109.0614205999882,109.0614205999882,109.56253729999298,315,45,109.56253729999298,109.56253729999298,109.56253729999298,109.56253729999298,109.56253729999298,109.56253729999298,109.56253729999298,109.56253729999298,109.56253729999298,109.92892719997326,109.92892719997326,109.92892719997326,109.92892719997326,109.92892719997326,109.92892719997326,109.92892719997326,109.92892719997326,109.92892719997326,23,0,,,109.92892719997326,110.12899569998262,4.9,110.12899569998262,1,4.9,1,1,1000,num_4,1.0539787999587134,,27,7,2026-03-05_13h40.31.716,2026A_exp2,2022.2.4,59.946144378568746,
1,0,3.7,0.0,0,0,25,25,7,,,,,111.21338229998946,111.86405769997509,111.86405769997509,112.3485032999888,315,45,112.3485032999888,112.3485032999888,112.3485032999888,112.3485032999888,112.3485032999888,112.3485032999888,112.3485032999888,112.3485032999888,112.3485032999888,112.71506979997503,112.71506979997503,112.71506979997503,112.71506979997503,112.71506979997503,112.71506979997503,112.71506979997503,112.71506979997503,112.71506979997503,23,0,,,112.71506979997503,112.91531159996521,3.7,112.91531159996521,1,3.7,1,1,1000,num_4,0.7317655999795534,,27,7,2026-03-05_13h40.31.716,2026A_exp2,2022.2.4,59.946144378568746,
1,0,0.0,4.9,1,0,26,26,73,,,,,113.66692779998994,114.31670949998079,114.31670949998079,114.81781559996307,45,45,114.81781559996307,114.81781559996307,114.81781559996307,114.81781559996307,114.81781559996307,114.81781559996307,114.81781559996307,114.81781559996307,114.81781559996307,115.18392280000262,115.18392280000262,115.18392280000262,115.18392280000262,115.18392280000262,115.18392280000262,115.18392280000262,115.18392280000262,115.18392280000262,23,0,,,115.18392280000262,115.39539550000336,4.9,115.39539550000336,1,4.9,1,1,1000,num_4,0.6517280000261962,,27,7,2026-03-05_13h40.31.716,2026A_exp2,2022.2.4,59.946144378568746,
1,0,0.0,0.0,1,0,27,27,4,,,,,116.06814679998206,116.71904589998303,116.71904589998303,117.20351889997255,315,315,117.20351889997255,117.20351889997255,117.20351889997255,117.20351889997255,117.20351889997255,117.20351889997255,117.20351889997255,117.20351889997255,117.20351889997255,117.56988309998997,117.56988309998997,117.56988309998997,117.56988309998997,117.56988309998997,117.56988309998997,117.56988309998997,117.56988309998997,117.56988309998997,23,0,,,117.56988309998997,117.77010809996864,0.0,117.77010809996864,0,0.0,0,1,1000,num_1,0.6131978000048548,,27,7,2026-03-05_13h40.31.716,2026A_exp2,2022.2.4,59.946144378568746,
1000,1,0.0,4.9,1,0,28,28,57,,,,,118.40404950000811,119.05473400000483,119.05473400000483,119.55571009998675,45,45,119.55571009998675,119.55571009998675,119.55571009998675,119.55571009998675,119.55571009998675,119.55571009998675,119.55571009998675,119.55571009998675,119.55571009998675,119.90573210001457,119.90573210001457,119.90573210001457,119.90573210001457,119.90573210001457,119.90573210001457,119.90573210001457,119.90573210001457,119.90573210001457,13,1,[0.21696869999868795],[0.3503752999822609],119.90573210001457,120.10621509997873,1000,120.12224659998901,1000,1000,1000,1000,1,num_2,0.7740963999531232,,27,7,2026-03-05_13h40.31.716,2026A_exp2,2022.2.4,59.946144378568746,
1000,1,6.1,0.0,0,0,29,29,21,,,,,120.92329139995854,121.57383539999137,121.57383539999137,122.07473860000027,315,45,122.07473860000027,122.07473860000027,122.07473860000027,122.07473860000027,122.07473860000027,122.07473860000027,122.07473860000027,122.07473860000027,122.07473860000027,122.44135069998447,122.44135069998447,122.44135069998447,122.44135069998447,122.44135069998447,122.44135069998447,122.44135069998447,122.44135069998447,122.44135069998447,22,1,[0.26748620002763346],[0.28427770000416785],122.44135069998447,122.6433454999933,1000,122.6433454999933,1000,1000,1000,1000,0,num_3,0.5320253999670967,,27,7,2026-03-05_13h40.31.716,2026A_exp2,2022.2.4,59.946144378568746,
1000,1,6.1,4.9,1,0,30,30,15,,,,,123.19211689999793,123.84286619996419,123.84286619996419,124.34392780001508,45,315,124.34392780001508,124.34392780001508,124.34392780001508,124.34392780001508,124.34392780001508,124.34392780001508,124.34392780001508,124.34392780001508,124.34392780001508,124.7103545999853,124.7103545999853,124.7103545999853,124.7103545999853,124.7103545999853,124.7103545999853,124.7103545999853,124.7103545999853,124.7103545999853,23,0,,,124.7103545999853,124.91239179996774,1000,124.91239179996774,1000,1000,1000,1000,0,num_3,0.5592557999771088,,27,7,2026-03-05_13h40.31.716,2026A_exp2,2022.2.4,59.946144378568746,
1000,1,4.9,0.0,0,0,31,31,45,,,,,125.49434879998444,126.14518200000748,126.14518200000748,126.62962399999378,45,45,126.62962399999378,126.62962399999378,126.62962399999378,126.62962399999378,126.62962399999378,126.62962399999378,126.62962399999378,126.62962399999378,126.62962399999378,126.99595949996728,126.99595949996728,126.99595949996728,126.99595949996728,126.99595949996728,126.99595949996728,126.99595949996728,126.99595949996728,126.99595949996728,23,0,,,126.99595949996728,127.19818090001354,1000,127.19818090001354,1000,1000,1000,1000,0,num_3,0.6814291000482626,,27,7,2026-03-05_13h40.31.716,2026A_exp2,2022.2.4,59.946144378568746,
1,0,0.0,0.0,0,0,32,32,32,,,,,127.89677509997273,128.54756289999932,128.54756289999932,129.04855870001484,315,45,129.04855870001484,129.04855870001484,129.04855870001484,129.04855870001484,129.04855870001484,129.04855870001484,129.04855870001484,129.04855870001484,129.04855870001484,129.41495139995823,129.41495139995823,129.41495139995823,129.41495139995823,129.41495139995823,129.41495139995823,129.41495139995823,129.41495139995823,129.41495139995823,23,0,,,129.41495139995823,129.61508540000068,0.0,129.61508540000068,1,0.0,0,0,1000,num_4,0.9367447000113316,,27,7,2026-03-05_13h40.31.716,2026A_exp2,2022.2.4,59.946144378568746,
1,0,4.9,3.7,1,0,33,33,71,,,,,130.58277129998896,131.23361940000905,131.23361940000905,131.73475629999302,315,45,131.73475629999302,131.73475629999302,131.73475629999302,131.73475629999302,131.73475629999302,131.73475629999302,131.73475629999302,131.73475629999302,131.73475629999302,132.1010341999936,132.1010341999936,132.1010341999936,132.1010341999936,132.1010341999936,132.1010341999936,132.1010341999936,132.1010341999936,132.1010341999936,23,0,,,132.1010341999936,132.3012477000011,3.7,132.3012477000011,1,3.7,1,1,1000,num_4,0.9297551999916323,,27,7,2026-03-05_13h40.31.716,2026A_exp2,2022.2.4,59.946144378568746,
1000,1,3.7,0.0,0,0,34,34,55,,,,,133.2521903999732,133.90290990000358,133.90290990000358,134.38741309999023,315,45,134.38741309999023,134.38741309999023,134.38741309999023,134.38741309999023,134.38741309999023,134.38741309999023,134.38741309999023,134.38741309999023,134.38741309999023,134.7539143000031,134.7539143000031,134.7539143000031,134.7539143000031,134.7539143000031,134.7539143000031,134.7539143000031,134.7539143000031,134.7539143000031,23,0,,,134.7539143000031,134.95569169998635,1000,134.95569169998635,1000,1000,1000,1000,0,num_3,0.540200499992352,,27,7,2026-03-05_13h40.31.716,2026A_exp2,2022.2.4,59.946144378568746,
1000,1,4.9,0.0,0,0,35,35,37,,,,,135.52119619998848,136.1717595999944,136.1717595999944,136.6562628999818,45,45,136.6562628999818,136.6562628999818,136.6562628999818,136.6562628999818,136.6562628999818,136.6562628999818,136.6562628999818,136.6562628999818,136.6562628999818,137.02266670000972,137.02266670000972,137.02266670000972,137.02266670000972,137.02266670000972,137.02266670000972,137.02266670000972,137.02266670000972,137.02266670000972,23,0,,,137.02266670000972,137.22299689997453,1000,137.22299689997453,1000,1000,1000,1000,0,num_3,0.5045106000034139,,27,7,2026-03-05_13h40.31.716,2026A_exp2,2022.2.4,59.946144378568746,
0,0,6.1,4.9,1,0,36,36,42,,,,,137.75674350000918,138.40737969998736,138.40737969998736,138.90852850000374,45,315,138.90852850000374,138.90852850000374,138.90852850000374,138.90852850000374,138.90852850000374,138.90852850000374,138.90852850000374,138.90852850000374,138.90852850000374,139.2749538999633,139.2749538999633,139.2749538999633,139.2749538999633,139.2749538999633,139.2749538999633,139.2749538999633,139.2749538999633,139.2749538999633,20,3,"[0.11692800000309944, 0.15033809997839853, 0.20039660000475124]","[0.13372109999181703, 0.1670356999966316, 0.2169137999881059]",139.2749538999633,139.47517589997733,6.1,139.47517589997733,1,6.1,1,1,1000,num_4,0.8840552999754436,,27,7,2026-03-05_13h40.31.716,2026A_exp2,2022.2.4,59.946144378568746,
1,0,0.0,0.0,1,0,37,37,20,,,,,140.37590819998877,141.02669349999633,141.02669349999633,141.5277946999995,315,45,141.5277946999995,141.5277946999995,141.5277946999995,141.5277946999995,141.5277946999995,141.5277946999995,141.5277946999995,141.5277946999995,141.5277946999995,141.87753299996257,141.87753299996257,141.87753299996257,141.87753299996257,141.87753299996257,141.87753299996257,141.87753299996257,141.87753299996257,141.87753299996257,22,0,,,141.87753299996257,142.07787719997577,0.0,142.09434760001022,0,0.0,0,1,1000,num_1,0.737242300005164,,27,7,2026-03-05_13h40.31.716,2026A_exp2,2022.2.4,59.946144378568746,
1,0,3.7,3.7,0,0,38,38,8,,,,,142.86176649999106,143.5124503999832,143.5124503999832,143.99708040000405,315,45,143.99708040000405,143.99708040000405,143.99708040000405,143.99708040000405,143.99708040000405,143.99708040000405,143.99708040000405,143.99708040000405,143.99708040000405,144.36329139996087,144.36329139996087,144.36329139996087,144.36329139996087,144.36329139996087,144.36329139996087,144.36329139996087,144.36329139996087,144.36329139996087,23,0,,,144.36329139996087,144.56348720000824,3.7,144.56348720000824,1,3.7,1,1,1000,num_4,0.652234099979978,,27,7,2026-03-05_13h40.31.716,2026A_exp2,2022.2.4,59.946144378568746,
1,0,0.0,0.0,0,0,39,39,6,,,,,145.24750389996916,145.8982889999752,145.8982889999752,146.38274769997224,315,45,146.38274769997224,146.38274769997224,146.38274769997224,146.38274769997224,146.38274769997224,146.38274769997224,146.38274769997224,146.38274769997224,146.38274769997224,146.74910590000218,146.74910590000218,146.74910590000218,146.74910590000218,146.74910590000218,146.74910590000218,146.74910590000218,146.74910590000218,146.74910590000218,2,1,[0.03362900001229718],[0.36713379999855533],146.74910590000218,146.949175799964,0.0,146.949175799964,1,0.0,0,0,1000,num_4,0.5949813000042923,,27,7,2026-03-05_13h40.31.716,2026A_exp2,2022.2.4,59.946144378568746,
1,0,0.0,0.0,0,0,40,40,11,,,,,147.56634479999775,148.217167099996,148.217167099996,148.70162989996606,315,45,148.70162989996606,148.70162989996606,148.70162989996606,148.70162989996606,148.70162989996606,148.70162989996606,148.70162989996606,148.70162989996606,148.70162989996606,149.06815020000795,149.06815020000795,149.06815020000795,149.06815020000795,149.06815020000795,149.06815020000795,149.06815020000795,149.06815020000795,149.06815020000795,23,0,,,149.06815020000795,149.26833039999474,0.0,149.26833039999474,1,0.0,0,0,1000,num_4,1.1467248999979347,,27,7,2026-03-05_13h40.31.716,2026A_exp2,2022.2.4,59.946144378568746,
1,0,0.0,0.0,0,0,41,41,39,,,,,150.43608680000762,151.0701013999642,151.0701013999642,151.57101139996666,45,315,151.57101139996666,151.57101139996666,151.57101139996666,151.57101139996666,151.57101139996666,151.57101139996666,151.57101139996666,151.57101139996666,151.57101139996666,151.9375576999737,151.9375576999737,151.9375576999737,151.9375576999737,151.9375576999737,151.9375576999737,151.9375576999737,151.9375576999737,151.9375576999737,23,0,,,151.9375576999737,152.13769349997165,0.0,152.13769349997165,1,0.0,0,0,1000,num_4,0.4532201999682002,,27,7,2026-03-05_13h40.31.716,2026A_exp2,2022.2.4,59.946144378568746,
1,0,0.0,3.7,0,0,42,42,64,,,,,152.6216221000068,153.2721911999979,153.2721911999979,153.7566044999985,45,45,153.7566044999985,153.7566044999985,153.7566044999985,153.7566044999985,153.7566044999985,153.7566044999985,153.7566044999985,153.7566044999985,153.7566044999985,154.12302910001017,154.12302910001017,154.12302910001017,154.12302910001017,154.12302910001017,154.12302910001017,154.12302910001017,154.12302910001017,154.12302910001017,23,0,,,154.12302910001017,154.3233184000128,0.0,154.3233184000128,1,0.0,0,0,1000,num_4,1.2363889000262134,,27,7,2026-03-05_13h40.31.716,2026A_exp2,2022.2.4,59.946144378568746,
1,0,4.9,4.9,1,0,43,43,18,,,,,155.59110700001474,156.24195240001427,156.24195240001427,156.72637039999245,45,45,156.72637039999245,156.72637039999245,156.72637039999245,156.72637039999245,156.72637039999245,156.72637039999245,156.72637039999245,156.72637039999245,156.72637039999245,157.09270969999488,157.09270969999488,157.09270969999488,157.09270969999488,157.09270969999488,157.09270969999488,157.09270969999488,157.09270969999488,157.09270969999488,22,1,[0.10022029996616766],[0.11684859998058528],157.09270969999488,157.29293629998574,4.9,157.29293629998574,1,4.9,1,1,1000,num_4,1.4428985000122339,,27,7,2026-03-05_13h40.31.716,2026A_exp2,2022.2.4,59.946144378568746,
1000,1,3.7,4.9,0,0,44,44,25,,,,,158.76092629996128,159.41177810000954,159.41177810000954,159.89616010000464,315,45,159.89616010000464,159.89616010000464,159.89616010000464,159.89616010000464,159.89616010000464,159.89616010000464,159.89616010000464,159.89616010000464,159.89616010000464,160.26272100000642,160.26272100000642,160.26272100000642,160.26272100000642,160.26272100000642,160.26272100000642,160.26272100000642,160.26272100000642,160.26272100000642,23,0,,,160.26272100000642,160.46290210000006,1000,160.46290210000006,1000,1000,1000,1000,1,num_2,0.6574718999909237,,27,7,2026-03-05_13h40.31.716,2026A_exp2,2022.2.4,59.946144378568746,
1,0,0.0,0.0,0,0,45,45,22,,,,,161.14670189999742,161.79745780001394,161.79745780001394,162.29855399997905,315,315,162.29855399997905,162.29855399997905,162.29855399997905,162.29855399997905,162.29855399997905,162.29855399997905,162.29855399997905,162.29855399997905,162.29855399997905,162.66498930001399,162.66498930001399,162.66498930001399,162.66498930001399,162.66498930001399,162.66498930001399,162.66498930001399,162.66498930001399,162.66498930001399,23,0,,,162.66498930001399,162.86520110000856,0.0,162.86520110000856,0,0.0,0,1,1000,num_1,0.7825045000063255,,27,7,2026-03-05_13h40.31.716,2026A_exp2,2022.2.4,59.946144378568746,
0,0,0.0,6.1,1,0,46,46,46,,,,,163.66700720001245,164.31852229998913,164.31852229998913,164.81770019995747,45,45,164.81770019995747,164.81770019995747,164.81770019995747,164.81770019995747,164.81770019995747,164.81770019995747,164.81770019995747,164.81770019995747,164.81770019995747,165.1841293000034,165.1841293000034,165.1841293000034,165.1841293000034,165.1841293000034,165.1841293000034,165.1841293000034,165.1841293000034,165.1841293000034,23,0,,,165.1841293000034,165.38442829996347,0.0,165.38442829996347,0,0.0,0,1,1000,num_1,0.6077918999944814,,27,7,2026-03-05_13h40.31.716,2026A_exp2,2022.2.4,59.946144378568746,
1,0,0.0,0.0,1,0,47,47,59,,,,,166.01825349999126,166.66893260000506,166.66893260000506,167.1534992000088,45,315,167.1534992000088,167.1534992000088,167.1534992000088,167.1534992000088,167.1534992000088,167.1534992000088,167.1534992000088,167.1534992000088,167.1534992000088,167.51986699999543,167.51986699999543,167.51986699999543,167.51986699999543,167.51986699999543,167.51986699999543,167.51986699999543,167.51986699999543,167.51986699999543,23,0,,,167.51986699999543,167.7199885000009,0.0,167.7199885000009,0,0.0,0,1,1000,num_1,0.47903729998506606,,27,7,2026-03-05_13h40.31.716,2026A_exp2,2022.2.4,59.946144378568746,
1000,1,0.0,3.7,1,0,48,48,82,,,,,168.2202868000022,168.85436509997817,168.85436509997817,169.35565410001436,315,315,169.35565410001436,169.35565410001436,169.35565410001436,169.35565410001436,169.35565410001436,169.35565410001436,169.35565410001436,169.35565410001436,169.35565410001436,169.72205439995741,169.72205439995741,169.72205439995741,169.72205439995741,169.72205439995741,169.72205439995741,169.72205439995741,169.72205439995741,169.72205439995741,23,0,,,169.72205439995741,169.9240301999962,1000,169.9240301999962,1000,1000,1000,1000,0,num_3,0.9243685000110418,,27,7,2026-03-05_13h40.31.716,2026A_exp2,2022.2.4,59.946144378568746,
1,0,6.1,0.0,0,0,49,49,77,,,,,170.87308059999486,171.52391310001258,171.52391310001258,172.02490269998088,315,45,172.02490269998088,172.02490269998088,172.02490269998088,172.02490269998088,172.02490269998088,172.02490269998088,172.02490269998088,172.02490269998088,172.02490269998088,172.39143029996194,172.39143029996194,172.39143029996194,172.39143029996194,172.39143029996194,172.39143029996194,172.39143029996194,172.39143029996194,172.39143029996194,23,0,,,172.39143029996194,172.59161689999746,6.1,172.59161689999746,1,6.1,1,1,1000,num_4,0.6315246000303887,,27,7,2026-03-05_13h40.31.716,2026A_exp2,2022.2.4,59.946144378568746,
1000,1,6.1,6.1,1,0,50,50,53,,,,,173.24214569997275,173.89289749995805,173.89289749995805,174.37720119999722,315,45,174.37720119999722,174.37720119999722,174.37720119999722,174.37720119999722,174.37720119999722,174.37720119999722,174.37720119999722,174.37720119999722,174.37720119999722,174.74377150001237,174.74377150001237,174.74377150001237,174.74377150001237,174.74377150001237,174.74377150001237,174.74377150001237,174.74377150001237,174.74377150001237,2,3,"[0.0012026000185869634, 0.20042860001558438, 0.3003119999775663]","[0.18378159997519106, 0.2837262999964878, 0.3672616999829188]",174.74377150001237,174.9457870000042,1000,174.9457870000042,1000,1000,1000,1000,0,num_3,0.6060291000176221,,27,7,2026-03-05_13h40.31.716,2026A_exp2,2022.2.4,59.946144378568746,
1,0,6.1,6.1,0,0,51,51,89,,,,,175.57775860000402,176.22863530000905,176.22863530000905,176.72969139995985,45,45,176.72969139995985,176.72969139995985,176.72969139995985,176.72969139995985,176.72969139995985,176.72969139995985,176.72969139995985,176.72969139995985,176.72969139995985,177.09603209997294,177.09603209997294,177.09603209997294,177.09603209997294,177.09603209997294,177.09603209997294,177.09603209997294,177.09603209997294,177.09603209997294,23,0,,,177.09603209997294,177.29620739998063,6.1,177.29620739998063,1,6.1,1,1,1000,num_4,0.6794144000159577,,27,7,2026-03-05_13h40.31.716,2026A_exp2,2022.2.4,59.946144378568746,
1000,1,0.0,0.0,1,0,52,52,63,,,,,177.99698629998602,178.64764699997613,178.64764699997613,179.13209649996134,45,315,179.13209649996134,179.13209649996134,179.13209649996134,179.13209649996134,179.13209649996134,179.13209649996134,179.13209649996134,179.13209649996134,179.13209649996134,179.4984509999631,179.4984509999631,179.4984509999631,179.4984509999631,179.4984509999631,179.4984509999631,179.4984509999631,179.4984509999631,179.4984509999631,20,3,"[0.13362779997987673, 0.3003554999595508, 0.35041869996348396]","[0.15026169997872785, 0.31705589999910444, 0.3671555999899283]",179.4984509999631,179.70094050001353,1000,179.70094050001353,1000,1000,1000,1000,1,num_2,1.0509629000443965,,27,7,2026-03-05_13h40.31.716,2026A_exp2,2022.2.4,59.946144378568746,
1000,1,3.7,6.1,1,0,53,53,43,,,,,180.76631390000694,181.41721549996873,181.41721549996873,181.9183777999715,315,315,181.9183777999715,181.9183777999715,181.9183777999715,181.9183777999715,181.9183777999715,181.9183777999715,181.9183777999715,181.9183777999715,181.9183777999715,182.28427439997904,182.28427439997904,182.28427439997904,182.28427439997904,182.28427439997904,182.28427439997904,182.28427439997904,182.28427439997904,182.28427439997904,23,0,,,182.28427439997904,182.4850027000066,1000,182.4850027000066,1000,1000,1000,1000,1,num_2,0.4593684999854304,,27,7,2026-03-05_13h40.31.716,2026A_exp2,2022.2.4,59.946144378568746,
0,0,6.1,6.1,1,0,54,54,48,,,,,182.9688887000084,183.61929130001226,183.61929130001226,184.12038290000055,315,45,184.12038290000055,184.12038290000055,184.12038290000055,184.12038290000055,184.12038290000055,184.12038290000055,184.12038290000055,184.12038290000055,184.12038290000055,184.48700739996275,184.48700739996275,184.48700739996275,184.48700739996275,184.48700739996275,184.48700739996275,184.48700739996275,184.48700739996275,184.48700739996275,21,1,[0.21677689999341965],[0.25015600002370775],184.48700739996275,184.68700229999376,6.1,184.68700229999376,0,6.1,1,0,1000,num_1,0.9362283000373282,,27,7,2026-03-05_13h40.31.716,2026A_exp2,2022.2.4,59.946144378568746,
1,0,6.1,0.0,1,0,55,55,17,,,,,185.63960519997636,186.28870380000444,186.28870380000444,186.7897716999869,45,45,186.7897716999869,186.7897716999869,186.7897716999869,186.7897716999869,186.7897716999869,186.7897716999869,186.7897716999869,186.7897716999869,186.7897716999869,187.15629329998046,187.15629329998046,187.15629329998046,187.15629329998046,187.15629329998046,187.15629329998046,187.15629329998046,187.15629329998046,187.15629329998046,23,0,,,187.15629329998046,187.3563114000135,0.0,187.3563114000135,0,0.0,0,1,1000,num_1,0.9392512000049464,,27,7,2026-03-05_13h40.31.716,2026A_exp2,2022.2.4,59.946144378568746,
1,0,0.0,0.0,0,0,56,56,85,,,,,188.323828099994,188.97467699996196,188.97467699996196,189.47561699996004,315,315,189.47561699996004,189.47561699996004,189.47561699996004,189.47561699996004,189.47561699996004,189.47561699996004,189.47561699996004,189.47561699996004,189.47561699996004,189.82555830001365,189.82555830001365,189.82555830001365,189.82555830001365,189.82555830001365,189.82555830001365,189.82555830001365,189.82555830001365,189.82555830001365,22,0,,,189.82555830001365,190.02554699999746,0.0,190.0424002999789,1,0.0,0,0,1000,num_4,0.8605405999696814,,27,7,2026-03-05_13h40.31.716,2026A_exp2,2022.2.4,59.946144378568746,
1000,1,0.0,0.0,1,0,57,57,68,,,,,190.92651700001443,191.57722380000632,191.57722380000632,192.0617250999785,315,45,192.0617250999785,192.0617250999785,192.0617250999785,192.0617250999785,192.0617250999785,192.0617250999785,192.0617250999785,192.0617250999785,192.0617250999785,192.42807679995894,192.42807679995894,192.42807679995894,192.42807679995894,192.42807679995894,192.42807679995894,192.42807679995894,192.42807679995894,192.42807679995894,22,1,[0.033613900013733655],[0.05016290000639856],192.42807679995894,192.6285227999906,1000,192.6285227999906,1000,1000,1000,1000,1,num_2,0.6905630999826826,,27,7,2026-03-05_13h40.31.716,2026A_exp2,2022.2.4,59.946144378568746,
1000,1,0.0,6.1,0,0,58,58,27,,,,,193.34550250001485,193.99634169996716,193.99634169996716,194.49748899997212,315,315,194.49748899997212,194.49748899997212,194.49748899997212,194.49748899997212,194.49748899997212,194.49748899997212,194.49748899997212,194.49748899997212,194.49748899997212,194.863898599986,194.863898599986,194.863898599986,194.863898599986,194.863898599986,194.863898599986,194.863898599986,194.863898599986,194.863898599986,23,0,,,194.863898599986,195.0659932999988,1000,195.0659932999988,1000,1000,1000,1000,1,num_2,0.66925119998632,,27,7,2026-03-05_13h40.31.716,2026A_exp2,2022.2.4,59.946144378568746,
1000,1,3.7,3.7,1,0,59,59,54,,,,,195.76471109996783,196.41535620001378,196.41535620001378,196.91656759998295,45,315,196.91656759998295,196.91656759998295,196.91656759998295,196.91656759998295,196.91656759998295,196.91656759998295,196.91656759998295,196.91656759998295,196.91656759998295,197.2829339999589,197.2829339999589,197.2829339999589,197.2829339999589,197.2829339999589,197.2829339999589,197.2829339999589,197.2829339999589,197.2829339999589,18,2,"[0.21717700001318008, 0.31759669998427853]","[0.26726970000891015, 0.3505773000069894]",197.2829339999589,197.4846749000135,1000,197.4846749000135,1000,1000,1000,1000,0,num_3,0.6502592000178993,,27,7,2026-03-05_13h40.31.716,2026A_exp2,2022.2.4,59.946144378568746,
1000,1,0.0,0.0,0,0,60,60,2,,,,,198.15035969996825,198.80099999997765,198.80099999997765,199.30228229996283,315,315,199.30228229996283,199.30228229996283,199.30228229996283,199.30228229996283,199.30228229996283,199.30228229996283,199.30228229996283,199.30228229996283,199.30228229996283,199.66854609997245,199.66854609997245,199.66854609997245,199.66854609997245,199.66854609997245,199.66854609997245,199.66854609997245,199.66854609997245,199.66854609997245,22,0,,,199.66854609997245,199.87081599998055,1000,199.87081599998055,1000,1000,1000,1000,0,num_3,0.7451554000144824,,27,7,2026-03-05_13h40.31.716,2026A_exp2,2022.2.4,59.946144378568746,
1,0,0.0,0.0,1,0,61,61,66,,,,,200.6361382000032,201.28691199998138,201.28691199998138,201.7881241000141,315,45,201.7881241000141,201.7881241000141,201.7881241000141,201.7881241000141,201.7881241000141,201.7881241000141,201.7881241000141,201.7881241000141,201.7881241000141,202.15447209996637,202.15447209996637,202.15447209996637,202.15447209996637,202.15447209996637,202.15447209996637,202.15447209996637,202.15447209996637,202.15447209996637,23,0,,,202.15447209996637,202.35470889997669,0.0,202.35470889997669,0,0.0,0,1,1000,num_1,1.0930187999620102,,27,7,2026-03-05_13h40.31.716,2026A_exp2,2022.2.4,59.946144378568746,
0,0,0.0,0.0,1,0,62,62,80,,,,,203.47233349998714,204.1230685999617,204.1230685999617,204.6075149999815,315,315,204.6075149999815,204.6075149999815,204.6075149999815,204.6075149999815,204.6075149999815,204.6075149999815,204.6075149999815,204.6075149999815,204.6075149999815,204.97395159996813,204.97395159996813,204.97395159996813,204.97395159996813,204.97395159996813,204.97395159996813,204.97395159996813,204.97395159996813,204.97395159996813,23,0,,,204.97395159996813,205.1742091999622,0.0,205.1742091999622,1,0.0,0,0,1000,num_4,1.0649589999811724,,27,7,2026-03-05_13h40.31.716,2026A_exp2,2022.2.4,59.946144378568746,
1000,1,0.0,3.7,0,0,63,63,50,,,,,206.25840489997063,206.90930469997693,206.90930469997693,207.39356429997133,315,315,207.39356429997133,207.39356429997133,207.39356429997133,207.39356429997133,207.39356429997133,207.39356429997133,207.39356429997133,207.39356429997133,207.39356429997133,207.76009699999122,207.76009699999122,207.76009699999122,207.76009699999122,207.76009699999122,207.76009699999122,207.76009699999122,207.76009699999122,207.76009699999122,23,0,,,207.76009699999122,207.96203599998262,1000,207.96203599998262,1000,1000,1000,1000,0,num_3,0.5737297000014223,,27,7,2026-03-05_13h40.31.716,2026A_exp2,2022.2.4,59.946144378568746,
1000,1,0.0,0.0,1,0,64,64,34,,,,,208.56081920000724,209.21153199998662,209.21153199998662,209.71250239998335,45,315,209.71250239998335,209.71250239998335,209.71250239998335,209.71250239998335,209.71250239998335,209.71250239998335,209.71250239998335,209.71250239998335,209.71250239998335,210.0791223999695,210.0791223999695,210.0791223999695,210.0791223999695,210.0791223999695,210.0791223999695,210.0791223999695,210.0791223999695,210.0791223999695,16,3,"[0.11709299997892231, 0.21731809998163953, 0.2839508000179194]","[0.13370920001761988, 0.25043060001917183, 0.35064999997848645]",210.0791223999695,210.28119159996277,1000,210.28119159996277,1000,1000,1000,1000,1,num_2,0.4777825000346638,,27,7,2026-03-05_13h40.31.716,2026A_exp2,2022.2.4,59.946144378568746,
1000,1,3.7,0.0,1,0,65,65,78,,,,,210.77948490000563,211.43046130001312,211.43046130001312,211.9147587000043,45,45,211.9147587000043,211.9147587000043,211.9147587000043,211.9147587000043,211.9147587000043,211.9147587000043,211.9147587000043,211.9147587000043,211.9147587000043,212.2813868999947,212.2813868999947,212.2813868999947,212.2813868999947,212.2813868999947,212.2813868999947,212.2813868999947,212.2813868999947,212.2813868999947,19,3,"[0.09974450001027435, 0.16696369997225702, 0.25053509999997914]","[0.11648139997851104, 0.20032399997580796, 0.26714329997776076]",212.2813868999947,212.4815447999863,1000,212.4815447999863,1000,1000,1000,1000,0,num_3,0.47837570001138374,,27,7,2026-03-05_13h40.31.716,2026A_exp2,2022.2.4,59.946144378568746,
1000,1,0.0,4.9,0,0,66,66,23,,,,,212.98183710000012,213.63265589997172,213.63265589997172,214.133749599976,45,315,214.133749599976,214.133749599976,214.133749599976,214.133749599976,214.133749599976,214.133749599976,214.133749599976,214.133749599976,214.133749599976,214.49998610001057,214.49998610001057,214.49998610001057,214.49998610001057,214.49998610001057,214.49998610001057,214.49998610001057,214.49998610001057,214.49998610001057,23,0,,,214.49998610001057,214.70451309997588,1000,214.70451309997588,1000,1000,1000,1000,0,num_3,0.6545336000272073,,27,7,2026-03-05_13h40.31.716,2026A_exp2,2022.2.4,59.946144378568746,
1,0,0.0,3.7,0,0,67,67,31,,,,,215.3842968000099,216.03502989996923,216.03502989996923,216.5361816000077,315,45,216.5361816000077,216.5361816000077,216.5361816000077,216.5361816000077,216.5361816000077,216.5361816000077,216.5361816000077,216.5361816000077,216.5361816000077,216.90273669996532,216.90273669996532,216.90273669996532,216.90273669996532,216.90273669996532,216.90273669996532,216.90273669996532,216.90273669996532,216.90273669996532,21,1,[0.351862599956803],[0.3688235999434255],216.90273669996532,217.1028925999999,0.0,217.1028925999999,0,0.0,0,1,1000,num_1,1.0002853000187315,,27,7,2026-03-05_13h40.31.716,2026A_exp2,2022.2.4,59.946144378568746,
1000,1,0.0,0.0,0,0,68,68,79,,,,,218.120271999971,218.77117069996893,218.77117069996893,219.25557199999457,45,45,219.25557199999457,219.25557199999457,219.25557199999457,219.25557199999457,219.25557199999457,219.25557199999457,219.25557199999457,219.25557199999457,219.25557199999457,219.62196530000074,219.62196530000074,219.62196530000074,219.62196530000074,219.62196530000074,219.62196530000074,219.62196530000074,219.62196530000074,219.62196530000074,23,0,,,219.62196530000074,219.82404529995983,1000,219.82404529995983,1000,1000,1000,1000,1,num_2,0.8074835000443272,,27,7,2026-03-05_13h40.31.716,2026A_exp2,2022.2.4,59.946144378568746,
1000,1,3.7,0.0,1,0,69,69,52,,,,,220.65618009999162,221.306961699971,221.306961699971,221.80817059997935,315,45,221.80817059997935,221.80817059997935,221.80817059997935,221.80817059997935,221.80817059997935,221.80817059997935,221.80817059997935,221.80817059997935,221.80817059997935,222.1745486999862,222.1745486999862,222.1745486999862,222.1745486999862,222.1745486999862,222.1745486999862,222.1745486999862,222.1745486999862,222.1745486999862,11,8,"[0.01760129997273907, 0.08330349996685982, 0.11661789997015148, 0.1668593999929726, 0.2004373999661766, 0.23376799997640774, 0.3172748999786563, 0.36709889996564016]","[0.0335141999530606, 0.10004349995870143, 0.14997839997522533, 0.1837816999759525, 0.21709039999404922, 0.3005554999690503, 0.3339618999743834, 0.3671031999983825]",222.1745486999862,222.37651709996862,1000,222.37651709996862,1000,1000,1000,1000,0,num_3,0.6628420000197366,,27,7,2026-03-05_13h40.31.716,2026A_exp2,2022.2.4,59.946144378568746,
0,0,0.0,4.9,1,0,70,70,0,,,,,223.05851529998472,223.70939450000878,223.70939450000878,224.2105369999772,45,315,224.2105369999772,224.2105369999772,224.2105369999772,224.2105369999772,224.2105369999772,224.2105369999772,224.2105369999772,224.2105369999772,224.2105369999772,224.5769322999986,224.5769322999986,224.5769322999986,224.5769322999986,224.5769322999986,224.5769322999986,224.5769322999986,224.5769322999986,224.5769322999986,22,1,[0.08366050000768155],[0.10033470002235845],224.5769322999986,224.7771469000145,0.0,224.7771469000145,0,0.0,0,1,1000,num_1,1.294272200029809,,27,7,2026-03-05_13h40.31.716,2026A_exp2,2022.2.4,59.946144378568746,
1,0,0.0,3.7,0,0,71,71,76,,,,,226.0949052000069,226.7457499000011,226.7457499000011,227.24679159995867,315,315,227.24679159995867,227.24679159995867,227.24679159995867,227.24679159995867,227.24679159995867,227.24679159995867,227.24679159995867,227.24679159995867,227.24679159995867,227.5965910999803,227.5965910999803,227.5965910999803,227.5965910999803,227.5965910999803,227.5965910999803,227.5965910999803,227.5965910999803,227.5965910999803,22,0,,,227.5965910999803,227.79673930001445,0.0,227.79673930001445,0,0.0,0,1,1000,num_1,1.7470937999896705,,27,7,2026-03-05_13h40.31.716,2026A_exp2,2022.2.4,59.946144378568746,
1000,1,4.9,0.0,0,0,72,72,12,,,,,229.56499189999886,230.2158472999581,230.2158472999581,230.70019740000134,315,315,230.70019740000134,230.70019740000134,230.70019740000134,230.70019740000134,230.70019740000134,230.70019740000134,230.70019740000134,230.70019740000134,230.70019740000134,231.06661649997113,231.06661649997113,231.06661649997113,231.06661649997113,231.06661649997113,231.06661649997113,231.06661649997113,231.06661649997113,231.06661649997113,23,0,,,231.06661649997113,231.26862819999224,1000,231.26862819999224,1000,1000,1000,1000,0,num_3,0.5555458000162616,,27,7,2026-03-05_13h40.31.716,2026A_exp2,2022.2.4,59.946144378568746,
1000,1,4.9,0.0,1,0,73,73,74,,,,,231.8508033999824,232.5014017999638,232.5014017999638,233.0026498999796,315,315,233.0026498999796,233.0026498999796,233.0026498999796,233.0026498999796,233.0026498999796,233.0026498999796,233.0026498999796,233.0026498999796,233.0026498999796,233.36888969998108,233.36888969998108,233.36888969998108,233.36888969998108,233.36888969998108,233.36888969998108,233.36888969998108,233.36888969998108,233.36888969998108,7,1,[0.1171559999929741],[0.36734589998377487],233.36888969998108,233.5709372999845,1000,233.5709372999845,1000,1000,1000,1000,0,num_3,0.5093730000080541,,27,7,2026-03-05_13h40.31.716,2026A_exp2,2022.2.4,59.946144378568746,
1000,1,0.0,0.0,1,0,74,74,35,,,,,234.1030348999775,234.75371359998826,234.75371359998826,235.2547806999646,45,45,235.2547806999646,235.2547806999646,235.2547806999646,235.2547806999646,235.2547806999646,235.2547806999646,235.2547806999646,235.2547806999646,235.2547806999646,235.62132099998416,235.62132099998416,235.62132099998416,235.62132099998416,235.62132099998416,235.62132099998416,235.62132099998416,235.62132099998416,235.62132099998416,23,0,,,235.62132099998416,235.82373090001056,1000,235.82373090001056,1000,1000,1000,1000,1,num_2,0.5913874999969266,,27,7,2026-03-05_13h40.31.716,2026A_exp2,2022.2.4,59.946144378568746,
1000,1,0.0,0.0,0,0,75,75,24,,,,,236.43872809997993,237.08975669997744,237.08975669997744,237.59044160001213,315,45,237.59044160001213,237.59044160001213,237.59044160001213,237.59044160001213,237.59044160001213,237.59044160001213,237.59044160001213,237.59044160001213,237.59044160001213,237.95695149997482,237.95695149997482,237.95695149997482,237.95695149997482,237.95695149997482,237.95695149997482,237.95695149997482,237.95695149997482,237.95695149997482,8,3,"[0.08355759998084977, 0.1337169999605976, 0.18363779998617247]","[0.11700519995065406, 0.16698399995220825, 0.36722889996599406]",237.95695149997482,238.15864340000553,1000,238.15864340000553,1000,1000,1000,1000,0,num_3,0.5691871999879368,,27,7,2026-03-05_13h40.31.716,2026A_exp2,2022.2.4,59.946144378568746,
1,0,0.0,6.1,1,0,76,76,5,,,,,238.75763929996174,239.4083945999737,239.4083945999737,239.89287939999485,45,315,239.89287939999485,239.89287939999485,239.89287939999485,239.89287939999485,239.89287939999485,239.89287939999485,239.89287939999485,239.89287939999485,239.89287939999485,240.25912070000777,240.25912070000777,240.25912070000777,240.25912070000777,240.25912070000777,240.25912070000777,240.25912070000777,240.25912070000777,240.25912070000777,19,2,"[0.11681639996822923, 0.33378849999280646]","[0.13354729994898662, 0.36716989998240024]",240.25912070000777,240.4593910999829,6.1,240.4593910999829,1,6.1,1,1,1000,num_4,0.844263199949637,,27,7,2026-03-05_13h40.31.716,2026A_exp2,2022.2.4,59.946144378568746,
0,0,4.9,0.0,1,0,77,77,26,,,,,241.3268640000024,241.9774054000154,241.9774054000154,242.47799959999975,45,45,242.47799959999975,242.47799959999975,242.47799959999975,242.47799959999975,242.47799959999975,242.47799959999975,242.47799959999975,242.47799959999975,242.47799959999975,242.82864699995844,242.82864699995844,242.82864699995844,242.82864699995844,242.82864699995844,242.82864699995844,242.82864699995844,242.82864699995844,242.82864699995844,11,7,"[0.004154000023845583, 0.08122429996728897, 0.14645719999680296, 0.18343029997777194, 0.2158771000104025, 0.26489749999018386, 0.3150199999799952]","[0.03117269999347627, 0.12965000001713634, 0.16307000000961125, 0.20064280001679435, 0.24826030002441257, 0.29834320000372827, 0.3483498999848962]",242.82864699995844,243.0285959999892,4.9,243.0285959999892,1,4.9,1,1,1000,num_4,0.7553347999928519,,27,7,2026-03-05_13h40.31.716,2026A_exp2,2022.2.4,59.946144378568746,
1000,1,3.7,0.0,1,0,78,78,19,,,,,243.812678999966,244.46347749995766,244.46347749995766,244.94792609999422,45,45,244.94792609999422,244.94792609999422,244.94792609999422,244.94792609999422,244.94792609999422,244.94792609999422,244.94792609999422,244.94792609999422,244.94792609999422,245.31424490001518,245.31424490001518,245.31424490001518,245.31424490001518,245.31424490001518,245.31424490001518,245.31424490001518,245.31424490001518,245.31424490001518,23,0,,,245.31424490001518,245.51641479996033,1000,245.51641479996033,1000,1000,1000,1000,0,num_3,0.8919131000293419,,27,7,2026-03-05_13h40.31.716,2026A_exp2,2022.2.4,59.946144378568746,
1,0,3.7,6.1,1,0,79,79,75,,,,,246.43215999996755,247.0828193000052,247.0828193000052,247.56723270000657,45,45,247.56723270000657,247.56723270000657,247.56723270000657,247.56723270000657,247.56723270000657,247.56723270000657,247.56723270000657,247.56723270000657,247.56723270000657,247.93363909999607,247.93363909999607,247.93363909999607,247.93363909999607,247.93363909999607,247.93363909999607,247.93363909999607,247.93363909999607,247.93363909999607,17,2,"[0.0012069999938830733, 0.1502479999908246]","[0.0503259000252001, 0.1997791000176221]",247.93363909999607,248.13384500000393,6.1,248.13384500000393,1,6.1,1,1,1000,num_4,1.5061212999862619,,27,7,2026-03-05_13h40.31.716,2026A_exp2,2022.2.4,59.946144378568746,
1,0,4.9,4.9,0,0,80,80,28,,,,,249.66857219999656,250.31916700000875,250.31916700000875,250.803643799969,315,45,250.803643799969,250.803643799969,250.803643799969,250.803643799969,250.803643799969,250.803643799969,250.803643799969,250.803643799969,250.803643799969,251.17013959999895,251.17013959999895,251.17013959999895,251.17013959999895,251.17013959999895,251.17013959999895,251.17013959999895,251.17013959999895,251.17013959999895,18,3,"[0.017280900035984814, 0.2509834000375122, 0.36722090002149343]","[0.050212600035592914, 0.2674024000298232, 0.3672260000021197]",251.17013959999895,251.37035579996882,4.9,251.37035579996882,0,4.9,1,0,1000,num_1,0.7813458999735303,,27,7,2026-03-05_13h40.31.716,2026A_exp2,2022.2.4,59.946144378568746,
1,0,4.9,0.0,0,0,81,81,47,,,,,252.1710925999796,252.8218549999874,252.8218549999874,253.30625959997997,45,315,253.30625959997997,253.30625959997997,253.30625959997997,253.30625959997997,253.30625959997997,253.30625959997997,253.30625959997997,253.30625959997997,253.30625959997997,253.67271409998648,253.67271409998648,253.67271409998648,253.67271409998648,253.67271409998648,253.67271409998648,253.67271409998648,253.67271409998648,253.67271409998648,23,0,,,253.67271409998648,253.87279220001074,4.9,253.87279220001074,1,4.9,1,1,1000,num_4,0.5274581999983639,,27,7,2026-03-05_13h40.31.716,2026A_exp2,2022.2.4,59.946144378568746,
1000,1,6.1,6.1,0,0,82,82,87,,,,,254.42327669996303,255.07396939996397,255.07396939996397,255.55852289998438,45,45,255.55852289998438,255.55852289998438,255.55852289998438,255.55852289998438,255.55852289998438,255.55852289998438,255.55852289998438,255.55852289998438,255.55852289998438,255.92476590001024,255.92476590001024,255.92476590001024,255.92476590001024,255.92476590001024,255.92476590001024,255.92476590001024,255.92476590001024,255.92476590001024,23,0,,,255.92476590001024,256.1268284000107,1000,256.1268284000107,1000,1000,1000,1000,0,num_3,0.5773442999925464,,27,7,2026-03-05_13h40.31.716,2026A_exp2,2022.2.4,59.946144378568746,
1,0,3.7,0.0,0,0,83,83,9,,,,,256.7255963999778,257.3764785999665,257.3764785999665,257.87748729996383,315,45,257.87748729996383,257.87748729996383,257.87748729996383,257.87748729996383,257.87748729996383,257.87748729996383,257.87748729996383,257.87748729996383,257.87748729996383,258.24384939996526,258.24384939996526,258.24384939996526,258.24384939996526,258.24384939996526,258.24384939996526,258.24384939996526,258.24384939996526,258.24384939996526,22,1,[0.36706919997232035],[0.3670732999453321],258.24384939996526,258.4439759000088,3.7,258.4439759000088,0,3.7,1,0,1000,num_1,1.539831799978856,,27,7,2026-03-05_13h40.31.716,2026A_exp2,2022.2.4,59.946144378568746,
1,0,6.1,3.7,1,0,84,84,83,,,,,260.01216410001507,260.6629613999976,260.6629613999976,261.1475991999614,315,315,261.1475991999614,261.1475991999614,261.1475991999614,261.1475991999614,261.1475991999614,261.1475991999614,261.1475991999614,261.1475991999614,261.1475991999614,261.51381299999775,261.51381299999775,261.51381299999775,261.51381299999775,261.51381299999775,261.51381299999775,261.51381299999775,261.51381299999775,261.51381299999775,23,0,,,261.51381299999775,261.71394970000256,3.7,261.71394970000256,0,3.7,1,0,1000,num_1,0.5898718999815173,,27,7,2026-03-05_13h40.31.716,2026A_exp2,2022.2.4,59.946144378568746,
1000,1,6.1,0.0,0,0,85,85,69,,,,,262.331172199978,262.9820144000114,262.9820144000114,263.46626640000613,45,45,263.46626640000613,263.46626640000613,263.46626640000613,263.46626640000613,263.46626640000613,263.46626640000613,263.46626640000613,263.46626640000613,263.46626640000613,263.8328643999994,263.8328643999994,263.8328643999994,263.8328643999994,263.8328643999994,263.8328643999994,263.8328643999994,263.8328643999994,263.8328643999994,20,2,"[0.1336371999932453, 0.3504743000376038]","[0.16705789999105036, 0.3673153000418097]",263.8328643999994,264.05576650000876,1000,264.05576650000876,1000,1000,1000,1000,0,num_3,0.543797199963592,,27,7,2026-03-05_13h40.31.716,2026A_exp2,2022.2.4,59.946144378568746,
1000,1,0.0,0.0,1,0,86,86,44,,,,,264.61677239998244,265.26765279995743,265.26765279995743,265.768645300006,45,45,265.768645300006,265.768645300006,265.768645300006,265.768645300006,265.768645300006,265.768645300006,265.768645300006,265.768645300006,265.768645300006,266.13529070001096,266.13529070001096,266.13529070001096,266.13529070001096,266.13529070001096,266.13529070001096,266.13529070001096,266.13529070001096,266.13529070001096,0,1,[0.0015718999784439802],[0.3662483000080101],266.13529070001096,266.33605429995805,1000,266.33605429995805,1000,1000,1000,1000,0,num_3,1.0952770999865606,,27,7,2026-03-05_13h40.31.716,2026A_exp2,2022.2.4,59.946144378568746,
1000,1,4.9,3.7,0,0,87,87,40,,,,,267.45293520000996,268.1036025999929,268.1036025999929,268.6048501000041,315,315,268.6048501000041,268.6048501000041,268.6048501000041,268.6048501000041,268.6048501000041,268.6048501000041,268.6048501000041,268.6048501000041,268.6048501000041,268.97121809999226,268.97121809999226,268.97121809999226,268.97121809999226,268.97121809999226,268.97121809999226,268.97121809999226,268.97121809999226,268.97121809999226,23,0,,,268.97121809999226,269.1731114999857,1000,269.1731114999857,1000,1000,1000,1000,0,num_3,0.5629226000164635,,27,7,2026-03-05_13h40.31.716,2026A_exp2,2022.2.4,59.946144378568746,
1,0,6.1,3.7,1,0,88,88,16,,,,,269.75529259996256,270.40609199996106,270.40609199996106,270.9070856999606,45,315,270.9070856999606,270.9070856999606,270.9070856999606,270.9070856999606,270.9070856999606,270.9070856999606,270.9070856999606,270.9070856999606,270.9070856999606,271.2736140000052,271.2736140000052,271.2736140000052,271.2736140000052,271.2736140000052,271.2736140000052,271.2736140000052,271.2736140000052,271.2736140000052,22,1,[0.05013619997771457],[0.06697439996059984],271.2736140000052,271.4736228999682,3.7,271.4736228999682,0,3.7,1,0,1000,num_1,1.1265831000055186,,27,7,2026-03-05_13h40.31.716,2026A_exp2,2022.2.4,59.946144378568746,
1000,1,4.9,0.0,1,0,89,89,84,,,,,272.6249820999801,273.27556360000744,273.27556360000744,273.76006100000814,45,315,273.76006100000814,273.76006100000814,273.76006100000814,273.76006100000814,273.76006100000814,273.76006100000814,273.76006100000814,273.76006100000814,273.76006100000814,274.1262733999756,274.1262733999756,274.1262733999756,274.1262733999756,274.1262733999756,274.1262733999756,274.1262733999756,274.1262733999756,274.1262733999756,17,5,"[0.017556599981617182, 0.08375260001048446, 0.13377949997084215, 0.1672081999713555, 0.20058429997880012]","[0.03359880001517013, 0.11709549999795854, 0.150398799974937, 0.1837727000238374, 0.21714219998102635]",274.1262733999756,274.32842470001196,1000,274.32842470001196,1000,1000,1000,1000,0,num_3,0.7188062999630347,,27,7,2026-03-05_13h40.31.716,2026A_exp2,2022.2.4,59.946144378568746,
,,,,,,,,,,,,,,,,,,,,,,,,,,,,,,,,,,,,,,,,,,,,,,,,,,,,275.08658649999416,,,,,,,
