validity,detectorcomp,contrastCW,contrastCCW,precueCWorCCW,block_80trials.thisRepN,block_80trials.thisTrialN,block_80trials.thisN,block_80trials.thisIndex,etRecord.started,etRecord.stopped,text.started,text.stopped,text_4.started,text_4.stopped,text_6.started,text_6.stopped,oriCW,oriCCW,roi_2.started,grating_UR.started,grating_UL.started,grating_LR.started,grating_LL.started,noise_UR.started,noise_UL.started,noise_LR.started,noise_LL.started,roi_2.stopped,grating_UR.stopped,grating_UL.stopped,grating_LR.stopped,grating_LL.stopped,noise_UR.stopped,noise_UL.stopped,noise_LR.stopped,noise_LL.stopped,outframe,roi_2.numLooks,roi_2.timesOn,roi_2.timesOff,text_2.started,text_2.stopped,probedcontrast,key_resp.started,respdetect,relevantContrast,correctDetect,TorFdetect,respCWorCCW,key_resp.keys,key_resp.rt,feedback_display_.started,participantNo,blockNo,date,expName,psychopyVersion,frameRate,
1000,1,0.0,3.7,0,0,0,0,78,5.400000372901559e-05,5.400000372901559e-05,59.44126190000679,61.44893640000373,61.44893640000373,62.078631500015035,62.078631500015035,62.59756640001433,45,315,62.59756640001433,62.59756640001433,62.59756640001433,62.59756640001433,62.59756640001433,62.59756640001433,62.59756640001433,62.59756640001433,62.59756640001433,62.946311399980914,62.946311399980914,62.946311399980914,62.946311399980914,62.946311399980914,62.946311399980914,62.946311399980914,62.946311399980914,62.946311399980914,7,1,[0.11664409999502823],[0.367748600023333],62.946311399980914,63.15123040002072,1000,63.15123040002072,1000,1000,1000,1000,1,num_2,1.0145149999880232,,28,2,2026-03-05_15h25.45.059,2026A_exp2,2022.2.4,59.94107791834031,
1,0,0.0,3.7,1,0,1,1,66,,,,,64.1810298000346,64.83160520001547,64.83160520001547,65.33272499998566,315,315,65.33272499998566,65.33272499998566,65.33272499998566,65.33272499998566,65.33272499998566,65.33272499998566,65.33272499998566,65.33272499998566,65.33272499998566,65.6992599000223,65.6992599000223,65.6992599000223,65.6992599000223,65.6992599000223,65.6992599000223,65.6992599000223,65.6992599000223,65.6992599000223,23,0,,,65.6992599000223,65.89931870001601,3.7,65.89931870001601,0,3.7,1,0,1000,num_1,1.674923700047657,,28,2,2026-03-05_15h25.45.059,2026A_exp2,2022.2.4,59.94107791834031,
1,0,3.7,6.1,0,0,2,2,55,,,,,67.60112230002414,68.23500490002334,68.23500490002334,68.73616269999184,315,45,68.73616269999184,68.73616269999184,68.73616269999184,68.73616269999184,68.73616269999184,68.73616269999184,68.73616269999184,68.73616269999184,68.73616269999184,69.10255250002956,69.10255250002956,69.10255250002956,69.10255250002956,69.10255250002956,69.10255250002956,69.10255250002956,69.10255250002956,69.10255250002956,23,0,,,69.10255250002956,69.3028635000228,3.7,69.3028635000228,0,3.7,1,0,1000,num_1,1.7988783000037074,,28,2,2026-03-05_15h25.45.059,2026A_exp2,2022.2.4,59.94107791834031,
1,0,0.0,0.0,1,0,3,3,6,,,,,71.12133080000058,71.77199189999374,71.77199189999374,72.25639980001142,315,45,72.25639980001142,72.25639980001142,72.25639980001142,72.25639980001142,72.25639980001142,72.25639980001142,72.25639980001142,72.25639980001142,72.25639980001142,72.62304750003386,72.62304750003386,72.62304750003386,72.62304750003386,72.62304750003386,72.62304750003386,72.62304750003386,72.62304750003386,72.62304750003386,22,1,[0.033743000007234514],[0.05029869999270886],72.62304750003386,72.82291610003449,0.0,72.82291610003449,0,0.0,0,1,1000,num_1,1.1026585000217892,,28,2,2026-03-05_15h25.45.059,2026A_exp2,2022.2.4,59.94107791834031,
1000,1,0.0,4.9,1,0,4,4,31,,,,,73.95725209999364,74.59140809997916,74.59140809997916,75.09249449998606,45,45,75.09249449998606,75.09249449998606,75.09249449998606,75.09249449998606,75.09249449998606,75.09249449998606,75.09249449998606,75.09249449998606,75.09249449998606,75.45888960000593,75.45888960000593,75.45888960000593,75.45888960000593,75.45888960000593,75.45888960000593,75.45888960000593,75.45888960000593,75.45888960000593,23,0,,,75.45888960000593,75.6612107999972,1000,75.6612107999972,1000,1000,1000,1000,1,num_2,1.1287862000172026,,28,2,2026-03-05_15h25.45.059,2026A_exp2,2022.2.4,59.94107791834031,
0,0,0.0,0.0,1,0,5,5,89,,,,,76.81018169998424,77.46108470001491,77.46108470001491,77.96212979999837,45,45,77.96212979999837,77.96212979999837,77.96212979999837,77.96212979999837,77.96212979999837,77.96212979999837,77.96212979999837,77.96212979999837,77.96212979999837,78.32851060002577,78.32851060002577,78.32851060002577,78.32851060002577,78.32851060002577,78.32851060002577,78.32851060002577,78.32851060002577,78.32851060002577,23,0,,,78.32851060002577,78.52856980002252,0.0,78.52856980002252,1,0.0,0,0,1000,num_4,1.1489090000395663,,28,2,2026-03-05_15h25.45.059,2026A_exp2,2022.2.4,59.94107791834031,
1000,1,3.7,4.9,1,0,6,6,43,,,,,79.69636860000901,80.34721400000853,80.34721400000853,80.83154889999423,45,315,80.83154889999423,80.83154889999423,80.83154889999423,80.83154889999423,80.83154889999423,80.83154889999423,80.83154889999423,80.83154889999423,80.83154889999423,81.19800939998822,81.19800939998822,81.19800939998822,81.19800939998822,81.19800939998822,81.19800939998822,81.19800939998822,81.19800939998822,81.19800939998822,23,0,,,81.19800939998822,81.40155280003091,1000,81.40155280003091,1000,1000,1000,1000,0,num_3,0.779605099989567,,28,2,2026-03-05_15h25.45.059,2026A_exp2,2022.2.4,59.94107791834031,
1000,1,6.1,6.1,1,0,7,7,77,,,,,82.19891999999527,82.84955849999096,82.84955849999096,83.35080580000067,45,45,83.35080580000067,83.35080580000067,83.35080580000067,83.35080580000067,83.35080580000067,83.35080580000067,83.35080580000067,83.35080580000067,83.35080580000067,83.7005437000189,83.7005437000189,83.7005437000189,83.7005437000189,83.7005437000189,83.7005437000189,83.7005437000189,83.7005437000189,83.7005437000189,22,0,,,83.7005437000189,83.90267169999424,1000,83.90267169999424,1000,1000,1000,1000,0,num_3,0.9916235000127926,,28,2,2026-03-05_15h25.45.059,2026A_exp2,2022.2.4,59.94107791834031,
1000,1,0.0,0.0,1,0,8,8,33,,,,,84.91847010003403,85.56908270000713,85.56908270000713,86.0535799000063,315,45,86.0535799000063,86.0535799000063,86.0535799000063,86.0535799000063,86.0535799000063,86.0535799000063,86.0535799000063,86.0535799000063,86.0535799000063,86.41991370002506,86.41991370002506,86.41991370002506,86.41991370002506,86.41991370002506,86.41991370002506,86.41991370002506,86.41991370002506,86.41991370002506,10,3,"[0.0012511999811977148, 0.18368509999709204, 0.2504115999909118]","[0.1668352999840863, 0.21689169999444857, 0.2669793000095524]",86.41991370002506,86.62148199998774,1000,86.62148199998774,1000,1000,1000,1000,1,num_2,1.1045781000284478,,28,2,2026-03-05_15h25.45.059,2026A_exp2,2022.2.4,59.94107791834031,
1,0,0.0,0.0,0,0,9,9,63,,,,,87.75463700003456,88.4051305000321,88.4051305000321,88.88955329998862,45,45,88.88955329998862,88.88955329998862,88.88955329998862,88.88955329998862,88.88955329998862,88.88955329998862,88.88955329998862,88.88955329998862,88.88955329998862,89.25620260002324,89.25620260002324,89.25620260002324,89.25620260002324,89.25620260002324,89.25620260002324,89.25620260002324,89.25620260002324,89.25620260002324,23,0,,,89.25620260002324,89.45617399999173,0.0,89.45617399999173,0,0.0,0,1,1000,num_1,0.7486841999925673,,28,2,2026-03-05_15h25.45.059,2026A_exp2,2022.2.4,59.94107791834031,
1000,1,0.0,4.9,1,0,10,10,79,,,,,90.2234860000317,90.8744571999996,90.8744571999996,91.35852670000168,315,45,91.35852670000168,91.35852670000168,91.35852670000168,91.35852670000168,91.35852670000168,91.35852670000168,91.35852670000168,91.35852670000168,91.35852670000168,91.72507039998891,91.72507039998891,91.72507039998891,91.72507039998891,91.72507039998891,91.72507039998891,91.72507039998891,91.72507039998891,91.72507039998891,23,0,,,91.72507039998891,91.92743510002038,1000,91.92743510002038,1000,1000,1000,1000,0,num_3,0.6780053999973461,,28,2,2026-03-05_15h25.45.059,2026A_exp2,2022.2.4,59.94107791834031,
1000,1,6.1,0.0,1,0,11,11,69,,,,,92.62617270002374,93.27688850002596,93.27688850002596,93.76117040001554,45,45,93.76117040001554,93.76117040001554,93.76117040001554,93.76117040001554,93.76117040001554,93.76117040001554,93.76117040001554,93.76117040001554,93.76117040001554,94.12766699999338,94.12766699999338,94.12766699999338,94.12766699999338,94.12766699999338,94.12766699999338,94.12766699999338,94.12766699999338,94.12766699999338,23,0,,,94.12766699999338,94.32791220000945,1000,94.32791220000945,1000,1000,1000,1000,0,num_3,0.8137787000159733,,28,2,2026-03-05_15h25.45.059,2026A_exp2,2022.2.4,59.94107791834031,
1000,1,0.0,0.0,0,0,12,12,81,,,,,95.16186180000659,95.81252919998951,95.81252919998951,96.31365550000919,315,315,96.31365550000919,96.31365550000919,96.31365550000919,96.31365550000919,96.31365550000919,96.31365550000919,96.31365550000919,96.31365550000919,96.31365550000919,96.68008710001595,96.68008710001595,96.68008710001595,96.68008710001595,96.68008710001595,96.68008710001595,96.68008710001595,96.68008710001595,96.68008710001595,23,0,,,96.68008710001595,96.8820979000302,1000,96.8820979000302,1000,1000,1000,1000,1,num_2,1.5868958999635652,,28,2,2026-03-05_15h25.45.059,2026A_exp2,2022.2.4,59.94107791834031,
1000,1,0.0,0.0,0,0,13,13,17,,,,,98.49871559999883,99.14929139998276,99.14929139998276,99.65031290001934,45,315,99.65031290001934,99.65031290001934,99.65031290001934,99.65031290001934,99.65031290001934,99.65031290001934,99.65031290001934,99.65031290001934,99.65031290001934,100.01685800001724,100.01685800001724,100.01685800001724,100.01685800001724,100.01685800001724,100.01685800001724,100.01685800001724,100.01685800001724,100.01685800001724,21,1,[0.21713780000573024],[0.2505957999965176],100.01685800001724,100.21886329998961,1000,100.21886329998961,1000,1000,1000,1000,0,num_3,0.7708579000318423,,28,2,2026-03-05_15h25.45.059,2026A_exp2,2022.2.4,59.94107791834031,
1000,1,3.7,6.1,0,0,14,14,84,,,,,101.01767889998155,101.66852639999706,101.66852639999706,102.16960600001039,45,45,102.16960600001039,102.16960600001039,102.16960600001039,102.16960600001039,102.16960600001039,102.16960600001039,102.16960600001039,102.16960600001039,102.16960600001039,102.5359424999915,102.5359424999915,102.5359424999915,102.5359424999915,102.5359424999915,102.5359424999915,102.5359424999915,102.5359424999915,102.5359424999915,23,0,,,102.5359424999915,102.73788830003468,1000,102.73788830003468,1000,1000,1000,1000,1,num_2,0.667473700013943,,28,2,2026-03-05_15h25.45.059,2026A_exp2,2022.2.4,59.94107791834031,
1,0,3.7,0.0,0,0,15,15,42,,,,,103.43695549998665,104.08744089998072,104.08744089998072,104.58872230001725,315,45,104.58872230001725,104.58872230001725,104.58872230001725,104.58872230001725,104.58872230001725,104.58872230001725,104.58872230001725,104.58872230001725,104.58872230001725,104.93828430003487,104.93828430003487,104.93828430003487,104.93828430003487,104.93828430003487,104.93828430003487,104.93828430003487,104.93828430003487,104.93828430003487,22,0,,,104.93828430003487,105.13870040001348,3.7,105.13870040001348,0,3.7,1,0,1000,num_1,1.3543620000127703,,28,2,2026-03-05_15h25.45.059,2026A_exp2,2022.2.4,59.94107791834031,
1,0,0.0,3.7,1,0,16,16,41,,,,,106.52328389999457,107.17387529998086,107.17387529998086,107.65850239997962,315,315,107.65850239997962,107.65850239997962,107.65850239997962,107.65850239997962,107.65850239997962,107.65850239997962,107.65850239997962,107.65850239997962,107.65850239997962,108.02484309999272,108.02484309999272,108.02484309999272,108.02484309999272,108.02484309999272,108.02484309999272,108.02484309999272,108.02484309999272,108.02484309999272,23,0,,,108.02484309999272,108.22508080000989,3.7,108.22508080000989,0,3.7,1,0,1000,num_1,0.8440223999787122,,28,2,2026-03-05_15h25.45.059,2026A_exp2,2022.2.4,59.94107791834031,
1,0,0.0,0.0,1,0,17,17,87,,,,,109.09240120003233,109.74322850001045,109.74322850001045,110.2276162999915,315,315,110.2276162999915,110.2276162999915,110.2276162999915,110.2276162999915,110.2276162999915,110.2276162999915,110.2276162999915,110.2276162999915,110.2276162999915,110.59394099999918,110.59394099999918,110.59394099999918,110.59394099999918,110.59394099999918,110.59394099999918,110.59394099999918,110.59394099999918,110.59394099999918,23,0,,,110.59394099999918,110.79417250002734,0.0,110.79417250002734,0,0.0,0,1,1000,num_1,0.5957600999972783,,28,2,2026-03-05_15h25.45.059,2026A_exp2,2022.2.4,59.94107791834031,
1,0,6.1,0.0,0,0,18,18,70,,,,,111.41132610000204,112.06225459999405,112.06225459999405,112.56376079999609,45,315,112.56376079999609,112.56376079999609,112.56376079999609,112.56376079999609,112.56376079999609,112.56376079999609,112.56376079999609,112.56376079999609,112.56376079999609,112.92973859998165,112.92973859998165,112.92973859998165,112.92973859998165,112.92973859998165,112.92973859998165,112.92973859998165,112.92973859998165,112.92973859998165,23,0,,,112.92973859998165,113.12979390000692,6.1,113.12979390000692,0,6.1,1,0,1000,num_1,0.5072863000095822,,28,2,2026-03-05_15h25.45.059,2026A_exp2,2022.2.4,59.94107791834031,
1000,1,0.0,6.1,1,0,19,19,62,,,,,113.66367989999708,114.31451950001065,114.31451950001065,114.79896789998747,45,45,114.79896789998747,114.79896789998747,114.79896789998747,114.79896789998747,114.79896789998747,114.79896789998747,114.79896789998747,114.79896789998747,114.79896789998747,115.16515439999057,115.16515439999057,115.16515439999057,115.16515439999057,115.16515439999057,115.16515439999057,115.16515439999057,115.16515439999057,115.16515439999057,23,0,,,115.16515439999057,115.3670319999801,1000,115.3670319999801,1000,1000,1000,1000,1,num_2,0.9429441000102088,,28,2,2026-03-05_15h25.45.059,2026A_exp2,2022.2.4,59.94107791834031,
1000,1,0.0,0.0,0,0,20,20,64,,,,,116.33310059999349,116.98415620002197,116.98415620002197,117.48507549997885,315,315,117.48507549997885,117.48507549997885,117.48507549997885,117.48507549997885,117.48507549997885,117.48507549997885,117.48507549997885,117.48507549997885,117.48507549997885,117.85114480002085,117.85114480002085,117.85114480002085,117.85114480002085,117.85114480002085,117.85114480002085,117.85114480002085,117.85114480002085,117.85114480002085,23,0,,,117.85114480002085,118.0532389000291,1000,118.0532389000291,1000,1000,1000,1000,1,num_2,1.0246595999924466,,28,2,2026-03-05_15h25.45.059,2026A_exp2,2022.2.4,59.94107791834031,
1000,1,0.0,6.1,0,0,21,21,9,,,,,119.10249560000375,119.75326179998228,119.75326179998228,120.25434340001084,315,315,120.25434340001084,120.25434340001084,120.25434340001084,120.25434340001084,120.25434340001084,120.25434340001084,120.25434340001084,120.25434340001084,120.25434340001084,120.62069290003274,120.62069290003274,120.62069290003274,120.62069290003274,120.62069290003274,120.62069290003274,120.62069290003274,120.62069290003274,120.62069290003274,23,0,,,120.62069290003274,120.82265360001475,1000,120.82265360001475,1000,1000,1000,1000,1,num_2,0.9593126000254415,,28,2,2026-03-05_15h25.45.059,2026A_exp2,2022.2.4,59.94107791834031,
1000,1,0.0,3.7,1,0,22,22,47,,,,,121.80549800000153,122.455630499986,122.455630499986,122.95713300001808,315,315,122.95713300001808,122.95713300001808,122.95713300001808,122.95713300001808,122.95713300001808,122.95713300001808,122.95713300001808,122.95713300001808,122.95713300001808,123.32312489999458,123.32312489999458,123.32312489999458,123.32312489999458,123.32312489999458,123.32312489999458,123.32312489999458,123.32312489999458,123.32312489999458,13,5,"[0.083546599955298, 0.16702629998326302, 0.21701959997881204, 0.2503702999674715, 0.3004994999500923]","[0.11690649995580316, 0.20051499997498468, 0.23367409995989874, 0.26712259999476373, 0.3670855999807827]",123.32312489999458,123.525530599989,1000,123.525530599989,1000,1000,1000,1000,0,num_3,0.8643768999609165,,28,2,2026-03-05_15h25.45.059,2026A_exp2,2022.2.4,59.94107791834031,
1000,1,0.0,4.9,1,0,23,23,59,,,,,124.40792770002736,125.05857629998354,125.05857629998354,125.5596997999819,45,315,125.5596997999819,125.5596997999819,125.5596997999819,125.5596997999819,125.5596997999819,125.5596997999819,125.5596997999819,125.5596997999819,125.5596997999819,125.92603410000447,125.92603410000447,125.92603410000447,125.92603410000447,125.92603410000447,125.92603410000447,125.92603410000447,125.92603410000447,125.92603410000447,23,0,,,125.92603410000447,126.1284447000362,1000,126.1284447000362,1000,1000,1000,1000,1,num_2,0.9886098999995738,,28,2,2026-03-05_15h25.45.059,2026A_exp2,2022.2.4,59.94107791834031,
1000,1,0.0,3.7,0,0,24,24,51,,,,,127.14387249998981,127.79444470000453,127.79444470000453,128.29565420001745,45,315,128.29565420001745,128.29565420001745,128.29565420001745,128.29565420001745,128.29565420001745,128.29565420001745,128.29565420001745,128.29565420001745,128.29565420001745,128.66212150000501,128.66212150000501,128.66212150000501,128.66212150000501,128.66212150000501,128.66212150000501,128.66212150000501,128.66212150000501,128.66212150000501,21,2,"[0.0835730999824591, 0.11690259998431429]","[0.10011659999145195, 0.15016059996560216]",128.66212150000501,128.86424309998984,1000,128.86424309998984,1000,1000,1000,1000,0,num_3,0.5813072000164539,,28,2,2026-03-05_15h25.45.059,2026A_exp2,2022.2.4,59.94107791834031,
1,0,0.0,6.1,0,0,25,25,11,,,,,129.46294120000675,130.11355529999128,130.11355529999128,130.6147779999883,45,45,130.6147779999883,130.6147779999883,130.6147779999883,130.6147779999883,130.6147779999883,130.6147779999883,130.6147779999883,130.6147779999883,130.6147779999883,130.9644602999906,130.9644602999906,130.9644602999906,130.9644602999906,130.9644602999906,130.9644602999906,130.9644602999906,130.9644602999906,130.9644602999906,22,0,,,130.9644602999906,131.1647277000011,0.0,131.1647277000011,0,0.0,0,1,1000,num_1,0.9294361000065692,,28,2,2026-03-05_15h25.45.059,2026A_exp2,2022.2.4,59.94107791834031,
1,0,0.0,0.0,0,0,26,26,1,,,,,132.11557780002477,132.76623140001902,132.76623140001902,133.25055250001606,315,315,133.25055250001606,133.25055250001606,133.25055250001606,133.25055250001606,133.25055250001606,133.25055250001606,133.25055250001606,133.25055250001606,133.25055250001606,133.61695809999947,133.61695809999947,133.61695809999947,133.61695809999947,133.61695809999947,133.61695809999947,133.61695809999947,133.61695809999947,133.61695809999947,11,6,"[0.0012006000033579767, 0.15004839998437092, 0.20012160000624135, 0.2334757000207901, 0.30038949998561293, 0.3504395000054501]","[0.0667632999829948, 0.16686419997131452, 0.21684880001703277, 0.26693990000057966, 0.3337372000096366, 0.36711180000565946]",133.61695809999947,133.81727410003077,0.0,133.81727410003077,0,0.0,0,1,1000,num_1,0.7164888000115752,,28,2,2026-03-05_15h25.45.059,2026A_exp2,2022.2.4,59.94107791834031,
1,0,3.7,0.0,0,0,27,27,65,,,,,134.55119760002708,135.21077830001013,135.21077830001013,135.69141279999167,315,315,135.69141279999167,135.69141279999167,135.69141279999167,135.69141279999167,135.69141279999167,135.69141279999167,135.69141279999167,135.69141279999167,135.69141279999167,136.05294379999395,136.05294379999395,136.05294379999395,136.05294379999395,136.05294379999395,136.05294379999395,136.05294379999395,136.05294379999395,136.05294379999395,5,3,"[0.0025941000203602016, 0.23373080004239455, 0.367113700020127]","[0.21696330001577735, 0.30044200003612787, 0.36712370003806427]",136.05294379999395,136.253140899993,3.7,136.253140899993,0,3.7,1,0,1000,num_1,0.952410499972757,,28,2,2026-03-05_15h25.45.059,2026A_exp2,2022.2.4,59.94107791834031,
1000,1,0.0,0.0,1,0,28,28,12,,,,,137.23727630003123,137.88811390002957,137.88811390002957,138.3725178000168,315,45,138.3725178000168,138.3725178000168,138.3725178000168,138.3725178000168,138.3725178000168,138.3725178000168,138.3725178000168,138.3725178000168,138.3725178000168,138.7388987999875,138.7388987999875,138.7388987999875,138.7388987999875,138.7388987999875,138.7388987999875,138.7388987999875,138.7388987999875,138.7388987999875,23,0,,,138.7388987999875,138.9411545000039,1000,138.9411545000039,1000,1000,1000,1000,0,num_3,0.9679072999861091,,28,2,2026-03-05_15h25.45.059,2026A_exp2,2022.2.4,59.94107791834031,
1000,1,0.0,0.0,0,0,29,29,80,,,,,139.94000750000123,140.59078100003535,140.59078100003535,141.0919595999876,315,315,141.0919595999876,141.0919595999876,141.0919595999876,141.0919595999876,141.0919595999876,141.0919595999876,141.0919595999876,141.0919595999876,141.0919595999876,141.44149360002484,141.44149360002484,141.44149360002484,141.44149360002484,141.44149360002484,141.44149360002484,141.44149360002484,141.44149360002484,141.44149360002484,22,0,,,141.44149360002484,141.64333960000658,1000,141.65825470001437,1000,1000,1000,1000,1,num_2,0.8353270000079647,,28,2,2026-03-05_15h25.45.059,2026A_exp2,2022.2.4,59.94107791834031,
1,0,0.0,4.9,0,0,30,30,4,,,,,142.50931890000356,143.16017109999666,143.16017109999666,143.66104019997874,315,315,143.66104019997874,143.66104019997874,143.66104019997874,143.66104019997874,143.66104019997874,143.66104019997874,143.66104019997874,143.66104019997874,143.66104019997874,144.02742330002366,144.02742330002366,144.02742330002366,144.02742330002366,144.02742330002366,144.02742330002366,144.02742330002366,144.02742330002366,144.02742330002366,23,0,,,144.02742330002366,144.2276098000002,0.0,144.2276098000002,0,0.0,0,1,1000,num_1,1.1544432999799028,,28,2,2026-03-05_15h25.45.059,2026A_exp2,2022.2.4,59.94107791834031,
1000,1,6.1,0.0,1,0,31,31,30,,,,,145.4120602000039,146.06290190003347,146.06290190003347,146.54733299999498,45,315,146.54733299999498,146.54733299999498,146.54733299999498,146.54733299999498,146.54733299999498,146.54733299999498,146.54733299999498,146.54733299999498,146.54733299999498,146.91375940002035,146.91375940002035,146.91375940002035,146.91375940002035,146.91375940002035,146.91375940002035,146.91375940002035,146.91375940002035,146.91375940002035,23,0,,,146.91375940002035,147.11575820000144,1000,147.11575820000144,1000,1000,1000,1000,0,num_3,0.7223331999848597,,28,2,2026-03-05_15h25.45.059,2026A_exp2,2022.2.4,59.94107791834031,
1000,1,6.1,0.0,1,0,32,32,75,,,,,147.8647883000085,148.51511390000815,148.51511390000815,149.01648930000374,45,45,149.01648930000374,149.01648930000374,149.01648930000374,149.01648930000374,149.01648930000374,149.01648930000374,149.01648930000374,149.01648930000374,149.01648930000374,149.38270160002867,149.38270160002867,149.38270160002867,149.38270160002867,149.38270160002867,149.38270160002867,149.38270160002867,149.38270160002867,149.38270160002867,23,0,,,149.38270160002867,149.58473330002744,1000,149.58473330002744,1000,1000,1000,1000,0,num_3,0.6608961000456475,,28,2,2026-03-05_15h25.45.059,2026A_exp2,2022.2.4,59.94107791834031,
1000,1,6.1,0.0,0,0,33,33,82,,,,,150.26702450000448,150.91779550001957,150.91779550001957,151.41891220002435,315,45,151.41891220002435,151.41891220002435,151.41891220002435,151.41891220002435,151.41891220002435,151.41891220002435,151.41891220002435,151.41891220002435,151.41891220002435,151.785190900031,151.785190900031,151.785190900031,151.785190900031,151.785190900031,151.785190900031,151.785190900031,151.785190900031,151.785190900031,23,0,,,151.785190900031,151.9874462999869,1000,151.9874462999869,1000,1000,1000,1000,1,num_2,0.48226489999797195,,28,2,2026-03-05_15h25.45.059,2026A_exp2,2022.2.4,59.94107791834031,
1000,1,4.9,0.0,1,0,34,34,5,,,,,152.48595900001237,153.13670909998473,153.13670909998473,153.63779030001024,45,315,153.63779030001024,153.63779030001024,153.63779030001024,153.63779030001024,153.63779030001024,153.63779030001024,153.63779030001024,153.63779030001024,153.63779030001024,154.00419960002182,154.00419960002182,154.00419960002182,154.00419960002182,154.00419960002182,154.00419960002182,154.00419960002182,154.00419960002182,154.00419960002182,23,0,,,154.00419960002182,154.206188799988,1000,154.206188799988,1000,1000,1000,1000,1,num_2,0.6472223000018857,,28,2,2026-03-05_15h25.45.059,2026A_exp2,2022.2.4,59.94107791834031,
1000,1,0.0,0.0,0,0,35,35,74,,,,,154.8716116999858,155.52233930001967,155.52233930001967,156.02346810000017,315,315,156.02346810000017,156.02346810000017,156.02346810000017,156.02346810000017,156.02346810000017,156.02346810000017,156.02346810000017,156.02346810000017,156.02346810000017,156.38983010000084,156.38983010000084,156.38983010000084,156.38983010000084,156.38983010000084,156.38983010000084,156.38983010000084,156.38983010000084,156.38983010000084,23,0,,,156.38983010000084,156.59190020000096,1000,156.59190020000096,1000,1000,1000,1000,0,num_3,0.45419369998853654,,28,2,2026-03-05_15h25.45.059,2026A_exp2,2022.2.4,59.94107791834031,
1,0,0.0,3.7,0,0,36,36,35,,,,,157.07381070003612,157.72454120003385,157.72454120003385,158.22572099999525,45,315,158.22572099999525,158.22572099999525,158.22572099999525,158.22572099999525,158.22572099999525,158.22572099999525,158.22572099999525,158.22572099999525,158.22572099999525,158.5921154000098,158.5921154000098,158.5921154000098,158.5921154000098,158.5921154000098,158.5921154000098,158.5921154000098,158.5921154000098,158.5921154000098,23,0,,,158.5921154000098,158.79216190002626,0.0,158.79216190002626,1,0.0,0,0,1000,num_4,1.093983400030993,,28,2,2026-03-05_15h25.45.059,2026A_exp2,2022.2.4,59.94107791834031,
1000,1,0.0,0.0,0,0,37,37,18,,,,,159.90997189999325,160.56073899997864,160.56073899997864,161.045000299986,315,45,161.045000299986,161.045000299986,161.045000299986,161.045000299986,161.045000299986,161.045000299986,161.045000299986,161.045000299986,161.045000299986,161.4116245000041,161.4116245000041,161.4116245000041,161.4116245000041,161.4116245000041,161.4116245000041,161.4116245000041,161.4116245000041,161.4116245000041,23,0,,,161.4116245000041,161.6134287000168,1000,161.6134287000168,1000,1000,1000,1000,0,num_3,0.49602099996991456,,28,2,2026-03-05_15h25.45.059,2026A_exp2,2022.2.4,59.94107791834031,
1,0,6.1,4.9,0,0,38,38,24,,,,,162.1288328000228,162.77969910000684,162.77969910000684,163.2807615000056,315,315,163.2807615000056,163.2807615000056,163.2807615000056,163.2807615000056,163.2807615000056,163.2807615000056,163.2807615000056,163.2807615000056,163.2807615000056,163.63043369998923,163.63043369998923,163.63043369998923,163.63043369998923,163.63043369998923,163.63043369998923,163.63043369998923,163.63043369998923,163.63043369998923,22,0,,,163.63043369998923,163.8306116000167,6.1,163.8306116000167,0,6.1,1,0,1000,num_1,0.8313795999856666,,28,2,2026-03-05_15h25.45.059,2026A_exp2,2022.2.4,59.94107791834031,
1000,1,0.0,0.0,0,0,39,39,86,,,,,164.68137200002093,165.33224180003162,165.33224180003162,165.81658460001927,315,45,165.81658460001927,165.81658460001927,165.81658460001927,165.81658460001927,165.81658460001927,165.81658460001927,165.81658460001927,165.81658460001927,165.81658460001927,166.18288740003482,166.18288740003482,166.18288740003482,166.18288740003482,166.18288740003482,166.18288740003482,166.18288740003482,166.18288740003482,166.18288740003482,23,0,,,166.18288740003482,166.38498159998562,1000,166.38498159998562,1000,1000,1000,1000,1,num_2,0.7960838000290096,,28,2,2026-03-05_15h25.45.059,2026A_exp2,2022.2.4,59.94107791834031,
1,0,0.0,0.0,1,0,40,40,73,,,,,167.20042060001288,167.8512695999816,167.8512695999816,168.35235800000373,45,315,168.35235800000373,168.35235800000373,168.35235800000373,168.35235800000373,168.35235800000373,168.35235800000373,168.35235800000373,168.35235800000373,168.35235800000373,168.70221160002984,168.70221160002984,168.70221160002984,168.70221160002984,168.70221160002984,168.70221160002984,168.70221160002984,168.70221160002984,168.70221160002984,22,0,,,168.70221160002984,168.9023959999904,0.0,168.9023959999904,0,0.0,0,1,1000,num_1,0.9427427999908105,,28,2,2026-03-05_15h25.45.059,2026A_exp2,2022.2.4,59.94107791834031,
1,0,4.9,0.0,0,0,41,41,58,,,,,169.86991150001995,170.52062640001532,170.52062640001532,171.00498860003427,45,315,171.00498860003427,171.00498860003427,171.00498860003427,171.00498860003427,171.00498860003427,171.00498860003427,171.00498860003427,171.00498860003427,171.00498860003427,171.371563600027,171.371563600027,171.371563600027,171.371563600027,171.371563600027,171.371563600027,171.371563600027,171.371563600027,171.371563600027,23,0,,,171.371563600027,171.57160309999017,4.9,171.57160309999017,0,4.9,1,0,1000,num_1,0.6824725000187755,,28,2,2026-03-05_15h25.45.059,2026A_exp2,2022.2.4,59.94107791834031,
1000,1,3.7,6.1,0,0,42,42,0,,,,,172.2721660999814,172.9231424999889,172.9231424999889,173.40726310003083,315,315,173.40726310003083,173.40726310003083,173.40726310003083,173.40726310003083,173.40726310003083,173.40726310003083,173.40726310003083,173.40726310003083,173.40726310003083,173.77398140000878,173.77398140000878,173.77398140000878,173.77398140000878,173.77398140000878,173.77398140000878,173.77398140000878,173.77398140000878,173.77398140000878,23,0,,,173.77398140000878,173.97639060002984,1000,173.97639060002984,1000,1000,1000,1000,0,num_3,0.9646722000325099,,28,2,2026-03-05_15h25.45.059,2026A_exp2,2022.2.4,59.94107791834031,
0,0,0.0,6.1,0,0,43,43,7,,,,,174.9583750999882,175.61931280000135,175.61931280000135,176.11034409998683,315,45,176.11034409998683,176.11034409998683,176.11034409998683,176.11034409998683,176.11034409998683,176.11034409998683,176.11034409998683,176.11034409998683,176.11034409998683,176.45990020001773,176.45990020001773,176.45990020001773,176.45990020001773,176.45990020001773,176.45990020001773,176.45990020001773,176.45990020001773,176.45990020001773,22,0,,,176.45990020001773,176.66022650001105,6.1,176.66022650001105,0,6.1,1,0,1000,num_1,1.3130092999781482,,28,2,2026-03-05_15h25.45.059,2026A_exp2,2022.2.4,59.94107791834031,
1000,1,4.9,6.1,0,0,44,44,20,,,,,177.99455990002025,178.64535569999134,178.64535569999134,179.14648809999926,45,45,179.14648809999926,179.14648809999926,179.14648809999926,179.14648809999926,179.14648809999926,179.14648809999926,179.14648809999926,179.14648809999926,179.14648809999926,179.4964112000307,179.4964112000307,179.4964112000307,179.4964112000307,179.4964112000307,179.4964112000307,179.4964112000307,179.4964112000307,179.4964112000307,22,0,,,179.4964112000307,179.6967941999901,1000,179.6967941999901,1000,1000,1000,1000,0,num_3,0.7561413000221364,,28,2,2026-03-05_15h25.45.059,2026A_exp2,2022.2.4,59.94107791834031,
1000,1,0.0,6.1,0,0,45,45,37,,,,,180.48081249999814,181.13132450002013,181.13132450002013,181.6158429000061,315,45,181.6158429000061,181.6158429000061,181.6158429000061,181.6158429000061,181.6158429000061,181.6158429000061,181.6158429000061,181.6158429000061,181.6158429000061,181.99871499999426,181.99871499999426,181.99871499999426,181.99871499999426,181.99871499999426,181.99871499999426,181.99871499999426,181.99871499999426,181.99871499999426,24,0,,,181.99871499999426,182.20082770002773,1000,182.20082770002773,1000,1000,1000,1000,1,num_2,0.7488291000481695,,28,2,2026-03-05_15h25.45.059,2026A_exp2,2022.2.4,59.94107791834031,
1,0,0.0,6.1,1,0,46,46,40,,,,,182.96634689997882,183.61715270002605,183.61715270002605,184.11811600002693,45,45,184.11811600002693,184.11811600002693,184.11811600002693,184.11811600002693,184.11811600002693,184.11811600002693,184.11811600002693,184.11811600002693,184.11811600002693,184.48465850000503,184.48465850000503,184.48465850000503,184.48465850000503,184.48465850000503,184.48465850000503,184.48465850000503,184.48465850000503,184.48465850000503,23,0,,,184.48465850000503,184.6848529999843,6.1,184.6848529999843,1,6.1,1,1,1000,num_4,1.1288563000271097,,28,2,2026-03-05_15h25.45.059,2026A_exp2,2022.2.4,59.94107791834031,
1,0,3.7,0.0,1,0,47,47,50,,,,,185.83582019997993,186.48670409998158,186.48670409998158,186.97086100000888,45,45,186.97086100000888,186.97086100000888,186.97086100000888,186.97086100000888,186.97086100000888,186.97086100000888,186.97086100000888,186.97086100000888,186.97086100000888,187.33741089998512,187.33741089998512,187.33741089998512,187.33741089998512,187.33741089998512,187.33741089998512,187.33741089998512,187.33741089998512,187.33741089998512,23,0,,,187.33741089998512,187.5376654000138,0.0,187.5376654000138,0,0.0,0,1,1000,num_1,0.7633174999500625,,28,2,2026-03-05_15h25.45.059,2026A_exp2,2022.2.4,59.94107791834031,
1000,1,4.9,0.0,0,0,48,48,54,,,,,188.32166000001598,188.95580649998737,188.95580649998737,189.45694659999572,45,315,189.45694659999572,189.45694659999572,189.45694659999572,189.45694659999572,189.45694659999572,189.45694659999572,189.45694659999572,189.45694659999572,189.45694659999572,189.82335610000882,189.82335610000882,189.82335610000882,189.82335610000882,189.82335610000882,189.82335610000882,189.82335610000882,189.82335610000882,189.82335610000882,23,0,,,189.82335610000882,190.02534009999363,1000,190.02534009999363,1000,1000,1000,1000,1,num_2,0.7320758000132628,,28,2,2026-03-05_15h25.45.059,2026A_exp2,2022.2.4,59.94107791834031,
1,0,4.9,0.0,1,0,49,49,38,,,,,190.7779850999941,191.42497490003007,191.42497490003007,191.92594620003365,315,45,191.92594620003365,191.92594620003365,191.92594620003365,191.92594620003365,191.92594620003365,191.92594620003365,191.92594620003365,191.92594620003365,191.92594620003365,192.2924591000192,192.2924591000192,192.2924591000192,192.2924591000192,192.2924591000192,192.2924591000192,192.2924591000192,192.2924591000192,192.2924591000192,23,0,,,192.2924591000192,192.49252390000038,0.0,192.49252390000038,0,0.0,0,1,1000,num_1,0.816855899989605,,28,2,2026-03-05_15h25.45.059,2026A_exp2,2022.2.4,59.94107791834031,
1000,1,4.9,3.7,0,0,50,50,32,,,,,193.32668009999907,193.97755250002956,193.97755250002956,194.46196739998413,315,45,194.46196739998413,194.46196739998413,194.46196739998413,194.46196739998413,194.46196739998413,194.46196739998413,194.46196739998413,194.46196739998413,194.46196739998413,194.82836889999453,194.82836889999453,194.82836889999453,194.82836889999453,194.82836889999453,194.82836889999453,194.82836889999453,194.82836889999453,194.82836889999453,23,0,,,194.82836889999453,195.02904240001226,1000,195.02904240001226,1000,1000,1000,1000,1,num_2,0.7683285000384785,,28,2,2026-03-05_15h25.45.059,2026A_exp2,2022.2.4,59.94107791834031,
1,0,6.1,0.0,0,0,51,51,56,,,,,195.81259929999942,196.463270200009,196.463270200009,196.96427410002798,45,45,196.96427410002798,196.96427410002798,196.96427410002798,196.96427410002798,196.96427410002798,196.96427410002798,196.96427410002798,196.96427410002798,196.96427410002798,197.33087210002122,197.33087210002122,197.33087210002122,197.33087210002122,197.33087210002122,197.33087210002122,197.33087210002122,197.33087210002122,197.33087210002122,23,0,,,197.33087210002122,197.53108550002798,6.1,197.53108550002798,1,6.1,1,1,1000,num_4,1.546128600020893,,28,2,2026-03-05_15h25.45.059,2026A_exp2,2022.2.4,59.94107791834031,
0,0,4.9,0.0,1,0,52,52,25,,,,,199.0992311000009,199.73327770002652,199.73327770002652,200.23439040000085,45,315,200.23439040000085,200.23439040000085,200.23439040000085,200.23439040000085,200.23439040000085,200.23439040000085,200.23439040000085,200.23439040000085,200.23439040000085,200.600700400013,200.600700400013,200.600700400013,200.600700400013,200.600700400013,200.600700400013,200.600700400013,200.600700400013,200.600700400013,23,0,,,200.600700400013,200.80094240000471,4.9,200.80094240000471,1,4.9,1,1,1000,num_4,1.1249004999990575,,28,2,2026-03-05_15h25.45.059,2026A_exp2,2022.2.4,59.94107791834031,
1,0,0.0,4.9,1,0,53,53,21,,,,,201.95191810000688,202.60275870002806,202.60275870002806,203.10377470002277,45,315,203.10377470002277,203.10377470002277,203.10377470002277,203.10377470002277,203.10377470002277,203.10377470002277,203.10377470002277,203.10377470002277,203.10377470002277,203.47033710003598,203.47033710003598,203.47033710003598,203.47033710003598,203.47033710003598,203.47033710003598,203.47033710003598,203.47033710003598,203.47033710003598,23,0,,,203.47033710003598,203.670458699984,4.9,203.670458699984,1,4.9,1,1,1000,num_4,0.959059500019066,,28,2,2026-03-05_15h25.45.059,2026A_exp2,2022.2.4,59.94107791834031,
1000,1,4.9,0.0,0,0,54,54,26,,,,,204.6548588000005,205.30525119998492,205.30525119998492,205.7898692000308,45,45,205.7898692000308,205.7898692000308,205.7898692000308,205.7898692000308,205.7898692000308,205.7898692000308,205.7898692000308,205.7898692000308,205.7898692000308,206.15629870002158,206.15629870002158,206.15629870002158,206.15629870002158,206.15629870002158,206.15629870002158,206.15629870002158,206.15629870002158,206.15629870002158,23,0,,,206.15629870002158,206.35840430000098,1000,206.35840430000098,1000,1000,1000,1000,1,num_2,0.775914300000295,,28,2,2026-03-05_15h25.45.059,2026A_exp2,2022.2.4,59.94107791834031,
1,0,0.0,6.1,1,0,55,55,52,,,,,207.15745470003458,207.80797760002315,207.80797760002315,208.30913720000535,45,45,208.30913720000535,208.30913720000535,208.30913720000535,208.30913720000535,208.30913720000535,208.30913720000535,208.30913720000535,208.30913720000535,208.30913720000535,208.6755637000315,208.6755637000315,208.6755637000315,208.6755637000315,208.6755637000315,208.6755637000315,208.6755637000315,208.6755637000315,208.6755637000315,23,0,,,208.6755637000315,208.88878640002804,6.1,208.88878640002804,0,6.1,1,0,1000,num_1,0.7242823000415228,,28,2,2026-03-05_15h25.45.059,2026A_exp2,2022.2.4,59.94107791834031,
1,0,4.9,0.0,1,0,56,56,8,,,,,209.6434225999983,210.2938010999933,210.2938010999933,210.79477540001972,315,315,210.79477540001972,210.79477540001972,210.79477540001972,210.79477540001972,210.79477540001972,210.79477540001972,210.79477540001972,210.79477540001972,210.79477540001972,211.16132459999062,211.16132459999062,211.16132459999062,211.16132459999062,211.16132459999062,211.16132459999062,211.16132459999062,211.16132459999062,211.16132459999062,23,0,,,211.16132459999062,211.36158389999764,0.0,211.36158389999764,1,0.0,0,0,1000,num_4,0.7873752000159584,,28,2,2026-03-05_15h25.45.059,2026A_exp2,2022.2.4,59.94107791834031,
1000,1,0.0,0.0,0,0,57,57,83,,,,,212.17893579998054,212.82975540001644,212.82975540001644,213.31400610000128,45,45,213.31400610000128,213.31400610000128,213.31400610000128,213.31400610000128,213.31400610000128,213.31400610000128,213.31400610000128,213.31400610000128,213.31400610000128,213.6804504999891,213.6804504999891,213.6804504999891,213.6804504999891,213.6804504999891,213.6804504999891,213.6804504999891,213.6804504999891,213.6804504999891,23,0,,,213.6804504999891,213.88246019999497,1000,213.88246019999497,1000,1000,1000,1000,0,num_3,0.9791638000169769,,28,2,2026-03-05_15h25.45.059,2026A_exp2,2022.2.4,59.94107791834031,
1000,1,3.7,4.9,1,0,58,58,46,,,,,214.88162679999368,215.53235860000132,215.53235860000132,216.0335615000222,45,315,216.0335615000222,216.0335615000222,216.0335615000222,216.0335615000222,216.0335615000222,216.0335615000222,216.0335615000222,216.0335615000222,216.0335615000222,216.39988019998418,216.39988019998418,216.39988019998418,216.39988019998418,216.39988019998418,216.39988019998418,216.39988019998418,216.39988019998418,216.39988019998418,23,0,,,216.39988019998418,216.60191369999666,1000,216.60191369999666,1000,1000,1000,1000,0,num_3,0.7631618999876082,,28,2,2026-03-05_15h25.45.059,2026A_exp2,2022.2.4,59.94107791834031,
1000,1,4.9,0.0,1,0,59,59,72,,,,,217.38434019999113,218.03485840000212,218.03485840000212,218.535953100014,315,45,218.535953100014,218.535953100014,218.535953100014,218.535953100014,218.535953100014,218.535953100014,218.535953100014,218.535953100014,218.535953100014,218.90241889999015,218.90241889999015,218.90241889999015,218.90241889999015,218.90241889999015,218.90241889999015,218.90241889999015,218.90241889999015,218.90241889999015,23,0,,,218.90241889999015,219.1026657000184,1000,219.1026657000184,1000,1000,1000,1000,0,num_3,0.48704979999456555,,28,2,2026-03-05_15h25.45.059,2026A_exp2,2022.2.4,59.94107791834031,
1,0,0.0,4.9,1,0,60,60,53,,,,,219.61985790001927,220.27049219998298,220.27049219998298,220.7715694999788,315,315,220.7715694999788,220.7715694999788,220.7715694999788,220.7715694999788,220.7715694999788,220.7715694999788,220.7715694999788,220.7715694999788,220.7715694999788,221.1380044000107,221.1380044000107,221.1380044000107,221.1380044000107,221.1380044000107,221.1380044000107,221.1380044000107,221.1380044000107,221.1380044000107,23,0,,,221.1380044000107,221.3442320000031,4.9,221.3442320000031,0,4.9,1,0,1000,num_1,1.3248879999737255,,28,2,2026-03-05_15h25.45.059,2026A_exp2,2022.2.4,59.94107791834031,
0,0,0.0,0.0,1,0,61,61,71,,,,,222.68950159999076,223.3400625999784,223.3400625999784,223.82455229997868,45,315,223.82455229997868,223.82455229997868,223.82455229997868,223.82455229997868,223.82455229997868,223.82455229997868,223.82455229997868,223.82455229997868,223.82455229997868,224.1910077999928,224.1910077999928,224.1910077999928,224.1910077999928,224.1910077999928,224.1910077999928,224.1910077999928,224.1910077999928,224.1910077999928,23,0,,,224.1910077999928,224.39121690002503,0.0,224.39121690002503,0,0.0,0,1,1000,num_1,1.166106300021056,,28,2,2026-03-05_15h25.45.059,2026A_exp2,2022.2.4,59.94107791834031,
1000,1,0.0,4.9,1,0,62,62,76,,,,,225.57574770000065,226.22628569998778,226.22628569998778,226.7106891000294,45,45,226.7106891000294,226.7106891000294,226.7106891000294,226.7106891000294,226.7106891000294,226.7106891000294,226.7106891000294,226.7106891000294,226.7106891000294,227.07730549998814,227.07730549998814,227.07730549998814,227.07730549998814,227.07730549998814,227.07730549998814,227.07730549998814,227.07730549998814,227.07730549998814,23,0,,,227.07730549998814,227.27735260000918,1000,227.27735260000918,1000,1000,1000,1000,0,num_3,0.6405726000084542,,28,2,2026-03-05_15h25.45.059,2026A_exp2,2022.2.4,59.94107791834031,
1000,1,3.7,0.0,0,0,63,63,45,,,,,227.94489899999462,228.59546889999183,228.59546889999183,229.0964752000291,315,315,229.0964752000291,229.0964752000291,229.0964752000291,229.0964752000291,229.0964752000291,229.0964752000291,229.0964752000291,229.0964752000291,229.0964752000291,229.46300210000481,229.46300210000481,229.46300210000481,229.46300210000481,229.46300210000481,229.46300210000481,229.46300210000481,229.46300210000481,229.46300210000481,23,0,,,229.46300210000481,229.6631717000273,1000,229.6631717000273,1000,1000,1000,1000,0,num_3,0.4383250999962911,,28,2,2026-03-05_15h25.45.059,2026A_exp2,2022.2.4,59.94107791834031,
1000,1,3.7,4.9,1,0,64,64,44,,,,,230.13040130003355,230.78097090002848,230.78097090002848,231.28190599998925,45,315,231.28190599998925,231.28190599998925,231.28190599998925,231.28190599998925,231.28190599998925,231.28190599998925,231.28190599998925,231.28190599998925,231.28190599998925,231.63178180000978,231.63178180000978,231.63178180000978,231.63178180000978,231.63178180000978,231.63178180000978,231.63178180000978,231.63178180000978,231.63178180000978,22,0,,,231.63178180000978,231.83747319999384,1000,231.84866240003612,1000,1000,1000,1000,1,num_2,0.7724731999915093,,28,2,2026-03-05_15h25.45.059,2026A_exp2,2022.2.4,59.94107791834031,
1000,1,0.0,0.0,1,0,65,65,27,,,,,232.6496048999834,233.29974630003562,233.29974630003562,233.80128950002836,45,45,233.80128950002836,233.80128950002836,233.80128950002836,233.80128950002836,233.80128950002836,233.80128950002836,233.80128950002836,233.80128950002836,233.80128950002836,234.16750159999356,234.16750159999356,234.16750159999356,234.16750159999356,234.16750159999356,234.16750159999356,234.16750159999356,234.16750159999356,234.16750159999356,23,0,,,234.16750159999356,234.36962950002635,1000,234.36962950002635,1000,1000,1000,1000,1,num_2,0.6352483999799006,,28,2,2026-03-05_15h25.45.059,2026A_exp2,2022.2.4,59.94107791834031,
1,0,0.0,0.0,0,0,66,66,29,,,,,235.03531210002257,235.68591380002908,235.68591380002908,236.1868586000055,45,45,236.1868586000055,236.1868586000055,236.1868586000055,236.1868586000055,236.1868586000055,236.1868586000055,236.1868586000055,236.1868586000055,236.1868586000055,236.55342349997954,236.55342349997954,236.55342349997954,236.55342349997954,236.55342349997954,236.55342349997954,236.55342349997954,236.55342349997954,236.55342349997954,23,0,,,236.55342349997954,236.75354150001658,0.0,236.75354150001658,1,0.0,0,0,1000,num_4,1.2035272000357509,,28,2,2026-03-05_15h25.45.059,2026A_exp2,2022.2.4,59.94107791834031,
1000,1,0.0,6.1,1,0,67,67,88,,,,,237.98820060002618,238.63882290001493,238.63882290001493,239.12312790000578,45,315,239.12312790000578,239.12312790000578,239.12312790000578,239.12312790000578,239.12312790000578,239.12312790000578,239.12312790000578,239.12312790000578,239.12312790000578,239.48976199998287,239.48976199998287,239.48976199998287,239.48976199998287,239.48976199998287,239.48976199998287,239.48976199998287,239.48976199998287,239.48976199998287,23,0,,,239.48976199998287,239.69125470001018,1000,239.69125470001018,1000,1000,1000,1000,1,num_2,0.8816354000009596,,28,2,2026-03-05_15h25.45.059,2026A_exp2,2022.2.4,59.94107791834031,
1000,1,3.7,0.0,0,0,68,68,2,,,,,240.59081439999864,241.24138100002892,241.24138100002892,241.74253129999852,45,45,241.74253129999852,241.74253129999852,241.74253129999852,241.74253129999852,241.74253129999852,241.74253129999852,241.74253129999852,241.74253129999852,241.74253129999852,242.10884380002972,242.10884380002972,242.10884380002972,242.10884380002972,242.10884380002972,242.10884380002972,242.10884380002972,242.10884380002972,242.10884380002972,23,0,,,242.10884380002972,242.31113789998926,1000,242.31113789998926,1000,1000,1000,1000,0,num_3,1.0071804000181146,,28,2,2026-03-05_15h25.45.059,2026A_exp2,2022.2.4,59.94107791834031,
1000,1,0.0,0.0,0,0,69,69,85,,,,,243.34352029999718,243.99409270001343,243.99409270001343,244.49523290002253,45,45,244.49523290002253,244.49523290002253,244.49523290002253,244.49523290002253,244.49523290002253,244.49523290002253,244.49523290002253,244.49523290002253,244.49523290002253,244.86173130001407,244.86173130001407,244.86173130001407,244.86173130001407,244.86173130001407,244.86173130001407,244.86173130001407,244.86173130001407,244.86173130001407,23,0,,,244.86173130001407,245.0638207999873,1000,245.0638207999873,1000,1000,1000,1000,0,num_3,0.6698692999780178,,28,2,2026-03-05_15h25.45.059,2026A_exp2,2022.2.4,59.94107791834031,
1,0,0.0,3.7,0,0,70,70,61,,,,,245.7625740999938,246.41325250000227,246.41325250000227,246.91437110002153,315,315,246.91437110002153,246.91437110002153,246.91437110002153,246.91437110002153,246.91437110002153,246.91437110002153,246.91437110002153,246.91437110002153,246.91437110002153,247.28076140000485,247.28076140000485,247.28076140000485,247.28076140000485,247.28076140000485,247.28076140000485,247.28076140000485,247.28076140000485,247.28076140000485,23,0,,,247.28076140000485,247.48088119999738,0.0,247.48088119999738,0,0.0,0,1,1000,num_1,0.9241532000014558,,28,2,2026-03-05_15h25.45.059,2026A_exp2,2022.2.4,59.94107791834031,
1000,1,0.0,0.0,1,0,71,71,67,,,,,248.43188350001583,249.0825435000006,249.0825435000006,249.566919600009,45,315,249.566919600009,249.566919600009,249.566919600009,249.566919600009,249.566919600009,249.566919600009,249.566919600009,249.566919600009,249.566919600009,249.93327560002217,249.93327560002217,249.93327560002217,249.93327560002217,249.93327560002217,249.93327560002217,249.93327560002217,249.93327560002217,249.93327560002217,23,0,,,249.93327560002217,250.1352831000113,1000,250.1352831000113,1000,1000,1000,1000,0,num_3,0.7102529999683611,,28,2,2026-03-05_15h25.45.059,2026A_exp2,2022.2.4,59.94107791834031,
1000,1,4.9,6.1,1,0,72,72,28,,,,,250.86773050000193,251.5184040000313,251.5184040000313,252.0194926999975,315,315,252.0194926999975,252.0194926999975,252.0194926999975,252.0194926999975,252.0194926999975,252.0194926999975,252.0194926999975,252.0194926999975,252.0194926999975,252.38592999998946,252.38592999998946,252.38592999998946,252.38592999998946,252.38592999998946,252.38592999998946,252.38592999998946,252.38592999998946,252.38592999998946,23,0,,,252.38592999998946,252.5877337999991,1000,252.5877337999991,1000,1000,1000,1000,1,num_2,0.7863017999916337,,28,2,2026-03-05_15h25.45.059,2026A_exp2,2022.2.4,59.94107791834031,
1,0,3.7,0.0,1,0,73,73,19,,,,,253.40360720001627,254.05420840001898,254.05420840001898,254.55532869999297,315,315,254.55532869999297,254.55532869999297,254.55532869999297,254.55532869999297,254.55532869999297,254.55532869999297,254.55532869999297,254.55532869999297,254.55532869999297,254.92179500003112,254.92179500003112,254.92179500003112,254.92179500003112,254.92179500003112,254.92179500003112,254.92179500003112,254.92179500003112,254.92179500003112,23,0,,,254.92179500003112,255.12193030002527,0.0,255.12193030002527,0,0.0,0,1,1000,num_1,0.9639115000027232,,28,2,2026-03-05_15h25.45.059,2026A_exp2,2022.2.4,59.94107791834031,
1000,1,3.7,0.0,1,0,74,74,48,,,,,256.10630169999786,256.75692880002316,256.75692880002316,257.2413865000126,45,315,257.2413865000126,257.2413865000126,257.2413865000126,257.2413865000126,257.2413865000126,257.2413865000126,257.2413865000126,257.2413865000126,257.2413865000126,257.6077253000112,257.6077253000112,257.6077253000112,257.6077253000112,257.6077253000112,257.6077253000112,257.6077253000112,257.6077253000112,257.6077253000112,23,0,,,257.6077253000112,257.80970250000246,1000,257.80970250000246,1000,1000,1000,1000,0,num_3,0.6677134000346996,,28,2,2026-03-05_15h25.45.059,2026A_exp2,2022.2.4,59.94107791834031,
1,0,0.0,6.1,1,0,75,75,36,,,,,258.5087780000176,259.1593795000226,259.1593795000226,259.66047150001395,315,45,259.66047150001395,259.66047150001395,259.66047150001395,259.66047150001395,259.66047150001395,259.66047150001395,259.66047150001395,259.66047150001395,259.66047150001395,260.02689340000506,260.02689340000506,260.02689340000506,260.02689340000506,260.02689340000506,260.02689340000506,260.02689340000506,260.02689340000506,260.02689340000506,23,0,,,260.02689340000506,260.22700820001774,6.1,260.22700820001774,1,6.1,1,1,1000,num_4,1.0983106000348926,,28,2,2026-03-05_15h25.45.059,2026A_exp2,2022.2.4,59.94107791834031,
1000,1,6.1,0.0,0,0,76,76,14,,,,,261.3448500999948,261.9952905999962,261.9952905999962,262.4966191999847,315,315,262.4966191999847,262.4966191999847,262.4966191999847,262.4966191999847,262.4966191999847,262.4966191999847,262.4966191999847,262.4966191999847,262.4966191999847,262.8461710999836,262.8461710999836,262.8461710999836,262.8461710999836,262.8461710999836,262.8461710999836,262.8461710999836,262.8461710999836,262.8461710999836,22,0,,,262.8461710999836,263.04831729998114,1000,263.04831729998114,1000,1000,1000,1000,0,num_3,0.884804500034079,,28,2,2026-03-05_15h25.45.059,2026A_exp2,2022.2.4,59.94107791834031,
0,0,6.1,3.7,1,0,77,77,49,,,,,263.96414270001696,264.61491290002596,264.61491290002596,265.1157852000324,315,45,265.1157852000324,265.1157852000324,265.1157852000324,265.1157852000324,265.1157852000324,265.1157852000324,265.1157852000324,265.1157852000324,265.1157852000324,265.48205049999524,265.48205049999524,265.48205049999524,265.48205049999524,265.48205049999524,265.48205049999524,265.48205049999524,265.48205049999524,265.48205049999524,23,0,,,265.48205049999524,265.6824447999825,6.1,265.6824447999825,1,6.1,1,1,1000,num_4,1.1710475999861956,,28,2,2026-03-05_15h25.45.059,2026A_exp2,2022.2.4,59.94107791834031,
1,0,3.7,3.7,0,0,78,78,13,,,,,266.88373910001246,267.53429460001644,267.53429460001644,268.0187050999957,315,315,268.0187050999957,268.0187050999957,268.0187050999957,268.0187050999957,268.0187050999957,268.0187050999957,268.0187050999957,268.0187050999957,268.0187050999957,268.3852220000117,268.3852220000117,268.3852220000117,268.3852220000117,268.3852220000117,268.3852220000117,268.3852220000117,268.3852220000117,268.3852220000117,23,0,,,268.3852220000117,268.5854629999958,3.7,268.5854629999958,1,3.7,1,1,1000,num_4,0.6034816000028513,,28,2,2026-03-05_15h25.45.059,2026A_exp2,2022.2.4,59.94107791834031,
1000,1,6.1,0.0,1,0,79,79,16,,,,,269.21929089998594,269.8699279000284,269.8699279000284,270.35443499998655,45,45,270.35443499998655,270.35443499998655,270.35443499998655,270.35443499998655,270.35443499998655,270.35443499998655,270.35443499998655,270.35443499998655,270.35443499998655,270.72078450000845,270.72078450000845,270.72078450000845,270.72078450000845,270.72078450000845,270.72078450000845,270.72078450000845,270.72078450000845,270.72078450000845,23,0,,,270.72078450000845,270.92642540001543,1000,270.92642540001543,1000,1000,1000,1000,0,num_3,0.8143885000026785,,28,2,2026-03-05_15h25.45.059,2026A_exp2,2022.2.4,59.94107791834031,
1,0,6.1,4.9,0,0,80,80,39,,,,,271.7719598999829,272.4225701999967,272.4225701999967,272.9237295000348,45,45,272.9237295000348,272.9237295000348,272.9237295000348,272.9237295000348,272.9237295000348,272.9237295000348,272.9237295000348,272.9237295000348,272.9237295000348,273.2901465999894,273.2901465999894,273.2901465999894,273.2901465999894,273.2901465999894,273.2901465999894,273.2901465999894,273.2901465999894,273.2901465999894,23,0,,,273.2901465999894,273.4902388000046,6.1,273.4902388000046,0,6.1,1,0,1000,num_1,1.0913520999602042,,28,2,2026-03-05_15h25.45.059,2026A_exp2,2022.2.4,59.94107791834031,
0,0,0.0,3.7,1,0,81,81,10,,,,,274.6080304000061,275.2587655999814,275.2587655999814,275.7429849000182,45,45,275.7429849000182,275.7429849000182,275.7429849000182,275.7429849000182,275.7429849000182,275.7429849000182,275.7429849000182,275.7429849000182,275.7429849000182,276.1095509000006,276.1095509000006,276.1095509000006,276.1095509000006,276.1095509000006,276.1095509000006,276.1095509000006,276.1095509000006,276.1095509000006,23,0,,,276.1095509000006,276.30969239998376,0.0,276.30969239998376,0,0.0,0,1,1000,num_1,1.0321039999835193,,28,2,2026-03-05_15h25.45.059,2026A_exp2,2022.2.4,59.94107791834031,
1000,1,0.0,0.0,1,0,82,82,23,,,,,277.36086130002514,278.0115031999885,278.0115031999885,278.4958738000132,45,45,278.4958738000132,278.4958738000132,278.4958738000132,278.4958738000132,278.4958738000132,278.4958738000132,278.4958738000132,278.4958738000132,278.4958738000132,278.862411900016,278.862411900016,278.862411900016,278.862411900016,278.862411900016,278.862411900016,278.862411900016,278.862411900016,278.862411900016,23,0,,,278.862411900016,279.06280329998117,1000,279.06280329998117,1000,1000,1000,1000,1,num_2,0.7669010999961756,,28,2,2026-03-05_15h25.45.059,2026A_exp2,2022.2.4,59.94107791834031,
1,0,0.0,6.1,0,0,83,83,34,,,,,279.8467789000133,280.497254899994,280.497254899994,280.9985814000247,315,315,280.9985814000247,280.9985814000247,280.9985814000247,280.9985814000247,280.9985814000247,280.9985814000247,280.9985814000247,280.9985814000247,280.9985814000247,281.3647556999931,281.3647556999931,281.3647556999931,281.3647556999931,281.3647556999931,281.3647556999931,281.3647556999931,281.3647556999931,281.3647556999931,23,0,,,281.3647556999931,281.56501500000013,0.0,281.56501500000013,0,0.0,0,1,1000,num_1,0.9286504999618046,,28,2,2026-03-05_15h25.45.059,2026A_exp2,2022.2.4,59.94107791834031,
1,0,0.0,6.1,0,0,84,84,60,,,,,282.5159570000251,283.16645269998116,283.16645269998116,283.6507898999844,45,315,283.6507898999844,283.6507898999844,283.6507898999844,283.6507898999844,283.6507898999844,283.6507898999844,283.6507898999844,283.6507898999844,283.6507898999844,284.0175528000109,284.0175528000109,284.0175528000109,284.0175528000109,284.0175528000109,284.0175528000109,284.0175528000109,284.0175528000109,284.0175528000109,23,0,,,284.0175528000109,284.21763420000207,0.0,284.21763420000207,0,0.0,0,1,1000,num_1,0.7559681000420824,,28,2,2026-03-05_15h25.45.059,2026A_exp2,2022.2.4,59.94107791834031,
1000,1,3.7,0.0,0,0,85,85,57,,,,,285.00185240001883,285.65243309998186,285.65243309998186,286.1368214000249,45,315,286.1368214000249,286.1368214000249,286.1368214000249,286.1368214000249,286.1368214000249,286.1368214000249,286.1368214000249,286.1368214000249,286.1368214000249,286.50334110000404,286.50334110000404,286.50334110000404,286.50334110000404,286.50334110000404,286.50334110000404,286.50334110000404,286.50334110000404,286.50334110000404,23,0,,,286.50334110000404,286.7053104999941,1000,286.7053104999941,1000,1000,1000,1000,1,num_2,0.7160168000264093,,28,2,2026-03-05_15h25.45.059,2026A_exp2,2022.2.4,59.94107791834031,
1000,1,6.1,0.0,1,0,86,86,68,,,,,287.4376565000275,288.0882630000124,288.0882630000124,288.58942269999534,45,45,288.58942269999534,288.58942269999534,288.58942269999534,288.58942269999534,288.58942269999534,288.58942269999534,288.58942269999534,288.58942269999534,288.58942269999534,288.9557217999827,288.9557217999827,288.9557217999827,288.9557217999827,288.9557217999827,288.9557217999827,288.9557217999827,288.9557217999827,288.9557217999827,23,0,,,288.9557217999827,289.15771400002996,1000,289.15771400002996,1000,1000,1000,1000,0,num_3,0.6632083999575116,,28,2,2026-03-05_15h25.45.059,2026A_exp2,2022.2.4,59.94107791834031,
1,0,3.7,0.0,0,0,87,87,3,,,,,289.84012900001835,290.49068520002766,290.49068520002766,290.9917338999803,45,45,290.9917338999803,290.9917338999803,290.9917338999803,290.9917338999803,290.9917338999803,290.9917338999803,290.9917338999803,290.9917338999803,290.9917338999803,291.35822480003117,291.35822480003117,291.35822480003117,291.35822480003117,291.35822480003117,291.35822480003117,291.35822480003117,291.35822480003117,291.35822480003117,23,0,,,291.35822480003117,291.5584330999991,3.7,291.5584330999991,0,3.7,1,0,1000,num_1,0.8793827000190504,,28,2,2026-03-05_15h25.45.059,2026A_exp2,2022.2.4,59.94107791834031,
1000,1,0.0,0.0,0,0,88,88,15,,,,,292.4592814000207,293.1100120000192,293.1100120000192,293.59450870001456,315,315,293.59450870001456,293.59450870001456,293.59450870001456,293.59450870001456,293.59450870001456,293.59450870001456,293.59450870001456,293.59450870001456,293.59450870001456,293.96082670002943,293.96082670002943,293.96082670002943,293.96082670002943,293.96082670002943,293.96082670002943,293.96082670002943,293.96082670002943,293.96082670002943,23,0,,,293.96082670002943,294.16277779999655,1000,294.16277779999655,1000,1000,1000,1000,0,num_3,0.899017600051593,,28,2,2026-03-05_15h25.45.059,2026A_exp2,2022.2.4,59.94107791834031,
1000,1,4.9,0.0,1,0,89,89,22,,,,,295.0786514999927,295.7291622000048,295.7291622000048,296.23034990002634,315,315,296.23034990002634,296.23034990002634,296.23034990002634,296.23034990002634,296.23034990002634,296.23034990002634,296.23034990002634,296.23034990002634,296.23034990002634,296.59665610000957,296.59665610000957,296.59665610000957,296.59665610000957,296.59665610000957,296.59665610000957,296.59665610000957,296.59665610000957,296.59665610000957,23,0,,,296.59665610000957,296.79890220001107,1000,296.79890220001107,1000,1000,1000,1000,0,num_3,0.8623929999885149,,28,2,2026-03-05_15h25.45.059,2026A_exp2,2022.2.4,59.94107791834031,
,,,,,,,,,,,,,,,,,,,,,,,,,,,,,,,,,,,,,,,,,,,,,,,,,,,,297.6903793999809,,,,,,,
