validity,detectorcomp,contrastCW,contrastCCW,precueCWorCCW,block_80trials.thisRepN,block_80trials.thisTrialN,block_80trials.thisN,block_80trials.thisIndex,etRecord.started,etRecord.stopped,text.started,text.stopped,text_4.started,text_4.stopped,text_6.started,text_6.stopped,oriCW,oriCCW,roi_2.started,grating_UR.started,grating_UL.started,grating_LR.started,grating_LL.started,noise_UR.started,noise_UL.started,noise_LR.started,noise_LL.started,roi_2.stopped,grating_UR.stopped,grating_UL.stopped,grating_LR.stopped,grating_LL.stopped,noise_UR.stopped,noise_UL.stopped,noise_LR.stopped,noise_LL.stopped,outframe,roi_2.numLooks,roi_2.timesOn,roi_2.timesOff,text_2.started,text_2.stopped,probedcontrast,key_resp.started,respdetect,relevantContrast,correctDetect,TorFdetect,respCWorCCW,key_resp.keys,key_resp.rt,feedback_display_.started,participantNo,blockNo,date,expName,psychopyVersion,frameRate,
1,0,0.0,0.0,0,0,0,0,9,3.320001997053623e-05,3.320001997053623e-05,46.76662650005892,48.7723642999772,48.7723642999772,49.40309939999133,49.40309939999133,49.922827099915594,45,315,49.922827099915594,49.922827099915594,49.922827099915594,49.922827099915594,49.922827099915594,49.922827099915594,49.922827099915594,49.922827099915594,49.922827099915594,50.27073189988732,50.27073189988732,50.27073189988732,50.27073189988732,50.27073189988732,50.27073189988732,50.27073189988732,50.27073189988732,50.27073189988732,0,1,[0.0009210000280290842],[0.3679786000866443],50.27073189988732,50.470832699909806,0.0,50.470832699909806,0,0.0,0,1,1000,num_1,0.7902033999562263,,33,3,2026-03-12_17h20.57.607,2026A_exp2,2022.2.4,60.31566806860259,
1,0,4.9,0.0,0,0,1,1,48,,,,,51.288463100092486,51.93899490009062,51.93899490009062,52.42337099998258,45,45,52.42337099998258,52.42337099998258,52.42337099998258,52.42337099998258,52.42337099998258,52.42337099998258,52.42337099998258,52.42337099998258,52.42337099998258,52.78986899997108,52.78986899997108,52.78986899997108,52.78986899997108,52.78986899997108,52.78986899997108,52.78986899997108,52.78986899997108,52.78986899997108,2,2,"[0.0012211999855935574, 0.15079499990679324]","[0.11725119990296662, 0.3667009000200778]",52.78986899997108,52.99003079999238,4.9,52.99003079999238,1,4.9,1,1,1000,num_4,1.6070815999992192,,33,3,2026-03-12_17h20.57.607,2026A_exp2,2022.2.4,60.31566806860259,
1,0,4.9,4.9,0,0,2,2,63,,,,,54.62498000008054,55.275626899907365,55.275626899907365,55.77645060000941,315,315,55.77645060000941,55.77645060000941,55.77645060000941,55.77645060000941,55.77645060000941,55.77645060000941,55.77645060000941,55.77645060000941,55.77645060000941,56.126528499880806,56.126528499880806,56.126528499880806,56.126528499880806,56.126528499880806,56.126528499880806,56.126528499880806,56.126528499880806,56.126528499880806,7,2,"[0.07539079990237951, 0.1319345000665635]","[0.09990249993279576, 0.36358510004356503]",56.126528499880806,56.32664099987596,4.9,56.32664099987596,0,4.9,1,0,1000,num_1,0.9747161001432687,,33,3,2026-03-12_17h20.57.607,2026A_exp2,2022.2.4,60.31566806860259,
1000,1,4.9,3.7,1,0,3,3,32,,,,,57.32764149992727,57.97835369990207,57.97835369990207,58.462863199878484,315,315,58.462863199878484,58.462863199878484,58.462863199878484,58.462863199878484,58.462863199878484,58.462863199878484,58.462863199878484,58.462863199878484,58.462863199878484,58.82931290008128,58.82931290008128,58.82931290008128,58.82931290008128,58.82931290008128,58.82931290008128,58.82931290008128,58.82931290008128,58.82931290008128,0,1,[0.0012304999399930239],[0.36710269981995225],58.82931290008128,59.03397640003823,1000,59.03397640003823,1000,1000,1000,1000,0,num_3,0.6587885001208633,,33,3,2026-03-12_17h20.57.607,2026A_exp2,2022.2.4,60.31566806860259,
1000,1,6.1,3.7,1,0,4,4,24,,,,,59.71362859988585,60.36406209995039,60.36406209995039,60.86530470009893,45,315,60.86530470009893,60.86530470009893,60.86530470009893,60.86530470009893,60.86530470009893,60.86530470009893,60.86530470009893,60.86530470009893,60.86530470009893,61.23167930007912,61.23167930007912,61.23167930007912,61.23167930007912,61.23167930007912,61.23167930007912,61.23167930007912,61.23167930007912,61.23167930007912,19,1,[0.31723339995369315],[0.36719879996962845],61.23167930007912,61.43355609988794,1000,61.43355609988794,1000,1000,1000,1000,1,num_2,0.8755240000318736,,33,3,2026-03-12_17h20.57.607,2026A_exp2,2022.2.4,60.31566806860259,
1000,1,3.7,6.1,0,0,5,5,28,,,,,62.33276130002923,62.98346809996292,62.98346809996292,63.48428349988535,315,315,63.48428349988535,63.48428349988535,63.48428349988535,63.48428349988535,63.48428349988535,63.48428349988535,63.48428349988535,63.48428349988535,63.48428349988535,63.85104910004884,63.85104910004884,63.85104910004884,63.85104910004884,63.85104910004884,63.85104910004884,63.85104910004884,63.85104910004884,63.85104910004884,0,1,[0.0013397999573498964],[0.36726449988782406],63.85104910004884,64.0533455000259,1000,64.0533455000259,1000,1000,1000,1000,1,num_2,0.4403104002121836,,33,3,2026-03-12_17h20.57.607,2026A_exp2,2022.2.4,60.31566806860259,
1,0,0.0,0.0,0,0,6,6,49,,,,,64.51811380009167,65.16867260006256,65.16867260006256,65.66991729987785,45,315,65.66991729987785,65.66991729987785,65.66991729987785,65.66991729987785,65.66991729987785,65.66991729987785,65.66991729987785,65.66991729987785,65.66991729987785,66.03631619992666,66.03631619992666,66.03631619992666,66.03631619992666,66.03631619992666,66.03631619992666,66.03631619992666,66.03631619992666,66.03631619992666,0,1,[0.0012231001164764166],[0.367213899968192],66.03631619992666,66.23661309992895,0.0,66.23661309992895,0,0.0,0,1,1000,num_1,0.6480302000418305,,33,3,2026-03-12_17h20.57.607,2026A_exp2,2022.2.4,60.31566806860259,
1000,1,3.7,0.0,1,0,7,7,79,,,,,66.90384959988296,67.55460350005887,67.55460350005887,68.03896969999187,315,45,68.03896969999187,68.03896969999187,68.03896969999187,68.03896969999187,68.03896969999187,68.03896969999187,68.03896969999187,68.03896969999187,68.03896969999187,68.40543529996648,68.40543529996648,68.40543529996648,68.40543529996648,68.40543529996648,68.40543529996648,68.40543529996648,68.40543529996648,68.40543529996648,0,1,[0.001201000064611435],[0.36709730001166463],68.40543529996648,68.60743779991753,1000,68.60743779991753,1000,1000,1000,1000,1,num_2,0.7409350001253188,,33,3,2026-03-12_17h20.57.607,2026A_exp2,2022.2.4,60.31566806860259,
1000,1,6.1,4.9,1,0,8,8,53,,,,,69.37295009987429,70.0237718001008,70.0237718001008,70.52477169991471,45,315,70.52477169991471,70.52477169991471,70.52477169991471,70.52477169991471,70.52477169991471,70.52477169991471,70.52477169991471,70.52477169991471,70.52477169991471,70.89105660002679,70.89105660002679,70.89105660002679,70.89105660002679,70.89105660002679,70.89105660002679,70.89105660002679,70.89105660002679,70.89105660002679,0,1,[0.0012004999443888664],[0.36699719983153045],70.89105660002679,71.09321630001068,1000,71.09321630001068,1000,1000,1000,1000,0,num_3,0.519756400026381,,33,3,2026-03-12_17h20.57.607,2026A_exp2,2022.2.4,60.31566806860259,
1,0,0.0,0.0,0,0,9,9,81,,,,,71.64197989995591,72.29277279996313,72.29277279996313,72.79383830004372,315,315,72.79383830004372,72.79383830004372,72.79383830004372,72.79383830004372,72.79383830004372,72.79383830004372,72.79383830004372,72.79383830004372,72.79383830004372,73.16009479993954,73.16009479993954,73.16009479993954,73.16009479993954,73.16009479993954,73.16009479993954,73.16009479993954,73.16009479993954,73.16009479993954,2,2,"[0.0008471000473946333, 0.05011519999243319]","[0.017230500001460314, 0.36736060003750026]",73.16009479993954,73.36012999992818,0.0,73.36012999992818,1,0.0,0,0,1000,num_4,3.2615361001808196,,33,3,2026-03-12_17h20.57.607,2026A_exp2,2022.2.4,60.31566806860259,
1,0,0.0,0.0,1,0,10,10,18,,,,,76.64689849992283,77.29759100009687,77.29759100009687,77.7822279999964,315,45,77.7822279999964,77.7822279999964,77.7822279999964,77.7822279999964,77.7822279999964,77.7822279999964,77.7822279999964,77.7822279999964,77.7822279999964,78.14859799994156,78.14859799994156,78.14859799994156,78.14859799994156,78.14859799994156,78.14859799994156,78.14859799994156,78.14859799994156,78.14859799994156,0,1,[0.0011962000280618668],[0.36724289995618165],78.14859799994156,78.34870629990473,0.0,78.34870629990473,0,0.0,0,1,1000,num_1,1.0724363999906927,,33,3,2026-03-12_17h20.57.607,2026A_exp2,2022.2.4,60.31566806860259,
1,0,0.0,3.7,0,0,11,11,78,,,,,79.44978650007397,80.10040950006805,80.10040950006805,80.58488030009903,45,45,80.58488030009903,80.58488030009903,80.58488030009903,80.58488030009903,80.58488030009903,80.58488030009903,80.58488030009903,80.58488030009903,80.58488030009903,80.9513689999003,80.9513689999003,80.9513689999003,80.9513689999003,80.9513689999003,80.9513689999003,80.9513689999003,80.9513689999003,80.9513689999003,0,1,[0.0012806998565793037],[0.36693229991942644],80.9513689999003,81.15159530006349,0.0,81.15159530006349,0,0.0,0,1,1000,num_1,0.9333146000280976,,33,3,2026-03-12_17h20.57.607,2026A_exp2,2022.2.4,60.31566806860259,
1,0,6.1,0.0,1,0,12,12,13,,,,,82.10245099989697,82.7530980000738,82.7530980000738,83.23765269992873,45,315,83.23765269992873,83.23765269992873,83.23765269992873,83.23765269992873,83.23765269992873,83.23765269992873,83.23765269992873,83.23765269992873,83.23765269992873,83.60396700003184,83.60396700003184,83.60396700003184,83.60396700003184,83.60396700003184,83.60396700003184,83.60396700003184,83.60396700003184,83.60396700003184,0,1,[0.001199800055474043],[0.36727340007200837],83.60396700003184,83.80418289988302,0.0,83.80418289988302,0,0.0,0,1,1000,num_1,0.6001105001196265,,33,3,2026-03-12_17h20.57.607,2026A_exp2,2022.2.4,60.31566806860259,
1000,1,4.9,0.0,0,0,13,13,36,,,,,84.42164049996063,85.07214340008795,85.07214340008795,85.55656319996342,45,45,85.55656319996342,85.55656319996342,85.55656319996342,85.55656319996342,85.55656319996342,85.55656319996342,85.55656319996342,85.55656319996342,85.55656319996342,85.92303679999895,85.92303679999895,85.92303679999895,85.92303679999895,85.92303679999895,85.92303679999895,85.92303679999895,85.92303679999895,85.92303679999895,0,1,[0.001245400169864297],[0.3670999000314623],85.92303679999895,86.12504080007784,1000,86.12504080007784,1000,1000,1000,1000,0,num_3,0.5030852002091706,,33,3,2026-03-12_17h20.57.607,2026A_exp2,2022.2.4,60.31566806860259,
1000,1,0.0,0.0,0,0,14,14,69,,,,,86.65695380000398,87.3077781999018,87.3077781999018,87.80892640003003,315,45,87.80892640003003,87.80892640003003,87.80892640003003,87.80892640003003,87.80892640003003,87.80892640003003,87.80892640003003,87.80892640003003,87.80892640003003,88.17528559989296,88.17528559989296,88.17528559989296,88.17528559989296,88.17528559989296,88.17528559989296,88.17528559989296,88.17528559989296,88.17528559989296,0,1,[0.0012148001696914434],[0.36710520018823445],88.17528559989296,88.37540820008144,1000,88.37540820008144,1000,1000,1000,1000,0,num_3,0.7178520001471043,,33,3,2026-03-12_17h20.57.607,2026A_exp2,2022.2.4,60.31566806860259,
0,0,0.0,0.0,1,0,15,15,8,,,,,89.1095314999111,89.76019709999673,89.76019709999673,90.26121830008924,315,315,90.26121830008924,90.26121830008924,90.26121830008924,90.26121830008924,90.26121830008924,90.26121830008924,90.26121830008924,90.26121830008924,90.26121830008924,90.62775829993188,90.62775829993188,90.62775829993188,90.62775829993188,90.62775829993188,90.62775829993188,90.62775829993188,90.62775829993188,90.62775829993188,0,1,[0.0007332998793572187],[0.3679929000791162],90.62775829993188,90.82795739988796,0.0,90.82795739988796,0,0.0,0,1,1000,num_1,0.8651179003063589,,33,3,2026-03-12_17h20.57.607,2026A_exp2,2022.2.4,60.31566806860259,
1000,1,6.1,0.0,1,0,16,16,60,,,,,91.71194249996915,92.3628193999175,92.3628193999175,92.8470230998937,315,45,92.8470230998937,92.8470230998937,92.8470230998937,92.8470230998937,92.8470230998937,92.8470230998937,92.8470230998937,92.8470230998937,92.8470230998937,93.21367170009762,93.21367170009762,93.21367170009762,93.21367170009762,93.21367170009762,93.21367170009762,93.21367170009762,93.21367170009762,93.21367170009762,0,1,[0.0012209999840706587],[0.3692469000816345],93.21367170009762,93.42917299992405,1000,93.42917299992405,1000,1000,1000,1000,0,num_3,0.42409670003689826,,33,3,2026-03-12_17h20.57.607,2026A_exp2,2022.2.4,60.31566806860259,
1000,1,6.1,4.9,1,0,17,17,16,,,,,93.88089839997701,94.5313715999946,94.5313715999946,95.03289670008235,45,315,95.03289670008235,95.03289670008235,95.03289670008235,95.03289670008235,95.03289670008235,95.03289670008235,95.03289670008235,95.03289670008235,95.03289670008235,95.39906800002791,95.39906800002791,95.39906800002791,95.39906800002791,95.39906800002791,95.39906800002791,95.39906800002791,95.39906800002791,95.39906800002791,0,1,[0.0006822000723332167],[0.3673729000147432],95.39906800002791,95.60101819992997,1000,95.60101819992997,1000,1000,1000,1000,1,num_2,0.6757933001499623,,33,3,2026-03-12_17h20.57.607,2026A_exp2,2022.2.4,60.31566806860259,
0,0,0.0,4.9,0,0,18,18,54,,,,,96.29988739988767,96.93420400004834,96.93420400004834,97.43512469995767,315,315,97.43512469995767,97.43512469995767,97.43512469995767,97.43512469995767,97.43512469995767,97.43512469995767,97.43512469995767,97.43512469995767,97.43512469995767,97.80162040004507,97.80162040004507,97.80162040004507,97.80162040004507,97.80162040004507,97.80162040004507,97.80162040004507,97.80162040004507,97.80162040004507,0,1,[0.0012309001758694649],[0.36723840003833175],97.80162040004507,98.00167230004445,4.9,98.00167230004445,1,4.9,1,1,1000,num_4,0.6280159002635628,,33,3,2026-03-12_17h20.57.607,2026A_exp2,2022.2.4,60.31566806860259,
1,0,4.9,6.1,0,0,19,19,15,,,,,98.65227969991975,99.30307490006089,99.30307490006089,99.78740109992214,45,45,99.78740109992214,99.78740109992214,99.78740109992214,99.78740109992214,99.78740109992214,99.78740109992214,99.78740109992214,99.78740109992214,99.78740109992214,100.15395599999465,100.15395599999465,100.15395599999465,100.15395599999465,100.15395599999465,100.15395599999465,100.15395599999465,100.15395599999465,100.15395599999465,0,1,[0.0012368999887257814],[0.36699180002324283],100.15395599999465,100.3541649999097,4.9,100.3541649999097,0,4.9,1,0,1000,num_1,0.7153447000309825,,33,3,2026-03-12_17h20.57.607,2026A_exp2,2022.2.4,60.31566806860259,
1000,1,4.9,4.9,0,0,20,20,31,,,,,101.08961099991575,101.73888610000722,101.73888610000722,102.23984929989092,45,45,102.23984929989092,102.23984929989092,102.23984929989092,102.23984929989092,102.23984929989092,102.23984929989092,102.23984929989092,102.23984929989092,102.23984929989092,102.60628359997645,102.60628359997645,102.60628359997645,102.60628359997645,102.60628359997645,102.60628359997645,102.60628359997645,102.60628359997645,102.60628359997645,0,1,[0.0012970000971108675],[0.3671866999939084],102.60628359997645,102.80857830005698,1000,102.80857830005698,1000,1000,1000,1000,1,num_2,0.6601178001146764,,33,3,2026-03-12_17h20.57.607,2026A_exp2,2022.2.4,60.31566806860259,
1000,1,0.0,0.0,1,0,21,21,29,,,,,103.49060279992409,104.14242179994471,104.14242179994471,104.62572359992191,315,45,104.62572359992191,104.62572359992191,104.62572359992191,104.62572359992191,104.62572359992191,104.62572359992191,104.62572359992191,104.62572359992191,104.62572359992191,104.99205080000684,104.99205080000684,104.99205080000684,104.99205080000684,104.99205080000684,104.99205080000684,104.99205080000684,104.99205080000684,104.99205080000684,0,1,[0.0013649000320583582],[0.3665843999478966],104.99205080000684,105.19246979989111,1000,105.19246979989111,1000,1000,1000,1000,1,num_2,1.1565036000683904,,33,3,2026-03-12_17h20.57.607,2026A_exp2,2022.2.4,60.31566806860259,
1000,1,6.1,0.0,0,0,22,22,33,,,,,106.37678669998422,107.0271954999771,107.0271954999771,107.52841240004636,315,45,107.52841240004636,107.52841240004636,107.52841240004636,107.52841240004636,107.52841240004636,107.52841240004636,107.52841240004636,107.52841240004636,107.52841240004636,107.87833569990471,107.87833569990471,107.87833569990471,107.87833569990471,107.87833569990471,107.87833569990471,107.87833569990471,107.87833569990471,107.87833569990471,0,1,[0.0012149999383836985],[0.35030289995484054],107.87833569990471,108.08014860004187,1000,108.08014860004187,1000,1000,1000,1000,0,num_3,0.5644557001069188,,33,3,2026-03-12_17h20.57.607,2026A_exp2,2022.2.4,60.31566806860259,
1000,1,6.1,3.7,1,0,23,23,0,,,,,108.66222309996374,109.31302369991317,109.31302369991317,109.81423770007677,315,45,109.81423770007677,109.81423770007677,109.81423770007677,109.81423770007677,109.81423770007677,109.81423770007677,109.81423770007677,109.81423770007677,109.81423770007677,110.18061110004783,110.18061110004783,110.18061110004783,110.18061110004783,110.18061110004783,110.18061110004783,110.18061110004783,110.18061110004783,110.18061110004783,0,1,[0.001254800008609891],[0.3670566000510007],110.18061110004783,110.38252249988727,1000,110.38252249988727,1000,1000,1000,1000,0,num_3,0.7263088000472635,,33,3,2026-03-12_17h20.57.607,2026A_exp2,2022.2.4,60.31566806860259,
1,0,0.0,3.7,1,0,24,24,57,,,,,111.13149599987082,111.78215859993361,111.78215859993361,112.28318429994397,45,315,112.28318429994397,112.28318429994397,112.28318429994397,112.28318429994397,112.28318429994397,112.28318429994397,112.28318429994397,112.28318429994397,112.28318429994397,112.64968420006335,112.64968420006335,112.64968420006335,112.64968420006335,112.64968420006335,112.64968420006335,112.64968420006335,112.64968420006335,112.64968420006335,12,1,[0.20035540009848773],[0.3672061001416296],112.64968420006335,112.84990669996478,3.7,112.84990669996478,1,3.7,1,1,1000,num_4,0.6183912002015859,,33,3,2026-03-12_17h20.57.607,2026A_exp2,2022.2.4,60.31566806860259,
1,0,6.1,0.0,0,0,25,25,50,,,,,113.48395909997635,114.13449200009927,114.13449200009927,114.6355127999559,315,45,114.6355127999559,114.6355127999559,114.6355127999559,114.6355127999559,114.6355127999559,114.6355127999559,114.6355127999559,114.6355127999559,114.6355127999559,115.00217059999704,115.00217059999704,115.00217059999704,115.00217059999704,115.00217059999704,115.00217059999704,115.00217059999704,115.00217059999704,115.00217059999704,0,1,[0.0016916999593377113],[0.3667400998529047],115.00217059999704,115.20228690002114,6.1,115.20228690002114,1,6.1,1,1,1000,num_4,0.7145113002043217,,33,3,2026-03-12_17h20.57.607,2026A_exp2,2022.2.4,60.31566806860259,
1,0,0.0,0.0,0,0,26,26,2,,,,,115.93617810006253,116.58694269997068,116.58694269997068,117.07149380003102,315,45,117.07149380003102,117.07149380003102,117.07149380003102,117.07149380003102,117.07149380003102,117.07149380003102,117.07149380003102,117.07149380003102,117.07149380003102,117.43786840001121,117.43786840001121,117.43786840001121,117.43786840001121,117.43786840001121,117.43786840001121,117.43786840001121,117.43786840001121,117.43786840001121,0,1,[0.0012061998713761568],[0.3671043999493122],117.43786840001121,117.63802019995637,0.0,117.63802019995637,0,0.0,0,1,1000,num_1,1.1112085001077503,,33,3,2026-03-12_17h20.57.607,2026A_exp2,2022.2.4,60.31566806860259,
1000,1,0.0,3.7,0,0,27,27,44,,,,,118.77240970009007,119.4231873000972,119.4231873000972,119.92418890004046,315,45,119.92418890004046,119.92418890004046,119.92418890004046,119.92418890004046,119.92418890004046,119.92418890004046,119.92418890004046,119.92418890004046,119.92418890004046,120.2740507000126,120.2740507000126,120.2740507000126,120.2740507000126,120.2740507000126,120.2740507000126,120.2740507000126,120.2740507000126,120.2740507000126,22,0,,,120.2740507000126,120.47614010004327,1000,120.47614010004327,1000,1000,1000,1000,1,num_2,0.7766516001429409,,33,3,2026-03-12_17h20.57.607,2026A_exp2,2022.2.4,60.31566806860259,
1,0,0.0,0.0,1,0,28,28,41,,,,,121.27482699998654,121.92561400006525,121.92561400006525,122.4359285000246,315,315,122.4359285000246,122.4359285000246,122.4359285000246,122.4359285000246,122.4359285000246,122.4359285000246,122.4359285000246,122.4359285000246,122.4359285000246,122.77657669992186,122.77657669992186,122.77657669992186,122.77657669992186,122.77657669992186,122.77657669992186,122.77657669992186,122.77657669992186,122.77657669992186,15,2,"[0.21542069991119206, 0.26545499986968935]","[0.2320639998652041, 0.3489591998513788]",122.77657669992186,122.9803979001008,0.0,122.9803979001008,0,0.0,0,1,1000,num_1,1.7286612000316381,,33,3,2026-03-12_17h20.57.607,2026A_exp2,2022.2.4,60.31566806860259,
1000,1,0.0,4.9,1,0,29,29,51,,,,,124.72834989987314,125.37915729987435,125.37915729987435,125.86359339999035,45,45,125.86359339999035,125.86359339999035,125.86359339999035,125.86359339999035,125.86359339999035,125.86359339999035,125.86359339999035,125.86359339999035,125.86359339999035,126.23000349989161,126.23000349989161,126.23000349989161,126.23000349989161,126.23000349989161,126.23000349989161,126.23000349989161,126.23000349989161,126.23000349989161,0,1,[0.0011983001604676247],[0.3672184001188725],126.23000349989161,126.43192839995027,1000,126.43192839995027,1000,1000,1000,1000,1,num_2,0.7245614002458751,,33,3,2026-03-12_17h20.57.607,2026A_exp2,2022.2.4,60.31566806860259,
1,0,4.9,0.0,1,0,30,30,82,,,,,127.18086629989557,127.83177649998106,127.83177649998106,128.3326592000667,315,315,128.3326592000667,128.3326592000667,128.3326592000667,128.3326592000667,128.3326592000667,128.3326592000667,128.3326592000667,128.3326592000667,128.3326592000667,128.6990181999281,128.6990181999281,128.6990181999281,128.6990181999281,128.6990181999281,128.6990181999281,128.6990181999281,128.6990181999281,128.6990181999281,0,1,[0.0014261999167501926],[0.36732079996727407],128.6990181999281,128.89925129991025,0.0,128.89925129991025,0,0.0,0,1,1000,num_1,0.5370414000935853,,33,3,2026-03-12_17h20.57.607,2026A_exp2,2022.2.4,60.31566806860259,
1,0,3.7,4.9,1,0,31,31,39,,,,,129.4664670000784,130.11727280006744,130.11727280006744,130.60167489992455,45,315,130.60167489992455,130.60167489992455,130.60167489992455,130.60167489992455,130.60167489992455,130.60167489992455,130.60167489992455,130.60167489992455,130.60167489992455,130.96809209999628,130.96809209999628,130.96809209999628,130.96809209999628,130.96809209999628,130.96809209999628,130.96809209999628,130.96809209999628,130.96809209999628,0,1,[0.0011962000280618668],[0.3672545999288559],130.96809209999628,131.1683408000972,4.9,131.1683408000972,1,4.9,1,1,1000,num_4,0.612881500273943,,33,3,2026-03-12_17h20.57.607,2026A_exp2,2022.2.4,60.31566806860259,
1,0,4.9,0.0,1,0,32,32,4,,,,,131.80200379993767,132.4529500999488,132.4529500999488,132.93721030000597,45,45,132.93721030000597,132.93721030000597,132.93721030000597,132.93721030000597,132.93721030000597,132.93721030000597,132.93721030000597,132.93721030000597,132.93721030000597,133.30403960007243,133.30403960007243,133.30403960007243,133.30403960007243,133.30403960007243,133.30403960007243,133.30403960007243,133.30403960007243,133.30403960007243,20,2,"[0.31753990007564425, 0.3682126000057906]","[0.3519578999839723, 0.3682158999145031]",133.30403960007243,133.5038523999974,0.0,133.5038523999974,0,0.0,0,1,1000,num_1,2.4211691000964493,,33,3,2026-03-12_17h20.57.607,2026A_exp2,2022.2.4,60.31566806860259,
1000,1,0.0,4.9,0,0,33,33,77,,,,,135.9563023999799,136.60688299988396,136.60688299988396,137.09132119989954,315,45,137.09132119989954,137.09132119989954,137.09132119989954,137.09132119989954,137.09132119989954,137.09132119989954,137.09132119989954,137.09132119989954,137.09132119989954,137.45786409988068,137.45786409988068,137.45786409988068,137.45786409988068,137.45786409988068,137.45786409988068,137.45786409988068,137.45786409988068,137.45786409988068,0,1,[0.0011956999078392982],[0.3674608999863267],137.45786409988068,137.65988619998097,1000,137.65988619998097,1000,1000,1000,1000,1,num_2,0.8257305999286473,,33,3,2026-03-12_17h20.57.607,2026A_exp2,2022.2.4,60.31566806860259,
1,0,0.0,4.9,0,0,34,34,85,,,,,138.5088049999904,139.1594537999481,139.1594537999481,139.6606304999441,315,315,139.6606304999441,139.6606304999441,139.6606304999441,139.6606304999441,139.6606304999441,139.6606304999441,139.6606304999441,139.6606304999441,139.6606304999441,140.02713069994934,140.02713069994934,140.02713069994934,140.02713069994934,140.02713069994934,140.02713069994934,140.02713069994934,140.02713069994934,140.02713069994934,2,3,"[0.0013147001154720783, 0.08338190009817481, 0.20038629998452961]","[0.06686450005508959, 0.18361910013481975, 0.36714900005608797]",140.02713069994934,140.22723850002512,0.0,140.22723850002512,0,0.0,0,1,1000,num_1,0.5861110002733767,,33,3,2026-03-12_17h20.57.607,2026A_exp2,2022.2.4,60.31566806860259,
1000,1,6.1,3.7,0,0,35,35,87,,,,,140.84473089990206,141.49532489990816,141.49532489990816,141.99634160008281,45,45,141.99634160008281,141.99634160008281,141.99634160008281,141.99634160008281,141.99634160008281,141.99634160008281,141.99634160008281,141.99634160008281,141.99634160008281,142.36267760000192,142.36267760000192,142.36267760000192,142.36267760000192,142.36267760000192,142.36267760000192,142.36267760000192,142.36267760000192,142.36267760000192,0,1,[0.0012818998657166958],[0.3671083999797702],142.36267760000192,142.56481610005721,1000,142.56481610005721,1000,1000,1000,1000,0,num_3,2.3359357002191246,,33,3,2026-03-12_17h20.57.607,2026A_exp2,2022.2.4,60.31566806860259,
1000,1,4.9,0.0,0,0,36,36,58,,,,,144.93213779991493,145.5825483999215,145.5825483999215,146.08386430004612,315,315,146.08386430004612,146.08386430004612,146.08386430004612,146.08386430004612,146.08386430004612,146.08386430004612,146.08386430004612,146.08386430004612,146.08386430004612,146.4333631999325,146.4333631999325,146.4333631999325,146.4333631999325,146.4333631999325,146.4333631999325,146.4333631999325,146.4333631999325,146.4333631999325,4,3,"[0.033502099802717566, 0.06666259979829192, 0.15017419983632863]","[0.050026599783450365, 0.1335941997822374, 0.35005899984389544]",146.4333631999325,146.63380250008777,1000,146.63380250008777,1000,1000,1000,1000,0,num_3,0.6754862999077886,,33,3,2026-03-12_17h20.57.607,2026A_exp2,2022.2.4,60.31566806860259,
1000,1,4.9,6.1,1,0,37,37,1,,,,,147.33426870009862,147.9849992999807,147.9849992999807,148.4860235999804,45,315,148.4860235999804,148.4860235999804,148.4860235999804,148.4860235999804,148.4860235999804,148.4860235999804,148.4860235999804,148.4860235999804,148.4860235999804,148.85259909997694,148.85259909997694,148.85259909997694,148.85259909997694,148.85259909997694,148.85259909997694,148.85259909997694,148.85259909997694,148.85259909997694,0,1,[0.0009588000830262899],[0.3676926998887211],148.85259909997694,149.05433339998126,1000,149.05433339998126,1000,1000,1000,1000,1,num_2,0.4949127002619207,,33,3,2026-03-12_17h20.57.607,2026A_exp2,2022.2.4,60.31566806860259,
0,0,3.7,0.0,1,0,38,38,83,,,,,149.5698428999167,150.22043109987862,150.22043109987862,150.72176450002007,45,315,150.72176450002007,150.72176450002007,150.72176450002007,150.72176450002007,150.72176450002007,150.72176450002007,150.72176450002007,150.72176450002007,150.72176450002007,151.08818469988182,151.08818469988182,151.08818469988182,151.08818469988182,151.08818469988182,151.08818469988182,151.08818469988182,151.08818469988182,151.08818469988182,0,1,[0.0012584999203681946],[0.3669860998634249],151.08818469988182,151.28812239994295,3.7,151.28812239994295,1,3.7,1,1,1000,num_4,0.629381500184536,,33,3,2026-03-12_17h20.57.607,2026A_exp2,2022.2.4,60.31566806860259,
1000,1,0.0,3.7,0,0,39,39,52,,,,,151.93887159996666,152.60043009999208,152.60043009999208,153.07393689989112,45,45,153.07393689989112,153.07393689989112,153.07393689989112,153.07393689989112,153.07393689989112,153.07393689989112,153.07393689989112,153.07393689989112,153.07393689989112,153.4402133000549,153.4402133000549,153.4402133000549,153.4402133000549,153.4402133000549,153.4402133000549,153.4402133000549,153.4402133000549,153.4402133000549,23,0,,,153.4402133000549,153.66389989992604,1000,153.66389989992604,1000,1000,1000,1000,1,num_2,0.5090026000980288,,33,3,2026-03-12_17h20.57.607,2026A_exp2,2022.2.4,60.31566806860259,
1000,1,0.0,0.0,0,0,40,40,65,,,,,154.1955708998721,154.84197889990173,154.84197889990173,155.34294470003806,315,45,155.34294470003806,155.34294470003806,155.34294470003806,155.34294470003806,155.34294470003806,155.34294470003806,155.34294470003806,155.34294470003806,155.34294470003806,155.70949489995837,155.70949489995837,155.70949489995837,155.70949489995837,155.70949489995837,155.70949489995837,155.70949489995837,155.70949489995837,155.70949489995837,19,2,"[0.06690289988182485, 0.18361369986087084]","[0.10015279985964298, 0.21701919985935092]",155.70949489995837,155.91155320010148,1000,155.91155320010148,1000,1000,1000,1000,1,num_2,1.892807099968195,,33,3,2026-03-12_17h20.57.607,2026A_exp2,2022.2.4,60.31566806860259,
1000,1,4.9,4.9,0,0,41,41,42,,,,,157.82836399995722,158.4787524000276,158.4787524000276,158.98008270002902,315,315,158.98008270002902,158.98008270002902,158.98008270002902,158.98008270002902,158.98008270002902,158.98008270002902,158.98008270002902,158.98008270002902,158.98008270002902,159.32977789989673,159.32977789989673,159.32977789989673,159.32977789989673,159.32977789989673,159.32977789989673,159.32977789989673,159.32977789989673,159.32977789989673,22,0,,,159.32977789989673,159.53196939988993,1000,159.5466169998981,1000,1000,1000,1000,0,num_3,0.8897223002277315,,33,3,2026-03-12_17h20.57.607,2026A_exp2,2022.2.4,60.31566806860259,
0,0,0.0,4.9,1,0,42,42,56,,,,,160.4642558998894,161.11490559997037,161.11490559997037,161.59922989993356,315,45,161.59922989993356,161.59922989993356,161.59922989993356,161.59922989993356,161.59922989993356,161.59922989993356,161.59922989993356,161.59922989993356,161.59922989993356,161.9656704000663,161.9656704000663,161.9656704000663,161.9656704000663,161.9656704000663,161.9656704000663,161.9656704000663,161.9656704000663,161.9656704000663,23,0,,,161.9656704000663,162.16595449997112,0.0,162.16595449997112,0,0.0,0,1,1000,num_1,0.7025422002188861,,33,3,2026-03-12_17h20.57.607,2026A_exp2,2022.2.4,60.31566806860259,
1000,1,0.0,0.0,1,0,43,43,47,,,,,162.8998024999164,163.5349216000177,163.5349216000177,164.03542049997486,45,315,164.03542049997486,164.03542049997486,164.03542049997486,164.03542049997486,164.03542049997486,164.03542049997486,164.03542049997486,164.03542049997486,164.03542049997486,164.40149009996094,164.40149009996094,164.40149009996094,164.40149009996094,164.40149009996094,164.40149009996094,164.40149009996094,164.40149009996094,164.40149009996094,0,1,[0.0007547999266535044],[0.36743539990857244],164.40149009996094,164.60356940003112,1000,164.60356940003112,1000,1000,1000,1000,1,num_2,0.7686242002528161,,33,3,2026-03-12_17h20.57.607,2026A_exp2,2022.2.4,60.31566806860259,
1,0,4.9,0.0,1,0,44,44,6,,,,,165.40232799993828,166.05316399992444,166.05316399992444,166.5542959999293,315,315,166.5542959999293,166.5542959999293,166.5542959999293,166.5542959999293,166.5542959999293,166.5542959999293,166.5542959999293,166.5542959999293,166.5542959999293,166.92071420000866,166.92071420000866,166.92071420000866,166.92071420000866,166.92071420000866,166.92071420000866,166.92071420000866,166.92071420000866,166.92071420000866,2,1,[0.033582699950784445],[0.3669543999712914],166.92071420000866,167.12079409998842,0.0,167.12079409998842,0,0.0,0,1,1000,num_1,3.39560480020009,,33,3,2026-03-12_17h20.57.607,2026A_exp2,2022.2.4,60.31566806860259,
1000,1,0.0,0.0,0,0,45,45,61,,,,,170.540818199981,171.19154940010048,171.19154940010048,171.67607640009373,45,45,171.67607640009373,171.67607640009373,171.67607640009373,171.67607640009373,171.67607640009373,171.67607640009373,171.67607640009373,171.67607640009373,171.67607640009373,172.04248939990066,172.04248939990066,172.04248939990066,172.04248939990066,172.04248939990066,172.04248939990066,172.04248939990066,172.04248939990066,172.04248939990066,0,1,[0.0011916998773813248],[0.36710389982908964],172.04248939990066,172.24426049995236,1000,172.24426049995236,1000,1000,1000,1000,1,num_2,0.6329765000846237,,33,3,2026-03-12_17h20.57.607,2026A_exp2,2022.2.4,60.31566806860259,
1000,1,3.7,0.0,1,0,46,46,55,,,,,172.89324010000564,173.54398000007495,173.54398000007495,174.04511429998092,45,45,174.04511429998092,174.04511429998092,174.04511429998092,174.04511429998092,174.04511429998092,174.04511429998092,174.04511429998092,174.04511429998092,174.04511429998092,174.41131099988706,174.41131099988706,174.41131099988706,174.41131099988706,174.41131099988706,174.41131099988706,174.41131099988706,174.41131099988706,174.41131099988706,23,0,,,174.41131099988706,174.61369040003046,1000,174.61369040003046,1000,1000,1000,1000,0,num_3,0.855970700038597,,33,3,2026-03-12_17h20.57.607,2026A_exp2,2022.2.4,60.31566806860259,
1,0,0.0,6.1,0,0,47,47,5,,,,,175.49593969993293,176.14656129991636,176.14656129991636,176.6309801999014,315,315,176.6309801999014,176.6309801999014,176.6309801999014,176.6309801999014,176.6309801999014,176.6309801999014,176.6309801999014,176.6309801999014,176.6309801999014,176.99736070004292,176.99736070004292,176.99736070004292,176.99736070004292,176.99736070004292,176.99736070004292,176.99736070004292,176.99736070004292,176.99736070004292,0,1,[0.0012002999428659678],[0.3668526001274586],176.99736070004292,177.1974742000457,0.0,177.1974742000457,0,0.0,0,1,1000,num_1,1.655099900206551,,33,3,2026-03-12_17h20.57.607,2026A_exp2,2022.2.4,60.31566806860259,
1,0,0.0,0.0,0,0,48,48,59,,,,,178.88256769999862,179.53330780006945,179.53330780006945,180.0177740000654,315,315,180.0177740000654,180.0177740000654,180.0177740000654,180.0177740000654,180.0177740000654,180.0177740000654,180.0177740000654,180.0177740000654,180.0177740000654,180.38417090009898,180.38417090009898,180.38417090009898,180.38417090009898,180.38417090009898,180.38417090009898,180.38417090009898,180.38417090009898,180.38417090009898,0,1,[0.0013077999465167522],[0.36707499995827675],180.38417090009898,180.58428360009566,0.0,180.58428360009566,0,0.0,0,1,1000,num_1,1.90858060028404,,33,3,2026-03-12_17h20.57.607,2026A_exp2,2022.2.4,60.31566806860259,
1000,1,0.0,0.0,1,0,49,49,7,,,,,182.51941159996204,183.1634426000528,183.1634426000528,183.66037989989854,315,45,183.66037989989854,183.66037989989854,183.66037989989854,183.66037989989854,183.66037989989854,183.66037989989854,183.66037989989854,183.66037989989854,183.66037989989854,184.0211368999444,184.0211368999444,184.0211368999444,184.0211368999444,184.0211368999444,184.0211368999444,184.0211368999444,184.0211368999444,184.0211368999444,0,1,[0.003053799970075488],[0.3653281000442803],184.0211368999444,184.22327589988708,1000,184.22327589988708,1000,1000,1000,1000,1,num_2,1.4057595999911427,,33,3,2026-03-12_17h20.57.607,2026A_exp2,2022.2.4,60.31566806860259,
1000,1,6.1,0.0,0,0,50,50,19,,,,,185.65602730005048,186.3066827999428,186.3066827999428,186.80773180001415,45,45,186.80773180001415,186.80773180001415,186.80773180001415,186.80773180001415,186.80773180001415,186.80773180001415,186.80773180001415,186.80773180001415,186.80773180001415,187.17417280003428,187.17417280003428,187.17417280003428,187.17417280003428,187.17417280003428,187.17417280003428,187.17417280003428,187.17417280003428,187.17417280003428,0,1,[0.0012433999218046665],[0.36680299998261034],187.17417280003428,187.3761128000915,1000,187.3761128000915,1000,1000,1000,1000,0,num_3,0.5730589001905173,,33,3,2026-03-12_17h20.57.607,2026A_exp2,2022.2.4,60.31566806860259,
0,0,0.0,3.7,1,0,51,51,21,,,,,187.9751347999554,188.62574349995703,188.62574349995703,189.12674749991857,315,315,189.12674749991857,189.12674749991857,189.12674749991857,189.12674749991857,189.12674749991857,189.12674749991857,189.12674749991857,189.12674749991857,189.12674749991857,189.47658689995296,189.47658689995296,189.47658689995296,189.47658689995296,189.47658689995296,189.47658689995296,189.47658689995296,189.47658689995296,189.47658689995296,0,1,[0.0011030999012291431],[0.35069010010920465],189.47658689995296,189.6767146999482,0.0,189.6767146999482,0,0.0,0,1,1000,num_1,0.8476813999004662,,33,3,2026-03-12_17h20.57.607,2026A_exp2,2022.2.4,60.31566806860259,
1000,1,0.0,4.9,0,0,52,52,11,,,,,190.54618089995347,191.19494049996138,191.19494049996138,191.69596859999,315,315,191.69596859999,191.69596859999,191.69596859999,191.69596859999,191.69596859999,191.69596859999,191.69596859999,191.69596859999,191.69596859999,192.06235680007376,192.06235680007376,192.06235680007376,192.06235680007376,192.06235680007376,192.06235680007376,192.06235680007376,192.06235680007376,192.06235680007376,23,0,,,192.06235680007376,192.26449829991907,1000,192.26449829991907,1000,1000,1000,1000,1,num_2,0.9000430000014603,,33,3,2026-03-12_17h20.57.607,2026A_exp2,2022.2.4,60.31566806860259,
1,0,0.0,0.0,1,0,53,53,37,,,,,193.18032040004618,193.8313406999223,193.8313406999223,194.3318674999755,45,45,194.3318674999755,194.3318674999755,194.3318674999755,194.3318674999755,194.3318674999755,194.3318674999755,194.3318674999755,194.3318674999755,194.3318674999755,194.69812810001895,194.69812810001895,194.69812810001895,194.69812810001895,194.69812810001895,194.69812810001895,194.69812810001895,194.69812810001895,194.69812810001895,0,1,[0.0007533000316470861],[0.3679530001245439],194.69812810001895,194.89833880006336,0.0,194.89833880006336,0,0.0,0,1,1000,num_1,1.2027277001179755,,33,3,2026-03-12_17h20.57.607,2026A_exp2,2022.2.4,60.31566806860259,
1,0,0.0,3.7,0,0,54,54,12,,,,,196.1335446999874,196.76690579997376,196.76690579997376,197.26810089987703,315,45,197.26810089987703,197.26810089987703,197.26810089987703,197.26810089987703,197.26810089987703,197.26810089987703,197.26810089987703,197.26810089987703,197.26810089987703,197.63446830003522,197.63446830003522,197.63446830003522,197.63446830003522,197.63446830003522,197.63446830003522,197.63446830003522,197.63446830003522,197.63446830003522,0,1,[0.0007216001395136118],[0.36792810005135834],197.63446830003522,197.83468209998682,0.0,197.83468209998682,0,0.0,0,1,1000,num_1,1.0583260001149029,,33,3,2026-03-12_17h20.57.607,2026A_exp2,2022.2.4,60.31566806860259,
1,0,0.0,4.9,1,0,55,55,45,,,,,198.91908550006337,199.5531216999516,199.5531216999516,200.0542504999321,45,45,200.0542504999321,200.0542504999321,200.0542504999321,200.0542504999321,200.0542504999321,200.0542504999321,200.0542504999321,200.0542504999321,200.0542504999321,200.42051890003495,200.42051890003495,200.42051890003495,200.42051890003495,200.42051890003495,200.42051890003495,200.42051890003495,200.42051890003495,200.42051890003495,0,1,[0.0006687999702990055],[0.36692860000766814],200.42051890003495,200.62070939992554,4.9,200.62070939992554,1,4.9,1,1,1000,num_4,0.8083729001227766,,33,3,2026-03-12_17h20.57.607,2026A_exp2,2022.2.4,60.31566806860259,
1,0,6.1,3.7,0,0,56,56,26,,,,,201.45513999997638,202.10556919989176,202.10556919989176,202.5898929000832,45,45,202.5898929000832,202.5898929000832,202.5898929000832,202.5898929000832,202.5898929000832,202.5898929000832,202.5898929000832,202.5898929000832,202.5898929000832,202.95628620008938,202.95628620008938,202.95628620008938,202.95628620008938,202.95628620008938,202.95628620008938,202.95628620008938,202.95628620008938,202.95628620008938,0,1,[0.0006969999521970749],[0.36740679992362857],202.95628620008938,203.15645999996923,6.1,203.15645999996923,1,6.1,1,1,1000,num_4,0.6881244000978768,,33,3,2026-03-12_17h20.57.607,2026A_exp2,2022.2.4,60.31566806860259,
1,0,0.0,0.0,1,0,57,57,66,,,,,203.87500940007158,204.52466599992476,204.52466599992476,205.02582119987346,315,45,205.02582119987346,205.02582119987346,205.02582119987346,205.02582119987346,205.02582119987346,205.02582119987346,205.02582119987346,205.02582119987346,205.02582119987346,205.37550559989177,205.37550559989177,205.37550559989177,205.37550559989177,205.37550559989177,205.37550559989177,205.37550559989177,205.37550559989177,205.37550559989177,21,1,[0.3517293001059443],[0.3517320998944342],205.37550559989177,205.57566370000131,0.0,205.59222429990768,1,0.0,0,0,1000,num_4,0.6840120002161711,,33,3,2026-03-12_17h20.57.607,2026A_exp2,2022.2.4,60.31566806860259,
1000,1,4.9,0.0,1,0,58,58,72,,,,,206.29323880001903,206.9436864000745,206.9436864000745,207.42830740008503,45,45,207.42830740008503,207.42830740008503,207.42830740008503,207.42830740008503,207.42830740008503,207.42830740008503,207.42830740008503,207.42830740008503,207.42830740008503,207.79461149987765,207.79461149987765,207.79461149987765,207.79461149987765,207.79461149987765,207.79461149987765,207.79461149987765,207.79461149987765,207.79461149987765,1,1,[0.0007455002050846815],[0.36698450008407235],207.79461149987765,207.99482199992053,1000,207.99482199992053,1000,1000,1000,1000,0,num_3,0.658073500264436,,33,3,2026-03-12_17h20.57.607,2026A_exp2,2022.2.4,60.31566806860259,
1000,1,4.9,0.0,1,0,59,59,25,,,,,208.67885509994812,209.32970739994198,209.32970739994198,209.81405170005746,315,315,209.81405170005746,209.81405170005746,209.81405170005746,209.81405170005746,209.81405170005746,209.81405170005746,209.81405170005746,209.81405170005746,209.81405170005746,210.1803232000675,210.1803232000675,210.1803232000675,210.1803232000675,210.1803232000675,210.1803232000675,210.1803232000675,210.1803232000675,210.1803232000675,0,1,[0.0007169998716562986],[0.3676757998764515],210.1803232000675,210.3807031000033,1000,210.3807031000033,1000,1000,1000,1000,0,num_3,0.6075540001038462,,33,3,2026-03-12_17h20.57.607,2026A_exp2,2022.2.4,60.31566806860259,
1000,1,0.0,0.0,1,0,60,60,23,,,,,211.01437069987878,211.66503020003438,211.66503020003438,212.14952050009742,315,315,212.14952050009742,212.14952050009742,212.14952050009742,212.14952050009742,212.14952050009742,212.14952050009742,212.14952050009742,212.14952050009742,212.14952050009742,212.51591329998337,212.51591329998337,212.51591329998337,212.51591329998337,212.51591329998337,212.51591329998337,212.51591329998337,212.51591329998337,212.51591329998337,0,1,[0.0007458999752998352],[0.3670844999141991],212.51591329998337,212.71621589991264,1000,212.71621589991264,1000,1000,1000,1000,1,num_2,0.6481573001947254,,33,3,2026-03-12_17h20.57.607,2026A_exp2,2022.2.4,60.31566806860259,
0,0,0.0,6.1,1,0,61,61,76,,,,,213.38366819988005,214.03455540002324,214.03455540002324,214.51877409988083,315,315,214.51877409988083,214.51877409988083,214.51877409988083,214.51877409988083,214.51877409988083,214.51877409988083,214.51877409988083,214.51877409988083,214.51877409988083,214.8849766999483,214.8849766999483,214.8849766999483,214.8849766999483,214.8849766999483,214.8849766999483,214.8849766999483,214.8849766999483,214.8849766999483,0,1,[0.0007265000604093075],[0.3673505000770092],214.8849766999483,215.0850955999922,0.0,215.0850955999922,0,0.0,0,1,1000,num_1,0.8318211000878364,,33,3,2026-03-12_17h20.57.607,2026A_exp2,2022.2.4,60.31566806860259,
1000,1,0.0,3.7,1,0,62,62,80,,,,,215.93612239998765,216.5865885000676,216.5865885000676,217.0713698999025,315,45,217.0713698999025,217.0713698999025,217.0713698999025,217.0713698999025,217.0713698999025,217.0713698999025,217.0713698999025,217.0713698999025,217.0713698999025,217.43770290003158,217.43770290003158,217.43770290003158,217.43770290003158,217.43770290003158,217.43770290003158,217.43770290003158,217.43770290003158,217.43770290003158,9,4,"[0.06750190001912415, 0.1502401998732239, 0.21690270002000034, 0.26701469998806715]","[0.0843299999833107, 0.20025649992749095, 0.25017779995687306, 0.36722579994238913]",217.43770290003158,217.63777859997936,1000,217.63777859997936,1000,1000,1000,1000,1,num_2,0.8146200999617577,,33,3,2026-03-12_17h20.57.607,2026A_exp2,2022.2.4,60.31566806860259,
1,0,0.0,0.0,0,0,63,63,38,,,,,218.47229159995914,219.12252820003778,219.12252820003778,219.62369480007328,315,45,219.62369480007328,219.62369480007328,219.62369480007328,219.62369480007328,219.62369480007328,219.62369480007328,219.62369480007328,219.62369480007328,219.62369480007328,219.9733714000322,219.9733714000322,219.9733714000322,219.9733714000322,219.9733714000322,219.9733714000322,219.9733714000322,219.9733714000322,219.9733714000322,0,1,[0.0008057998493313789],[0.3508788999170065],219.9733714000322,220.1736365999095,0.0,220.1736365999095,1,0.0,0,0,1000,num_4,2.0705132000148296,,33,3,2026-03-12_17h20.57.607,2026A_exp2,2022.2.4,60.31566806860259,
1000,1,0.0,0.0,0,0,64,64,75,,,,,222.27712989994325,222.9271541000344,222.9271541000344,223.41142680007033,45,315,223.41142680007033,223.41142680007033,223.41142680007033,223.41142680007033,223.41142680007033,223.41142680007033,223.41142680007033,223.41142680007033,223.41142680007033,223.7775995999109,223.7775995999109,223.7775995999109,223.7775995999109,223.7775995999109,223.7775995999109,223.7775995999109,223.7775995999109,223.7775995999109,9,1,[0.1497549000196159],[0.36647940007969737],223.7775995999109,223.97761699999683,1000,223.97761699999683,1000,1000,1000,1000,0,num_3,1.0830169001128525,,33,3,2026-03-12_17h20.57.607,2026A_exp2,2022.2.4,60.31566806860259,
1,0,4.9,6.1,1,0,65,65,46,,,,,225.07852229988202,225.71248289989308,225.71248289989308,226.21394490008242,315,315,226.21394490008242,226.21394490008242,226.21394490008242,226.21394490008242,226.21394490008242,226.21394490008242,226.21394490008242,226.21394490008242,226.21394490008242,226.5799497999251,226.5799497999251,226.5799497999251,226.5799497999251,226.5799497999251,226.5799497999251,226.5799497999251,226.5799497999251,226.5799497999251,0,1,[0.0007275000680238008],[0.36741179996170104],226.5799497999251,226.7802059999667,6.1,226.7802059999667,1,6.1,1,1,1000,num_4,0.9204271000344306,,33,3,2026-03-12_17h20.57.607,2026A_exp2,2022.2.4,60.31566806860259,
0,0,0.0,0.0,1,0,66,66,62,,,,,227.73099750000983,228.3650032998994,228.3650032998994,228.86623889999464,45,315,228.86623889999464,228.86623889999464,228.86623889999464,228.86623889999464,228.86623889999464,228.86623889999464,228.86623889999464,228.86623889999464,228.86623889999464,229.23260180000216,229.23260180000216,229.23260180000216,229.23260180000216,229.23260180000216,229.23260180000216,229.23260180000216,229.23260180000216,229.23260180000216,0,1,[0.000797600019723177],[0.3670363000128418],229.23260180000216,229.43295889999717,0.0,229.43295889999717,0,0.0,0,1,1000,num_1,1.1952309999614954,,33,3,2026-03-12_17h20.57.607,2026A_exp2,2022.2.4,60.31566806860259,
1000,1,0.0,4.9,1,0,67,67,27,,,,,230.6506681998726,231.30175000010058,231.30175000010058,231.78577840002254,45,315,231.78577840002254,231.78577840002254,231.78577840002254,231.78577840002254,231.78577840002254,231.78577840002254,231.78577840002254,231.78577840002254,231.78577840002254,232.1525635998696,232.1525635998696,232.1525635998696,232.1525635998696,232.1525635998696,232.1525635998696,232.1525635998696,232.1525635998696,232.1525635998696,0,1,[0.0007478999905288219],[0.3674040997866541],232.1525635998696,232.35241739987396,1000,232.35241739987396,1000,1000,1000,1000,1,num_2,0.708484600065276,,33,3,2026-03-12_17h20.57.607,2026A_exp2,2022.2.4,60.31566806860259,
1000,1,0.0,0.0,0,0,68,68,20,,,,,233.08703600009903,233.72048330004327,233.72048330004327,234.2215374999214,45,315,234.2215374999214,234.2215374999214,234.2215374999214,234.2215374999214,234.2215374999214,234.2215374999214,234.2215374999214,234.2215374999214,234.2215374999214,234.5880835999269,234.5880835999269,234.5880835999269,234.5880835999269,234.5880835999269,234.5880835999269,234.5880835999269,234.5880835999269,234.5880835999269,0,1,[0.0009216000325977802],[0.36695319996215403],234.5880835999269,234.78856429993175,1000,234.78856429993175,1000,1000,1000,1000,1,num_2,0.888446300290525,,33,3,2026-03-12_17h20.57.607,2026A_exp2,2022.2.4,60.31566806860259,
1,0,0.0,0.0,1,0,69,69,73,,,,,235.7060896998737,236.3566383998841,236.3566383998841,236.85752699989825,45,315,236.85752699989825,236.85752699989825,236.85752699989825,236.85752699989825,236.85752699989825,236.85752699989825,236.85752699989825,236.85752699989825,236.85752699989825,237.2071970999241,237.2071970999241,237.2071970999241,237.2071970999241,237.2071970999241,237.2071970999241,237.2071970999241,237.2071970999241,237.2071970999241,0,1,[0.0007513999007642269],[0.3506269999779761],237.2071970999241,237.40769709995948,0.0,237.40769709995948,1,0.0,0,0,1000,num_4,1.5011157002300024,,33,3,2026-03-12_17h20.57.607,2026A_exp2,2022.2.4,60.31566806860259,
1000,1,3.7,3.7,1,0,70,70,40,,,,,238.9255192000419,239.5595861999318,239.5595861999318,240.0607866998762,315,315,240.0607866998762,240.0607866998762,240.0607866998762,240.0607866998762,240.0607866998762,240.0607866998762,240.0607866998762,240.0607866998762,240.0607866998762,240.42715679993853,240.42715679993853,240.42715679993853,240.42715679993853,240.42715679993853,240.42715679993853,240.42715679993853,240.42715679993853,240.42715679993853,23,0,,,240.42715679993853,240.62743219989352,1000,240.62743219989352,1000,1000,1000,1000,1,num_2,0.8331111001316458,,33,3,2026-03-12_17h20.57.607,2026A_exp2,2022.2.4,60.31566806860259,
0,0,3.7,4.9,1,0,71,71,3,,,,,241.4788482999429,242.12887430004776,242.12887430004776,242.6300925000105,315,315,242.6300925000105,242.6300925000105,242.6300925000105,242.6300925000105,242.6300925000105,242.6300925000105,242.6300925000105,242.6300925000105,242.6300925000105,242.9963732000906,242.9963732000906,242.9963732000906,242.9963732000906,242.9963732000906,242.9963732000906,242.9963732000906,242.9963732000906,242.9963732000906,3,3,"[0.0007611000910401344, 0.1504586001392454, 0.250682600075379]","[0.13399080000817776, 0.21745150000788271, 0.3673708999995142]",242.9963732000906,243.1971708999481,3.7,243.1971708999481,0,3.7,1,0,1000,num_1,0.7433982002548873,,33,3,2026-03-12_17h20.57.607,2026A_exp2,2022.2.4,60.31566806860259,
1,0,0.0,0.0,0,0,72,72,64,,,,,243.96404289989732,244.59796039992943,244.59796039992943,245.0989816999063,315,315,245.0989816999063,245.0989816999063,245.0989816999063,245.0989816999063,245.0989816999063,245.0989816999063,245.0989816999063,245.0989816999063,245.0989816999063,245.4656340999063,245.4656340999063,245.4656340999063,245.4656340999063,245.4656340999063,245.4656340999063,245.4656340999063,245.4656340999063,245.4656340999063,0,1,[0.0008140997961163521],[0.36799969989806414],245.4656340999063,245.66562089999206,0.0,245.66562089999206,0,0.0,0,1,1000,num_1,1.3546504001133144,,33,3,2026-03-12_17h20.57.607,2026A_exp2,2022.2.4,60.31566806860259,
1000,1,0.0,6.1,1,0,73,73,88,,,,,247.05048149987124,247.6849398999475,247.6849398999475,248.18563219998032,315,315,248.18563219998032,248.18563219998032,248.18563219998032,248.18563219998032,248.18563219998032,248.18563219998032,248.18563219998032,248.18563219998032,248.18563219998032,248.55190710001625,248.55190710001625,248.55190710001625,248.55190710001625,248.55190710001625,248.55190710001625,248.55190710001625,248.55190710001625,248.55190710001625,1,2,"[0.0007884998340159655, 0.2170422999188304]","[0.20037259999662638, 0.3672150999773294]",248.55190710001625,248.75283599994145,1000,248.75283599994145,1000,1000,1000,1000,1,num_2,0.596394200110808,,33,3,2026-03-12_17h20.57.607,2026A_exp2,2022.2.4,60.31566806860259,
1000,1,4.9,3.7,1,0,74,74,67,,,,,249.370415299898,250.0201226999052,250.0201226999052,250.5046999999322,45,315,250.5046999999322,250.5046999999322,250.5046999999322,250.5046999999322,250.5046999999322,250.5046999999322,250.5046999999322,250.5046999999322,250.5046999999322,250.87099399999715,250.87099399999715,250.87099399999715,250.87099399999715,250.87099399999715,250.87099399999715,250.87099399999715,250.87099399999715,250.87099399999715,0,1,[0.0007893000729382038],[0.3673261001240462],250.87099399999715,251.07131440006196,1000,251.07131440006196,1000,1000,1000,1000,0,num_3,0.5730416001752019,,33,3,2026-03-12_17h20.57.607,2026A_exp2,2022.2.4,60.31566806860259,
1,0,4.9,4.9,1,0,75,75,89,,,,,251.6718891998753,252.32259400002658,252.32259400002658,252.8068595000077,315,45,252.8068595000077,252.8068595000077,252.8068595000077,252.8068595000077,252.8068595000077,252.8068595000077,252.8068595000077,252.8068595000077,252.8068595000077,253.17512269993313,253.17512269993313,253.17512269993313,253.17512269993313,253.17512269993313,253.17512269993313,253.17512269993313,253.17512269993313,253.17512269993313,3,1,[0.05072409985587001],[0.3686247000005096],253.17512269993313,253.39045129995793,4.9,253.39045129995793,1,4.9,1,1,1000,num_4,0.894489100202918,,33,3,2026-03-12_17h20.57.607,2026A_exp2,2022.2.4,60.31566806860259,
1,0,6.1,4.9,1,0,76,76,35,,,,,254.30758440005593,254.94196099997498,254.94196099997498,255.44475329993293,315,45,255.44475329993293,255.44475329993293,255.44475329993293,255.44475329993293,255.44475329993293,255.44475329993293,255.44475329993293,255.44475329993293,255.44475329993293,255.8091802999843,255.8091802999843,255.8091802999843,255.8091802999843,255.8091802999843,255.8091802999843,255.8091802999843,255.8091802999843,255.8091802999843,23,0,,,255.8091802999843,256.00946149998344,4.9,256.00946149998344,0,4.9,1,0,1000,num_1,2.355552799999714,,33,3,2026-03-12_17h20.57.607,2026A_exp2,2022.2.4,60.31566806860259,
1,0,4.9,6.1,1,0,77,77,86,,,,,258.3952685999684,259.02950889989734,259.02950889989734,259.5306758999359,315,315,259.5306758999359,259.5306758999359,259.5306758999359,259.5306758999359,259.5306758999359,259.5306758999359,259.5306758999359,259.5306758999359,259.5306758999359,259.89649709989317,259.89649709989317,259.89649709989317,259.89649709989317,259.89649709989317,259.89649709989317,259.89649709989317,259.89649709989317,259.89649709989317,0,1,[0.000840499997138977],[0.36743009998463094],259.89649709989317,260.09689599997364,6.1,260.09689599997364,1,6.1,1,1,1000,num_4,0.9323858001735061,,33,3,2026-03-12_17h20.57.607,2026A_exp2,2022.2.4,60.31566806860259,
1,0,4.9,0.0,1,0,78,78,84,,,,,261.04801280004904,261.6818291998934,261.6818291998934,262.1831269999966,315,45,262.1831269999966,262.1831269999966,262.1831269999966,262.1831269999966,262.1831269999966,262.1831269999966,262.1831269999966,262.1831269999966,262.1831269999966,262.54934339993633,262.54934339993633,262.54934339993633,262.54934339993633,262.54934339993633,262.54934339993633,262.54934339993633,262.54934339993633,262.54934339993633,5,1,[0.049683399964123964],[0.3497850000858307],262.54934339993633,262.74969429988414,0.0,262.74969429988414,0,0.0,0,1,1000,num_1,0.782558600185439,,33,3,2026-03-12_17h20.57.607,2026A_exp2,2022.2.4,60.31566806860259,
0,0,4.9,0.0,0,0,79,79,30,,,,,263.550187200075,264.18429789994843,264.18429789994843,264.6857908000238,315,45,264.6857908000238,264.6857908000238,264.6857908000238,264.6857908000238,264.6857908000238,264.6857908000238,264.6857908000238,264.6857908000238,264.6857908000238,265.05188670009375,265.05188670009375,265.05188670009375,265.05188670009375,265.05188670009375,265.05188670009375,265.05188670009375,265.05188670009375,265.05188670009375,23,0,,,265.05188670009375,265.252223999938,0.0,265.252223999938,0,0.0,0,1,1000,num_1,1.5283866999670863,,33,3,2026-03-12_17h20.57.607,2026A_exp2,2022.2.4,60.31566806860259,
1,0,0.0,6.1,0,0,80,80,68,,,,,266.8037956999615,267.4378124999348,267.4378124999348,267.9392446000129,315,45,267.9392446000129,267.9392446000129,267.9392446000129,267.9392446000129,267.9392446000129,267.9392446000129,267.9392446000129,267.9392446000129,267.9392446000129,268.30505779990926,268.30505779990926,268.30505779990926,268.30505779990926,268.30505779990926,268.30505779990926,268.30505779990926,268.30505779990926,268.30505779990926,23,0,,,268.30505779990926,268.5050898999907,0.0,268.5050898999907,0,0.0,0,1,1000,num_1,2.5639226001221687,,33,3,2026-03-12_17h20.57.607,2026A_exp2,2022.2.4,60.31566806860259,
1000,1,4.9,0.0,0,0,81,81,22,,,,,271.09123430005275,271.72508009988815,271.72508009988815,272.2263913000934,45,45,272.2263913000934,272.2263913000934,272.2263913000934,272.2263913000934,272.2263913000934,272.2263913000934,272.2263913000934,272.2263913000934,272.2263913000934,272.59268160001375,272.59268160001375,272.59268160001375,272.59268160001375,272.59268160001375,272.59268160001375,272.59268160001375,272.59268160001375,272.59268160001375,0,1,[0.0007482999935746193],[0.36806860007345676],272.59268160001375,272.79311400000006,1000,272.79311400000006,1000,1000,1000,1000,0,num_3,0.6038468000479043,,33,3,2026-03-12_17h20.57.607,2026A_exp2,2022.2.4,60.31566806860259,
1000,1,6.1,3.7,1,0,82,82,10,,,,,273.4269803999923,274.0776893000584,274.0776893000584,274.5619095999282,45,315,274.5619095999282,274.5619095999282,274.5619095999282,274.5619095999282,274.5619095999282,274.5619095999282,274.5619095999282,274.5619095999282,274.5619095999282,274.92832829989493,274.92832829989493,274.92832829989493,274.92832829989493,274.92832829989493,274.92832829989493,274.92832829989493,274.92832829989493,274.92832829989493,17,3,"[0.0007421998307108879, 0.050813499838113785, 0.1004371999297291]","[0.01749500003643334, 0.06689439993351698, 0.16710600000806153]",274.92832829989493,275.12852560007013,1000,275.12852560007013,1000,1000,1000,1000,0,num_3,0.5082139002624899,,33,3,2026-03-12_17h20.57.607,2026A_exp2,2022.2.4,60.31566806860259,
1000,1,0.0,0.0,1,0,83,83,14,,,,,275.66243580006994,276.31298550008796,276.31298550008796,276.79736849991605,315,45,276.79736849991605,276.79736849991605,276.79736849991605,276.79736849991605,276.79736849991605,276.79736849991605,276.79736849991605,276.79736849991605,276.79736849991605,277.1639002999291,277.1639002999291,277.1639002999291,277.1639002999291,277.1639002999291,277.1639002999291,277.1639002999291,277.1639002999291,277.1639002999291,13,7,"[0.017387199914082885, 0.10056739998981357, 0.13412109995260835, 0.18392829992808402, 0.2511873999610543, 0.30073129991069436, 0.33396139997057617]","[0.05049040005542338, 0.11753250006586313, 0.15056940005160868, 0.2005592999048531, 0.2840495000127703, 0.3172206999734044, 0.36732179997488856]",277.1639002999291,277.36475299997255,1000,277.36475299997255,1000,1000,1000,1000,0,num_3,0.7995863002724946,,33,3,2026-03-12_17h20.57.607,2026A_exp2,2022.2.4,60.31566806860259,
1,0,0.0,4.9,0,0,84,84,17,,,,,278.1815098999068,278.81544929998927,278.81544929998927,279.31679630000144,315,315,279.31679630000144,279.31679630000144,279.31679630000144,279.31679630000144,279.31679630000144,279.31679630000144,279.31679630000144,279.31679630000144,279.31679630000144,279.6832643998787,279.6832643998787,279.6832643998787,279.6832643998787,279.6832643998787,279.6832643998787,279.6832643998787,279.6832643998787,279.6832643998787,22,1,[0.36741950013674796],[0.36742240004241467],279.6832643998787,279.88320069992915,0.0,279.88320069992915,0,0.0,0,1,1000,num_1,0.7217822000384331,,33,3,2026-03-12_17h20.57.607,2026A_exp2,2022.2.4,60.31566806860259,
1,0,0.0,0.0,1,0,85,85,70,,,,,280.6341230000835,281.267987200059,281.267987200059,281.77003169991076,45,45,281.77003169991076,281.77003169991076,281.77003169991076,281.77003169991076,281.77003169991076,281.77003169991076,281.77003169991076,281.77003169991076,281.77003169991076,282.1356247998774,282.1356247998774,282.1356247998774,282.1356247998774,282.1356247998774,282.1356247998774,282.1356247998774,282.1356247998774,282.1356247998774,0,1,[0.000954299932345748],[0.3670421000570059],282.1356247998774,282.3361374998931,0.0,282.3361374998931,1,0.0,0,0,1000,num_4,0.7568850002717227,,33,3,2026-03-12_17h20.57.607,2026A_exp2,2022.2.4,60.31566806860259,
1,0,0.0,0.0,1,0,86,86,43,,,,,283.1201424000319,283.75398729997687,283.75398729997687,284.2549451000523,315,45,284.2549451000523,284.2549451000523,284.2549451000523,284.2549451000523,284.2549451000523,284.2549451000523,284.2549451000523,284.2549451000523,284.2549451000523,284.6217594000045,284.6217594000045,284.6217594000045,284.6217594000045,284.6217594000045,284.6217594000045,284.6217594000045,284.6217594000045,284.6217594000045,0,1,[0.0007465002126991749],[0.36750380019657314],284.6217594000045,284.82160270004533,0.0,284.82160270004533,1,0.0,0,0,1000,num_4,0.5993221001699567,,33,3,2026-03-12_17h20.57.607,2026A_exp2,2022.2.4,60.31566806860259,
1,0,3.7,0.0,1,0,87,87,74,,,,,285.4390795000363,286.07280880003236,286.07280880003236,286.5739831000101,45,45,286.5739831000101,286.5739831000101,286.5739831000101,286.5739831000101,286.5739831000101,286.5739831000101,286.5739831000101,286.5739831000101,286.5739831000101,286.94029520009644,286.94029520009644,286.94029520009644,286.94029520009644,286.94029520009644,286.94029520009644,286.94029520009644,286.94029520009644,286.94029520009644,23,0,,,286.94029520009644,287.14044740004465,0.0,287.14044740004465,0,0.0,0,1,1000,num_1,0.9606850000564009,,33,3,2026-03-12_17h20.57.607,2026A_exp2,2022.2.4,60.31566806860259,
1000,1,0.0,6.1,0,0,88,88,34,,,,,288.12530960002914,288.75880539999343,288.75880539999343,289.2599893999286,45,45,289.2599893999286,289.2599893999286,289.2599893999286,289.2599893999286,289.2599893999286,289.2599893999286,289.2599893999286,289.2599893999286,289.2599893999286,289.6263298999984,289.6263298999984,289.6263298999984,289.6263298999984,289.6263298999984,289.6263298999984,289.6263298999984,289.6263298999984,289.6263298999984,0,1,[0.0007170001044869423],[0.3676466001197696],289.6263298999984,289.826904800022,1000,289.826904800022,1000,1000,1000,1000,1,num_2,0.5374221003148705,,33,3,2026-03-12_17h20.57.607,2026A_exp2,2022.2.4,60.31566806860259,
1,0,0.0,4.9,0,0,89,89,71,,,,,290.3942148000933,291.0444773999043,291.0444773999043,291.5289439999033,315,315,291.5289439999033,291.5289439999033,291.5289439999033,291.5289439999033,291.5289439999033,291.5289439999033,291.5289439999033,291.5289439999033,291.5289439999033,291.8953016998712,291.8953016998712,291.8953016998712,291.8953016998712,291.8953016998712,291.8953016998712,291.8953016998712,291.8953016998712,291.8953016998712,2,2,"[0.0007660000119358301, 0.13371309987269342]","[0.1170870999339968, 0.3673612999264151]",291.8953016998712,292.09557230002247,0.0,292.09557230002247,0,0.0,0,1,1000,num_1,0.7251085999887437,,33,3,2026-03-12_17h20.57.607,2026A_exp2,2022.2.4,60.31566806860259,
,,,,,,,,,,,,,,,,,,,,,,,,,,,,,,,,,,,,,,,,,,,,,,,,,,,,292.8495873999782,,,,,,,
