validity,detectorcomp,contrastCW,contrastCCW,precueCWorCCW,block_80trials.thisRepN,block_80trials.thisTrialN,block_80trials.thisN,block_80trials.thisIndex,etRecord.started,etRecord.stopped,text.started,text.stopped,text_4.started,text_4.stopped,text_6.started,text_6.stopped,oriCW,oriCCW,roi_2.started,grating_UR.started,grating_UL.started,grating_LR.started,grating_LL.started,noise_UR.started,noise_UL.started,noise_LR.started,noise_LL.started,roi_2.stopped,grating_UR.stopped,grating_UL.stopped,grating_LR.stopped,grating_LL.stopped,noise_UR.stopped,noise_UL.stopped,noise_LR.stopped,noise_LL.stopped,outframe,roi_2.numLooks,roi_2.timesOn,roi_2.timesOff,text_2.started,text_2.stopped,probedcontrast,key_resp.started,respdetect,relevantContrast,correctDetect,TorFdetect,respCWorCCW,key_resp.keys,key_resp.rt,feedback_display_.started,participantNo,blockNo,date,expName,psychopyVersion,frameRate,
1000,1,6.1,6.1,1,0,0,0,8,3.759999526664615e-05,3.759999526664615e-05,56.56269369996153,58.56480130000273,58.56480130000273,59.20789259998128,59.20789259998128,59.719770499970764,45,315,59.719770499970764,59.719770499970764,59.719770499970764,59.719770499970764,59.719770499970764,59.719770499970764,59.719770499970764,59.719770499970764,59.719770499970764,60.06637109996518,60.06637109996518,60.06637109996518,60.06637109996518,60.06637109996518,60.06637109996518,60.06637109996518,60.06637109996518,60.06637109996518,23,0,,,60.06637109996518,60.27347670000745,1000,60.27347670000745,1000,1000,1000,1000,0,num_3,0.5751709000323899,,28,12,2026-03-05_16h31.59.323,2026A_exp2,2022.2.4,59.95570470914389,
1000,1,0.0,0.0,0,0,1,1,17,,,,,60.86727369995788,61.51793410000391,61.51793410000391,62.01889409997966,315,315,62.01889409997966,62.01889409997966,62.01889409997966,62.01889409997966,62.01889409997966,62.01889409997966,62.01889409997966,62.01889409997966,62.01889409997966,62.36914669995895,62.36914669995895,62.36914669995895,62.36914669995895,62.36914669995895,62.36914669995895,62.36914669995895,62.36914669995895,62.36914669995895,22,0,,,62.36914669995895,62.56904400000349,1000,62.56904400000349,1000,1000,1000,1000,1,num_2,0.5431641999748535,,28,12,2026-03-05_16h31.59.323,2026A_exp2,2022.2.4,59.95570470914389,
1000,1,6.1,0.0,1,0,2,2,29,,,,,63.136121799994726,63.786842099973,63.786842099973,64.28796749998583,45,315,64.28796749998583,64.28796749998583,64.28796749998583,64.28796749998583,64.28796749998583,64.28796749998583,64.28796749998583,64.28796749998583,64.28796749998583,64.65442360000452,64.65442360000452,64.65442360000452,64.65442360000452,64.65442360000452,64.65442360000452,64.65442360000452,64.65442360000452,64.65442360000452,23,0,,,64.65442360000452,64.8561711999937,1000,64.8561711999937,1000,1000,1000,1000,1,num_2,0.5916955000138842,,28,12,2026-03-05_16h31.59.323,2026A_exp2,2022.2.4,59.95570470914389,
0,0,6.1,4.9,0,0,3,3,22,,,,,65.472003199975,66.12254449998727,66.12254449998727,66.6068224000046,45,45,66.6068224000046,66.6068224000046,66.6068224000046,66.6068224000046,66.6068224000046,66.6068224000046,66.6068224000046,66.6068224000046,66.6068224000046,66.97341400000732,66.97341400000732,66.97341400000732,66.97341400000732,66.97341400000732,66.97341400000732,66.97341400000732,66.97341400000732,66.97341400000732,23,0,,,66.97341400000732,67.17363649996696,4.9,67.17363649996696,0,4.9,1,0,1000,num_1,0.6341914999647997,,28,12,2026-03-05_16h31.59.323,2026A_exp2,2022.2.4,59.95570470914389,
1000,1,0.0,0.0,1,0,4,4,78,,,,,67.82420039997669,68.47474809997948,68.47474809997948,68.97588589997031,45,45,68.97588589997031,68.97588589997031,68.97588589997031,68.97588589997031,68.97588589997031,68.97588589997031,68.97588589997031,68.97588589997031,68.97588589997031,69.34228240000084,69.34228240000084,69.34228240000084,69.34228240000084,69.34228240000084,69.34228240000084,69.34228240000084,69.34228240000084,69.34228240000084,23,0,,,69.34228240000084,69.54240659996867,1000,69.54240659996867,1000,1000,1000,1000,0,num_3,0.5374522999627516,,28,12,2026-03-05_16h31.59.323,2026A_exp2,2022.2.4,59.95570470914389,
1000,1,6.1,0.0,0,0,5,5,81,,,,,70.10986029997002,70.76056949998019,70.76056949998019,71.26152399997227,45,315,71.26152399997227,71.26152399997227,71.26152399997227,71.26152399997227,71.26152399997227,71.26152399997227,71.26152399997227,71.26152399997227,71.26152399997227,71.62801899999613,71.62801899999613,71.62801899999613,71.62801899999613,71.62801899999613,71.62801899999613,71.62801899999613,71.62801899999613,71.62801899999613,18,3,"[0.03342400002293289, 0.0833744999836199, 0.23355230002198368]","[0.05009999999310821, 0.11668730003293604, 0.2502478000242263]",71.62801899999613,71.83014839998214,1000,71.83014839998214,1000,1000,1000,1000,0,num_3,0.465654400002677,,28,12,2026-03-05_16h31.59.323,2026A_exp2,2022.2.4,59.95570470914389,
1000,1,0.0,0.0,1,0,6,6,1,,,,,72.31213310000021,72.96267579996493,72.96267579996493,73.46351499995217,315,315,73.46351499995217,73.46351499995217,73.46351499995217,73.46351499995217,73.46351499995217,73.46351499995217,73.46351499995217,73.46351499995217,73.46351499995217,73.83026359998621,73.83026359998621,73.83026359998621,73.83026359998621,73.83026359998621,73.83026359998621,73.83026359998621,73.83026359998621,73.83026359998621,4,2,"[0.0012743999832309783, 0.20067390002077445]","[0.18360659998143092, 0.31755179999163374]",73.83026359998621,74.03221289999783,1000,74.03221289999783,1000,1000,1000,1000,0,num_3,0.5273078999598511,,28,12,2026-03-05_16h31.59.323,2026A_exp2,2022.2.4,59.95570470914389,
1,0,0.0,6.1,1,0,7,7,50,,,,,74.58101500000339,75.2314906999818,75.2314906999818,75.72683629998937,45,315,75.72683629998937,75.72683629998937,75.72683629998937,75.72683629998937,75.72683629998937,75.72683629998937,75.72683629998937,75.72683629998937,75.72683629998937,76.09913200000301,76.09913200000301,76.09913200000301,76.09913200000301,76.09913200000301,76.09913200000301,76.09913200000301,76.09913200000301,76.09913200000301,17,2,"[0.0037529999972321093, 0.11516609997488558]","[0.08169640001142398, 0.14849220000905916]",76.09913200000301,76.29935639997711,6.1,76.29935639997711,1,6.1,1,1,1000,num_4,0.6776381999952719,,28,12,2026-03-05_16h31.59.323,2026A_exp2,2022.2.4,59.95570470914389,
1,0,0.0,6.1,1,0,8,8,31,,,,,77.00008079997497,77.65064999996684,77.65064999996684,78.13509830000112,315,315,78.13509830000112,78.13509830000112,78.13509830000112,78.13509830000112,78.13509830000112,78.13509830000112,78.13509830000112,78.13509830000112,78.13509830000112,78.50141629995778,78.50141629995778,78.50141629995778,78.50141629995778,78.50141629995778,78.50141629995778,78.50141629995778,78.50141629995778,78.50141629995778,16,2,"[0.0010176000068895519, 0.1171872999984771]","[0.08370160002959892, 0.1334010999999009]",78.50141629995778,78.70167629997013,6.1,78.70167629997013,1,6.1,1,1,1000,num_4,0.7066825000219978,,28,12,2026-03-05_16h31.59.323,2026A_exp2,2022.2.4,59.95570470914389,
0,0,4.9,0.0,1,0,9,9,67,,,,,79.43579879996832,80.08630599995377,80.08630599995377,80.57094710000092,45,45,80.57094710000092,80.57094710000092,80.57094710000092,80.57094710000092,80.57094710000092,80.57094710000092,80.57094710000092,80.57094710000092,80.57094710000092,80.93730289995437,80.93730289995437,80.93730289995437,80.93730289995437,80.93730289995437,80.93730289995437,80.93730289995437,80.93730289995437,80.93730289995437,23,0,,,80.93730289995437,81.13758360000793,4.9,81.13758360000793,0,4.9,1,0,1000,num_1,0.51876910001738,,28,12,2026-03-05_16h31.59.323,2026A_exp2,2022.2.4,59.95570470914389,
1000,1,3.7,6.1,1,0,10,10,48,,,,,81.688107999973,82.3387099999818,82.3387099999818,82.82323340000585,45,315,82.82323340000585,82.82323340000585,82.82323340000585,82.82323340000585,82.82323340000585,82.82323340000585,82.82323340000585,82.82323340000585,82.82323340000585,83.18943289999152,83.18943289999152,83.18943289999152,83.18943289999152,83.18943289999152,83.18943289999152,83.18943289999152,83.18943289999152,83.18943289999152,23,0,,,83.18943289999152,83.38990129996091,1000,83.38990129996091,1000,1000,1000,1000,0,num_3,0.5782515999744646,,28,12,2026-03-05_16h31.59.323,2026A_exp2,2022.2.4,59.95570470914389,
1000,1,3.7,3.7,0,0,11,11,63,,,,,83.99030329997186,84.64131719997386,84.64131719997386,85.14912600000389,315,315,85.14912600000389,85.14912600000389,85.14912600000389,85.14912600000389,85.14912600000389,85.14912600000389,85.14912600000389,85.14912600000389,85.14912600000389,85.50852489995304,85.50852489995304,85.50852489995304,85.50852489995304,85.50852489995304,85.50852489995304,85.50852489995304,85.50852489995304,85.50852489995304,23,0,,,85.50852489995304,85.7164502000087,1000,85.7164502000087,1000,1000,1000,1000,0,num_3,0.5719896000227891,,28,12,2026-03-05_16h31.59.323,2026A_exp2,2022.2.4,59.95570470914389,
1000,1,3.7,3.7,0,0,12,12,72,,,,,86.30940029997146,86.96115659998031,86.96115659998031,87.46234569995431,315,45,87.46234569995431,87.46234569995431,87.46234569995431,87.46234569995431,87.46234569995431,87.46234569995431,87.46234569995431,87.46234569995431,87.46234569995431,87.82764559995849,87.82764559995849,87.82764559995849,87.82764559995849,87.82764559995849,87.82764559995849,87.82764559995849,87.82764559995849,87.82764559995849,23,0,,,87.82764559995849,88.02793039998505,1000,88.02793039998505,1000,1000,1000,1000,1,num_2,0.5399660000111908,,28,12,2026-03-05_16h31.59.323,2026A_exp2,2022.2.4,59.95570470914389,
1000,1,0.0,6.1,1,0,13,13,71,,,,,88.59517669997877,89.24559720000252,89.24559720000252,89.74649619997945,315,45,89.74649619997945,89.74649619997945,89.74649619997945,89.74649619997945,89.74649619997945,89.74649619997945,89.74649619997945,89.74649619997945,89.74649619997945,90.11325439997017,90.11325439997017,90.11325439997017,90.11325439997017,90.11325439997017,90.11325439997017,90.11325439997017,90.11325439997017,90.11325439997017,21,1,[0.0009645000100135803],[0.033181300037540495],90.11325439997017,90.31563979998464,1000,90.31563979998464,1000,1000,1000,1000,1,num_2,0.46105689997784793,,28,12,2026-03-05_16h31.59.323,2026A_exp2,2022.2.4,59.95570470914389,
1000,1,0.0,3.7,0,0,14,14,46,,,,,90.79727499996079,91.4477871999843,91.4477871999843,91.93211110000266,315,45,91.93211110000266,91.93211110000266,91.93211110000266,91.93211110000266,91.93211110000266,91.93211110000266,91.93211110000266,91.93211110000266,91.93211110000266,92.29870589997154,92.29870589997154,92.29870589997154,92.29870589997154,92.29870589997154,92.29870589997154,92.29870589997154,92.29870589997154,92.29870589997154,9,4,"[0.0012063999893143773, 0.20038900000508875, 0.2665922999731265, 0.3337850999669172]","[0.1168766999617219, 0.23360669997055084, 0.3001374999876134, 0.367210199998226]",92.29870589997154,92.50110299995868,1000,92.50110299995868,1000,1000,1000,1000,0,num_3,0.5471105000469834,,28,12,2026-03-05_16h31.59.323,2026A_exp2,2022.2.4,59.95570470914389,
1,0,3.7,4.9,1,0,15,15,18,,,,,93.06621829996584,93.71679489995586,93.71679489995586,94.217754399986,315,315,94.217754399986,94.217754399986,94.217754399986,94.217754399986,94.217754399986,94.217754399986,94.217754399986,94.217754399986,94.217754399986,94.58433529996546,94.58433529996546,94.58433529996546,94.58433529996546,94.58433529996546,94.58433529996546,94.58433529996546,94.58433529996546,94.58433529996546,5,1,[0.0007699999841861427],[0.30066080001415685],94.58433529996546,94.78458259999752,4.9,94.78458259999752,1,4.9,1,1,1000,num_4,1.0156987000373192,,28,12,2026-03-05_16h31.59.323,2026A_exp2,2022.2.4,59.95570470914389,
1,0,6.1,6.1,1,0,16,16,23,,,,,95.81874669995159,96.46940369997174,96.46940369997174,96.95405679999385,45,45,96.95405679999385,96.95405679999385,96.95405679999385,96.95405679999385,96.95405679999385,96.95405679999385,96.95405679999385,96.95405679999385,96.95405679999385,97.32035890000407,97.32035890000407,97.32035890000407,97.32035890000407,97.32035890000407,97.32035890000407,97.32035890000407,97.32035890000407,97.32035890000407,23,0,,,97.32035890000407,97.52063429995906,6.1,97.52063429995906,1,6.1,1,1,1000,num_4,0.6072645999956876,,28,12,2026-03-05_16h31.59.323,2026A_exp2,2022.2.4,59.95570470914389,
1,0,0.0,0.0,0,0,17,17,55,,,,,98.15453969995724,98.80507139995461,98.80507139995461,99.28959159995429,315,45,99.28959159995429,99.28959159995429,99.28959159995429,99.28959159995429,99.28959159995429,99.28959159995429,99.28959159995429,99.28959159995429,99.28959159995429,99.65599080000538,99.65599080000538,99.65599080000538,99.65599080000538,99.65599080000538,99.65599080000538,99.65599080000538,99.65599080000538,99.65599080000538,23,0,,,99.65599080000538,99.85612680000486,0.0,99.85612680000486,0,0.0,0,1,1000,num_1,0.7514498999807984,,28,12,2026-03-05_16h31.59.323,2026A_exp2,2022.2.4,59.95570470914389,
1000,1,4.9,0.0,1,0,18,18,10,,,,,100.62366300000576,101.27434279996669,101.27434279996669,101.7587940999656,315,315,101.7587940999656,101.7587940999656,101.7587940999656,101.7587940999656,101.7587940999656,101.7587940999656,101.7587940999656,101.7587940999656,101.7587940999656,102.12522849999368,102.12522849999368,102.12522849999368,102.12522849999368,102.12522849999368,102.12522849999368,102.12522849999368,102.12522849999368,102.12522849999368,5,1,[0.0012114000273868442],[0.30046739999670535],102.12522849999368,102.32719579996774,1000,102.32719579996774,1000,1000,1000,1000,1,num_2,0.7532670000218786,,28,12,2026-03-05_16h31.59.323,2026A_exp2,2022.2.4,59.95570470914389,
1000,1,0.0,0.0,0,0,19,19,7,,,,,103.10952939995332,103.75985400000354,103.75985400000354,104.26131549995625,45,315,104.26131549995625,104.26131549995625,104.26131549995625,104.26131549995625,104.26131549995625,104.26131549995625,104.26131549995625,104.26131549995625,104.26131549995625,104.6276627999614,104.6276627999614,104.6276627999614,104.6276627999614,104.6276627999614,104.6276627999614,104.6276627999614,104.6276627999614,104.6276627999614,22,1,[0.050267099984921515],[0.06698689999757335],104.6276627999614,104.82991380000021,1000,104.82991380000021,1000,1000,1000,1000,1,num_2,0.5782476000022143,,28,12,2026-03-05_16h31.59.323,2026A_exp2,2022.2.4,59.95570470914389,
1000,1,0.0,0.0,1,0,20,20,85,,,,,105.42862899997272,106.07920229999581,106.07920229999581,106.58030099997995,45,315,106.58030099997995,106.58030099997995,106.58030099997995,106.58030099997995,106.58030099997995,106.58030099997995,106.58030099997995,106.58030099997995,106.58030099997995,106.94668459997047,106.94668459997047,106.94668459997047,106.94668459997047,106.94668459997047,106.94668459997047,106.94668459997047,106.94668459997047,106.94668459997047,23,0,,,106.94668459997047,107.1489375999663,1000,107.1489375999663,1000,1000,1000,1000,0,num_3,0.6037561999983154,,28,12,2026-03-05_16h31.59.323,2026A_exp2,2022.2.4,59.95570470914389,
1,0,0.0,4.9,0,0,21,21,73,,,,,107.78081069997279,108.43152230000123,108.43152230000123,108.93267479998758,45,45,108.93267479998758,108.93267479998758,108.93267479998758,108.93267479998758,108.93267479998758,108.93267479998758,108.93267479998758,108.93267479998758,108.93267479998758,109.29909089999273,109.29909089999273,109.29909089999273,109.29909089999273,109.29909089999273,109.29909089999273,109.29909089999273,109.29909089999273,109.29909089999273,23,0,,,109.29909089999273,109.49918260000413,0.0,109.49918260000413,1,0.0,0,0,1000,num_4,0.09388050000416115,,28,12,2026-03-05_16h31.59.323,2026A_exp2,2022.2.4,59.95570470914389,
1,0,3.7,0.0,0,0,22,22,87,,,,,109.61620319995563,110.24989350000396,110.24989350000396,110.75110049999785,45,315,110.75110049999785,110.75110049999785,110.75110049999785,110.75110049999785,110.75110049999785,110.75110049999785,110.75110049999785,110.75110049999785,110.75110049999785,111.11746789998142,111.11746789998142,111.11746789998142,111.11746789998142,111.11746789998142,111.11746789998142,111.11746789998142,111.11746789998142,111.11746789998142,2,1,[0.03344610001659021],[0.3671665000147186],111.11746789998142,111.31760249997023,3.7,111.31760249997023,1,3.7,1,1,1000,num_4,0.6018182000261731,,28,12,2026-03-05_16h31.59.323,2026A_exp2,2022.2.4,59.95570470914389,
1000,1,0.0,0.0,1,0,23,23,9,,,,,111.9519117999589,112.58571839996148,112.58571839996148,113.0868075999897,45,315,113.0868075999897,113.0868075999897,113.0868075999897,113.0868075999897,113.0868075999897,113.0868075999897,113.0868075999897,113.0868075999897,113.0868075999897,113.45316659996752,113.45316659996752,113.45316659996752,113.45316659996752,113.45316659996752,113.45316659996752,113.45316659996752,113.45316659996752,113.45316659996752,23,0,,,113.45316659996752,113.65518109995173,1000,113.65518109995173,1000,1000,1000,1000,1,num_2,0.5055569999967702,,28,12,2026-03-05_16h31.59.323,2026A_exp2,2022.2.4,59.95570470914389,
1000,1,0.0,4.9,0,0,24,24,6,,,,,114.18738229997689,114.83782719995361,114.83782719995361,115.33893659996102,45,315,115.33893659996102,115.33893659996102,115.33893659996102,115.33893659996102,115.33893659996102,115.33893659996102,115.33893659996102,115.33893659996102,115.33893659996102,115.70547210000223,115.70547210000223,115.70547210000223,115.70547210000223,115.70547210000223,115.70547210000223,115.70547210000223,115.70547210000223,115.70547210000223,23,0,,,115.70547210000223,115.90777549997438,1000,115.90777549997438,1000,1000,1000,1000,1,num_2,0.44373080000514165,,28,12,2026-03-05_16h31.59.323,2026A_exp2,2022.2.4,59.95570470914389,
1,0,0.0,3.7,1,0,25,25,14,,,,,116.37284109997563,117.0233546999516,117.0233546999516,117.52429099997971,315,315,117.52429099997971,117.52429099997971,117.52429099997971,117.52429099997971,117.52429099997971,117.52429099997971,117.52429099997971,117.52429099997971,117.52429099997971,117.89102219999768,117.89102219999768,117.89102219999768,117.89102219999768,117.89102219999768,117.89102219999768,117.89102219999768,117.89102219999768,117.89102219999768,23,0,,,117.89102219999768,118.09112040000036,3.7,118.09112040000036,1,3.7,1,1,1000,num_4,0.5415138000389561,,28,12,2026-03-05_16h31.59.323,2026A_exp2,2022.2.4,59.95570470914389,
1000,1,4.9,0.0,0,0,26,26,41,,,,,118.65828739997232,119.3091204999946,119.3091204999946,119.79330580000533,315,315,119.79330580000533,119.79330580000533,119.79330580000533,119.79330580000533,119.79330580000533,119.79330580000533,119.79330580000533,119.79330580000533,119.79330580000533,120.15988259995356,120.15988259995356,120.15988259995356,120.15988259995356,120.15988259995356,120.15988259995356,120.15988259995356,120.15988259995356,120.15988259995356,23,0,,,120.15988259995356,120.36180369998328,1000,120.36180369998328,1000,1000,1000,1000,1,num_2,0.7661833000020124,,28,12,2026-03-05_16h31.59.323,2026A_exp2,2022.2.4,59.95570470914389,
1,0,0.0,6.1,1,0,27,27,33,,,,,121.14431810000679,121.7948157999781,121.7948157999781,122.2958097999799,315,45,122.2958097999799,122.2958097999799,122.2958097999799,122.2958097999799,122.2958097999799,122.2958097999799,122.2958097999799,122.2958097999799,122.2958097999799,122.6457676999853,122.6457676999853,122.6457676999853,122.6457676999853,122.6457676999853,122.6457676999853,122.6457676999853,122.6457676999853,122.6457676999853,22,0,,,122.6457676999853,122.84584470000118,6.1,122.86257539998041,1,6.1,1,1,1000,num_4,0.5459156999713741,,28,12,2026-03-05_16h31.59.323,2026A_exp2,2022.2.4,59.95570470914389,
0,0,4.9,3.7,0,0,28,28,28,,,,,123.42966759996489,124.0858890999807,124.0858890999807,124.5648707000073,45,315,124.5648707000073,124.5648707000073,124.5648707000073,124.5648707000073,124.5648707000073,124.5648707000073,124.5648707000073,124.5648707000073,124.5648707000073,124.93138069997076,124.93138069997076,124.93138069997076,124.93138069997076,124.93138069997076,124.93138069997076,124.93138069997076,124.93138069997076,124.93138069997076,0,1,[0.0011947000166401267],[0.36728589999256656],124.93138069997076,125.13153610000154,3.7,125.13153610000154,0,3.7,1,0,1000,num_1,0.5809646000270732,,28,12,2026-03-05_16h31.59.323,2026A_exp2,2022.2.4,59.95570470914389,
1,0,0.0,3.7,1,0,29,29,35,,,,,125.73211479996098,126.38263599999482,126.38263599999482,126.86717959999805,45,315,126.86717959999805,126.86717959999805,126.86717959999805,126.86717959999805,126.86717959999805,126.86717959999805,126.86717959999805,126.86717959999805,126.86717959999805,127.23359839996556,127.23359839996556,127.23359839996556,127.23359839996556,127.23359839996556,127.23359839996556,127.23359839996556,127.23359839996556,127.23359839996556,23,0,,,127.23359839996556,127.43361399997957,3.7,127.43361399997957,1,3.7,1,1,1000,num_4,0.502631300012581,,28,12,2026-03-05_16h31.59.323,2026A_exp2,2022.2.4,59.95570470914389,
1,0,6.1,0.0,1,0,30,30,70,,,,,127.96763480000664,128.61832169996342,128.61832169996342,129.10281799995573,45,45,129.10281799995573,129.10281799995573,129.10281799995573,129.10281799995573,129.10281799995573,129.10281799995573,129.10281799995573,129.10281799995573,129.10281799995573,129.4690100000007,129.4690100000007,129.4690100000007,129.4690100000007,129.4690100000007,129.4690100000007,129.4690100000007,129.4690100000007,129.4690100000007,23,0,,,129.4690100000007,129.66943089995766,0.0,129.66943089995766,0,0.0,0,1,1000,num_1,0.8340809000073932,,28,12,2026-03-05_16h31.59.323,2026A_exp2,2022.2.4,59.95570470914389,
1,0,0.0,0.0,1,0,31,31,49,,,,,130.52030499995453,131.17090739996638,131.17090739996638,131.65522289997898,315,45,131.65522289997898,131.65522289997898,131.65522289997898,131.65522289997898,131.65522289997898,131.65522289997898,131.65522289997898,131.65522289997898,131.65522289997898,132.02167499996722,132.02167499996722,132.02167499996722,132.02167499996722,132.02167499996722,132.02167499996722,132.02167499996722,132.02167499996722,132.02167499996722,23,0,,,132.02167499996722,132.22190730000148,0.0,132.22190730000148,1,0.0,0,0,1000,num_4,0.49868050002260134,,28,12,2026-03-05_16h31.59.323,2026A_exp2,2022.2.4,59.95570470914389,
1000,1,6.1,0.0,1,0,32,32,83,,,,,132.73912539996672,133.389737599995,133.389737599995,133.87425619998248,315,315,133.87425619998248,133.87425619998248,133.87425619998248,133.87425619998248,133.87425619998248,133.87425619998248,133.87425619998248,133.87425619998248,133.87425619998248,134.24058669997612,134.24058669997612,134.24058669997612,134.24058669997612,134.24058669997612,134.24058669997612,134.24058669997612,134.24058669997612,134.24058669997612,23,0,,,134.24058669997612,134.442588099977,1000,134.442588099977,1000,1000,1000,1000,0,num_3,0.5176425000536256,,28,12,2026-03-05_16h31.59.323,2026A_exp2,2022.2.4,59.95570470914389,
1,0,6.1,0.0,1,0,33,33,80,,,,,134.99137730000075,135.64206149999518,135.64206149999518,136.14308139996137,315,45,136.14308139996137,136.14308139996137,136.14308139996137,136.14308139996137,136.14308139996137,136.14308139996137,136.14308139996137,136.14308139996137,136.14308139996137,136.49280889995862,136.49280889995862,136.49280889995862,136.49280889995862,136.49280889995862,136.49280889995862,136.49280889995862,136.49280889995862,136.49280889995862,22,0,,,136.49280889995862,136.6930553999846,0.0,136.6930553999846,0,0.0,0,1,1000,num_1,0.587283100001514,,28,12,2026-03-05_16h31.59.323,2026A_exp2,2022.2.4,59.95570470914389,
1000,1,0.0,4.9,1,0,34,34,66,,,,,137.31031369999982,137.96104059997015,137.96104059997015,138.4454169999808,45,45,138.4454169999808,138.4454169999808,138.4454169999808,138.4454169999808,138.4454169999808,138.4454169999808,138.4454169999808,138.4454169999808,138.4454169999808,138.81223549996503,138.81223549996503,138.81223549996503,138.81223549996503,138.81223549996503,138.81223549996503,138.81223549996503,138.81223549996503,138.81223549996503,23,0,,,138.81223549996503,139.01401509996504,1000,139.01401509996504,1000,1000,1000,1000,0,num_3,0.48239670001203194,,28,12,2026-03-05_16h31.59.323,2026A_exp2,2022.2.4,59.95570470914389,
1000,1,4.9,0.0,0,0,35,35,54,,,,,139.5125226000091,140.16321779997088,140.16321779997088,140.66425689996686,315,315,140.66425689996686,140.66425689996686,140.66425689996686,140.66425689996686,140.66425689996686,140.66425689996686,140.66425689996686,140.66425689996686,140.66425689996686,141.03066699998453,141.03066699998453,141.03066699998453,141.03066699998453,141.03066699998453,141.03066699998453,141.03066699998453,141.03066699998453,141.03066699998453,23,0,,,141.03066699998453,141.23228170000948,1000,141.23228170000948,1000,1000,1000,1000,1,num_2,1.1203584999893792,,28,12,2026-03-05_16h31.59.323,2026A_exp2,2022.2.4,59.95570470914389,
1000,1,6.1,6.1,0,0,36,36,16,,,,,142.382158399967,143.0327813999611,143.0327813999611,143.53380279999692,45,315,143.53380279999692,143.53380279999692,143.53380279999692,143.53380279999692,143.53380279999692,143.53380279999692,143.53380279999692,143.53380279999692,143.53380279999692,143.90030079998542,143.90030079998542,143.90030079998542,143.90030079998542,143.90030079998542,143.90030079998542,143.90030079998542,143.90030079998542,143.90030079998542,23,0,,,143.90030079998542,144.1024620999815,1000,144.1024620999815,1000,1000,1000,1000,0,num_3,1.7624215999967419,,28,12,2026-03-05_16h31.59.323,2026A_exp2,2022.2.4,59.95570470914389,
1000,1,4.9,0.0,1,0,37,37,77,,,,,145.88563119998435,146.53622720000567,146.53622720000567,147.03745429997798,45,45,147.03745429997798,147.03745429997798,147.03745429997798,147.03745429997798,147.03745429997798,147.03745429997798,147.03745429997798,147.03745429997798,147.03745429997798,147.40384479996283,147.40384479996283,147.40384479996283,147.40384479996283,147.40384479996283,147.40384479996283,147.40384479996283,147.40384479996283,147.40384479996283,0,1,[0.0007225999725051224],[0.3670888000051491],147.40384479996283,147.60398539999733,1000,147.60398539999733,1000,1000,1000,1000,1,num_2,0.3962160000228323,,28,12,2026-03-05_16h31.59.323,2026A_exp2,2022.2.4,59.95570470914389,
1,0,0.0,0.0,0,0,38,38,24,,,,,148.02113269997062,148.6716160000069,148.6716160000069,149.15611739997985,315,315,149.15611739997985,149.15611739997985,149.15611739997985,149.15611739997985,149.15611739997985,149.15611739997985,149.15611739997985,149.15611739997985,149.15611739997985,149.52254659996834,149.52254659996834,149.52254659996834,149.52254659996834,149.52254659996834,149.52254659996834,149.52254659996834,149.52254659996834,149.52254659996834,18,3,"[0.033456599980127066, 0.08349340001586825, 0.13347539998358116]","[0.05010469997068867, 0.10013649996835738, 0.18354940001154318]",149.52254659996834,149.72279599995818,0.0,149.72279599995818,1,0.0,0,0,1000,num_4,0.8372346999822184,,28,12,2026-03-05_16h31.59.323,2026A_exp2,2022.2.4,59.95570470914389,
1000,1,4.9,4.9,1,0,39,39,68,,,,,150.59008609998273,151.22428159997799,151.22428159997799,151.7403471999569,315,45,151.7403471999569,151.7403471999569,151.7403471999569,151.7403471999569,151.7403471999569,151.7403471999569,151.7403471999569,151.7403471999569,151.7403471999569,152.09200289996807,152.09200289996807,152.09200289996807,152.09200289996807,152.09200289996807,152.09200289996807,152.09200289996807,152.09200289996807,152.09200289996807,23,0,,,152.09200289996807,152.29909619997488,1000,152.29909619997488,1000,1000,1000,1000,1,num_2,0.804753000033088,,28,12,2026-03-05_16h31.59.323,2026A_exp2,2022.2.4,59.95570470914389,
1000,1,3.7,0.0,1,0,40,40,38,,,,,153.1262374999933,153.77670629997738,153.77670629997738,154.29074359999504,45,315,154.29074359999504,154.29074359999504,154.29074359999504,154.29074359999504,154.29074359999504,154.29074359999504,154.29074359999504,154.29074359999504,154.29074359999504,154.64424100000178,154.64424100000178,154.64424100000178,154.64424100000178,154.64424100000178,154.64424100000178,154.64424100000178,154.64424100000178,154.64424100000178,23,0,,,154.64424100000178,154.8463422000059,1000,154.8463422000059,1000,1000,1000,1000,1,num_2,0.5056428999523632,,28,12,2026-03-05_16h31.59.323,2026A_exp2,2022.2.4,59.95570470914389,
1000,1,3.7,0.0,0,0,41,41,76,,,,,155.37854499998502,156.02917489997344,156.02917489997344,156.53033119998872,315,45,156.53033119998872,156.53033119998872,156.53033119998872,156.53033119998872,156.53033119998872,156.53033119998872,156.53033119998872,156.53033119998872,156.53033119998872,156.8964960000012,156.8964960000012,156.8964960000012,156.8964960000012,156.8964960000012,156.8964960000012,156.8964960000012,156.8964960000012,156.8964960000012,23,0,,,156.8964960000012,157.09892679995392,1000,157.09892679995392,1000,1000,1000,1000,1,num_2,0.5330677999882028,,28,12,2026-03-05_16h31.59.323,2026A_exp2,2022.2.4,59.95570470914389,
1,0,6.1,0.0,1,0,42,42,89,,,,,157.64741539995885,158.2980244999635,158.2980244999635,158.79922639997676,45,45,158.79922639997676,158.79922639997676,158.79922639997676,158.79922639997676,158.79922639997676,158.79922639997676,158.79922639997676,158.79922639997676,158.79922639997676,159.16557959996862,159.16557959996862,159.16557959996862,159.16557959996862,159.16557959996862,159.16557959996862,159.16557959996862,159.16557959996862,159.16557959996862,23,0,,,159.16557959996862,159.36570609995397,0.0,159.36570609995397,1,0.0,0,0,1000,num_4,0.5140205000061542,,28,12,2026-03-05_16h31.59.323,2026A_exp2,2022.2.4,59.95570470914389,
1,0,4.9,0.0,1,0,43,43,65,,,,,159.8995812999783,160.5501646999619,160.5501646999619,161.03469770000083,45,315,161.03469770000083,161.03469770000083,161.03469770000083,161.03469770000083,161.03469770000083,161.03469770000083,161.03469770000083,161.03469770000083,161.03469770000083,161.40111819998128,161.40111819998128,161.40111819998128,161.40111819998128,161.40111819998128,161.40111819998128,161.40111819998128,161.40111819998128,161.40111819998128,23,0,,,161.40111819998128,161.60138179996284,0.0,161.60138179996284,1,0.0,0,0,1000,num_4,0.4634084000135772,,28,12,2026-03-05_16h31.59.323,2026A_exp2,2022.2.4,59.95570470914389,
1,0,6.1,4.9,1,0,44,44,64,,,,,162.08504169998923,162.7358685999643,162.7358685999643,163.2368828000035,45,315,163.2368828000035,163.2368828000035,163.2368828000035,163.2368828000035,163.2368828000035,163.2368828000035,163.2368828000035,163.2368828000035,163.2368828000035,163.58680779999122,163.58680779999122,163.58680779999122,163.58680779999122,163.58680779999122,163.58680779999122,163.58680779999122,163.58680779999122,163.58680779999122,22,0,,,163.58680779999122,163.78693040000508,4.9,163.78693040000508,1,4.9,1,1,1000,num_4,0.4452933999709785,,28,12,2026-03-05_16h31.59.323,2026A_exp2,2022.2.4,59.95570470914389,
0,0,0.0,0.0,0,0,45,45,59,,,,,164.25375509995501,164.8879691999755,164.8879691999755,165.39287109998986,315,315,165.39287109998986,165.39287109998986,165.39287109998986,165.39287109998986,165.39287109998986,165.39287109998986,165.39287109998986,165.39287109998986,165.39287109998986,165.75550219998695,165.75550219998695,165.75550219998695,165.75550219998695,165.75550219998695,165.75550219998695,165.75550219998695,165.75550219998695,165.75550219998695,23,0,,,165.75550219998695,165.95575059996918,0.0,165.95575059996918,0,0.0,0,1,1000,num_1,0.7969552999711595,,28,12,2026-03-05_16h31.59.323,2026A_exp2,2022.2.4,59.95570470914389,
1,0,3.7,4.9,1,0,46,46,20,,,,,166.77321529999608,167.4237129999674,167.4237129999674,167.9083083999576,315,45,167.9083083999576,167.9083083999576,167.9083083999576,167.9083083999576,167.9083083999576,167.9083083999576,167.9083083999576,167.9083083999576,167.9083083999576,168.27469729998847,168.27469729998847,168.27469729998847,168.27469729998847,168.27469729998847,168.27469729998847,168.27469729998847,168.27469729998847,168.27469729998847,23,0,,,168.27469729998847,168.47477659996366,4.9,168.47477659996366,1,4.9,1,1,1000,num_4,0.38080970000009984,,28,12,2026-03-05_16h31.59.323,2026A_exp2,2022.2.4,59.95570470914389,
1000,1,0.0,3.7,1,0,47,47,13,,,,,168.87499499996193,169.52599850000115,169.52599850000115,170.0101677000057,315,315,170.0101677000057,170.0101677000057,170.0101677000057,170.0101677000057,170.0101677000057,170.0101677000057,170.0101677000057,170.0101677000057,170.0101677000057,170.37691210000776,170.37691210000776,170.37691210000776,170.37691210000776,170.37691210000776,170.37691210000776,170.37691210000776,170.37691210000776,170.37691210000776,23,0,,,170.37691210000776,170.57886039995356,1000,170.57886039995356,1000,1000,1000,1000,0,num_3,0.6696886999998242,,28,12,2026-03-05_16h31.59.323,2026A_exp2,2022.2.4,59.95570470914389,
1,0,0.0,0.0,1,0,48,48,39,,,,,171.27758479997283,171.92825629998697,171.92825629998697,172.42929850000655,45,315,172.42929850000655,172.42929850000655,172.42929850000655,172.42929850000655,172.42929850000655,172.42929850000655,172.42929850000655,172.42929850000655,172.42929850000655,172.79589919996215,172.79589919996215,172.79589919996215,172.79589919996215,172.79589919996215,172.79589919996215,172.79589919996215,172.79589919996215,172.79589919996215,23,0,,,172.79589919996215,172.99645639996743,0.0,172.99645639996743,1,0.0,0,0,1000,num_4,0.7242952999658883,,28,12,2026-03-05_16h31.59.323,2026A_exp2,2022.2.4,59.95570470914389,
1000,1,0.0,6.1,1,0,49,49,43,,,,,173.7468913999619,174.39745869999751,174.39745869999751,174.8817710999865,315,315,174.8817710999865,174.8817710999865,174.8817710999865,174.8817710999865,174.8817710999865,174.8817710999865,174.8817710999865,174.8817710999865,174.8817710999865,175.24818599998252,175.24818599998252,175.24818599998252,175.24818599998252,175.24818599998252,175.24818599998252,175.24818599998252,175.24818599998252,175.24818599998252,23,0,,,175.24818599998252,175.45048810000299,1000,175.45048810000299,1000,1000,1000,1000,0,num_3,0.5654916999628767,,28,12,2026-03-05_16h31.59.323,2026A_exp2,2022.2.4,59.95570470914389,
1,0,0.0,0.0,0,0,50,50,88,,,,,176.03239429998212,176.68312800000422,176.68312800000422,177.1841618999606,315,315,177.1841618999606,177.1841618999606,177.1841618999606,177.1841618999606,177.1841618999606,177.1841618999606,177.1841618999606,177.1841618999606,177.1841618999606,177.550632199971,177.550632199971,177.550632199971,177.550632199971,177.550632199971,177.550632199971,177.550632199971,177.550632199971,177.550632199971,23,0,,,177.550632199971,177.7508952000062,0.0,177.7508952000062,1,0.0,0,0,1000,num_4,0.8420117999776267,,28,12,2026-03-05_16h31.59.323,2026A_exp2,2022.2.4,59.95570470914389,
1,0,4.9,0.0,0,0,51,51,53,,,,,178.61830410000402,179.26896610000404,179.26896610000404,179.75345039996319,45,45,179.75345039996319,179.75345039996319,179.75345039996319,179.75345039996319,179.75345039996319,179.75345039996319,179.75345039996319,179.75345039996319,179.75345039996319,180.11988799995743,180.11988799995743,180.11988799995743,180.11988799995743,180.11988799995743,180.11988799995743,180.11988799995743,180.11988799995743,180.11988799995743,23,0,,,180.11988799995743,180.3199587999843,4.9,180.3199587999843,1,4.9,1,1,1000,num_4,0.6885139000369236,,28,12,2026-03-05_16h31.59.323,2026A_exp2,2022.2.4,59.95570470914389,
1,0,4.9,3.7,0,0,52,52,44,,,,,181.0374073999701,181.68795089999912,181.68795089999912,182.1723693999811,315,45,182.1723693999811,182.1723693999811,182.1723693999811,182.1723693999811,182.1723693999811,182.1723693999811,182.1723693999811,182.1723693999811,182.1723693999811,182.53892550000455,182.53892550000455,182.53892550000455,182.53892550000455,182.53892550000455,182.53892550000455,182.53892550000455,182.53892550000455,182.53892550000455,23,0,,,182.53892550000455,182.73900449997745,4.9,182.73900449997745,1,4.9,1,1,1000,num_4,0.43699169997125864,,28,12,2026-03-05_16h31.59.323,2026A_exp2,2022.2.4,59.95570470914389,
0,0,6.1,0.0,0,0,53,53,74,,,,,183.20622950000688,183.8569020999712,183.8569020999712,184.3413758999668,45,45,184.3413758999668,184.3413758999668,184.3413758999668,184.3413758999668,184.3413758999668,184.3413758999668,184.3413758999668,184.3413758999668,184.3413758999668,184.70780029997695,184.70780029997695,184.70780029997695,184.70780029997695,184.70780029997695,184.70780029997695,184.70780029997695,184.70780029997695,184.70780029997695,23,0,,,184.70780029997695,184.9079156999942,0.0,184.9079156999942,0,0.0,0,1,1000,num_1,0.5570845000329427,,28,12,2026-03-05_16h31.59.323,2026A_exp2,2022.2.4,59.95570470914389,
1,0,0.0,0.0,1,0,54,54,69,,,,,185.4919433000032,186.12592479999876,186.12592479999876,186.6270574000082,45,45,186.6270574000082,186.6270574000082,186.6270574000082,186.6270574000082,186.6270574000082,186.6270574000082,186.6270574000082,186.6270574000082,186.6270574000082,186.9934042999521,186.9934042999521,186.9934042999521,186.9934042999521,186.9934042999521,186.9934042999521,186.9934042999521,186.9934042999521,186.9934042999521,23,0,,,186.9934042999521,187.19360759999836,0.0,187.19360759999836,1,0.0,0,0,1000,num_4,0.3979428000166081,,28,12,2026-03-05_16h31.59.323,2026A_exp2,2022.2.4,59.95570470914389,
1,0,6.1,0.0,0,0,55,55,21,,,,,187.61064549995353,188.2612100999686,188.2612100999686,188.74559939996107,45,45,188.74559939996107,188.74559939996107,188.74559939996107,188.74559939996107,188.74559939996107,188.74559939996107,188.74559939996107,188.74559939996107,188.74559939996107,189.11203819996445,189.11203819996445,189.11203819996445,189.11203819996445,189.11203819996445,189.11203819996445,189.11203819996445,189.11203819996445,189.11203819996445,23,0,,,189.11203819996445,189.31249280000338,6.1,189.31249280000338,1,6.1,1,1,1000,num_4,0.4241203999845311,,28,12,2026-03-05_16h31.59.323,2026A_exp2,2022.2.4,59.95570470914389,
0,0,0.0,3.7,0,0,56,56,34,,,,,189.76279000000795,190.41344589996152,190.41344589996152,190.89774349995423,315,45,190.89774349995423,190.89774349995423,190.89774349995423,190.89774349995423,190.89774349995423,190.89774349995423,190.89774349995423,190.89774349995423,190.89774349995423,191.26425979996566,191.26425979996566,191.26425979996566,191.26425979996566,191.26425979996566,191.26425979996566,191.26425979996566,191.26425979996566,191.26425979996566,23,0,,,191.26425979996566,191.46443069999805,3.7,191.46443069999805,0,3.7,1,0,1000,num_1,0.6479038000106812,,28,12,2026-03-05_16h31.59.323,2026A_exp2,2022.2.4,59.95570470914389,
1,0,3.7,0.0,1,0,57,57,12,,,,,192.13198419997934,192.78240009996807,192.78240009996807,193.26686440000776,45,315,193.26686440000776,193.26686440000776,193.26686440000776,193.26686440000776,193.26686440000776,193.26686440000776,193.26686440000776,193.26686440000776,193.26686440000776,193.63332299998729,193.63332299998729,193.63332299998729,193.63332299998729,193.63332299998729,193.63332299998729,193.63332299998729,193.63332299998729,193.63332299998729,23,0,,,193.63332299998729,193.83361729996977,0.0,193.83361729996977,1,0.0,0,0,1000,num_4,0.5100943999714218,,28,12,2026-03-05_16h31.59.323,2026A_exp2,2022.2.4,59.95570470914389,
0,0,0.0,0.0,1,0,58,58,2,,,,,194.36741469998378,195.01812520000385,195.01812520000385,195.50251540000318,45,315,195.50251540000318,195.50251540000318,195.50251540000318,195.50251540000318,195.50251540000318,195.50251540000318,195.50251540000318,195.50251540000318,195.50251540000318,195.86898089997703,195.86898089997703,195.86898089997703,195.86898089997703,195.86898089997703,195.86898089997703,195.86898089997703,195.86898089997703,195.86898089997703,23,0,,,195.86898089997703,196.06899909995263,0.0,196.06899909995263,0,0.0,0,1,1000,num_1,1.3390432999585755,,28,12,2026-03-05_16h31.59.323,2026A_exp2,2022.2.4,59.95570470914389,
1000,1,4.9,3.7,0,0,59,59,40,,,,,197.43705259996932,198.08781359996647,198.08781359996647,198.57232219999423,45,315,198.57232219999423,198.57232219999423,198.57232219999423,198.57232219999423,198.57232219999423,198.57232219999423,198.57232219999423,198.57232219999423,198.57232219999423,198.9386533999932,198.9386533999932,198.9386533999932,198.9386533999932,198.9386533999932,198.9386533999932,198.9386533999932,198.9386533999932,198.9386533999932,23,0,,,198.9386533999932,199.14086139999563,1000,199.14086139999563,1000,1000,1000,1000,0,num_3,0.6118104999768548,,28,12,2026-03-05_16h31.59.323,2026A_exp2,2022.2.4,59.95570470914389,
1,0,6.1,0.0,0,0,60,60,82,,,,,199.7730219999794,200.42353699996602,200.42353699996602,200.92452739999862,45,45,200.92452739999862,200.92452739999862,200.92452739999862,200.92452739999862,200.92452739999862,200.92452739999862,200.92452739999862,200.92452739999862,200.92452739999862,201.2910128000076,201.2910128000076,201.2910128000076,201.2910128000076,201.2910128000076,201.2910128000076,201.2910128000076,201.2910128000076,201.2910128000076,23,0,,,201.2910128000076,201.490919200005,6.1,201.490919200005,1,6.1,1,1,1000,num_4,0.5650649000308476,,28,12,2026-03-05_16h31.59.323,2026A_exp2,2022.2.4,59.95570470914389,
1,0,0.0,6.1,0,0,61,61,0,,,,,202.07519329997012,202.72579709999263,202.72579709999263,203.2101866999874,315,315,203.2101866999874,203.2101866999874,203.2101866999874,203.2101866999874,203.2101866999874,203.2101866999874,203.2101866999874,203.2101866999874,203.2101866999874,203.57661749998806,203.57661749998806,203.57661749998806,203.57661749998806,203.57661749998806,203.57661749998806,203.57661749998806,203.57661749998806,203.57661749998806,23,0,,,203.57661749998806,203.7768940999522,0.0,203.7768940999522,1,0.0,0,0,1000,num_4,0.9196860000374727,,28,12,2026-03-05_16h31.59.323,2026A_exp2,2022.2.4,59.95570470914389,
1,0,6.1,3.7,1,0,62,62,51,,,,,204.71216969995294,205.37391069997102,205.37391069997102,205.86290229996666,315,45,205.86290229996666,205.86290229996666,205.86290229996666,205.86290229996666,205.86290229996666,205.86290229996666,205.86290229996666,205.86290229996666,205.86290229996666,206.22927509999136,206.22927509999136,206.22927509999136,206.22927509999136,206.22927509999136,206.22927509999136,206.22927509999136,206.22927509999136,206.22927509999136,23,0,,,206.22927509999136,206.42950480000582,3.7,206.42950480000582,0,3.7,1,0,1000,num_1,1.0341399000026286,,28,12,2026-03-05_16h31.59.323,2026A_exp2,2022.2.4,59.95570470914389,
1000,1,0.0,4.9,0,0,63,63,60,,,,,207.48063790000742,208.11456389998784,208.11456389998784,208.61566449998645,45,45,208.61566449998645,208.61566449998645,208.61566449998645,208.61566449998645,208.61566449998645,208.61566449998645,208.61566449998645,208.61566449998645,208.61566449998645,208.98204519995488,208.98204519995488,208.98204519995488,208.98204519995488,208.98204519995488,208.98204519995488,208.98204519995488,208.98204519995488,208.98204519995488,23,0,,,208.98204519995488,209.18419649999123,1000,209.18419649999123,1000,1000,1000,1000,0,num_3,0.711747599998489,,28,12,2026-03-05_16h31.59.323,2026A_exp2,2022.2.4,59.95570470914389,
1000,1,0.0,3.7,1,0,64,64,84,,,,,209.91632389998995,210.56675389996963,210.56675389996963,211.06791559996782,315,315,211.06791559996782,211.06791559996782,211.06791559996782,211.06791559996782,211.06791559996782,211.06791559996782,211.06791559996782,211.06791559996782,211.06791559996782,211.43449159996817,211.43449159996817,211.43449159996817,211.43449159996817,211.43449159996817,211.43449159996817,211.43449159996817,211.43449159996817,211.43449159996817,23,0,,,211.43449159996817,211.6367045000079,1000,211.6367045000079,1000,1000,1000,1000,1,num_2,0.586937999993097,,28,12,2026-03-05_16h31.59.323,2026A_exp2,2022.2.4,59.95570470914389,
1000,1,3.7,6.1,1,0,65,65,58,,,,,212.25202249997528,212.90269289998105,212.90269289998105,213.40360259998124,45,45,213.40360259998124,213.40360259998124,213.40360259998124,213.40360259998124,213.40360259998124,213.40360259998124,213.40360259998124,213.40360259998124,213.40360259998124,213.77007410000078,213.77007410000078,213.77007410000078,213.77007410000078,213.77007410000078,213.77007410000078,213.77007410000078,213.77007410000078,213.77007410000078,23,0,,,213.77007410000078,213.97207729995716,1000,213.97207729995716,1000,1000,1000,1000,1,num_2,0.6757359000039287,,28,12,2026-03-05_16h31.59.323,2026A_exp2,2022.2.4,59.95570470914389,
1000,1,0.0,0.0,0,0,66,66,86,,,,,214.67107919999398,215.32180839998182,215.32180839998182,215.82284989999607,45,45,215.82284989999607,215.82284989999607,215.82284989999607,215.82284989999607,215.82284989999607,215.82284989999607,215.82284989999607,215.82284989999607,215.82284989999607,216.1892732999986,216.1892732999986,216.1892732999986,216.1892732999986,216.1892732999986,216.1892732999986,216.1892732999986,216.1892732999986,216.1892732999986,23,0,,,216.1892732999986,216.39094409998506,1000,216.39094409998506,1000,1000,1000,1000,1,num_2,0.4806285999948159,,28,12,2026-03-05_16h31.59.323,2026A_exp2,2022.2.4,59.95570470914389,
1,0,3.7,6.1,0,0,67,67,52,,,,,216.89004709996516,217.54063419997692,217.54063419997692,218.02495429996634,315,315,218.02495429996634,218.02495429996634,218.02495429996634,218.02495429996634,218.02495429996634,218.02495429996634,218.02495429996634,218.02495429996634,218.02495429996634,218.3914717999869,218.3914717999869,218.3914717999869,218.3914717999869,218.3914717999869,218.3914717999869,218.3914717999869,218.3914717999869,218.3914717999869,23,0,,,218.3914717999869,218.59164719999535,3.7,218.59164719999535,0,3.7,1,0,1000,num_1,0.7678559999912977,,28,12,2026-03-05_16h31.59.323,2026A_exp2,2022.2.4,59.95570470914389,
1,0,0.0,0.0,1,0,68,68,42,,,,,219.37575740000466,220.0264341000002,220.0264341000002,220.51081179996254,315,315,220.51081179996254,220.51081179996254,220.51081179996254,220.51081179996254,220.51081179996254,220.51081179996254,220.51081179996254,220.51081179996254,220.51081179996254,220.87722069997108,220.87722069997108,220.87722069997108,220.87722069997108,220.87722069997108,220.87722069997108,220.87722069997108,220.87722069997108,220.87722069997108,23,0,,,220.87722069997108,221.07733619998908,0.0,221.07733619998908,1,0.0,0,0,1000,num_4,0.5061534999986179,,28,12,2026-03-05_16h31.59.323,2026A_exp2,2022.2.4,59.95570470914389,
1,0,3.7,3.7,1,0,69,69,30,,,,,221.61138829996344,222.26199939998332,222.26199939998332,222.74642659997335,45,45,222.74642659997335,222.74642659997335,222.74642659997335,222.74642659997335,222.74642659997335,222.74642659997335,222.74642659997335,222.74642659997335,222.74642659997335,223.11284029996023,223.11284029996023,223.11284029996023,223.11284029996023,223.11284029996023,223.11284029996023,223.11284029996023,223.11284029996023,223.11284029996023,23,0,,,223.11284029996023,223.3129356999998,3.7,223.3129356999998,1,3.7,1,1,1000,num_4,0.44780480000190437,,28,12,2026-03-05_16h31.59.323,2026A_exp2,2022.2.4,59.95570470914389,
1,0,0.0,3.7,1,0,70,70,32,,,,,223.78003819996957,224.4140280999709,224.4140280999709,224.91524729999946,315,315,224.91524729999946,224.91524729999946,224.91524729999946,224.91524729999946,224.91524729999946,224.91524729999946,224.91524729999946,224.91524729999946,224.91524729999946,225.28152979997685,225.28152979997685,225.28152979997685,225.28152979997685,225.28152979997685,225.28152979997685,225.28152979997685,225.28152979997685,225.28152979997685,23,0,,,225.28152979997685,225.48177589999977,3.7,225.48177589999977,1,3.7,1,1,1000,num_4,0.3751215999945998,,28,12,2026-03-05_16h31.59.323,2026A_exp2,2022.2.4,59.95570470914389,
1000,1,3.7,0.0,0,0,71,71,56,,,,,225.8821340999566,226.53291609999724,226.53291609999724,227.01730419998057,45,45,227.01730419998057,227.01730419998057,227.01730419998057,227.01730419998057,227.01730419998057,227.01730419998057,227.01730419998057,227.01730419998057,227.01730419998057,227.38376679999055,227.38376679999055,227.38376679999055,227.38376679999055,227.38376679999055,227.38376679999055,227.38376679999055,227.38376679999055,227.38376679999055,23,0,,,227.38376679999055,227.5864259999944,1000,227.5864259999944,1000,1000,1000,1000,0,num_3,0.6611459999694489,,28,12,2026-03-05_16h31.59.323,2026A_exp2,2022.2.4,59.95570470914389,
1000,1,0.0,0.0,0,0,72,72,5,,,,,228.26811319997068,228.91855619999114,228.91855619999114,229.41975040000398,45,45,229.41975040000398,229.41975040000398,229.41975040000398,229.41975040000398,229.41975040000398,229.41975040000398,229.41975040000398,229.41975040000398,229.41975040000398,229.76947699999437,229.76947699999437,229.76947699999437,229.76947699999437,229.76947699999437,229.76947699999437,229.76947699999437,229.76947699999437,229.76947699999437,22,0,,,229.76947699999437,229.9720422999817,1000,229.9720422999817,1000,1000,1000,1000,1,num_2,0.4839660999714397,,28,12,2026-03-05_16h31.59.323,2026A_exp2,2022.2.4,59.95570470914389,
1,0,0.0,6.1,1,0,73,73,36,,,,,230.48697579995496,231.13757520000217,231.13757520000217,231.63858639996033,45,45,231.63858639996033,231.63858639996033,231.63858639996033,231.63858639996033,231.63858639996033,231.63858639996033,231.63858639996033,231.63858639996033,231.63858639996033,232.00506329996279,232.00506329996279,232.00506329996279,232.00506329996279,232.00506329996279,232.00506329996279,232.00506329996279,232.00506329996279,232.00506329996279,23,0,,,232.00506329996279,232.20527649996802,6.1,232.20527649996802,1,6.1,1,1,1000,num_4,1.2904068999923766,,28,12,2026-03-05_16h31.59.323,2026A_exp2,2022.2.4,59.95570470914389,
1000,1,6.1,0.0,1,0,74,74,57,,,,,233.52330879995134,234.17398869997123,234.17398869997123,234.6582941999659,45,45,234.6582941999659,234.6582941999659,234.6582941999659,234.6582941999659,234.6582941999659,234.6582941999659,234.6582941999659,234.6582941999659,234.6582941999659,235.024789099989,235.024789099989,235.024789099989,235.024789099989,235.024789099989,235.024789099989,235.024789099989,235.024789099989,235.024789099989,23,0,,,235.024789099989,235.22705839999253,1000,235.22705839999253,1000,1000,1000,1000,1,num_2,0.6457216999842785,,28,12,2026-03-05_16h31.59.323,2026A_exp2,2022.2.4,59.95570470914389,
1,0,6.1,0.0,0,0,75,75,47,,,,,235.89239399996586,236.54297199996654,236.54297199996654,237.0440514999791,315,315,237.0440514999791,237.0440514999791,237.0440514999791,237.0440514999791,237.0440514999791,237.0440514999791,237.0440514999791,237.0440514999791,237.0440514999791,237.41049739997834,237.41049739997834,237.41049739997834,237.41049739997834,237.41049739997834,237.41049739997834,237.41049739997834,237.41049739997834,237.41049739997834,23,0,,,237.41049739997834,237.6110192000051,6.1,237.6110192000051,1,6.1,1,1,1000,num_4,0.4444680000306107,,28,12,2026-03-05_16h31.59.323,2026A_exp2,2022.2.4,59.95570470914389,
1000,1,6.1,0.0,1,0,76,76,25,,,,,238.07755489996634,238.72957749996567,238.72957749996567,239.21293449995574,315,45,239.21293449995574,239.21293449995574,239.21293449995574,239.21293449995574,239.21293449995574,239.21293449995574,239.21293449995574,239.21293449995574,239.21293449995574,239.57929379999405,239.57929379999405,239.57929379999405,239.57929379999405,239.57929379999405,239.57929379999405,239.57929379999405,239.57929379999405,239.57929379999405,23,0,,,239.57929379999405,239.7813962000073,1000,239.7813962000073,1000,1000,1000,1000,0,num_3,0.9547444999916479,,28,12,2026-03-05_16h31.59.323,2026A_exp2,2022.2.4,59.95570470914389,
1000,1,3.7,0.0,1,0,77,77,19,,,,,240.76394519995665,241.41432209999766,241.41432209999766,241.89892069995403,315,45,241.89892069995403,241.89892069995403,241.89892069995403,241.89892069995403,241.89892069995403,241.89892069995403,241.89892069995403,241.89892069995403,241.89892069995403,242.26530999998795,242.26530999998795,242.26530999998795,242.26530999998795,242.26530999998795,242.26530999998795,242.26530999998795,242.26530999998795,242.26530999998795,23,0,,,242.26530999998795,242.46741219999967,1000,242.46741219999967,1000,1000,1000,1000,0,num_3,0.5008794000023045,,28,12,2026-03-05_16h31.59.323,2026A_exp2,2022.2.4,59.95570470914389,
1000,1,0.0,4.9,0,0,78,78,26,,,,,242.99943889997667,243.6499666000018,243.6499666000018,244.15107999998145,315,315,244.15107999998145,244.15107999998145,244.15107999998145,244.15107999998145,244.15107999998145,244.15107999998145,244.15107999998145,244.15107999998145,244.15107999998145,244.5174339999794,244.5174339999794,244.5174339999794,244.5174339999794,244.5174339999794,244.5174339999794,244.5174339999794,244.5174339999794,244.5174339999794,23,0,,,244.5174339999794,244.7199074999662,1000,244.7199074999662,1000,1000,1000,1000,0,num_3,0.8641776000149548,,28,12,2026-03-05_16h31.59.323,2026A_exp2,2022.2.4,59.95570470914389,
1,0,0.0,0.0,0,0,79,79,79,,,,,245.6020338999806,246.2526557999663,246.2526557999663,246.7536979999859,45,45,246.7536979999859,246.7536979999859,246.7536979999859,246.7536979999859,246.7536979999859,246.7536979999859,246.7536979999859,246.7536979999859,246.7536979999859,247.12022669997532,247.12022669997532,247.12022669997532,247.12022669997532,247.12022669997532,247.12022669997532,247.12022669997532,247.12022669997532,247.12022669997532,23,0,,,247.12022669997532,247.32023059995845,0.0,247.32023059995845,0,0.0,0,1,1000,num_1,0.7923306000302546,,28,12,2026-03-05_16h31.59.323,2026A_exp2,2022.2.4,59.95570470914389,
1,0,6.1,4.9,1,0,80,80,11,,,,,248.1378129000077,248.79011000000173,248.79011000000173,249.27281519997632,315,45,249.27281519997632,249.27281519997632,249.27281519997632,249.27281519997632,249.27281519997632,249.27281519997632,249.27281519997632,249.27281519997632,249.27281519997632,249.63945829996374,249.63945829996374,249.63945829996374,249.63945829996374,249.63945829996374,249.63945829996374,249.63945829996374,249.63945829996374,249.63945829996374,23,0,,,249.63945829996374,249.83951949997572,4.9,249.83951949997572,1,4.9,1,1,1000,num_4,0.47312380000948906,,28,12,2026-03-05_16h31.59.323,2026A_exp2,2022.2.4,59.95570470914389,
1,0,0.0,4.9,1,0,81,81,37,,,,,250.33995749999303,250.9907872999902,250.9907872999902,251.4750222999719,315,315,251.4750222999719,251.4750222999719,251.4750222999719,251.4750222999719,251.4750222999719,251.4750222999719,251.4750222999719,251.4750222999719,251.4750222999719,251.84156259999145,251.84156259999145,251.84156259999145,251.84156259999145,251.84156259999145,251.84156259999145,251.84156259999145,251.84156259999145,251.84156259999145,23,0,,,251.84156259999145,252.04176219995134,4.9,252.04176219995134,1,4.9,1,1,1000,num_4,0.4144382000085898,,28,12,2026-03-05_16h31.59.323,2026A_exp2,2022.2.4,59.95570470914389,
1,0,0.0,4.9,0,0,82,82,3,,,,,252.47553289995994,253.12620439997409,253.12620439997409,253.61054719996173,315,315,253.61054719996173,253.61054719996173,253.61054719996173,253.61054719996173,253.61054719996173,253.61054719996173,253.61054719996173,253.61054719996173,253.61054719996173,253.97699239995563,253.97699239995563,253.97699239995563,253.97699239995563,253.97699239995563,253.97699239995563,253.97699239995563,253.97699239995563,253.97699239995563,23,0,,,253.97699239995563,254.17722549999598,0.0,254.17722549999598,0,0.0,0,1,1000,num_1,0.3910401000175625,,28,12,2026-03-05_16h31.59.323,2026A_exp2,2022.2.4,59.95570470914389,
1,0,4.9,3.7,1,0,83,83,27,,,,,254.59442119998857,255.24487059999956,255.24487059999956,255.72938989999238,45,45,255.72938989999238,255.72938989999238,255.72938989999238,255.72938989999238,255.72938989999238,255.72938989999238,255.72938989999238,255.72938989999238,255.72938989999238,256.09586419997504,256.09586419997504,256.09586419997504,256.09586419997504,256.09586419997504,256.09586419997504,256.09586419997504,256.09586419997504,256.09586419997504,23,0,,,256.09586419997504,256.29593359999126,3.7,256.29593359999126,0,3.7,1,0,1000,num_1,0.48847229999955744,,28,12,2026-03-05_16h31.59.323,2026A_exp2,2022.2.4,59.95570470914389,
1000,1,0.0,0.0,0,0,84,84,15,,,,,256.8132953000022,257.46385629998986,257.46385629998986,257.94848689995706,45,315,257.94848689995706,257.94848689995706,257.94848689995706,257.94848689995706,257.94848689995706,257.94848689995706,257.94848689995706,257.94848689995706,257.94848689995706,258.3146582999616,258.3146582999616,258.3146582999616,258.3146582999616,258.3146582999616,258.3146582999616,258.3146582999616,258.3146582999616,258.3146582999616,23,0,,,258.3146582999616,258.51712390000466,1000,258.51712390000466,1000,1000,1000,1000,0,num_3,0.6354521000175737,,28,12,2026-03-05_16h31.59.323,2026A_exp2,2022.2.4,59.95570470914389,
1000,1,0.0,4.9,0,0,85,85,61,,,,,259.1821230999776,259.8327907999628,259.8327907999628,260.3339188999962,45,315,260.3339188999962,260.3339188999962,260.3339188999962,260.3339188999962,260.3339188999962,260.3339188999962,260.3339188999962,260.3339188999962,260.3339188999962,260.6837937999517,260.6837937999517,260.6837937999517,260.6837937999517,260.6837937999517,260.6837937999517,260.6837937999517,260.6837937999517,260.6837937999517,22,0,,,260.6837937999517,260.88630309997825,1000,260.88630309997825,1000,1000,1000,1000,0,num_3,1.4261542999884114,,28,12,2026-03-05_16h31.59.323,2026A_exp2,2022.2.4,59.95570470914389,
0,0,3.7,0.0,0,0,86,86,62,,,,,262.3354743999662,262.98587699997006,262.98587699997006,263.487011899997,315,315,263.487011899997,263.487011899997,263.487011899997,263.487011899997,263.487011899997,263.487011899997,263.487011899997,263.487011899997,263.487011899997,263.83691849996103,263.83691849996103,263.83691849996103,263.83691849996103,263.83691849996103,263.83691849996103,263.83691849996103,263.83691849996103,263.83691849996103,22,0,,,263.83691849996103,264.0370658999891,0.0,264.05381029995624,0,0.0,0,1,1000,num_1,0.9862642000080086,,28,12,2026-03-05_16h31.59.323,2026A_exp2,2022.2.4,59.95570470914389,
1000,1,3.7,4.9,0,0,87,87,45,,,,,265.05559730000095,265.7062312999624,265.7062312999624,266.2064761999645,315,315,266.2064761999645,266.2064761999645,266.2064761999645,266.2064761999645,266.2064761999645,266.2064761999645,266.2064761999645,266.2064761999645,266.2064761999645,266.5730864999932,266.5730864999932,266.5730864999932,266.5730864999932,266.5730864999932,266.5730864999932,266.5730864999932,266.5730864999932,266.5730864999932,23,0,,,266.5730864999932,266.7753385999822,1000,266.7753385999822,1000,1000,1000,1000,1,num_2,0.7528588999994099,,28,12,2026-03-05_16h31.59.323,2026A_exp2,2022.2.4,59.95570470914389,
1000,1,6.1,3.7,0,0,88,88,75,,,,,267.5573140999768,268.2079429999576,268.2079429999576,268.70905179996043,45,45,268.70905179996043,268.70905179996043,268.70905179996043,268.70905179996043,268.70905179996043,268.70905179996043,268.70905179996043,268.70905179996043,268.70905179996043,269.0754883000045,269.0754883000045,269.0754883000045,269.0754883000045,269.0754883000045,269.0754883000045,269.0754883000045,269.0754883000045,269.0754883000045,23,0,,,269.0754883000045,269.2773671000032,1000,269.2773671000032,1000,1000,1000,1000,0,num_3,0.7465853999601677,,28,12,2026-03-05_16h31.59.323,2026A_exp2,2022.2.4,59.95570470914389,
1000,1,6.1,6.1,1,0,89,89,4,,,,,270.0431347999838,270.69362259999616,270.69362259999616,271.19469949998893,45,45,271.19469949998893,271.19469949998893,271.19469949998893,271.19469949998893,271.19469949998893,271.19469949998893,271.19469949998893,271.19469949998893,271.19469949998893,271.56125049997354,271.56125049997354,271.56125049997354,271.56125049997354,271.56125049997354,271.56125049997354,271.56125049997354,271.56125049997354,271.56125049997354,23,0,,,271.56125049997354,271.7636012999574,1000,271.7636012999574,1000,1000,1000,1000,1,num_2,0.5321724000386894,,28,12,2026-03-05_16h31.59.323,2026A_exp2,2022.2.4,59.95570470914389,
,,,,,,,,,,,,,,,,,,,,,,,,,,,,,,,,,,,,,,,,,,,,,,,,,,,,272.32029629999306,,,,,,,
