validity,detectorcomp,contrastCW,contrastCCW,precueCWorCCW,block_80trials.thisRepN,block_80trials.thisTrialN,block_80trials.thisN,block_80trials.thisIndex,etRecord.started,etRecord.stopped,text.started,text.stopped,text_4.started,text_4.stopped,text_6.started,text_6.stopped,oriCW,oriCCW,roi_2.started,grating_UR.started,grating_UL.started,grating_LR.started,grating_LL.started,noise_UR.started,noise_UL.started,noise_LR.started,noise_LL.started,roi_2.stopped,grating_UR.stopped,grating_UL.stopped,grating_LR.stopped,grating_LL.stopped,noise_UR.stopped,noise_UL.stopped,noise_LR.stopped,noise_LL.stopped,outframe,roi_2.numLooks,roi_2.timesOn,roi_2.timesOff,text_2.started,text_2.stopped,probedcontrast,key_resp.started,respdetect,relevantContrast,correctDetect,TorFdetect,respCWorCCW,key_resp.keys,key_resp.rt,feedback_display_.started,participantNo,blockNo,date,expName,psychopyVersion,frameRate,
1000,1,6.1,6.1,0,0,0,0,87,7.650000043213367e-05,7.650000043213367e-05,54.36751880001975,56.379325899994,56.379325899994,57.00636270001996,57.00636270001996,57.523770799976774,315,315,57.523770799976774,57.523770799976774,57.523770799976774,57.523770799976774,57.523770799976774,57.523770799976774,57.523770799976774,57.523770799976774,57.523770799976774,57.871821800014004,57.871821800014004,57.871821800014004,57.871821800014004,57.871821800014004,57.871821800014004,57.871821800014004,57.871821800014004,57.871821800014004,11,1,[0.0013880999758839607],[0.2007609999855049],57.871821800014004,58.07874239998637,1000,58.07874239998637,1000,1000,1000,1000,1,num_2,0.6050614999840036,,23,7,2026-03-04_13h51.39.695,2026A_exp2,2022.2.4,59.929223578255225,
1000,1,3.7,0.0,0,0,1,1,55,,,,,58.70596079999814,59.356736699992325,59.356736699992325,59.8578418000252,315,45,59.8578418000252,59.8578418000252,59.8578418000252,59.8578418000252,59.8578418000252,59.8578418000252,59.8578418000252,59.8578418000252,59.8578418000252,60.22421590000158,60.22421590000158,60.22421590000158,60.22421590000158,60.22421590000158,60.22421590000158,60.22421590000158,60.22421590000158,60.22421590000158,14,2,"[0.0009549000533297658, 0.10008070000912994]","[0.0502693000016734, 0.2001534000155516]",60.22421590000158,60.42614080000203,1000,60.42614080000203,1000,1000,1000,1000,0,num_3,0.7608409999520518,,23,7,2026-03-04_13h51.39.695,2026A_exp2,2022.2.4,59.929223578255225,
1000,1,0.0,0.0,1,0,2,2,34,,,,,61.20857710001292,61.85915610002121,61.85915610002121,62.360072000010405,315,45,62.360072000010405,62.360072000010405,62.360072000010405,62.360072000010405,62.360072000010405,62.360072000010405,62.360072000010405,62.360072000010405,62.360072000010405,62.726741200021934,62.726741200021934,62.726741200021934,62.726741200021934,62.726741200021934,62.726741200021934,62.726741200021934,62.726741200021934,62.726741200021934,0,1,[0.0012129999813623726],[0.36728890001541004],62.726741200021934,62.92877890000818,1000,62.92877890000818,1000,1000,1000,1000,0,num_3,1.1463463000254706,,23,7,2026-03-04_13h51.39.695,2026A_exp2,2022.2.4,59.929223578255225,
1,0,6.1,3.7,1,0,3,3,16,,,,,64.09476220002398,64.74517489998834,64.74517489998834,65.24651059997268,315,315,65.24651059997268,65.24651059997268,65.24651059997268,65.24651059997268,65.24651059997268,65.24651059997268,65.24651059997268,65.24651059997268,65.24651059997268,65.61296110000694,65.61296110000694,65.61296110000694,65.61296110000694,65.61296110000694,65.61296110000694,65.61296110000694,65.61296110000694,65.61296110000694,15,2,"[0.20029790000990033, 0.3332053000340238]","[0.28362870001001284, 0.3670084000332281]",65.61296110000694,65.81304630002705,3.7,65.81304630002705,0,3.7,1,0,1000,num_1,0.9660743999993429,,23,7,2026-03-04_13h51.39.695,2026A_exp2,2022.2.4,59.929223578255225,
1000,1,4.9,0.0,1,0,4,4,84,,,,,66.79734549997374,67.448069999984,67.448069999984,67.93253029999323,45,45,67.93253029999323,67.93253029999323,67.93253029999323,67.93253029999323,67.93253029999323,67.93253029999323,67.93253029999323,67.93253029999323,67.93253029999323,68.29890679998789,68.29890679998789,68.29890679998789,68.29890679998789,68.29890679998789,68.29890679998789,68.29890679998789,68.29890679998789,68.29890679998789,0,1,[0.0012101000174880028],[0.3669913000194356],68.29890679998789,68.50077769998461,1000,68.50077769998461,1000,1000,1000,1000,1,num_2,0.8702873000293039,,23,7,2026-03-04_13h51.39.695,2026A_exp2,2022.2.4,59.929223578255225,
0,0,0.0,4.9,1,0,5,5,0,,,,,69.40001179999672,70.0506572999875,70.0506572999875,70.55181470001116,315,315,70.55181470001116,70.55181470001116,70.55181470001116,70.55181470001116,70.55181470001116,70.55181470001116,70.55181470001116,70.55181470001116,70.55181470001116,70.91818460001377,70.91818460001377,70.91818460001377,70.91818460001377,70.91818460001377,70.91818460001377,70.91818460001377,70.91818460001377,70.91818460001377,0,1,[0.0012003000010736287],[0.3672573999501765],70.91818460001377,71.11827739997534,0.0,71.11827739997534,0,0.0,0,1,1000,num_1,0.9974826999823563,,23,7,2026-03-04_13h51.39.695,2026A_exp2,2022.2.4,59.929223578255225,
1000,1,3.7,0.0,1,0,6,6,38,,,,,72.13606990000699,72.78666079998948,72.78666079998948,73.27104259998305,315,315,73.27104259998305,73.27104259998305,73.27104259998305,73.27104259998305,73.27104259998305,73.27104259998305,73.27104259998305,73.27104259998305,73.27104259998305,73.63755849999143,73.63755849999143,73.63755849999143,73.63755849999143,73.63755849999143,73.63755849999143,73.63755849999143,73.63755849999143,73.63755849999143,0,1,[0.0012162000057287514],[0.3671436000149697],73.63755849999143,73.8438134000171,1000,73.8438134000171,1000,1000,1000,1000,0,num_3,1.1682165999663994,,23,7,2026-03-04_13h51.39.695,2026A_exp2,2022.2.4,59.929223578255225,
0,0,6.1,4.9,1,0,7,7,42,,,,,75.0390664000297,75.68954789999407,75.68954789999407,76.19075880001765,315,45,76.19075880001765,76.19075880001765,76.19075880001765,76.19075880001765,76.19075880001765,76.19075880001765,76.19075880001765,76.19075880001765,76.19075880001765,76.54050369997276,76.54050369997276,76.54050369997276,76.54050369997276,76.54050369997276,76.54050369997276,76.54050369997276,76.54050369997276,76.54050369997276,0,1,[0.001301199954468757],[0.3505371999926865],76.54050369997276,76.7406177999801,6.1,76.75738979998278,1,6.1,1,1,1000,num_4,1.309602299996186,,23,7,2026-03-04_13h51.39.695,2026A_exp2,2022.2.4,59.929223578255225,
1000,1,0.0,0.0,0,0,8,8,79,,,,,78.09194060001755,78.74246999999741,78.74246999999741,79.2269304000074,45,45,79.2269304000074,79.2269304000074,79.2269304000074,79.2269304000074,79.2269304000074,79.2269304000074,79.2269304000074,79.2269304000074,79.2269304000074,79.59346750000259,79.59346750000259,79.59346750000259,79.59346750000259,79.59346750000259,79.59346750000259,79.59346750000259,79.59346750000259,79.59346750000259,3,2,"[0.0012098000152036548, 0.35047190001932904]","[0.30062250001356006, 0.3672987000318244]",79.59346750000259,79.80991680000443,1000,79.80991680000443,1000,1000,1000,1000,1,num_2,1.826163399964571,,23,7,2026-03-04_13h51.39.695,2026A_exp2,2022.2.4,59.929223578255225,
1000,1,3.7,0.0,0,0,9,9,81,,,,,81.66222589998506,82.3128899000003,82.3128899000003,82.81404169998132,315,315,82.81404169998132,82.81404169998132,82.81404169998132,82.81404169998132,82.81404169998132,82.81404169998132,82.81404169998132,82.81404169998132,82.81404169998132,83.18048239999916,83.18048239999916,83.18048239999916,83.18048239999916,83.18048239999916,83.18048239999916,83.18048239999916,83.18048239999916,83.18048239999916,7,3,"[0.001208100002259016, 0.10052969999378547, 0.21703640004852787]","[0.03361490002134815, 0.16711310000391677, 0.36740039999131113]",83.18048239999916,83.38236659998074,1000,83.38236659998074,1000,1000,1000,1000,0,num_3,0.6215329000260681,,23,7,2026-03-04_13h51.39.695,2026A_exp2,2022.2.4,59.929223578255225,
1,0,3.7,3.7,0,0,10,10,8,,,,,84.03119940002216,84.6818991000182,84.6818991000182,85.18309629999567,45,315,85.18309629999567,85.18309629999567,85.18309629999567,85.18309629999567,85.18309629999567,85.18309629999567,85.18309629999567,85.18309629999567,85.18309629999567,85.54936699999962,85.54936699999962,85.54936699999962,85.54936699999962,85.54936699999962,85.54936699999962,85.54936699999962,85.54936699999962,85.54936699999962,0,1,[0.0012372999917715788],[0.3672591000213288],85.54936699999962,85.74975600000471,3.7,85.74975600000471,1,3.7,1,1,1000,num_4,0.6858855999889784,,23,7,2026-03-04_13h51.39.695,2026A_exp2,2022.2.4,59.929223578255225,
1000,1,4.9,0.0,0,0,11,11,45,,,,,86.46706280001672,87.11775350000244,87.11775350000244,87.60221949999686,45,45,87.60221949999686,87.60221949999686,87.60221949999686,87.60221949999686,87.60221949999686,87.60221949999686,87.60221949999686,87.60221949999686,87.60221949999686,87.9684698000201,87.9684698000201,87.9684698000201,87.9684698000201,87.9684698000201,87.9684698000201,87.9684698000201,87.9684698000201,87.9684698000201,10,2,"[0.0012949000229127705, 0.3337104000383988]","[0.16684310004347935, 0.3671727000037208]",87.9684698000201,88.17040639999323,1000,88.17040639999323,1000,1000,1000,1000,0,num_3,0.512369200005196,,23,7,2026-03-04_13h51.39.695,2026A_exp2,2022.2.4,59.929223578255225,
0,0,0.0,0.0,1,0,12,12,80,,,,,88.70238759997301,89.35331209999276,89.35331209999276,89.85429889999796,45,315,89.85429889999796,89.85429889999796,89.85429889999796,89.85429889999796,89.85429889999796,89.85429889999796,89.85429889999796,89.85429889999796,89.85429889999796,90.20404240000062,90.20404240000062,90.20404240000062,90.20404240000062,90.20404240000062,90.20404240000062,90.20404240000062,90.20404240000062,90.20404240000062,22,0,,,90.20404240000062,90.40408509998815,0.0,90.42096850002417,1,0.0,0,0,1000,num_4,1.5658815000206232,,23,7,2026-03-04_13h51.39.695,2026A_exp2,2022.2.4,59.929223578255225,
1,0,0.0,6.1,1,0,13,13,5,,,,,92.00585660000797,92.6564636999974,92.6564636999974,93.14109230000759,315,45,93.14109230000759,93.14109230000759,93.14109230000759,93.14109230000759,93.14109230000759,93.14109230000759,93.14109230000759,93.14109230000759,93.14109230000759,93.5074340000283,93.5074340000283,93.5074340000283,93.5074340000283,93.5074340000283,93.5074340000283,93.5074340000283,93.5074340000283,93.5074340000283,2,3,"[0.0012507999781519175, 0.16702599998097867, 0.20045369997387752]","[0.15020689996890724, 0.1837573999655433, 0.3672901999671012]",93.5074340000283,93.70757909998065,6.1,93.70757909998065,1,6.1,1,1,1000,num_4,0.5517368000000715,,23,7,2026-03-04_13h51.39.695,2026A_exp2,2022.2.4,59.929223578255225,
1,0,0.0,0.0,0,0,14,14,11,,,,,94.2747834000038,94.93765560002066,94.93765560002066,95.41177170001902,45,45,95.41177170001902,95.41177170001902,95.41177170001902,95.41177170001902,95.41177170001902,95.41177170001902,95.41177170001902,95.41177170001902,95.41177170001902,95.77630369999679,95.77630369999679,95.77630369999679,95.77630369999679,95.77630369999679,95.77630369999679,95.77630369999679,95.77630369999679,95.77630369999679,1,2,"[0.001989100011996925, 0.08274690003599972]","[0.06603450002148747, 0.3665022000204772]",95.77630369999679,95.97669839998707,0.0,95.97669839998707,1,0.0,0,0,1000,num_4,0.8579231000039726,,23,7,2026-03-04_13h51.39.695,2026A_exp2,2022.2.4,59.929223578255225,
1,0,3.7,0.0,0,0,15,15,9,,,,,96.86061730002984,97.49496799998451,97.49496799998451,97.99574410001514,315,315,97.99574410001514,97.99574410001514,97.99574410001514,97.99574410001514,97.99574410001514,97.99574410001514,97.99574410001514,97.99574410001514,97.99574410001514,98.36230630002683,98.36230630002683,98.36230630002683,98.36230630002683,98.36230630002683,98.36230630002683,98.36230630002683,98.36230630002683,98.36230630002683,0,1,[0.0012395000085234642],[0.367174300015904],98.36230630002683,98.56242590001784,3.7,98.56242590001784,1,3.7,1,1,1000,num_4,0.6094695000210777,,23,7,2026-03-04_13h51.39.695,2026A_exp2,2022.2.4,59.929223578255225,
0,0,4.9,6.1,1,0,16,16,70,,,,,99.19639729999471,99.846976300003,99.846976300003,100.33158900000853,45,315,100.33158900000853,100.33158900000853,100.33158900000853,100.33158900000853,100.33158900000853,100.33158900000853,100.33158900000853,100.33158900000853,100.33158900000853,100.69797330000438,100.69797330000438,100.69797330000438,100.69797330000438,100.69797330000438,100.69797330000438,100.69797330000438,100.69797330000438,100.69797330000438,23,0,,,100.69797330000438,100.89801910001552,4.9,100.89801910001552,1,4.9,1,1,1000,num_4,0.6491183000034653,,23,7,2026-03-04_13h51.39.695,2026A_exp2,2022.2.4,59.929223578255225,
0,0,6.1,6.1,1,0,17,17,48,,,,,101.5655897000106,102.19934819999617,102.19934819999617,102.70048300002236,45,45,102.70048300002236,102.70048300002236,102.70048300002236,102.70048300002236,102.70048300002236,102.70048300002236,102.70048300002236,102.70048300002236,102.70048300002236,103.06672529998468,103.06672529998468,103.06672529998468,103.06672529998468,103.06672529998468,103.06672529998468,103.06672529998468,103.06672529998468,103.06672529998468,21,2,"[0.01727389998268336, 0.3172628000029363]","[0.03365070000290871, 0.33383939997293055]",103.06672529998468,103.26715610001702,6.1,103.26715610001702,1,6.1,1,1,1000,num_4,0.6320175000000745,,23,7,2026-03-04_13h51.39.695,2026A_exp2,2022.2.4,59.929223578255225,
1,0,0.0,0.0,1,0,18,18,4,,,,,103.91765540000051,104.56854429998202,104.56854429998202,105.05285590002313,315,45,105.05285590002313,105.05285590002313,105.05285590002313,105.05285590002313,105.05285590002313,105.05285590002313,105.05285590002313,105.05285590002313,105.05285590002313,105.41935570002533,105.41935570002533,105.41935570002533,105.41935570002533,105.41935570002533,105.41935570002533,105.41935570002533,105.41935570002533,105.41935570002533,23,0,,,105.41935570002533,105.61957260000054,0.0,105.61957260000054,0,0.0,0,1,1000,num_1,1.0872241000179201,,23,7,2026-03-04_13h51.39.695,2026A_exp2,2022.2.4,59.929223578255225,
1000,1,6.1,6.1,1,0,19,19,53,,,,,106.73725629999535,107.38805499998853,107.38805499998853,107.8722980999737,45,315,107.8722980999737,107.8722980999737,107.8722980999737,107.8722980999737,107.8722980999737,107.8722980999737,107.8722980999737,107.8722980999737,107.8722980999737,108.23887830000604,108.23887830000604,108.23887830000604,108.23887830000604,108.23887830000604,108.23887830000604,108.23887830000604,108.23887830000604,108.23887830000604,23,0,,,108.23887830000604,108.4407477999921,1000,108.4407477999921,1000,1000,1000,1000,0,num_3,1.0184185999678448,,23,7,2026-03-04_13h51.39.695,2026A_exp2,2022.2.4,59.929223578255225,
1000,1,4.9,3.7,0,0,20,20,40,,,,,109.49016450002091,110.14073739998275,110.14073739998275,110.64178920001723,45,315,110.64178920001723,110.64178920001723,110.64178920001723,110.64178920001723,110.64178920001723,110.64178920001723,110.64178920001723,110.64178920001723,110.64178920001723,111.00832339999033,111.00832339999033,111.00832339999033,111.00832339999033,111.00832339999033,111.00832339999033,111.00832339999033,111.00832339999033,111.00832339999033,23,0,,,111.00832339999033,111.23303070000838,1000,111.23303070000838,1000,1000,1000,1000,0,num_3,0.49025949998758733,,23,7,2026-03-04_13h51.39.695,2026A_exp2,2022.2.4,59.929223578255225,
1000,1,3.7,0.0,1,0,21,21,52,,,,,111.74257780000335,112.39321210002527,112.39321210002527,112.89401569997426,315,315,112.89401569997426,112.89401569997426,112.89401569997426,112.89401569997426,112.89401569997426,112.89401569997426,112.89401569997426,112.89401569997426,112.89401569997426,113.26045429997612,113.26045429997612,113.26045429997612,113.26045429997612,113.26045429997612,113.26045429997612,113.26045429997612,113.26045429997612,113.26045429997612,23,0,,,113.26045429997612,113.48148479999509,1000,113.48148479999509,1000,1000,1000,1000,0,num_3,0.5141566999955103,,23,7,2026-03-04_13h51.39.695,2026A_exp2,2022.2.4,59.929223578255225,
1,0,3.7,6.1,1,0,22,22,75,,,,,114.01114969997434,114.6618438999867,114.6618438999867,115.16318829997908,315,315,115.16318829997908,115.16318829997908,115.16318829997908,115.16318829997908,115.16318829997908,115.16318829997908,115.16318829997908,115.16318829997908,115.16318829997908,115.5294885999756,115.5294885999756,115.5294885999756,115.5294885999756,115.5294885999756,115.5294885999756,115.5294885999756,115.5294885999756,115.5294885999756,1,2,"[0.001212499977555126, 0.30088210001122206]","[0.2842600999865681, 0.3676682999939658]",115.5294885999756,115.72969780000858,6.1,115.72969780000858,1,6.1,1,1,1000,num_4,0.6013698999886401,,23,7,2026-03-04_13h51.39.695,2026A_exp2,2022.2.4,59.929223578255225,
1,0,0.0,0.0,0,0,23,23,85,,,,,116.34687419998227,116.99765650002519,116.99765650002519,117.48194600001443,45,45,117.48194600001443,117.48194600001443,117.48194600001443,117.48194600001443,117.48194600001443,117.48194600001443,117.48194600001443,117.48194600001443,117.48194600001443,117.84846850001486,117.84846850001486,117.84846850001486,117.84846850001486,117.84846850001486,117.84846850001486,117.84846850001486,117.84846850001486,117.84846850001486,6,1,[0.10076569998636842],[0.3676737999776378],117.84846850001486,118.04866239998955,0.0,118.04866239998955,1,0.0,0,0,1000,num_4,1.458996000001207,,23,7,2026-03-04_13h51.39.695,2026A_exp2,2022.2.4,59.929223578255225,
1000,1,6.1,4.9,1,0,24,24,15,,,,,119.53324910002993,120.1841719999793,120.1841719999793,120.66856429999461,315,45,120.66856429999461,120.66856429999461,120.66856429999461,120.66856429999461,120.66856429999461,120.66856429999461,120.66856429999461,120.66856429999461,120.66856429999461,121.0349754000199,121.0349754000199,121.0349754000199,121.0349754000199,121.0349754000199,121.0349754000199,121.0349754000199,121.0349754000199,121.0349754000199,0,1,[0.0012015000102110207],[0.36725379998097196],121.0349754000199,121.23695749999024,1000,121.23695749999024,1000,1000,1000,1000,1,num_2,2.3503252000082284,,23,7,2026-03-04_13h51.39.695,2026A_exp2,2022.2.4,59.929223578255225,
1000,1,3.7,3.7,1,0,25,25,54,,,,,123.60797650000313,124.25698190002004,124.25698190002004,124.76049040001817,45,45,124.76049040001817,124.76049040001817,124.76049040001817,124.76049040001817,124.76049040001817,124.76049040001817,124.76049040001817,124.76049040001817,124.76049040001817,125.12242430000333,125.12242430000333,125.12242430000333,125.12242430000333,125.12242430000333,125.12242430000333,125.12242430000333,125.12242430000333,125.12242430000333,0,1,[0.0024196000304073095],[0.36585240002023056],125.12242430000333,125.32496790000005,1000,125.32496790000005,1000,1000,1000,1000,1,num_2,0.8138545999536291,,23,7,2026-03-04_13h51.39.695,2026A_exp2,2022.2.4,59.929223578255225,
1000,1,0.0,0.0,0,0,26,26,13,,,,,126.15663590002805,126.80747930001235,126.80747930001235,127.3084186000051,45,315,127.3084186000051,127.3084186000051,127.3084186000051,127.3084186000051,127.3084186000051,127.3084186000051,127.3084186000051,127.3084186000051,127.3084186000051,127.65807240002323,127.65807240002323,127.65807240002323,127.65807240002323,127.65807240002323,127.65807240002323,127.65807240002323,127.65807240002323,127.65807240002323,0,1,[0.0012049999786540866],[0.350605399988126],127.65807240002323,127.86009189998731,1000,127.87510379997548,1000,1000,1000,1000,1,num_2,0.5918642000178806,,23,7,2026-03-04_13h51.39.695,2026A_exp2,2022.2.4,59.929223578255225,
1,0,0.0,4.9,1,0,27,27,73,,,,,128.4924298999831,129.14320210000733,129.14320210000733,129.64417019998655,45,45,129.64417019998655,129.64417019998655,129.64417019998655,129.64417019998655,129.64417019998655,129.64417019998655,129.64417019998655,129.64417019998655,129.64417019998655,130.0106452999753,130.0106452999753,130.0106452999753,130.0106452999753,130.0106452999753,130.0106452999753,130.0106452999753,130.0106452999753,130.0106452999753,23,0,,,130.0106452999753,130.210689599975,4.9,130.210689599975,1,4.9,1,1,1000,num_4,0.6414366000099108,,23,7,2026-03-04_13h51.39.695,2026A_exp2,2022.2.4,59.929223578255225,
1000,1,0.0,0.0,1,0,28,28,44,,,,,130.87808340002084,131.5287763000233,131.5287763000233,132.01327569998102,45,315,132.01327569998102,132.01327569998102,132.01327569998102,132.01327569998102,132.01327569998102,132.01327569998102,132.01327569998102,132.01327569998102,132.01327569998102,132.37977629998932,132.37977629998932,132.37977629998932,132.37977629998932,132.37977629998932,132.37977629998932,132.37977629998932,132.37977629998932,132.37977629998932,0,1,[0.0012150999973528087],[0.36715449998155236],132.37977629998932,132.58160520001547,1000,132.58160520001547,1000,1000,1000,1000,1,num_2,0.5901589999557473,,23,7,2026-03-04_13h51.39.695,2026A_exp2,2022.2.4,59.929223578255225,
1000,1,0.0,4.9,0,0,29,29,23,,,,,133.19709440000588,133.84773829998448,133.84773829998448,134.34891810000408,45,45,134.34891810000408,134.34891810000408,134.34891810000408,134.34891810000408,134.34891810000408,134.34891810000408,134.34891810000408,134.34891810000408,134.34891810000408,134.6985080000013,134.6985080000013,134.6985080000013,134.6985080000013,134.6985080000013,134.6985080000013,134.6985080000013,134.6985080000013,134.6985080000013,5,2,"[0.0012060999870300293, 0.2839382999809459]","[0.20053079997887835, 0.3506803999771364]",134.6985080000013,134.90055159997428,1000,134.9155942000216,1000,1000,1000,1000,1,num_2,0.5040101000340655,,23,7,2026-03-04_13h51.39.695,2026A_exp2,2022.2.4,59.929223578255225,
1000,1,0.0,4.9,1,0,30,30,57,,,,,135.43286160001298,136.08331700001145,136.08331700001145,136.58448929997394,315,315,136.58448929997394,136.58448929997394,136.58448929997394,136.58448929997394,136.58448929997394,136.58448929997394,136.58448929997394,136.58448929997394,136.58448929997394,136.95083360001445,136.95083360001445,136.95083360001445,136.95083360001445,136.95083360001445,136.95083360001445,136.95083360001445,136.95083360001445,136.95083360001445,23,0,,,136.95083360001445,137.15197499998612,1000,137.15197499998612,1000,1000,1000,1000,1,num_2,0.5791824999614619,,23,7,2026-03-04_13h51.39.695,2026A_exp2,2022.2.4,59.929223578255225,
0,0,0.0,4.9,0,0,31,31,65,,,,,137.75141040002927,138.40227540000342,138.40227540000342,138.88676109997323,315,315,138.88676109997323,138.88676109997323,138.88676109997323,138.88676109997323,138.88676109997323,138.88676109997323,138.88676109997323,138.88676109997323,138.88676109997323,139.25321330002043,139.25321330002043,139.25321330002043,139.25321330002043,139.25321330002043,139.25321330002043,139.25321330002043,139.25321330002043,139.25321330002043,21,2,"[0.1504988999804482, 0.21694119996391237]","[0.16697570000542328, 0.23374200001126155]",139.25321330002043,139.45340589998523,4.9,139.45340589998523,1,4.9,1,1,1000,num_4,0.5896445999969728,,23,7,2026-03-04_13h51.39.695,2026A_exp2,2022.2.4,59.929223578255225,
1,0,0.0,3.7,1,0,32,32,30,,,,,140.0706234999816,140.72124919999624,140.72124919999624,141.20563550002407,45,315,141.20563550002407,141.20563550002407,141.20563550002407,141.20563550002407,141.20563550002407,141.20563550002407,141.20563550002407,141.20563550002407,141.20563550002407,141.57206789997872,141.57206789997872,141.57206789997872,141.57206789997872,141.57206789997872,141.57206789997872,141.57206789997872,141.57206789997872,141.57206789997872,0,1,[0.001197999983560294],[0.3671352999517694],141.57206789997872,141.77243850001832,3.7,141.77243850001832,1,3.7,1,1,1000,num_4,0.5671768999891356,,23,7,2026-03-04_13h51.39.695,2026A_exp2,2022.2.4,59.929223578255225,
1,0,0.0,3.7,0,0,33,33,31,,,,,142.35610350000206,143.00733829999808,143.00733829999808,143.49142029997893,45,45,143.49142029997893,143.49142029997893,143.49142029997893,143.49142029997893,143.49142029997893,143.49142029997893,143.49142029997893,143.49142029997893,143.49142029997893,143.85785829997621,143.85785829997621,143.85785829997621,143.85785829997621,143.85785829997621,143.85785829997621,143.85785829997621,143.85785829997621,143.85785829997621,4,1,[0.001236200041603297],[0.3169842000352219],143.85785829997621,144.05794039997272,0.0,144.05794039997272,1,0.0,0,0,1000,num_4,0.9451701000216417,,23,7,2026-03-04_13h51.39.695,2026A_exp2,2022.2.4,59.929223578255225,
1,0,6.1,6.1,1,0,34,34,49,,,,,145.02552780002588,145.67614910000702,145.67614910000702,146.1772371000261,315,45,146.1772371000261,146.1772371000261,146.1772371000261,146.1772371000261,146.1772371000261,146.1772371000261,146.1772371000261,146.1772371000261,146.1772371000261,146.54385499999626,146.54385499999626,146.54385499999626,146.54385499999626,146.54385499999626,146.54385499999626,146.54385499999626,146.54385499999626,146.54385499999626,0,1,[0.0013218999956734478],[0.36827310000080615],146.54385499999626,146.74663920002058,6.1,146.74663920002058,1,6.1,1,1,1000,num_4,0.7526659999857657,,23,7,2026-03-04_13h51.39.695,2026A_exp2,2022.2.4,59.929223578255225,
1000,1,3.7,6.1,1,0,35,35,43,,,,,147.52804499998456,148.17878239997663,148.17878239997663,148.66323750000447,315,45,148.66323750000447,148.66323750000447,148.66323750000447,148.66323750000447,148.66323750000447,148.66323750000447,148.66323750000447,148.66323750000447,148.66323750000447,149.02964490000159,149.02964490000159,149.02964490000159,149.02964490000159,149.02964490000159,149.02964490000159,149.02964490000159,149.02964490000159,149.02964490000159,0,1,[0.001225499960128218],[0.36711409996496513],149.02964490000159,149.23164020001423,1000,149.23164020001423,1000,1000,1000,1000,1,num_2,0.475350399967283,,23,7,2026-03-04_13h51.39.695,2026A_exp2,2022.2.4,59.929223578255225,
1000,1,3.7,0.0,1,0,36,36,78,,,,,149.73025730001973,150.38088750001043,150.38088750001043,150.89526140003,315,45,150.89526140003,150.89526140003,150.89526140003,150.89526140003,150.89526140003,150.89526140003,150.89526140003,150.89526140003,150.89526140003,151.2484757999773,151.2484757999773,151.2484757999773,151.2484757999773,151.2484757999773,151.2484757999773,151.2484757999773,151.2484757999773,151.2484757999773,23,0,,,151.2484757999773,151.46270680002635,1000,151.46270680002635,1000,1000,1000,1000,0,num_3,0.5484313000342809,,23,7,2026-03-04_13h51.39.695,2026A_exp2,2022.2.4,59.929223578255225,
1,0,0.0,0.0,1,0,37,37,59,,,,,152.0325532000279,152.68316469999263,152.68316469999263,153.18442519998644,315,45,153.18442519998644,153.18442519998644,153.18442519998644,153.18442519998644,153.18442519998644,153.18442519998644,153.18442519998644,153.18442519998644,153.18442519998644,153.53413290000753,153.53413290000753,153.53413290000753,153.53413290000753,153.53413290000753,153.53413290000753,153.53413290000753,153.53413290000753,153.53413290000753,0,1,[0.0012231000000610948],[0.3505507000372745],153.53413290000753,153.7343763000099,0.0,153.75105469999835,1,0.0,0,0,1000,num_4,0.7717060999711975,,23,7,2026-03-04_13h51.39.695,2026A_exp2,2022.2.4,59.929223578255225,
1,0,3.7,0.0,0,0,38,38,3,,,,,154.55177229997935,155.18577570002526,155.18577570002526,155.68676870001946,315,315,155.68676870001946,155.68676870001946,155.68676870001946,155.68676870001946,155.68676870001946,155.68676870001946,155.68676870001946,155.68676870001946,155.68676870001946,156.05335290002404,156.05335290002404,156.05335290002404,156.05335290002404,156.05335290002404,156.05335290002404,156.05335290002404,156.05335290002404,156.05335290002404,6,2,"[0.0012039000284858048, 0.3503612999920733]","[0.25039170001400635, 0.3671413999982178]",156.05335290002404,156.25343839998823,3.7,156.25343839998823,1,3.7,1,1,1000,num_4,1.717881899967324,,23,7,2026-03-04_13h51.39.695,2026A_exp2,2022.2.4,59.929223578255225,
1000,1,0.0,0.0,1,0,39,39,63,,,,,157.98841150000226,158.63923349999823,158.63923349999823,159.12357759999577,45,45,159.12357759999577,159.12357759999577,159.12357759999577,159.12357759999577,159.12357759999577,159.12357759999577,159.12357759999577,159.12357759999577,159.12357759999577,159.49004840000998,159.49004840000998,159.49004840000998,159.49004840000998,159.49004840000998,159.49004840000998,159.49004840000998,159.49004840000998,159.49004840000998,23,0,,,159.49004840000998,159.6922347000218,1000,159.6922347000218,1000,1000,1000,1000,1,num_2,0.6076860999455675,,23,7,2026-03-04_13h51.39.695,2026A_exp2,2022.2.4,59.929223578255225,
1000,1,0.0,3.7,1,0,40,40,1,,,,,160.3242080999771,160.97477740002796,160.97477740002796,161.47599629999604,45,45,161.47599629999604,161.47599629999604,161.47599629999604,161.47599629999604,161.47599629999604,161.47599629999604,161.47599629999604,161.47599629999604,161.47599629999604,161.84243219997734,161.84243219997734,161.84243219997734,161.84243219997734,161.84243219997734,161.84243219997734,161.84243219997734,161.84243219997734,161.84243219997734,5,4,"[0.0012089000083506107, 0.083381200034637, 0.20026350003900006, 0.28359579999232665]","[0.06671829998958856, 0.18344059999799356, 0.2667757000308484, 0.3670628999825567]",161.84243219997734,162.04284030001145,1000,162.04284030001145,1000,1000,1000,1000,1,num_2,0.4886926999897696,,23,7,2026-03-04_13h51.39.695,2026A_exp2,2022.2.4,59.929223578255225,
1,0,4.9,6.1,0,0,41,41,29,,,,,162.5597953000106,163.21045840001898,163.21045840001898,163.71148639998864,315,45,163.71148639998864,163.71148639998864,163.71148639998864,163.71148639998864,163.71148639998864,163.71148639998864,163.71148639998864,163.71148639998864,163.71148639998864,164.0778385999729,164.0778385999729,164.0778385999729,164.0778385999729,164.0778385999729,164.0778385999729,164.0778385999729,164.0778385999729,164.0778385999729,23,0,,,164.0778385999729,164.2781942000147,4.9,164.2781942000147,0,4.9,1,0,1000,num_1,0.7973164999857545,,23,7,2026-03-04_13h51.39.695,2026A_exp2,2022.2.4,59.929223578255225,
1000,1,4.9,0.0,0,0,42,42,37,,,,,165.09554670000216,165.74641110002995,165.74641110002995,166.2306072000065,45,45,166.2306072000065,166.2306072000065,166.2306072000065,166.2306072000065,166.2306072000065,166.2306072000065,166.2306072000065,166.2306072000065,166.2306072000065,166.5971978000016,166.5971978000016,166.5971978000016,166.5971978000016,166.5971978000016,166.5971978000016,166.5971978000016,166.5971978000016,166.5971978000016,0,1,[0.0012746000429615378],[0.3673133000265807],166.5971978000016,166.79945290001342,1000,166.79945290001342,1000,1000,1000,1000,0,num_3,0.42808829998830333,,23,7,2026-03-04_13h51.39.695,2026A_exp2,2022.2.4,59.929223578255225,
1000,1,0.0,3.7,1,0,43,43,82,,,,,167.24776260001818,167.8983435999835,167.8983435999835,168.39964219997637,315,45,168.39964219997637,168.39964219997637,168.39964219997637,168.39964219997637,168.39964219997637,168.39964219997637,168.39964219997637,168.39964219997637,168.39964219997637,168.76580360002117,168.76580360002117,168.76580360002117,168.76580360002117,168.76580360002117,168.76580360002117,168.76580360002117,168.76580360002117,168.76580360002117,0,1,[0.0012394000077620149],[0.3672608000342734],168.76580360002117,168.96836649999022,1000,168.96836649999022,1000,1000,1000,1000,1,num_2,0.9944847999722697,,23,7,2026-03-04_13h51.39.695,2026A_exp2,2022.2.4,59.929223578255225,
1,0,4.9,6.1,1,0,44,44,36,,,,,169.98400799999945,170.63449199998286,170.63449199998286,171.13556830002926,45,315,171.13556830002926,171.13556830002926,171.13556830002926,171.13556830002926,171.13556830002926,171.13556830002926,171.13556830002926,171.13556830002926,171.13556830002926,171.5021117000142,171.5021117000142,171.5021117000142,171.5021117000142,171.5021117000142,171.5021117000142,171.5021117000142,171.5021117000142,171.5021117000142,14,2,"[0.0008769999840296805, 0.05345070001203567]","[0.01748159999260679, 0.18601900001522154]",171.5021117000142,171.71364889998222,6.1,171.71364889998222,1,6.1,1,1,1000,num_4,0.6018100999644957,,23,7,2026-03-04_13h51.39.695,2026A_exp2,2022.2.4,59.929223578255225,
1000,1,6.1,4.9,1,0,45,45,86,,,,,172.33617050002795,172.98696030001156,172.98696030001156,173.47129620000487,45,45,173.47129620000487,173.47129620000487,173.47129620000487,173.47129620000487,173.47129620000487,173.47129620000487,173.47129620000487,173.47129620000487,173.47129620000487,173.8376468999777,173.8376468999777,173.8376468999777,173.8376468999777,173.8376468999777,173.8376468999777,173.8376468999777,173.8376468999777,173.8376468999777,21,1,[0.03368090000003576],[0.06709099997533485],173.8376468999777,174.04044970002724,1000,174.04044970002724,1000,1000,1000,1000,0,num_3,0.4344929000362754,,23,7,2026-03-04_13h51.39.695,2026A_exp2,2022.2.4,59.929223578255225,
1000,1,3.7,4.9,0,0,46,46,25,,,,,174.5050114999758,175.15573559998302,175.15573559998302,175.6568509999779,45,315,175.6568509999779,175.6568509999779,175.6568509999779,175.6568509999779,175.6568509999779,175.6568509999779,175.6568509999779,175.6568509999779,175.6568509999779,176.0231790000107,176.0231790000107,176.0231790000107,176.0231790000107,176.0231790000107,176.0231790000107,176.0231790000107,176.0231790000107,176.0231790000107,0,1,[0.0012036999687552452],[0.36728389997733757],176.0231790000107,176.22509830002673,1000,176.22509830002673,1000,1000,1000,1000,1,num_2,0.3617021000245586,,23,7,2026-03-04_13h51.39.695,2026A_exp2,2022.2.4,59.929223578255225,
1,0,4.9,4.9,0,0,47,47,28,,,,,176.60730610002065,177.25794400001178,177.25794400001178,177.75883559999056,45,45,177.75883559999056,177.75883559999056,177.75883559999056,177.75883559999056,177.75883559999056,177.75883559999056,177.75883559999056,177.75883559999056,177.75883559999056,178.12539280002238,178.12539280002238,178.12539280002238,178.12539280002238,178.12539280002238,178.12539280002238,178.12539280002238,178.12539280002238,178.12539280002238,2,2,"[0.0012401000130921602, 0.11684929998591542]","[0.08339590003015473, 0.3671057000174187]",178.12539280002238,178.32570340001257,4.9,178.32570340001257,1,4.9,1,1,1000,num_4,0.5264318999834359,,23,7,2026-03-04_13h51.39.695,2026A_exp2,2022.2.4,59.929223578255225,
1000,1,4.9,0.0,1,0,48,48,74,,,,,178.87608170002932,179.526749200013,179.526749200013,180.01126220001606,315,45,180.01126220001606,180.01126220001606,180.01126220001606,180.01126220001606,180.01126220001606,180.01126220001606,180.01126220001606,180.01126220001606,180.01126220001606,180.3776117999805,180.3776117999805,180.3776117999805,180.3776117999805,180.3776117999805,180.3776117999805,180.3776117999805,180.3776117999805,180.3776117999805,0,1,[0.0012043999740853906],[0.3668894000002183],180.3776117999805,180.5799692000146,1000,180.5799692000146,1000,1000,1000,1000,0,num_3,0.5831784999463707,,23,7,2026-03-04_13h51.39.695,2026A_exp2,2022.2.4,59.929223578255225,
1,0,6.1,0.0,1,0,49,49,17,,,,,181.1784947999986,181.8290528000216,181.8290528000216,182.33018699998502,45,45,182.33018699998502,182.33018699998502,182.33018699998502,182.33018699998502,182.33018699998502,182.33018699998502,182.33018699998502,182.33018699998502,182.33018699998502,182.696570399974,182.696570399974,182.696570399974,182.696570399974,182.696570399974,182.696570399974,182.696570399974,182.696570399974,182.696570399974,1,1,[0.01719380001304671],[0.36699020001105964],182.696570399974,182.8968465999933,0.0,182.8968465999933,0,0.0,0,1,1000,num_1,0.7867534999968484,,23,7,2026-03-04_13h51.39.695,2026A_exp2,2022.2.4,59.929223578255225,
1000,1,6.1,0.0,0,0,50,50,69,,,,,183.7142056999728,184.3645894000074,184.3645894000074,184.84937529999297,315,315,184.84937529999297,184.84937529999297,184.84937529999297,184.84937529999297,184.84937529999297,184.84937529999297,184.84937529999297,184.84937529999297,184.84937529999297,185.21581259998493,185.21581259998493,185.21581259998493,185.21581259998493,185.21581259998493,185.21581259998493,185.21581259998493,185.21581259998493,185.21581259998493,23,0,,,185.21581259998493,185.41805159999058,1000,185.41805159999058,1000,1000,1000,1000,0,num_3,0.7778879000106826,,23,7,2026-03-04_13h51.39.695,2026A_exp2,2022.2.4,59.929223578255225,
1,0,0.0,0.0,0,0,51,51,6,,,,,186.2167528999853,186.86747639998794,186.86747639998794,187.36846939998213,315,45,187.36846939998213,187.36846939998213,187.36846939998213,187.36846939998213,187.36846939998213,187.36846939998213,187.36846939998213,187.36846939998213,187.36846939998213,187.73498830001336,187.73498830001336,187.73498830001336,187.73498830001336,187.73498830001336,187.73498830001336,187.73498830001336,187.73498830001336,187.73498830001336,23,0,,,187.73498830001336,187.9352653999813,0.0,187.9352653999813,0,0.0,0,1,1000,num_1,2.4288469000020996,,23,7,2026-03-04_13h51.39.695,2026A_exp2,2022.2.4,59.929223578255225,
1,0,0.0,0.0,0,0,52,52,22,,,,,190.38747170002898,191.03828029998112,191.03828029998112,191.53648459998658,45,45,191.53648459998658,191.53648459998658,191.53648459998658,191.53648459998658,191.53648459998658,191.53648459998658,191.53648459998658,191.53648459998658,191.53648459998658,191.8891575000016,191.8891575000016,191.8891575000016,191.8891575000016,191.8891575000016,191.8891575000016,191.8891575000016,191.8891575000016,191.8891575000016,23,0,,,191.8891575000016,192.0893689999939,0.0,192.0893689999939,0,0.0,0,1,1000,num_1,0.7781702000065707,,23,7,2026-03-04_13h51.39.695,2026A_exp2,2022.2.4,59.929223578255225,
1000,1,0.0,3.7,1,0,53,53,67,,,,,192.89049349998822,193.54080130002694,193.54080130002694,194.0303234999883,315,315,194.0303234999883,194.0303234999883,194.0303234999883,194.0303234999883,194.0303234999883,194.0303234999883,194.0303234999883,194.0303234999883,194.0303234999883,194.39177540002856,194.39177540002856,194.39177540002856,194.39177540002856,194.39177540002856,194.39177540002856,194.39177540002856,194.39177540002856,194.39177540002856,23,0,,,194.39177540002856,194.59181720000925,1000,194.59181720000925,1000,1000,1000,1000,1,num_2,0.8111144999857061,,23,7,2026-03-04_13h51.39.695,2026A_exp2,2022.2.4,59.929223578255225,
1000,1,6.1,0.0,0,0,54,54,21,,,,,195.42593839997426,196.0766341999988,196.0766341999988,196.5775492999819,45,45,196.5775492999819,196.5775492999819,196.5775492999819,196.5775492999819,196.5775492999819,196.5775492999819,196.5775492999819,196.5775492999819,196.5775492999819,196.944135800004,196.944135800004,196.944135800004,196.944135800004,196.944135800004,196.944135800004,196.944135800004,196.944135800004,196.944135800004,0,1,[0.0012146999943070114],[0.36757599998963997],196.944135800004,197.14617810002528,1000,197.14617810002528,1000,1000,1000,1000,0,num_3,0.537656300002709,,23,7,2026-03-04_13h51.39.695,2026A_exp2,2022.2.4,59.929223578255225,
1,0,3.7,3.7,0,0,55,55,60,,,,,197.71161890000803,198.3623021999956,198.3623021999956,198.84663189999992,45,45,198.84663189999992,198.84663189999992,198.84663189999992,198.84663189999992,198.84663189999992,198.84663189999992,198.84663189999992,198.84663189999992,198.84663189999992,199.2130468999967,199.2130468999967,199.2130468999967,199.2130468999967,199.2130468999967,199.2130468999967,199.2130468999967,199.2130468999967,199.2130468999967,0,1,[0.0012482000165618956],[0.3670861999853514],199.2130468999967,199.41335250000702,3.7,199.41335250000702,1,3.7,1,1,1000,num_4,0.7105499999597669,,23,7,2026-03-04_13h51.39.695,2026A_exp2,2022.2.4,59.929223578255225,
1000,1,0.0,0.0,0,0,56,56,24,,,,,200.14729819999775,200.79801919998135,200.79801919998135,201.2825562999933,315,315,201.2825562999933,201.2825562999933,201.2825562999933,201.2825562999933,201.2825562999933,201.2825562999933,201.2825562999933,201.2825562999933,201.2825562999933,201.64878579997458,201.64878579997458,201.64878579997458,201.64878579997458,201.64878579997458,201.64878579997458,201.64878579997458,201.64878579997458,201.64878579997458,0,1,[0.0012886999757029116],[0.3669839999638498],201.64878579997458,201.85116730001755,1000,201.85116730001755,1000,1000,1000,1000,1,num_2,1.2162133999518119,,23,7,2026-03-04_13h51.39.695,2026A_exp2,2022.2.4,59.929223578255225,
1,0,0.0,0.0,0,0,57,57,39,,,,,203.08360010001343,203.73434249998536,203.73434249998536,204.23528969998006,45,315,204.23528969998006,204.23528969998006,204.23528969998006,204.23528969998006,204.23528969998006,204.23528969998006,204.23528969998006,204.23528969998006,204.23528969998006,204.60189119999995,204.60189119999995,204.60189119999995,204.60189119999995,204.60189119999995,204.60189119999995,204.60189119999995,204.60189119999995,204.60189119999995,2,1,[0.03373790002660826],[0.3670964000048116],204.60189119999995,204.80199100001482,0.0,204.80199100001482,1,0.0,0,0,1000,num_4,0.9851357999723405,,23,7,2026-03-04_13h51.39.695,2026A_exp2,2022.2.4,59.929223578255225,
1,0,0.0,0.0,0,0,58,58,32,,,,,205.80299870000454,206.45355480001308,206.45355480001308,206.95467309997184,45,45,206.95467309997184,206.95467309997184,206.95467309997184,206.95467309997184,206.95467309997184,206.95467309997184,206.95467309997184,206.95467309997184,206.95467309997184,207.30460380000295,207.30460380000295,207.30460380000295,207.30460380000295,207.30460380000295,207.30460380000295,207.30460380000295,207.30460380000295,207.30460380000295,0,1,[0.0012123000342398882],[0.35031450004316866],207.30460380000295,207.5049339000252,0.0,207.5049339000252,1,0.0,0,0,1000,num_4,1.7062203999958,,23,7,2026-03-04_13h51.39.695,2026A_exp2,2022.2.4,59.929223578255225,
1,0,0.0,4.9,1,0,59,59,41,,,,,209.23980189999565,209.87389889999758,209.87389889999758,210.37478750001173,315,45,210.37478750001173,210.37478750001173,210.37478750001173,210.37478750001173,210.37478750001173,210.37478750001173,210.37478750001173,210.37478750001173,210.37478750001173,210.74135610001395,210.74135610001395,210.74135610001395,210.74135610001395,210.74135610001395,210.74135610001395,210.74135610001395,210.74135610001395,210.74135610001395,7,3,"[0.0012476000119931996, 0.10024349996820092, 0.16681809996953234]","[0.06692670000484213, 0.13321980001637712, 0.33374500001082197]",210.74135610001395,210.9414721999783,4.9,210.9414721999783,1,4.9,1,1,1000,num_4,1.0855743999709375,,23,7,2026-03-04_13h51.39.695,2026A_exp2,2022.2.4,59.929223578255225,
1,0,6.1,0.0,0,0,60,60,77,,,,,212.05939589999616,212.70994899998186,212.70994899998186,213.19440089998534,45,45,213.19440089998534,213.19440089998534,213.19440089998534,213.19440089998534,213.19440089998534,213.19440089998534,213.19440089998534,213.19440089998534,213.19440089998534,213.56080969999311,213.56080969999311,213.56080969999311,213.56080969999311,213.56080969999311,213.56080969999311,213.56080969999311,213.56080969999311,213.56080969999311,14,2,"[0.15028880001045763, 0.2669898000312969]","[0.2002193999942392, 0.36720390000846237]",213.56080969999311,213.76107429998228,6.1,213.76107429998228,1,6.1,1,1,1000,num_4,0.5628037999849766,,23,7,2026-03-04_13h51.39.695,2026A_exp2,2022.2.4,59.929223578255225,
1000,1,4.9,0.0,0,0,61,61,12,,,,,214.34481739997864,214.99547939997865,214.99547939997865,215.47991759999422,315,45,215.47991759999422,215.47991759999422,215.47991759999422,215.47991759999422,215.47991759999422,215.47991759999422,215.47991759999422,215.47991759999422,215.47991759999422,215.84640079998644,215.84640079998644,215.84640079998644,215.84640079998644,215.84640079998644,215.84640079998644,215.84640079998644,215.84640079998644,215.84640079998644,23,0,,,215.84640079998644,216.04671259998577,1000,216.04671259998577,1000,1000,1000,1000,0,num_3,0.8130738999461755,,23,7,2026-03-04_13h51.39.695,2026A_exp2,2022.2.4,59.929223578255225,
1000,1,3.7,0.0,1,0,62,62,19,,,,,216.88060879998375,217.53139939997345,217.53139939997345,218.03257610002765,315,315,218.03257610002765,218.03257610002765,218.03257610002765,218.03257610002765,218.03257610002765,218.03257610002765,218.03257610002765,218.03257610002765,218.03257610002765,218.3991155999829,218.3991155999829,218.3991155999829,218.3991155999829,218.3991155999829,218.3991155999829,218.3991155999829,218.3991155999829,218.3991155999829,2,3,"[0.0012122000334784389, 0.15032090002205223, 0.30045460001565516]","[0.13371740002185106, 0.2838212000206113, 0.3672413000022061]",218.3991155999829,218.6011112999986,1000,218.6011112999986,1000,1000,1000,1000,1,num_2,0.8506947999703698,,23,7,2026-03-04_13h51.39.695,2026A_exp2,2022.2.4,59.929223578255225,
0,0,0.0,4.9,1,0,63,63,33,,,,,219.4711030999897,220.11938250000821,220.11938250000821,220.61853660002816,315,45,220.61853660002816,220.61853660002816,220.61853660002816,220.61853660002816,220.61853660002816,220.61853660002816,220.61853660002816,220.61853660002816,220.61853660002816,220.98477999999886,220.98477999999886,220.98477999999886,220.98477999999886,220.98477999999886,220.98477999999886,220.98477999999886,220.98477999999886,220.98477999999886,20,2,"[0.0014782000216655433, 0.36697080003796145]","[0.033535499998833984, 0.36697560001630336]",220.98477999999886,221.1851812999812,0.0,221.1851812999812,1,0.0,0,0,1000,num_4,1.8660785999963991,,23,7,2026-03-04_13h51.39.695,2026A_exp2,2022.2.4,59.929223578255225,
1,0,3.7,0.0,0,0,64,64,7,,,,,223.07029060000787,223.72103010001592,223.72103010001592,224.20540510001592,315,45,224.20540510001592,224.20540510001592,224.20540510001592,224.20540510001592,224.20540510001592,224.20540510001592,224.20540510001592,224.20540510001592,224.20540510001592,224.57182429998647,224.57182429998647,224.57182429998647,224.57182429998647,224.57182429998647,224.57182429998647,224.57182429998647,224.57182429998647,224.57182429998647,23,0,,,224.57182429998647,224.77193980000447,3.7,224.77193980000447,1,3.7,1,1,1000,num_4,0.576039299950935,,23,7,2026-03-04_13h51.39.695,2026A_exp2,2022.2.4,59.929223578255225,
1000,1,0.0,6.1,0,0,65,65,27,,,,,225.372440200008,226.0232692999998,226.0232692999998,226.50758899998618,45,45,226.50758899998618,226.50758899998618,226.50758899998618,226.50758899998618,226.50758899998618,226.50758899998618,226.50758899998618,226.50758899998618,226.50758899998618,226.87419389997376,226.87419389997376,226.87419389997376,226.87419389997376,226.87419389997376,226.87419389997376,226.87419389997376,226.87419389997376,226.87419389997376,2,2,"[0.0012058999855071306, 0.050326199969276786]","[0.017322500003501773, 0.3673584000207484]",226.87419389997376,227.0757649000152,1000,227.0757649000152,1000,1000,1000,1000,1,num_2,0.6236174000077881,,23,7,2026-03-04_13h51.39.695,2026A_exp2,2022.2.4,59.929223578255225,
1000,1,0.0,0.0,1,0,66,66,88,,,,,227.72495419997722,228.3756533000269,228.3756533000269,228.87675280001713,315,315,228.87675280001713,228.87675280001713,228.87675280001713,228.87675280001713,228.87675280001713,228.87675280001713,228.87675280001713,228.87675280001713,228.87675280001713,229.2265801000176,229.2265801000176,229.2265801000176,229.2265801000176,229.2265801000176,229.2265801000176,229.2265801000176,229.2265801000176,229.2265801000176,0,1,[0.0012996000004932284],[0.3505864000180736],229.2265801000176,229.4287196000223,1000,229.4433120000176,1000,1000,1000,1000,1,num_2,0.7512306999997236,,23,7,2026-03-04_13h51.39.695,2026A_exp2,2022.2.4,59.929223578255225,
1,0,0.0,0.0,1,0,67,67,20,,,,,230.2107987999916,230.86358659999678,230.86358659999678,231.36224599997513,45,45,231.36224599997513,231.36224599997513,231.36224599997513,231.36224599997513,231.36224599997513,231.36224599997513,231.36224599997513,231.36224599997513,231.36224599997513,231.7123480999726,231.7123480999726,231.7123480999726,231.7123480999726,231.7123480999726,231.7123480999726,231.7123480999726,231.7123480999726,231.7123480999726,20,1,[0.333604599989485],[0.3503748999792151],231.7123480999726,231.91256229998544,0.0,231.91256229998544,1,0.0,0,0,1000,num_4,0.5700654999818653,,23,7,2026-03-04_13h51.39.695,2026A_exp2,2022.2.4,59.929223578255225,
1,0,4.9,0.0,0,0,68,68,47,,,,,232.51301840000087,233.1469330000109,233.1469330000109,233.6482388000004,315,315,233.6482388000004,233.6482388000004,233.6482388000004,233.6482388000004,233.6482388000004,233.6482388000004,233.6482388000004,233.6482388000004,233.6482388000004,234.01446859998396,234.01446859998396,234.01446859998396,234.01446859998396,234.01446859998396,234.01446859998396,234.01446859998396,234.01446859998396,234.01446859998396,1,2,"[0.0012305999989621341, 0.3339124000049196]","[0.3170508000184782, 0.3670991000253707]",234.01446859998396,234.21466709999368,4.9,234.21466709999368,0,4.9,1,0,1000,num_1,0.9088088999851607,,23,7,2026-03-04_13h51.39.695,2026A_exp2,2022.2.4,59.929223578255225,
1,0,0.0,0.0,0,0,69,69,61,,,,,235.14898489997722,235.7997443000204,235.7997443000204,236.2839439000236,45,45,236.2839439000236,236.2839439000236,236.2839439000236,236.2839439000236,236.2839439000236,236.2839439000236,236.2839439000236,236.2839439000236,236.2839439000236,236.65052760002436,236.65052760002436,236.65052760002436,236.65052760002436,236.65052760002436,236.65052760002436,236.65052760002436,236.65052760002436,236.65052760002436,0,1,[0.0012546000070869923],[0.3671567999990657],236.65052760002436,236.8507792999735,0.0,236.8507792999735,1,0.0,0,0,1000,num_4,1.7678393999813125,,23,7,2026-03-04_13h51.39.695,2026A_exp2,2022.2.4,59.929223578255225,
1,0,3.7,0.0,0,0,70,70,10,,,,,238.63574870000593,239.2864555999986,239.2864555999986,239.7709936000174,315,315,239.7709936000174,239.7709936000174,239.7709936000174,239.7709936000174,239.7709936000174,239.7709936000174,239.7709936000174,239.7709936000174,239.7709936000174,240.13721979997354,240.13721979997354,240.13721979997354,240.13721979997354,240.13721979997354,240.13721979997354,240.13721979997354,240.13721979997354,240.13721979997354,23,0,,,240.13721979997354,240.3374652999919,3.7,240.3374652999919,1,3.7,1,1,1000,num_4,0.8341035000048578,,23,7,2026-03-04_13h51.39.695,2026A_exp2,2022.2.4,59.929223578255225,
1,0,6.1,6.1,0,0,71,71,89,,,,,241.18849949998548,241.84943090000888,241.84943090000888,242.32356529997196,45,315,242.32356529997196,242.32356529997196,242.32356529997196,242.32356529997196,242.32356529997196,242.32356529997196,242.32356529997196,242.32356529997196,242.32356529997196,242.68995939998422,242.68995939998422,242.68995939998422,242.68995939998422,242.68995939998422,242.68995939998422,242.68995939998422,242.68995939998422,242.68995939998422,23,0,,,242.68995939998422,242.89017989998683,6.1,242.89017989998683,1,6.1,1,1,1000,num_4,0.6574076000251807,,23,7,2026-03-04_13h51.39.695,2026A_exp2,2022.2.4,59.929223578255225,
0,0,4.9,0.0,1,0,72,72,26,,,,,243.57417440001154,244.22484179999446,244.22484179999446,244.70943930000067,315,45,244.70943930000067,244.70943930000067,244.70943930000067,244.70943930000067,244.70943930000067,244.70943930000067,244.70943930000067,244.70943930000067,244.70943930000067,245.0755892000161,245.0755892000161,245.0755892000161,245.0755892000161,245.0755892000161,245.0755892000161,245.0755892000161,245.0755892000161,245.0755892000161,23,0,,,245.0755892000161,245.27583439997397,4.9,245.27583439997397,1,4.9,1,1,1000,num_4,0.9361324000055902,,23,7,2026-03-04_13h51.39.695,2026A_exp2,2022.2.4,59.929223578255225,
1,0,0.0,0.0,1,0,73,73,66,,,,,246.24333949998254,246.89411639998434,246.89411639998434,247.37860619998537,45,315,247.37860619998537,247.37860619998537,247.37860619998537,247.37860619998537,247.37860619998537,247.37860619998537,247.37860619998537,247.37860619998537,247.37860619998537,247.74484370002756,247.74484370002756,247.74484370002756,247.74484370002756,247.74484370002756,247.74484370002756,247.74484370002756,247.74484370002756,247.74484370002756,22,1,[0.0012040999718010426],[0.01747560000512749],247.74484370002756,247.95872679998865,0.0,247.95872679998865,1,0.0,0,0,1000,num_4,1.0770073999883607,,23,7,2026-03-04_13h51.39.695,2026A_exp2,2022.2.4,59.929223578255225,
1,0,6.1,0.0,0,0,74,74,51,,,,,249.06266029999824,249.71361670002807,249.71361670002807,250.21465839998564,315,45,250.21465839998564,250.21465839998564,250.21465839998564,250.21465839998564,250.21465839998564,250.21465839998564,250.21465839998564,250.21465839998564,250.21465839998564,250.5643850999768,250.5643850999768,250.5643850999768,250.5643850999768,250.5643850999768,250.5643850999768,250.5643850999768,250.5643850999768,250.5643850999768,13,7,"[0.001243300037458539, 0.15030330000445247, 0.20035330002428964, 0.23353480000514537, 0.2670077999937348, 0.3004287999938242, 0.3504429000313394]","[0.01701930002309382, 0.18372490000911057, 0.21706260001519695, 0.2503479000297375, 0.28371940000215545, 0.33388160000322387, 0.3504473000066355]",250.5643850999768,250.76477319997502,6.1,250.76477319997502,1,6.1,1,1,1000,num_4,0.8545205999980681,,23,7,2026-03-04_13h51.39.695,2026A_exp2,2022.2.4,59.929223578255225,
1,0,0.0,3.7,0,0,75,75,76,,,,,251.64895489998162,252.28287960001035,252.28287960001035,252.7838687999756,315,45,252.7838687999756,252.7838687999756,252.7838687999756,252.7838687999756,252.7838687999756,252.7838687999756,252.7838687999756,252.7838687999756,252.7838687999756,253.15043610002613,253.15043610002613,253.15043610002613,253.15043610002613,253.15043610002613,253.15043610002613,253.15043610002613,253.15043610002613,253.15043610002613,23,0,,,253.15043610002613,253.35053890000563,0.0,253.35053890000563,0,0.0,0,1,1000,num_1,1.8613312000525184,,23,7,2026-03-04_13h51.39.695,2026A_exp2,2022.2.4,59.929223578255225,
1000,1,0.0,0.0,1,0,76,76,68,,,,,255.23574199998984,255.88652409997303,255.88652409997303,256.3707220000215,315,315,256.3707220000215,256.3707220000215,256.3707220000215,256.3707220000215,256.3707220000215,256.3707220000215,256.3707220000215,256.3707220000215,256.3707220000215,256.737315699982,256.737315699982,256.737315699982,256.737315699982,256.737315699982,256.737315699982,256.737315699982,256.737315699982,256.737315699982,0,1,[0.0016539000207558274],[0.3666592999943532],256.737315699982,256.93928330001654,1000,256.93928330001654,1000,1000,1000,1000,1,num_2,0.5363047000137158,,23,7,2026-03-04_13h51.39.695,2026A_exp2,2022.2.4,59.929223578255225,
1,0,4.9,3.7,1,0,77,77,71,,,,,257.5044966000132,258.15516869997373,258.15516869997373,258.6398336000275,315,315,258.6398336000275,258.6398336000275,258.6398336000275,258.6398336000275,258.6398336000275,258.6398336000275,258.6398336000275,258.6398336000275,258.6398336000275,259.00630529999034,259.00630529999034,259.00630529999034,259.00630529999034,259.00630529999034,259.00630529999034,259.00630529999034,259.00630529999034,259.00630529999034,20,1,[0.0011631000088527799],[0.049929600034374744],259.00630529999034,259.2064881999977,3.7,259.2064881999977,1,3.7,1,1,1000,num_4,0.7321919999667443,,23,7,2026-03-04_13h51.39.695,2026A_exp2,2022.2.4,59.929223578255225,
1000,1,4.9,0.0,1,0,78,78,56,,,,,259.95700059999945,260.6077186000184,260.6077186000184,261.09219360002317,45,45,261.09219360002317,261.09219360002317,261.09219360002317,261.09219360002317,261.09219360002317,261.09219360002317,261.09219360002317,261.09219360002317,261.09219360002317,261.4588722999906,261.4588722999906,261.4588722999906,261.4588722999906,261.4588722999906,261.4588722999906,261.4588722999906,261.4588722999906,261.4588722999906,23,0,,,261.4588722999906,261.6587654000032,1000,261.6587654000032,1000,1000,1000,1000,0,num_3,0.632694799976889,,23,7,2026-03-04_13h51.39.695,2026A_exp2,2022.2.4,59.929223578255225,
1,0,0.0,0.0,1,0,79,79,58,,,,,262.3096744000213,262.9602046000073,262.9602046000073,263.46122300002025,315,45,263.46122300002025,263.46122300002025,263.46122300002025,263.46122300002025,263.46122300002025,263.46122300002025,263.46122300002025,263.46122300002025,263.46122300002025,263.810913000023,263.810913000023,263.810913000023,263.810913000023,263.810913000023,263.810913000023,263.810913000023,263.810913000023,263.810913000023,22,0,,,263.810913000023,264.011338500015,0.0,264.011338500015,0,0.0,0,1,1000,num_1,0.8235046000336297,,23,7,2026-03-04_13h51.39.695,2026A_exp2,2022.2.4,59.929223578255225,
1,0,0.0,3.7,0,0,80,80,64,,,,,264.8623097999953,265.51268520002486,265.51268520002486,265.99707570002647,315,45,265.99707570002647,265.99707570002647,265.99707570002647,265.99707570002647,265.99707570002647,265.99707570002647,265.99707570002647,265.99707570002647,265.99707570002647,266.36365010001464,266.36365010001464,266.36365010001464,266.36365010001464,266.36365010001464,266.36365010001464,266.36365010001464,266.36365010001464,266.36365010001464,0,1,[0.0012773999478667974],[0.36694459995487705],266.36365010001464,266.56387499999255,0.0,266.56387499999255,1,0.0,0,0,1000,num_4,0.7760145999491215,,23,7,2026-03-04_13h51.39.695,2026A_exp2,2022.2.4,59.929223578255225,
0,0,3.7,3.7,1,0,81,81,62,,,,,267.36450460000196,268.01550540002063,268.01550540002063,268.4994177999906,45,45,268.4994177999906,268.4994177999906,268.4994177999906,268.4994177999906,268.4994177999906,268.4994177999906,268.4994177999906,268.4994177999906,268.4994177999906,268.8661535999854,268.8661535999854,268.8661535999854,268.8661535999854,268.8661535999854,268.8661535999854,268.8661535999854,268.8661535999854,268.8661535999854,23,0,,,268.8661535999854,269.06615720002446,3.7,269.06615720002446,1,3.7,1,1,1000,num_4,0.5453119000303559,,23,7,2026-03-04_13h51.39.695,2026A_exp2,2022.2.4,59.929223578255225,
1000,1,0.0,4.9,1,0,82,82,72,,,,,269.633441700018,270.28418329998385,270.28418329998385,270.76854429999366,315,45,270.76854429999366,270.76854429999366,270.76854429999366,270.76854429999366,270.76854429999366,270.76854429999366,270.76854429999366,270.76854429999366,270.76854429999366,271.13504389999434,271.13504389999434,271.13504389999434,271.13504389999434,271.13504389999434,271.13504389999434,271.13504389999434,271.13504389999434,271.13504389999434,19,1,[0.31708899996010587],[0.36710469995159656],271.13504389999434,271.33730110002216,1000,271.33730110002216,1000,1000,1000,1000,1,num_2,0.6256812999490649,,23,7,2026-03-04_13h51.39.695,2026A_exp2,2022.2.4,59.929223578255225,
0,0,0.0,6.1,1,0,83,83,46,,,,,271.9859504000051,272.63646529999096,272.63646529999096,273.13763110002037,45,45,273.13763110002037,273.13763110002037,273.13763110002037,273.13763110002037,273.13763110002037,273.13763110002037,273.13763110002037,273.13763110002037,273.13763110002037,273.5041546000284,273.5041546000284,273.5041546000284,273.5041546000284,273.5041546000284,273.5041546000284,273.5041546000284,273.5041546000284,273.5041546000284,2,3,"[0.0011866999557241797, 0.11682029999792576, 0.28347919997759163]","[0.10030629998072982, 0.2666325999889523, 0.3672654999536462]",273.5041546000284,273.7043669000268,0.0,273.7043669000268,0,0.0,0,1,1000,num_1,0.7550071000005119,,23,7,2026-03-04_13h51.39.695,2026A_exp2,2022.2.4,59.929223578255225,
0,0,0.0,0.0,1,0,84,84,14,,,,,274.48853360000066,275.1390538000269,275.1390538000269,275.62344910000684,45,45,275.62344910000684,275.62344910000684,275.62344910000684,275.62344910000684,275.62344910000684,275.62344910000684,275.62344910000684,275.62344910000684,275.62344910000684,275.9898403999978,275.9898403999978,275.9898403999978,275.9898403999978,275.9898403999978,275.9898403999978,275.9898403999978,275.9898403999978,275.9898403999978,2,1,[0.03334929997799918],[0.36714619997655973],275.9898403999978,276.19003619998693,0.0,276.19003619998693,0,0.0,0,1,1000,num_1,1.1255833000177518,,23,7,2026-03-04_13h51.39.695,2026A_exp2,2022.2.4,59.929223578255225,
1000,1,0.0,0.0,0,0,85,85,2,,,,,277.3419292999897,277.99296589998994,277.99296589998994,278.4980871999869,315,45,278.4980871999869,278.4980871999869,278.4980871999869,278.4980871999869,278.4980871999869,278.4980871999869,278.4980871999869,278.4980871999869,278.4980871999869,278.8596422999981,278.8596422999981,278.8596422999981,278.8596422999981,278.8596422999981,278.8596422999981,278.8596422999981,278.8596422999981,278.8596422999981,8,2,"[0.002633000025525689, 0.34922229999210685]","[0.23254320002160966, 0.36565620003966615]",278.8596422999981,279.0697385999956,1000,279.0697385999956,1000,1000,1000,1000,1,num_2,0.7734077000059187,,23,7,2026-03-04_13h51.39.695,2026A_exp2,2022.2.4,59.929223578255225,
1000,1,0.0,3.7,0,0,86,86,50,,,,,279.8605565999751,280.51111369999126,280.51111369999126,281.01211220002733,45,315,281.01211220002733,281.01211220002733,281.01211220002733,281.01211220002733,281.01211220002733,281.01211220002733,281.01211220002733,281.01211220002733,281.01211220002733,281.3786651000264,281.3786651000264,281.3786651000264,281.3786651000264,281.3786651000264,281.3786651000264,281.3786651000264,281.3786651000264,281.3786651000264,22,1,[0.13350749999517575],[0.1501991999684833],281.3786651000264,281.58107279997785,1000,281.58107279997785,1000,1000,1000,1000,0,num_3,1.0617663000011817,,23,7,2026-03-04_13h51.39.695,2026A_exp2,2022.2.4,59.929223578255225,
1,0,4.9,4.9,1,0,87,87,18,,,,,282.6633763000136,283.3139351999853,283.3139351999853,283.7981984000071,45,315,283.7981984000071,283.7981984000071,283.7981984000071,283.7981984000071,283.7981984000071,283.7981984000071,283.7981984000071,283.7981984000071,283.7981984000071,284.16473010001937,284.16473010001937,284.16473010001937,284.16473010001937,284.16473010001937,284.16473010001937,284.16473010001937,284.16473010001937,284.16473010001937,23,0,,,284.16473010001937,284.364973800024,4.9,284.364973800024,1,4.9,1,1,1000,num_4,0.73418169998331,,23,7,2026-03-04_13h51.39.695,2026A_exp2,2022.2.4,59.929223578255225,
1000,1,0.0,0.0,1,0,88,88,35,,,,,285.11575840000296,285.76640680001583,285.76640680001583,286.25071009999374,45,315,286.25071009999374,286.25071009999374,286.25071009999374,286.25071009999374,286.25071009999374,286.25071009999374,286.25071009999374,286.25071009999374,286.25071009999374,286.6171824000194,286.6171824000194,286.6171824000194,286.6171824000194,286.6171824000194,286.6171824000194,286.6171824000194,286.6171824000194,286.6171824000194,0,1,[0.0012314000050537288],[0.3671782999881543],286.6171824000194,286.81935379997594,1000,286.81935379997594,1000,1000,1000,1000,1,num_2,2.6959725999622606,,23,7,2026-03-04_13h51.39.695,2026A_exp2,2022.2.4,59.929223578255225,
1,0,6.1,3.7,1,0,89,89,83,,,,,289.53685440000845,290.18752680002945,290.18752680002945,290.688805599988,45,315,290.688805599988,290.688805599988,290.688805599988,290.688805599988,290.688805599988,290.688805599988,290.688805599988,290.688805599988,290.688805599988,291.054887700011,291.054887700011,291.054887700011,291.054887700011,291.054887700011,291.054887700011,291.054887700011,291.054887700011,291.054887700011,16,2,"[0.2502602000022307, 0.2839468000456691]","[0.2670203000307083, 0.3672227000351995]",291.054887700011,291.2552072000108,3.7,291.2552072000108,0,3.7,1,0,1000,num_1,1.6924822000437416,,23,7,2026-03-04_13h51.39.695,2026A_exp2,2022.2.4,59.929223578255225,
,,,,,,,,,,,,,,,,,,,,,,,,,,,,,,,,,,,,,,,,,,,,,,,,,,,,292.9741823999793,,,,,,,
