validity,detectorcomp,contrastCW,contrastCCW,precueCWorCCW,block_80trials.thisRepN,block_80trials.thisTrialN,block_80trials.thisN,block_80trials.thisIndex,etRecord.started,etRecord.stopped,text.started,text.stopped,text_4.started,text_4.stopped,text_6.started,text_6.stopped,oriCW,oriCCW,roi_2.started,grating_UR.started,grating_UL.started,grating_LR.started,grating_LL.started,noise_UR.started,noise_UL.started,noise_LR.started,noise_LL.started,roi_2.stopped,grating_UR.stopped,grating_UL.stopped,grating_LR.stopped,grating_LL.stopped,noise_UR.stopped,noise_UL.stopped,noise_LR.stopped,noise_LL.stopped,outframe,roi_2.numLooks,roi_2.timesOn,roi_2.timesOff,text_2.started,text_2.stopped,probedcontrast,key_resp.started,respdetect,relevantContrast,correctDetect,TorFdetect,respCWorCCW,key_resp.keys,key_resp.rt,feedback_display_.started,participantNo,blockNo,date,expName,psychopyVersion,frameRate,
1000,1,3.7,0.0,0,0,0,0,32,7.88999896030873e-05,7.88999896030873e-05,65.81528189999517,67.81963759998325,67.81963759998325,68.45208809999167,68.45208809999167,68.97084689998883,45,45,68.97084689998883,68.97084689998883,68.97084689998883,68.97084689998883,68.97084689998883,68.97084689998883,68.97084689998883,68.97084689998883,68.97084689998883,69.31986789999064,69.31986789999064,69.31986789999064,69.31986789999064,69.31986789999064,69.31986789999064,69.31986789999064,69.31986789999064,69.31986789999064,0,1,[0.0009775999933481216],[0.3668443000060506],69.31986789999064,69.52762000000803,1000,69.52762000000803,1000,1000,1000,1000,0,num_3,0.7437909999862313,,20,9,2026-03-02_16h11.35.579,2026A_exp2,2022.2.4,59.95433876990633,
0,0,4.9,4.9,1,0,1,1,48,,,,,70.28756659998908,70.93816769999103,70.93816769999103,71.43935080000665,315,315,71.43935080000665,71.43935080000665,71.43935080000665,71.43935080000665,71.43935080000665,71.43935080000665,71.43935080000665,71.43935080000665,71.43935080000665,71.8057337999926,71.8057337999926,71.8057337999926,71.8057337999926,71.8057337999926,71.8057337999926,71.8057337999926,71.8057337999926,71.8057337999926,0,1,[0.000975800008745864],[0.3674984000099357],71.8057337999926,72.00593399998615,4.9,72.00593399998615,1,4.9,1,1,1000,num_4,0.7211660999746528,,20,9,2026-03-02_16h11.35.579,2026A_exp2,2022.2.4,59.95433876990633,
1,0,3.7,0.0,1,0,2,2,13,,,,,72.75665739999386,73.40732969998498,73.40732969998498,73.8916004000057,315,315,73.8916004000057,73.8916004000057,73.8916004000057,73.8916004000057,73.8916004000057,73.8916004000057,73.8916004000057,73.8916004000057,73.8916004000057,74.25813470000867,74.25813470000867,74.25813470000867,74.25813470000867,74.25813470000867,74.25813470000867,74.25813470000867,74.25813470000867,74.25813470000867,0,1,[0.0012596999877132475],[0.3671023999922909],74.25813470000867,74.45821300000534,0.0,74.45821300000534,1,0.0,0,0,1000,num_4,1.2445675999915693,,20,9,2026-03-02_16h11.35.579,2026A_exp2,2022.2.4,59.95433876990633,
1000,1,0.0,6.1,1,0,3,3,69,,,,,75.72621359999175,76.3769839000015,76.3769839000015,76.8780728999991,45,315,76.8780728999991,76.8780728999991,76.8780728999991,76.8780728999991,76.8780728999991,76.8780728999991,76.8780728999991,76.8780728999991,76.8780728999991,77.22775220000767,77.22775220000767,77.22775220000767,77.22775220000767,77.22775220000767,77.22775220000767,77.22775220000767,77.22775220000767,77.22775220000767,0,1,[0.0013743999879807234],[0.3503150999895297],77.22775220000767,77.43062910001026,1000,77.43062910001026,1000,1000,1000,1000,1,num_2,0.3681020999792963,,20,9,2026-03-02_16h11.35.579,2026A_exp2,2022.2.4,59.95433876990633,
1000,1,0.0,0.0,0,0,4,4,72,,,,,77.82844209999894,78.47891099998378,78.47891099998378,78.979972000001,45,315,78.979972000001,78.979972000001,78.979972000001,78.979972000001,78.979972000001,78.979972000001,78.979972000001,78.979972000001,78.979972000001,79.3464924999862,79.3464924999862,79.3464924999862,79.3464924999862,79.3464924999862,79.3464924999862,79.3464924999862,79.3464924999862,79.3464924999862,0,1,[0.0012219000200275332],[0.3670640000200365],79.3464924999862,79.54865919999429,1000,79.54865919999429,1000,1000,1000,1000,1,num_2,0.36221589997876436,,20,9,2026-03-02_16h11.35.579,2026A_exp2,2022.2.4,59.95433876990633,
1000,1,0.0,0.0,0,0,5,5,6,,,,,79.93039009999484,80.5811921999848,80.5811921999848,81.08229459999711,315,45,81.08229459999711,81.08229459999711,81.08229459999711,81.08229459999711,81.08229459999711,81.08229459999711,81.08229459999711,81.08229459999711,81.08229459999711,81.44860810000682,81.44860810000682,81.44860810000682,81.44860810000682,81.44860810000682,81.44860810000682,81.44860810000682,81.44860810000682,81.44860810000682,0,1,[0.0012970000097993761],[0.367175599996699],81.44860810000682,81.65064639999764,1000,81.65064639999764,1000,1000,1000,1000,1,num_2,0.3240458000218496,,20,9,2026-03-02_16h11.35.579,2026A_exp2,2022.2.4,59.95433876990633,
0,0,0.0,3.7,0,0,6,6,83,,,,,81.9994577000034,82.64989629999036,82.64989629999036,83.15093199998955,315,315,83.15093199998955,83.15093199998955,83.15093199998955,83.15093199998955,83.15093199998955,83.15093199998955,83.15093199998955,83.15093199998955,83.15093199998955,83.51734180000494,83.51734180000494,83.51734180000494,83.51734180000494,83.51734180000494,83.51734180000494,83.51734180000494,83.51734180000494,83.51734180000494,0,1,[0.0007520999934058636],[0.367473099991912],83.51734180000494,83.71746059998986,3.7,83.71746059998986,1,3.7,1,1,1000,num_4,0.5218633000040427,,20,9,2026-03-02_16h11.35.579,2026A_exp2,2022.2.4,59.95433876990633,
1,0,0.0,0.0,0,0,7,7,44,,,,,84.26808259999962,84.91874530000496,84.91874530000496,85.40315100000589,45,45,85.40315100000589,85.40315100000589,85.40315100000589,85.40315100000589,85.40315100000589,85.40315100000589,85.40315100000589,85.40315100000589,85.40315100000589,85.7696494999982,85.7696494999982,85.7696494999982,85.7696494999982,85.7696494999982,85.7696494999982,85.7696494999982,85.7696494999982,85.7696494999982,0,1,[0.0012125000066589564],[0.36732789999223314],85.7696494999982,85.96981969999615,0.0,85.96981969999615,0,0.0,0,1,1000,num_1,0.8609683999966364,,20,9,2026-03-02_16h11.35.579,2026A_exp2,2022.2.4,59.95433876990633,
1000,1,3.7,0.0,1,0,8,8,54,,,,,86.85395479999715,87.5046655999904,87.5046655999904,87.98921070000506,45,45,87.98921070000506,87.98921070000506,87.98921070000506,87.98921070000506,87.98921070000506,87.98921070000506,87.98921070000506,87.98921070000506,87.98921070000506,88.35556470000301,88.35556470000301,88.35556470000301,88.35556470000301,88.35556470000301,88.35556470000301,88.35556470000301,88.35556470000301,88.35556470000301,0,1,[0.0013624000130221248],[0.3672902999969665],88.35556470000301,88.5559224000026,1000,88.5559224000026,1000,1000,1000,1000,0,num_3,0.2828529999824241,,20,9,2026-03-02_16h11.35.579,2026A_exp2,2022.2.4,59.95433876990633,
1,0,4.9,4.9,0,0,9,9,84,,,,,88.85593269998208,89.50666720001027,89.50666720001027,90.00779249999323,45,315,90.00779249999323,90.00779249999323,90.00779249999323,90.00779249999323,90.00779249999323,90.00779249999323,90.00779249999323,90.00779249999323,90.00779249999323,90.37428389998968,90.37428389998968,90.37428389998968,90.37428389998968,90.37428389998968,90.37428389998968,90.37428389998968,90.37428389998968,90.37428389998968,0,1,[0.0012029999925289303],[0.36715939998975955],90.37428389998968,90.57423540001037,4.9,90.57423540001037,0,4.9,1,0,1000,num_1,0.7688792000117246,,20,9,2026-03-02_16h11.35.579,2026A_exp2,2022.2.4,59.95433876990633,
1000,1,0.0,0.0,0,0,10,10,67,,,,,91.37533119998989,92.02583520000917,92.02583520000917,92.51023729998269,45,315,92.51023729998269,92.51023729998269,92.51023729998269,92.51023729998269,92.51023729998269,92.51023729998269,92.51023729998269,92.51023729998269,92.51023729998269,92.8767671000096,92.8767671000096,92.8767671000096,92.8767671000096,92.8767671000096,92.8767671000096,92.8767671000096,92.8767671000096,92.8767671000096,0,1,[0.001203499996336177],[0.3673500999866519],92.8767671000096,93.0791498000035,1000,93.0791498000035,1000,1000,1000,1000,1,num_2,0.45692749999579974,,20,9,2026-03-02_16h11.35.579,2026A_exp2,2022.2.4,59.95433876990633,
1,0,0.0,0.0,0,0,11,11,34,,,,,93.56073669999023,94.21145060000708,94.21145060000708,94.7126394000079,45,315,94.7126394000079,94.7126394000079,94.7126394000079,94.7126394000079,94.7126394000079,94.7126394000079,94.7126394000079,94.7126394000079,94.7126394000079,95.07899189999443,95.07899189999443,95.07899189999443,95.07899189999443,95.07899189999443,95.07899189999443,95.07899189999443,95.07899189999443,95.07899189999443,0,1,[0.0011081999982707202],[0.3676050999783911],95.07899189999443,95.27897260000464,0.0,95.27897260000464,0,0.0,0,1,1000,num_1,0.8478714000084437,,20,9,2026-03-02_16h11.35.579,2026A_exp2,2022.2.4,59.95433876990633,
1000,1,0.0,0.0,1,0,12,12,56,,,,,96.14674969998305,96.79727439998533,96.79727439998533,97.28171119999024,315,315,97.28171119999024,97.28171119999024,97.28171119999024,97.28171119999024,97.28171119999024,97.28171119999024,97.28171119999024,97.28171119999024,97.28171119999024,97.64815520000411,97.64815520000411,97.64815520000411,97.64815520000411,97.64815520000411,97.64815520000411,97.64815520000411,97.64815520000411,97.64815520000411,23,0,,,97.64815520000411,97.84942600000068,1000,97.86564450000878,1000,1000,1000,1000,1,num_2,1.2531048999808263,,20,9,2026-03-02_16h11.35.579,2026A_exp2,2022.2.4,59.95433876990633,
1,0,3.7,0.0,1,0,13,13,11,,,,,99.14964679998229,99.80036749999272,99.80036749999272,100.30150199998752,45,45,100.30150199998752,100.30150199998752,100.30150199998752,100.30150199998752,100.30150199998752,100.30150199998752,100.30150199998752,100.30150199998752,100.30150199998752,100.66774539998733,100.66774539998733,100.66774539998733,100.66774539998733,100.66774539998733,100.66774539998733,100.66774539998733,100.66774539998733,100.66774539998733,13,1,[0.0012184999941382557],[0.16699379999772646],100.66774539998733,100.86775899998611,0.0,100.86775899998611,0,0.0,0,1,1000,num_1,0.6832225999969523,,20,9,2026-03-02_16h11.35.579,2026A_exp2,2022.2.4,59.95433876990633,
1000,1,6.1,0.0,0,0,14,14,59,,,,,101.56857959998888,102.21949650000897,102.21949650000897,102.70393439999316,45,45,102.70393439999316,102.70393439999316,102.70393439999316,102.70393439999316,102.70393439999316,102.70393439999316,102.70393439999316,102.70393439999316,102.70393439999316,103.07030399999348,103.07030399999348,103.07030399999348,103.07030399999348,103.07030399999348,103.07030399999348,103.07030399999348,103.07030399999348,103.07030399999348,0,1,[0.0012459999998100102],[0.3673537000140641],103.07030399999348,103.27050439998857,1000,103.27050439998857,1000,1000,1000,1000,0,num_3,0.4089013999910094,,20,9,2026-03-02_16h11.35.579,2026A_exp2,2022.2.4,59.95433876990633,
1000,1,0.0,0.0,1,0,15,15,46,,,,,103.70412809998379,104.35478439999861,104.35478439999861,104.85597400000552,315,315,104.85597400000552,104.85597400000552,104.85597400000552,104.85597400000552,104.85597400000552,104.85597400000552,104.85597400000552,104.85597400000552,104.85597400000552,105.20577199998661,105.20577199998661,105.20577199998661,105.20577199998661,105.20577199998661,105.20577199998661,105.20577199998661,105.20577199998661,105.20577199998661,22,0,,,105.20577199998661,105.43011399998795,1000,105.43011399998795,1000,1000,1000,1000,1,num_2,0.3925908000092022,,20,9,2026-03-02_16h11.35.579,2026A_exp2,2022.2.4,59.95433876990633,
1000,1,0.0,6.1,1,0,16,16,52,,,,,105.83959389998927,106.49015589998453,106.49015589998453,106.99152549999417,315,45,106.99152549999417,106.99152549999417,106.99152549999417,106.99152549999417,106.99152549999417,106.99152549999417,106.99152549999417,106.99152549999417,106.99152549999417,107.357763899985,107.357763899985,107.357763899985,107.357763899985,107.357763899985,107.357763899985,107.357763899985,107.357763899985,107.357763899985,23,0,,,107.357763899985,107.5601580000075,1000,107.5601580000075,1000,1000,1000,1000,1,num_2,0.3828988000168465,,20,9,2026-03-02_16h11.35.579,2026A_exp2,2022.2.4,59.95433876990633,
1000,1,0.0,0.0,0,0,17,17,7,,,,,107.95843299999251,108.6091618000064,108.6091618000064,109.11032189999241,45,315,109.11032189999241,109.11032189999241,109.11032189999241,109.11032189999241,109.11032189999241,109.11032189999241,109.11032189999241,109.11032189999241,109.11032189999241,109.47662569998647,109.47662569998647,109.47662569998647,109.47662569998647,109.47662569998647,109.47662569998647,109.47662569998647,109.47662569998647,109.47662569998647,23,0,,,109.47662569998647,109.67888620001031,1000,109.67888620001031,1000,1000,1000,1000,1,num_2,1.256388900015736,,20,9,2026-03-02_16h11.35.579,2026A_exp2,2022.2.4,59.95433876990633,
0,0,0.0,4.9,0,0,18,18,14,,,,,110.96148890000768,111.61218920000829,111.61218920000829,112.11312719999114,315,315,112.11312719999114,112.11312719999114,112.11312719999114,112.11312719999114,112.11312719999114,112.11312719999114,112.11312719999114,112.11312719999114,112.11312719999114,112.47956239999621,112.47956239999621,112.47956239999621,112.47956239999621,112.47956239999621,112.47956239999621,112.47956239999621,112.47956239999621,112.47956239999621,0,1,[0.0012499000004027039],[0.36732270001084544],112.47956239999621,112.67983489998733,4.9,112.67983489998733,1,4.9,1,1,1000,num_4,0.5831303999875672,,20,9,2026-03-02_16h11.35.579,2026A_exp2,2022.2.4,59.95433876990633,
0,0,0.0,0.0,0,0,19,19,22,,,,,113.28038459998788,113.93119169998681,113.93119169998681,114.41562369998428,45,315,114.41562369998428,114.41562369998428,114.41562369998428,114.41562369998428,114.41562369998428,114.41562369998428,114.41562369998428,114.41562369998428,114.41562369998428,114.78194849999272,114.78194849999272,114.78194849999272,114.78194849999272,114.78194849999272,114.78194849999272,114.78194849999272,114.78194849999272,114.78194849999272,6,4,"[0.0010993999894708395, 0.1838829999906011, 0.2172833999793511, 0.28382119999150746]","[0.16716749998158775, 0.20054679998429492, 0.23387140000704676, 0.3674423999909777]",114.78194849999272,114.98216049998882,0.0,114.98216049998882,1,0.0,0,0,1000,num_4,1.3779841999930795,,20,9,2026-03-02_16h11.35.579,2026A_exp2,2022.2.4,59.95433876990633,
1000,1,0.0,6.1,0,0,20,20,35,,,,,116.38347349999822,117.03430199998547,117.03430199998547,117.53545409999788,315,45,117.53545409999788,117.53545409999788,117.53545409999788,117.53545409999788,117.53545409999788,117.53545409999788,117.53545409999788,117.53545409999788,117.53545409999788,117.88506430000416,117.88506430000416,117.88506430000416,117.88506430000416,117.88506430000416,117.88506430000416,117.88506430000416,117.88506430000416,117.88506430000416,0,1,[0.0012453000235836953],[0.35062850001850165],117.88506430000416,118.08717980000074,1000,118.08717980000074,1000,1000,1000,1000,1,num_2,0.8247269999992568,,20,9,2026-03-02_16h11.35.579,2026A_exp2,2022.2.4,59.95433876990633,
1000,1,0.0,4.9,1,0,21,21,79,,,,,118.93605309998384,119.58653470000718,119.58653470000718,120.08797439999762,45,45,120.08797439999762,120.08797439999762,120.08797439999762,120.08797439999762,120.08797439999762,120.08797439999762,120.08797439999762,120.08797439999762,120.08797439999762,120.45428909998736,120.45428909998736,120.45428909998736,120.45428909998736,120.45428909998736,120.45428909998736,120.45428909998736,120.45428909998736,120.45428909998736,1,1,[0.001256300020031631],[0.3670181000197772],120.45428909998736,120.65575559998979,1000,120.65575559998979,1000,1000,1000,1000,1,num_2,0.14416679998976178,,20,9,2026-03-02_16h11.35.579,2026A_exp2,2022.2.4,59.95433876990633,
1,0,6.1,6.1,0,0,22,22,27,,,,,120.8212314999837,121.47204140000395,121.47204140000395,121.97303659998579,45,45,121.97303659998579,121.97303659998579,121.97303659998579,121.97303659998579,121.97303659998579,121.97303659998579,121.97303659998579,121.97303659998579,121.97303659998579,122.3396611000062,122.3396611000062,122.3396611000062,122.3396611000062,122.3396611000062,122.3396611000062,122.3396611000062,122.3396611000062,122.3396611000062,7,3,"[0.0499003000149969, 0.200586499995552, 0.2671269999991637]","[0.15098910001688637, 0.25053099999786355, 0.36706129999947734]",122.3396611000062,122.53950330000953,6.1,122.53950330000953,1,6.1,1,1,1000,num_4,0.8116039999877103,,20,9,2026-03-02_16h11.35.579,2026A_exp2,2022.2.4,59.95433876990633,
0,0,6.1,6.1,0,0,23,23,42,,,,,123.37382700000308,124.02466409999761,124.02466409999761,124.50892999998177,45,45,124.50892999998177,124.50892999998177,124.50892999998177,124.50892999998177,124.50892999998177,124.50892999998177,124.50892999998177,124.50892999998177,124.50892999998177,124.87547470000573,124.87547470000573,124.87547470000573,124.87547470000573,124.87547470000573,124.87547470000573,124.87547470000573,124.87547470000573,124.87547470000573,1,2,"[0.0011943000135943294, 0.2837743000127375]","[0.2670860000071116, 0.3672216999984812]",124.87547470000573,125.07564130000537,6.1,125.07564130000537,0,6.1,1,0,1000,num_1,1.2352484999864828,,20,9,2026-03-02_16h11.35.579,2026A_exp2,2022.2.4,59.95433876990633,
1000,1,0.0,3.7,1,0,24,24,65,,,,,126.32676619998529,126.97761420000461,126.97761420000461,127.46230109999306,45,315,127.46230109999306,127.46230109999306,127.46230109999306,127.46230109999306,127.46230109999306,127.46230109999306,127.46230109999306,127.46230109999306,127.46230109999306,127.82801639998797,127.82801639998797,127.82801639998797,127.82801639998797,127.82801639998797,127.82801639998797,127.82801639998797,127.82801639998797,127.82801639998797,0,1,[0.0018687999981921166],[0.36648759999661706],127.82801639998797,128.0302546999883,1000,128.0302546999883,1000,1000,1000,1000,1,num_2,0.28974659999948926,,20,9,2026-03-02_16h11.35.579,2026A_exp2,2022.2.4,59.95433876990633,
1000,1,0.0,6.1,1,0,25,25,62,,,,,128.3455804999976,128.99610250000842,128.99610250000842,129.49719429999823,315,45,129.49719429999823,129.49719429999823,129.49719429999823,129.49719429999823,129.49719429999823,129.49719429999823,129.49719429999823,129.49719429999823,129.49719429999823,129.86368750000838,129.86368750000838,129.86368750000838,129.86368750000838,129.86368750000838,129.86368750000838,129.86368750000838,129.86368750000838,129.86368750000838,0,1,[0.001211800001328811],[0.36715110001387075],129.86368750000838,130.07187479999266,1000,130.07187479999266,1000,1000,1000,1000,1,num_2,0.13604029998532496,,20,9,2026-03-02_16h11.35.579,2026A_exp2,2022.2.4,59.95433876990633,
1000,1,0.0,6.1,1,0,26,26,3,,,,,130.2307165999955,130.88127479999093,130.88127479999093,131.38260439998703,45,315,131.38260439998703,131.38260439998703,131.38260439998703,131.38260439998703,131.38260439998703,131.38260439998703,131.38260439998703,131.38260439998703,131.38260439998703,131.73231049999595,131.73231049999595,131.73231049999595,131.73231049999595,131.73231049999595,131.73231049999595,131.73231049999595,131.73231049999595,131.73231049999595,0,1,[0.001207799999974668],[0.350439700006973],131.73231049999595,131.93474930000957,1000,131.93474930000957,1000,1000,1000,1000,1,num_2,0.2730937000014819,,20,9,2026-03-02_16h11.35.579,2026A_exp2,2022.2.4,59.95433876990633,
1,0,0.0,3.7,0,0,27,27,61,,,,,132.23273590000463,132.8834557000082,132.8834557000082,133.38459529998363,315,315,133.38459529998363,133.38459529998363,133.38459529998363,133.38459529998363,133.38459529998363,133.38459529998363,133.38459529998363,133.38459529998363,133.38459529998363,133.7509761999827,133.7509761999827,133.7509761999827,133.7509761999827,133.7509761999827,133.7509761999827,133.7509761999827,133.7509761999827,133.7509761999827,23,0,,,133.7509761999827,133.9512243999925,0.0,133.9512243999925,0,0.0,0,1,1000,num_1,0.5993740000121761,,20,9,2026-03-02_16h11.35.579,2026A_exp2,2022.2.4,59.95433876990633,
1000,1,0.0,0.0,1,0,28,28,60,,,,,134.56836360000307,135.21909870000673,135.21909870000673,135.70346789999167,45,45,135.70346789999167,135.70346789999167,135.70346789999167,135.70346789999167,135.70346789999167,135.70346789999167,135.70346789999167,135.70346789999167,135.70346789999167,136.0700327999948,136.0700327999948,136.0700327999948,136.0700327999948,136.0700327999948,136.0700327999948,136.0700327999948,136.0700327999948,136.0700327999948,0,1,[0.0012048000062350184],[0.36727880002581514],136.0700327999948,136.27207370000542,1000,136.27207370000542,1000,1000,1000,1000,0,num_3,0.5666261999867857,,20,9,2026-03-02_16h11.35.579,2026A_exp2,2022.2.4,59.95433876990633,
1,0,3.7,0.0,1,0,29,29,28,,,,,136.8542180999939,137.50474030000623,137.50474030000623,137.98908629998914,315,45,137.98908629998914,137.98908629998914,137.98908629998914,137.98908629998914,137.98908629998914,137.98908629998914,137.98908629998914,137.98908629998914,137.98908629998914,138.35559029999422,138.35559029999422,138.35559029999422,138.35559029999422,138.35559029999422,138.35559029999422,138.35559029999422,138.35559029999422,138.35559029999422,0,1,[0.0013851000112481415],[0.36729799999739043],138.35559029999422,138.555632100004,0.0,138.555632100004,1,0.0,0,0,1000,num_4,0.9639092000143137,,20,9,2026-03-02_16h11.35.579,2026A_exp2,2022.2.4,59.95433876990633,
1000,1,6.1,4.9,0,0,30,30,49,,,,,139.5399930999847,140.19068790000165,140.19068790000165,140.6751540999976,315,315,140.6751540999976,140.6751540999976,140.6751540999976,140.6751540999976,140.6751540999976,140.6751540999976,140.6751540999976,140.6751540999976,140.6751540999976,141.0416399000096,141.0416399000096,141.0416399000096,141.0416399000096,141.0416399000096,141.0416399000096,141.0416399000096,141.0416399000096,141.0416399000096,15,2,"[0.0012589000107254833, 0.13375579999410547]","[0.11706920000142418, 0.1503357000183314]",141.0416399000096,141.24370849999832,1000,141.24370849999832,1000,1000,1000,1000,0,num_3,0.379154499998549,,20,9,2026-03-02_16h11.35.579,2026A_exp2,2022.2.4,59.95433876990633,
1000,1,0.0,4.9,1,0,31,31,55,,,,,141.6420594000083,142.29247839999152,142.29247839999152,142.79387359999237,45,315,142.79387359999237,142.79387359999237,142.79387359999237,142.79387359999237,142.79387359999237,142.79387359999237,142.79387359999237,142.79387359999237,142.79387359999237,143.16037420000066,143.16037420000066,143.16037420000066,143.16037420000066,143.16037420000066,143.16037420000066,143.16037420000066,143.16037420000066,143.16037420000066,0,1,[0.001205600012326613],[0.367205600021407],143.16037420000066,143.36235350000788,1000,143.36235350000788,1000,1000,1000,1000,1,num_2,0.2612795999739319,,20,9,2026-03-02_16h11.35.579,2026A_exp2,2022.2.4,59.95433876990633,
1000,1,3.7,4.9,0,0,32,32,64,,,,,143.64433959999587,144.29474939999636,144.29474939999636,144.77930470000138,45,45,144.77930470000138,144.77930470000138,144.77930470000138,144.77930470000138,144.77930470000138,144.77930470000138,144.77930470000138,144.77930470000138,144.77930470000138,145.14571680000518,145.14571680000518,145.14571680000518,145.14571680000518,145.14571680000518,145.14571680000518,145.14571680000518,145.14571680000518,145.14571680000518,0,1,[0.001267199986614287],[0.36718370000016876],145.14571680000518,145.34755889998632,1000,145.34755889998632,1000,1000,1000,1000,1,num_2,0.36366350000025705,,20,9,2026-03-02_16h11.35.579,2026A_exp2,2022.2.4,59.95433876990633,
1000,1,0.0,0.0,0,0,33,33,37,,,,,145.72946609999053,146.38026099998388,146.38026099998388,146.88125249999575,315,45,146.88125249999575,146.88125249999575,146.88125249999575,146.88125249999575,146.88125249999575,146.88125249999575,146.88125249999575,146.88125249999575,146.88125249999575,147.24780129999272,147.24780129999272,147.24780129999272,147.24780129999272,147.24780129999272,147.24780129999272,147.24780129999272,147.24780129999272,147.24780129999272,0,1,[0.001256999996257946],[0.3670811999763828],147.24780129999272,147.4500155999849,1000,147.4500155999849,1000,1000,1000,1000,1,num_2,0.4054107000119984,,20,9,2026-03-02_16h11.35.579,2026A_exp2,2022.2.4,59.95433876990633,
1,0,0.0,0.0,1,0,34,34,41,,,,,147.8817124000052,148.53225699998438,148.53225699998438,149.0335444000084,315,45,149.0335444000084,149.0335444000084,149.0335444000084,149.0335444000084,149.0335444000084,149.0335444000084,149.0335444000084,149.0335444000084,149.0335444000084,149.39986609999323,149.39986609999323,149.39986609999323,149.39986609999323,149.39986609999323,149.39986609999323,149.39986609999323,149.39986609999323,149.39986609999323,23,0,,,149.39986609999323,149.59999990000506,0.0,149.59999990000506,0,0.0,0,1,1000,num_1,1.0548039999848697,,20,9,2026-03-02_16h11.35.579,2026A_exp2,2022.2.4,59.95433876990633,
1,0,3.7,4.9,1,0,35,35,71,,,,,150.68477530000382,151.31850749999285,151.31850749999285,151.8195882999862,315,45,151.8195882999862,151.8195882999862,151.8195882999862,151.8195882999862,151.8195882999862,151.8195882999862,151.8195882999862,151.8195882999862,151.8195882999862,152.18580549999024,152.18580549999024,152.18580549999024,152.18580549999024,152.18580549999024,152.18580549999024,152.18580549999024,152.18580549999024,152.18580549999024,0,1,[0.001249200024176389],[0.36653040000237525],152.18580549999024,152.38635660000728,4.9,152.38635660000728,0,4.9,1,0,1000,num_1,0.9327024999947753,,20,9,2026-03-02_16h11.35.579,2026A_exp2,2022.2.4,59.95433876990633,
1,0,4.9,3.7,1,0,36,36,10,,,,,153.33707839998533,153.98789220000617,153.98789220000617,154.47225739998976,45,315,154.47225739998976,154.47225739998976,154.47225739998976,154.47225739998976,154.47225739998976,154.47225739998976,154.47225739998976,154.47225739998976,154.47225739998976,154.8386884999927,154.8386884999927,154.8386884999927,154.8386884999927,154.8386884999927,154.8386884999927,154.8386884999927,154.8386884999927,154.8386884999927,0,1,[0.0012565999932121485],[0.36731140001211315],154.8386884999927,155.04244160000235,3.7,155.04244160000235,0,3.7,1,0,1000,num_1,0.500959299999522,,20,9,2026-03-02_16h11.35.579,2026A_exp2,2022.2.4,59.95433876990633,
1,0,4.9,3.7,1,0,37,37,26,,,,,155.5727232999925,156.20865729998332,156.20865729998332,156.71374050001032,315,45,156.71374050001032,156.71374050001032,156.71374050001032,156.71374050001032,156.71374050001032,156.71374050001032,156.71374050001032,156.71374050001032,156.71374050001032,157.07426239998313,157.07426239998313,157.07426239998313,157.07426239998313,157.07426239998313,157.07426239998313,157.07426239998313,157.07426239998313,157.07426239998313,11,6,"[0.002611800009617582, 0.049759100016672164, 0.16555370000423864, 0.21519770001759753, 0.2824689999979455, 0.36570900000515394]","[0.023288600001251325, 0.13334960001520813, 0.1985350000031758, 0.23200469999574125, 0.315709299989976, 0.36571350001031533]",157.07426239998313,157.27438009998878,3.7,157.27438009998878,0,3.7,1,0,1000,num_1,1.0764349000237416,,20,9,2026-03-02_16h11.35.579,2026A_exp2,2022.2.4,59.95433876990633,
1000,1,0.0,4.9,1,0,38,38,78,,,,,158.37539979998837,159.0263469000056,159.0263469000056,159.51063609999255,315,315,159.51063609999255,159.51063609999255,159.51063609999255,159.51063609999255,159.51063609999255,159.51063609999255,159.51063609999255,159.51063609999255,159.51063609999255,159.87705239999923,159.87705239999923,159.87705239999923,159.87705239999923,159.87705239999923,159.87705239999923,159.87705239999923,159.87705239999923,159.87705239999923,0,1,[0.0012314000050537288],[0.3671631999895908],159.87705239999923,160.07954700000118,1000,160.07954700000118,1000,1000,1000,1000,1,num_2,0.35994329999084584,,20,9,2026-03-02_16h11.35.579,2026A_exp2,2022.2.4,59.95433876990633,
1,0,3.7,6.1,1,0,39,39,77,,,,,160.46106800000416,161.11172409998835,161.11172409998835,161.61268500000006,315,45,161.61268500000006,161.61268500000006,161.61268500000006,161.61268500000006,161.61268500000006,161.61268500000006,161.61268500000006,161.61268500000006,161.61268500000006,161.9624513000017,161.9624513000017,161.9624513000017,161.9624513000017,161.9624513000017,161.9624513000017,161.9624513000017,161.9624513000017,161.9624513000017,0,1,[0.0012518000148702413],[0.3504745000100229],161.9624513000017,162.162671099999,6.1,162.162671099999,1,6.1,1,1,1000,num_4,0.8039967000077013,,20,9,2026-03-02_16h11.35.579,2026A_exp2,2022.2.4,59.95433876990633,
1000,1,0.0,4.9,0,0,40,40,5,,,,,162.9968031999888,163.64754830001038,163.64754830001038,164.1319969999895,45,315,164.1319969999895,164.1319969999895,164.1319969999895,164.1319969999895,164.1319969999895,164.1319969999895,164.1319969999895,164.1319969999895,164.1319969999895,164.49824099999387,164.49824099999387,164.49824099999387,164.49824099999387,164.49824099999387,164.49824099999387,164.49824099999387,164.49824099999387,164.49824099999387,0,1,[0.0012060999870300293],[0.36705109998001717],164.49824099999387,164.7005780999898,1000,164.7005780999898,1000,1000,1000,1000,1,num_2,0.3065239999850746,,20,9,2026-03-02_16h11.35.579,2026A_exp2,2022.2.4,59.95433876990633,
1,0,4.9,3.7,0,0,41,41,63,,,,,165.0321757000056,165.682893899997,165.682893899997,166.1838938999863,45,45,166.1838938999863,166.1838938999863,166.1838938999863,166.1838938999863,166.1838938999863,166.1838938999863,166.1838938999863,166.1838938999863,166.1838938999863,166.550431199983,166.550431199983,166.550431199983,166.550431199983,166.550431199983,166.550431199983,166.550431199983,166.550431199983,166.550431199983,15,3,"[0.001208400004543364, 0.06686610000906512, 0.33387370000127703]","[0.03348740001092665, 0.15041020000353456, 0.36724140000296757]",166.550431199983,166.75070430000778,4.9,166.75070430000778,1,4.9,1,1,1000,num_4,0.664504600019427,,20,9,2026-03-02_16h11.35.579,2026A_exp2,2022.2.4,59.95433876990633,
1000,1,0.0,0.0,1,0,42,42,16,,,,,167.43456389999483,168.08522429998266,168.08522429998266,168.56964229998994,45,315,168.56964229998994,168.56964229998994,168.56964229998994,168.56964229998994,168.56964229998994,168.56964229998994,168.56964229998994,168.56964229998994,168.56964229998994,168.93618499999866,168.93618499999866,168.93618499999866,168.93618499999866,168.93618499999866,168.93618499999866,168.93618499999866,168.93618499999866,168.93618499999866,23,0,,,168.93618499999866,169.13830819999566,1000,169.13830819999566,1000,1000,1000,1000,0,num_3,1.2452396999869961,,20,9,2026-03-02_16h11.35.579,2026A_exp2,2022.2.4,59.95433876990633,
1000,1,0.0,0.0,0,0,43,43,45,,,,,170.40420389999053,171.05498680000892,171.05498680000892,171.55604389999644,315,315,171.55604389999644,171.55604389999644,171.55604389999644,171.55604389999644,171.55604389999644,171.55604389999644,171.55604389999644,171.55604389999644,171.55604389999644,171.92255970000406,171.92255970000406,171.92255970000406,171.92255970000406,171.92255970000406,171.92255970000406,171.92255970000406,171.92255970000406,171.92255970000406,23,0,,,171.92255970000406,172.12457479999284,1000,172.12457479999284,1000,1000,1000,1000,1,num_2,0.6434045000059996,,20,9,2026-03-02_16h11.35.579,2026A_exp2,2022.2.4,59.95433876990633,
0,0,0.0,0.0,1,0,44,44,38,,,,,172.7898903999885,173.4404787000094,173.4404787000094,173.94170450000092,315,45,173.94170450000092,173.94170450000092,173.94170450000092,173.94170450000092,173.94170450000092,173.94170450000092,173.94170450000092,173.94170450000092,173.94170450000092,174.3081942999852,174.3081942999852,174.3081942999852,174.3081942999852,174.3081942999852,174.3081942999852,174.3081942999852,174.3081942999852,174.3081942999852,23,0,,,174.3081942999852,174.50833529999363,0.0,174.50833529999363,1,0.0,0,0,1000,num_4,1.3863728999858722,,20,9,2026-03-02_16h11.35.579,2026A_exp2,2022.2.4,59.95433876990633,
1000,1,0.0,0.0,1,0,45,45,23,,,,,175.9264179999882,176.57721819999279,176.57721819999279,177.06159090000438,315,315,177.06159090000438,177.06159090000438,177.06159090000438,177.06159090000438,177.06159090000438,177.06159090000438,177.06159090000438,177.06159090000438,177.06159090000438,177.42780030000722,177.42780030000722,177.42780030000722,177.42780030000722,177.42780030000722,177.42780030000722,177.42780030000722,177.42780030000722,177.42780030000722,23,0,,,177.42780030000722,177.62843700000667,1000,177.62843700000667,1000,1000,1000,1000,0,num_3,1.027523700002348,,20,9,2026-03-02_16h11.35.579,2026A_exp2,2022.2.4,59.95433876990633,
1000,1,0.0,0.0,1,0,46,46,40,,,,,178.6791382000083,179.32954609999433,179.32954609999433,179.83101100000204,315,45,179.83101100000204,179.83101100000204,179.83101100000204,179.83101100000204,179.83101100000204,179.83101100000204,179.83101100000204,179.83101100000204,179.83101100000204,180.1974624999857,180.1974624999857,180.1974624999857,180.1974624999857,180.1974624999857,180.1974624999857,180.1974624999857,180.1974624999857,180.1974624999857,8,3,"[0.001214299991261214, 0.06695169999147765, 0.33393570000771433]","[0.017500999994808808, 0.2839103000005707, 0.3673072000092361]",180.1974624999857,180.39927339999122,1000,180.39927339999122,1000,1000,1000,1000,1,num_2,0.8478620999958366,,20,9,2026-03-02_16h11.35.579,2026A_exp2,2022.2.4,59.95433876990633,
1,0,3.7,0.0,0,0,47,47,8,,,,,181.26501010000356,181.9154123000044,181.9154123000044,182.4170662999968,45,45,182.4170662999968,182.4170662999968,182.4170662999968,182.4170662999968,182.4170662999968,182.4170662999968,182.4170662999968,182.4170662999968,182.4170662999968,182.78322109999135,182.78322109999135,182.78322109999135,182.78322109999135,182.78322109999135,182.78322109999135,182.78322109999135,182.78322109999135,182.78322109999135,9,3,"[0.10078690000227652, 0.1345351999916602, 0.2013122999924235]","[0.11777179999626242, 0.18467419999069534, 0.3681098000088241]",182.78322109999135,182.98358219998772,3.7,182.98358219998772,0,3.7,1,0,1000,num_1,2.255678999994416,,20,9,2026-03-02_16h11.35.579,2026A_exp2,2022.2.4,59.95433876990633,
1,0,3.7,3.7,1,0,48,48,86,,,,,185.26906210000743,185.91957989998627,185.91957989998627,186.40423819998978,45,45,186.40423819998978,186.40423819998978,186.40423819998978,186.40423819998978,186.40423819998978,186.40423819998978,186.40423819998978,186.40423819998978,186.40423819998978,186.77065140000195,186.77065140000195,186.77065140000195,186.77065140000195,186.77065140000195,186.77065140000195,186.77065140000195,186.77065140000195,186.77065140000195,23,0,,,186.77065140000195,186.97090970000136,3.7,186.97090970000136,0,3.7,1,0,1000,num_1,0.8283191999944393,,20,9,2026-03-02_16h11.35.579,2026A_exp2,2022.2.4,59.95433876990633,
1000,1,0.0,6.1,0,0,49,49,75,,,,,187.82153919999837,188.47222820000025,188.47222820000025,188.95667670000694,45,45,188.95667670000694,188.95667670000694,188.95667670000694,188.95667670000694,188.95667670000694,188.95667670000694,188.95667670000694,188.95667670000694,188.95667670000694,189.32314379999298,189.32314379999298,189.32314379999298,189.32314379999298,189.32314379999298,189.32314379999298,189.32314379999298,189.32314379999298,189.32314379999298,0,1,[0.0012069999938830733],[0.3668277999968268],189.32314379999298,189.5247812999878,1000,189.5247812999878,1000,1000,1000,1000,1,num_2,0.41787040000781417,,20,9,2026-03-02_16h11.35.579,2026A_exp2,2022.2.4,59.95433876990633,
1000,1,3.7,4.9,0,0,50,50,80,,,,,189.97399739999673,190.6244969999825,190.6244969999825,191.10897380000097,45,45,191.10897380000097,191.10897380000097,191.10897380000097,191.10897380000097,191.10897380000097,191.10897380000097,191.10897380000097,191.10897380000097,191.10897380000097,191.4753953999898,191.4753953999898,191.4753953999898,191.4753953999898,191.4753953999898,191.4753953999898,191.4753953999898,191.4753953999898,191.4753953999898,23,0,,,191.4753953999898,191.6776283000072,1000,191.6776283000072,1000,1000,1000,1000,0,num_3,1.3457190000044648,,20,9,2026-03-02_16h11.35.579,2026A_exp2,2022.2.4,59.95433876990633,
1000,1,6.1,3.7,0,0,51,51,18,,,,,193.04352929999004,193.69422669999767,193.69422669999767,194.19499230000656,315,315,194.19499230000656,194.19499230000656,194.19499230000656,194.19499230000656,194.19499230000656,194.19499230000656,194.19499230000656,194.19499230000656,194.19499230000656,194.56162439999753,194.56162439999753,194.56162439999753,194.56162439999753,194.56162439999753,194.56162439999753,194.56162439999753,194.56162439999753,194.56162439999753,23,0,,,194.56162439999753,194.76399420000962,1000,194.76399420000962,1000,1000,1000,1000,0,num_3,0.3154631000070367,,20,9,2026-03-02_16h11.35.579,2026A_exp2,2022.2.4,59.95433876990633,
1,0,4.9,6.1,0,0,52,52,33,,,,,195.09552209998947,195.7462738000031,195.7462738000031,196.2471133999934,45,45,196.2471133999934,196.2471133999934,196.2471133999934,196.2471133999934,196.2471133999934,196.2471133999934,196.2471133999934,196.2471133999934,196.2471133999934,196.6142320999934,196.6142320999934,196.6142320999934,196.6142320999934,196.6142320999934,196.6142320999934,196.6142320999934,196.6142320999934,196.6142320999934,23,0,,,196.6142320999934,196.8137618000037,4.9,196.8137618000037,1,4.9,1,1,1000,num_4,0.936978400015505,,20,9,2026-03-02_16h11.35.579,2026A_exp2,2022.2.4,59.95433876990633,
1,0,0.0,3.7,1,0,53,53,0,,,,,197.7820039000071,198.41565119998995,198.41565119998995,198.91700519999722,45,45,198.91700519999722,198.91700519999722,198.91700519999722,198.91700519999722,198.91700519999722,198.91700519999722,198.91700519999722,198.91700519999722,198.91700519999722,199.2836330999853,199.2836330999853,199.2836330999853,199.2836330999853,199.2836330999853,199.2836330999853,199.2836330999853,199.2836330999853,199.2836330999853,0,1,[0.0008738999895285815],[0.3683034999994561],199.2836330999853,199.48293369999737,3.7,199.48293369999737,1,3.7,1,1,1000,num_4,2.140447099984158,,20,9,2026-03-02_16h11.35.579,2026A_exp2,2022.2.4,59.95433876990633,
1000,1,0.0,6.1,0,0,54,54,58,,,,,201.65213119998225,202.30257929998334,202.30257929998334,202.78732209998998,45,45,202.78732209998998,202.78732209998998,202.78732209998998,202.78732209998998,202.78732209998998,202.78732209998998,202.78732209998998,202.78732209998998,202.78732209998998,203.153773500002,203.153773500002,203.153773500002,203.153773500002,203.153773500002,203.153773500002,203.153773500002,203.153773500002,203.153773500002,23,0,,,203.153773500002,203.35579790000338,1000,203.35579790000338,1000,1000,1000,1000,1,num_2,0.6279397000034805,,20,9,2026-03-02_16h11.35.579,2026A_exp2,2022.2.4,59.95433876990633,
1,0,6.1,3.7,0,0,55,55,31,,,,,204.00445330000366,204.6550665999821,204.6550665999821,205.1562139999878,315,45,205.1562139999878,205.1562139999878,205.1562139999878,205.1562139999878,205.1562139999878,205.1562139999878,205.1562139999878,205.1562139999878,205.1562139999878,205.5227321999846,205.5227321999846,205.5227321999846,205.5227321999846,205.5227321999846,205.5227321999846,205.5227321999846,205.5227321999846,205.5227321999846,23,0,,,205.5227321999846,205.72299039998325,6.1,205.72299039998325,1,6.1,1,1,1000,num_4,0.8365851000125986,,20,9,2026-03-02_16h11.35.579,2026A_exp2,2022.2.4,59.95433876990633,
1000,1,0.0,4.9,0,0,56,56,74,,,,,206.5903153999825,207.2244725000055,207.2244725000055,207.7256160999823,45,315,207.7256160999823,207.7256160999823,207.7256160999823,207.7256160999823,207.7256160999823,207.7256160999823,207.7256160999823,207.7256160999823,207.7256160999823,208.09187479998218,208.09187479998218,208.09187479998218,208.09187479998218,208.09187479998218,208.09187479998218,208.09187479998218,208.09187479998218,208.09187479998218,0,1,[0.0011275999713689089],[0.3667816999950446],208.09187479998218,208.29390059999423,1000,208.29390059999423,1000,1000,1000,1000,1,num_2,1.224914999998873,,20,9,2026-03-02_16h11.35.579,2026A_exp2,2022.2.4,59.95433876990633,
1,0,0.0,0.0,1,0,57,57,21,,,,,209.54352300000028,210.19391699999687,210.19391699999687,210.6949803000025,45,45,210.6949803000025,210.6949803000025,210.6949803000025,210.6949803000025,210.6949803000025,210.6949803000025,210.6949803000025,210.6949803000025,210.6949803000025,211.06159430000116,211.06159430000116,211.06159430000116,211.06159430000116,211.06159430000116,211.06159430000116,211.06159430000116,211.06159430000116,211.06159430000116,0,1,[0.0012428000045474619],[0.3675627000047825],211.06159430000116,211.26177340000868,0.0,211.26177340000868,1,0.0,0,0,1000,num_4,0.729860399995232,,20,9,2026-03-02_16h11.35.579,2026A_exp2,2022.2.4,59.95433876990633,
1,0,0.0,0.0,0,0,58,58,51,,,,,212.0124058999936,212.6630609999993,212.6630609999993,213.1643788999936,315,315,213.1643788999936,213.1643788999936,213.1643788999936,213.1643788999936,213.1643788999936,213.1643788999936,213.1643788999936,213.1643788999936,213.1643788999936,213.5137996999838,213.5137996999838,213.5137996999838,213.5137996999838,213.5137996999838,213.5137996999838,213.5137996999838,213.5137996999838,213.5137996999838,0,1,[0.0012413999938871711],[0.350491699995473],213.5137996999838,213.71412129999953,0.0,213.71412129999953,1,0.0,0,0,1000,num_4,1.540693300019484,,20,9,2026-03-02_16h11.35.579,2026A_exp2,2022.2.4,59.95433876990633,
1,0,4.9,4.9,0,0,59,59,39,,,,,215.2823684999894,215.93299729999853,215.93299729999853,216.41757739998866,45,45,216.41757739998866,216.41757739998866,216.41757739998866,216.41757739998866,216.41757739998866,216.41757739998866,216.41757739998866,216.41757739998866,216.41757739998866,216.78392539999913,216.78392539999913,216.78392539999913,216.78392539999913,216.78392539999913,216.78392539999913,216.78392539999913,216.78392539999913,216.78392539999913,8,2,"[0.11703940000734292, 0.23371210001641884]","[0.21705259999725968, 0.36731699999654666]",216.78392539999913,216.98433400000795,4.9,216.98433400000795,1,4.9,1,1,1000,num_4,1.1349227000027895,,20,9,2026-03-02_16h11.35.579,2026A_exp2,2022.2.4,59.95433876990633,
1000,1,4.9,0.0,0,0,60,60,50,,,,,218.13518720000866,218.7859349999926,218.7859349999926,219.27032439998584,315,315,219.27032439998584,219.27032439998584,219.27032439998584,219.27032439998584,219.27032439998584,219.27032439998584,219.27032439998584,219.27032439998584,219.27032439998584,219.6368560999981,219.6368560999981,219.6368560999981,219.6368560999981,219.6368560999981,219.6368560999981,219.6368560999981,219.6368560999981,219.6368560999981,0,1,[0.0012061999877914786],[0.36713050000253133],219.6368560999981,219.83876729998155,1000,219.83876729998155,1000,1000,1000,1000,0,num_3,0.31259630000567995,,20,9,2026-03-02_16h11.35.579,2026A_exp2,2022.2.4,59.95433876990633,
1000,1,0.0,0.0,0,0,61,61,87,,,,,220.17065479999292,220.8214045999921,220.8214045999921,221.32239919999847,45,315,221.32239919999847,221.32239919999847,221.32239919999847,221.32239919999847,221.32239919999847,221.32239919999847,221.32239919999847,221.32239919999847,221.32239919999847,221.68895539999357,221.68895539999357,221.68895539999357,221.68895539999357,221.68895539999357,221.68895539999357,221.68895539999357,221.68895539999357,221.68895539999357,0,1,[0.0012452999944798648],[0.3671069999982137],221.68895539999357,221.89087979999022,1000,221.89087979999022,1000,1000,1000,1000,0,num_3,0.9731848000083119,,20,9,2026-03-02_16h11.35.579,2026A_exp2,2022.2.4,59.95433876990633,
1000,1,0.0,6.1,0,0,62,62,85,,,,,222.89013270000578,223.540688100009,223.540688100009,224.04189729999052,315,315,224.04189729999052,224.04189729999052,224.04189729999052,224.04189729999052,224.04189729999052,224.04189729999052,224.04189729999052,224.04189729999052,224.04189729999052,224.39161500000046,224.39161500000046,224.39161500000046,224.39161500000046,224.39161500000046,224.39161500000046,224.39161500000046,224.39161500000046,224.39161500000046,17,1,[0.0012295999913476408],[0.08318719998351298],224.39161500000046,224.5935640000098,1000,224.60858269999153,1000,1000,1000,1000,1,num_2,0.31025949999457225,,20,9,2026-03-02_16h11.35.579,2026A_exp2,2022.2.4,59.95433876990633,
1000,1,6.1,0.0,0,0,63,63,89,,,,,224.94205839998904,225.5928684999817,225.5928684999817,226.09394109999994,315,45,226.09394109999994,226.09394109999994,226.09394109999994,226.09394109999994,226.09394109999994,226.09394109999994,226.09394109999994,226.09394109999994,226.09394109999994,226.443528600008,226.443528600008,226.443528600008,226.443528600008,226.443528600008,226.443528600008,226.443528600008,226.443528600008,226.443528600008,0,1,[0.0012562999909278005],[0.3507009999884758],226.443528600008,226.64535360000446,1000,226.66058180000982,1000,1000,1000,1000,0,num_3,0.22671010001795366,,20,9,2026-03-02_16h11.35.579,2026A_exp2,2022.2.4,59.95433876990633,
0,0,6.1,0.0,1,0,64,64,30,,,,,226.9108472999942,227.56132859998615,227.56132859998615,228.0624872999906,45,315,228.0624872999906,228.0624872999906,228.0624872999906,228.0624872999906,228.0624872999906,228.0624872999906,228.0624872999906,228.0624872999906,228.0624872999906,228.42891180000152,228.42891180000152,228.42891180000152,228.42891180000152,228.42891180000152,228.42891180000152,228.42891180000152,228.42891180000152,228.42891180000152,0,1,[0.0012973000120837241],[0.3671926000097301],228.42891180000152,228.629136500007,6.1,228.629136500007,1,6.1,1,1,1000,num_4,0.6824360000027809,,20,9,2026-03-02_16h11.35.579,2026A_exp2,2022.2.4,59.95433876990633,
0,0,0.0,0.0,0,0,65,65,70,,,,,229.3297445999924,229.9805808000092,229.9805808000092,230.46495649998542,315,45,230.46495649998542,230.46495649998542,230.46495649998542,230.46495649998542,230.46495649998542,230.46495649998542,230.46495649998542,230.46495649998542,230.46495649998542,230.83102829998825,230.83102829998825,230.83102829998825,230.83102829998825,230.83102829998825,230.83102829998825,230.83102829998825,230.83102829998825,230.83102829998825,0,1,[0.0012695000041276217],[0.36694429998169653],230.83102829998825,231.03157869999995,0.0,231.03157869999995,1,0.0,0,0,1000,num_4,0.8953871999983676,,20,9,2026-03-02_16h11.35.579,2026A_exp2,2022.2.4,59.95433876990633,
1,0,3.7,0.0,1,0,66,66,12,,,,,231.9489837999863,232.59984310000436,232.59984310000436,233.08414809999522,45,315,233.08414809999522,233.08414809999522,233.08414809999522,233.08414809999522,233.08414809999522,233.08414809999522,233.08414809999522,233.08414809999522,233.08414809999522,233.45067570000538,233.45067570000538,233.45067570000538,233.45067570000538,233.45067570000538,233.45067570000538,233.45067570000538,233.45067570000538,233.45067570000538,0,1,[0.001233099988894537],[0.36714539999957196],233.45067570000538,233.65091619998566,0.0,233.65091619998566,0,0.0,0,1,1000,num_1,0.6516220000048634,,20,9,2026-03-02_16h11.35.579,2026A_exp2,2022.2.4,59.95433876990633,
1,0,4.9,0.0,0,0,67,67,4,,,,,234.33490859999438,234.9687214999867,234.9687214999867,235.4699438000098,315,315,235.4699438000098,235.4699438000098,235.4699438000098,235.4699438000098,235.4699438000098,235.4699438000098,235.4699438000098,235.4699438000098,235.4699438000098,235.83631359998253,235.83631359998253,235.83631359998253,235.83631359998253,235.83631359998253,235.83631359998253,235.83631359998253,235.83631359998253,235.83631359998253,0,1,[0.0012715999910142273],[0.3673500999866519],235.83631359998253,236.03655479999725,4.9,236.03655479999725,0,4.9,1,0,1000,num_1,0.7145711999910418,,20,9,2026-03-02_16h11.35.579,2026A_exp2,2022.2.4,59.95433876990633,
1,0,3.7,4.9,0,0,68,68,76,,,,,236.7705309999874,237.42121050000424,237.42121050000424,237.92219049998675,315,45,237.92219049998675,237.92219049998675,237.92219049998675,237.92219049998675,237.92219049998675,237.92219049998675,237.92219049998675,237.92219049998675,237.92219049998675,238.27216839999892,238.27216839999892,238.27216839999892,238.27216839999892,238.27216839999892,238.27216839999892,238.27216839999892,238.27216839999892,238.27216839999892,0,1,[0.0007297000265680254],[0.35108320001745597],238.27216839999892,238.47241529999883,3.7,238.47241529999883,0,3.7,1,0,1000,num_1,0.8785198999976274,,20,9,2026-03-02_16h11.35.579,2026A_exp2,2022.2.4,59.95433876990633,
1000,1,3.7,6.1,1,0,69,69,29,,,,,239.37320589998853,240.02388059999794,240.02388059999794,240.50831979999202,315,315,240.50831979999202,240.50831979999202,240.50831979999202,240.50831979999202,240.50831979999202,240.50831979999202,240.50831979999202,240.50831979999202,240.50831979999202,240.8748013000004,240.8748013000004,240.8748013000004,240.8748013000004,240.8748013000004,240.8748013000004,240.8748013000004,240.8748013000004,240.8748013000004,23,0,,,240.8748013000004,241.0768786999979,1000,241.0768786999979,1000,1000,1000,1000,1,num_2,0.4505998000095133,,20,9,2026-03-02_16h11.35.579,2026A_exp2,2022.2.4,59.95433876990633,
1000,1,0.0,0.0,0,0,70,70,36,,,,,241.55887429998256,242.2094630000065,242.2094630000065,242.71055029999116,315,315,242.71055029999116,242.71055029999116,242.71055029999116,242.71055029999116,242.71055029999116,242.71055029999116,242.71055029999116,242.71055029999116,242.71055029999116,243.077034499991,243.077034499991,243.077034499991,243.077034499991,243.077034499991,243.077034499991,243.077034499991,243.077034499991,243.077034499991,0,1,[0.0012908000207971781],[0.3671031999983825],243.077034499991,243.27873719998752,1000,243.27873719998752,1000,1000,1000,1000,1,num_2,0.39208489999873564,,20,9,2026-03-02_16h11.35.579,2026A_exp2,2022.2.4,59.95433876990633,
1000,1,0.0,6.1,1,0,71,71,19,,,,,243.69434489999549,244.34476710000308,244.34476710000308,244.84605039999587,45,45,244.84605039999587,244.84605039999587,244.84605039999587,244.84605039999587,244.84605039999587,244.84605039999587,244.84605039999587,244.84605039999587,244.84605039999587,245.2124028999824,245.2124028999824,245.2124028999824,245.2124028999824,245.2124028999824,245.2124028999824,245.2124028999824,245.2124028999824,245.2124028999824,0,1,[0.0012607999960891902],[0.3672937999945134],245.2124028999824,245.4148617000028,1000,245.4148617000028,1000,1000,1000,1000,1,num_2,0.3521533999883104,,20,9,2026-03-02_16h11.35.579,2026A_exp2,2022.2.4,59.95433876990633,
1000,1,0.0,6.1,0,0,72,72,2,,,,,245.79620969999814,246.44694500000332,246.44694500000332,246.94801520000328,45,315,246.94801520000328,246.94801520000328,246.94801520000328,246.94801520000328,246.94801520000328,246.94801520000328,246.94801520000328,246.94801520000328,246.94801520000328,247.31455720000667,247.31455720000667,247.31455720000667,247.31455720000667,247.31455720000667,247.31455720000667,247.31455720000667,247.31455720000667,247.31455720000667,1,2,"[0.001225399988470599, 0.31701780000003055]","[0.30043799997656606, 0.3673359999957029]",247.31455720000667,247.5161558999971,1000,247.5161558999971,1000,1000,1000,1000,1,num_2,0.3311610000091605,,20,9,2026-03-02_16h11.35.579,2026A_exp2,2022.2.4,59.95433876990633,
0,0,0.0,3.7,0,0,73,73,47,,,,,247.86520739999833,248.51562389999162,248.51562389999162,249.01675919999252,315,45,249.01675919999252,249.01675919999252,249.01675919999252,249.01675919999252,249.01675919999252,249.01675919999252,249.01675919999252,249.01675919999252,249.01675919999252,249.38313450000715,249.38313450000715,249.38313450000715,249.38313450000715,249.38313450000715,249.38313450000715,249.38313450000715,249.38313450000715,249.38313450000715,23,0,,,249.38313450000715,249.58312759999535,3.7,249.58312759999535,1,3.7,1,1,1000,num_4,1.4636882000195328,,20,9,2026-03-02_16h11.35.579,2026A_exp2,2022.2.4,59.95433876990633,
1,0,6.1,4.9,0,0,74,74,81,,,,,251.06824170000618,251.7189941999968,251.7189941999968,252.21992969998973,45,45,252.21992969998973,252.21992969998973,252.21992969998973,252.21992969998973,252.21992969998973,252.21992969998973,252.21992969998973,252.21992969998973,252.21992969998973,252.56979809998302,252.56979809998302,252.56979809998302,252.56979809998302,252.56979809998302,252.56979809998302,252.56979809998302,252.56979809998302,252.56979809998302,0,1,[0.0010714000090956688],[0.35094140001456253],252.56979809998302,252.76985029998468,6.1,252.76985029998468,1,6.1,1,1,1000,num_4,0.6608875999809243,,20,9,2026-03-02_16h11.35.579,2026A_exp2,2022.2.4,59.95433876990633,
1000,1,3.7,0.0,1,0,75,75,88,,,,,253.45402420000755,254.10464720000164,254.10464720000164,254.58910280000418,315,315,254.58910280000418,254.58910280000418,254.58910280000418,254.58910280000418,254.58910280000418,254.58910280000418,254.58910280000418,254.58910280000418,254.58910280000418,254.9556706000003,254.9556706000003,254.9556706000003,254.9556706000003,254.9556706000003,254.9556706000003,254.9556706000003,254.9556706000003,254.9556706000003,5,1,[0.08407559999614023],[0.36895870001171716],254.9556706000003,255.17037040001014,1000,255.17037040001014,1000,1000,1000,1000,0,num_3,0.3406747999833897,,20,9,2026-03-02_16h11.35.579,2026A_exp2,2022.2.4,59.95433876990633,
1,0,0.0,6.1,0,0,76,76,82,,,,,255.53963069999008,256.1918172999867,256.1918172999867,256.6911371999886,45,45,256.6911371999886,256.6911371999886,256.6911371999886,256.6911371999886,256.6911371999886,256.6911371999886,256.6911371999886,256.6911371999886,256.6911371999886,257.0576546000084,257.0576546000084,257.0576546000084,257.0576546000084,257.0576546000084,257.0576546000084,257.0576546000084,257.0576546000084,257.0576546000084,4,4,"[0.0012630000128410757, 0.20072379999328405, 0.26722089998656884, 0.31735219998518005]","[0.18387360000633635, 0.23382459999993443, 0.300580400013132, 0.3674006999935955]",257.0576546000084,257.2577542999934,0.0,257.2577542999934,0,0.0,0,1,1000,num_1,0.6137288000027183,,20,9,2026-03-02_16h11.35.579,2026A_exp2,2022.2.4,59.95433876990633,
1000,1,3.7,0.0,0,0,77,77,66,,,,,257.8918314999901,258.54235730000073,258.54235730000073,259.0268257999851,315,315,259.0268257999851,259.0268257999851,259.0268257999851,259.0268257999851,259.0268257999851,259.0268257999851,259.0268257999851,259.0268257999851,259.0268257999851,259.3932952999894,259.3932952999894,259.3932952999894,259.3932952999894,259.3932952999894,259.3932952999894,259.3932952999894,259.3932952999894,259.3932952999894,21,1,[0.0012848000042140484],[0.03343509999103844],259.3932952999894,259.5953886999923,1000,259.5953886999923,1000,1000,1000,1000,0,num_3,0.332246900012251,,20,9,2026-03-02_16h11.35.579,2026A_exp2,2022.2.4,59.95433876990633,
1000,1,3.7,4.9,1,0,78,78,20,,,,,259.94393879998825,260.5945007999835,260.5945007999835,261.09547820000444,315,45,261.09547820000444,261.09547820000444,261.09547820000444,261.09547820000444,261.09547820000444,261.09547820000444,261.09547820000444,261.09547820000444,261.09547820000444,261.46196059999056,261.46196059999056,261.46196059999056,261.46196059999056,261.46196059999056,261.46196059999056,261.46196059999056,261.46196059999056,261.46196059999056,23,0,,,261.46196059999056,261.66415319999214,1000,261.66415319999214,1000,1000,1000,1000,1,num_2,0.30354179997812025,,20,9,2026-03-02_16h11.35.579,2026A_exp2,2022.2.4,59.95433876990633,
1,0,0.0,4.9,1,0,79,79,1,,,,,261.9959264000063,262.6463376999891,262.6463376999891,263.1475486999843,45,315,263.1475486999843,263.1475486999843,263.1475486999843,263.1475486999843,263.1475486999843,263.1475486999843,263.1475486999843,263.1475486999843,263.1475486999843,263.5140143999888,263.5140143999888,263.5140143999888,263.5140143999888,263.5140143999888,263.5140143999888,263.5140143999888,263.5140143999888,263.5140143999888,23,0,,,263.5140143999888,263.7142565000104,4.9,263.7142565000104,1,4.9,1,1,1000,num_4,0.6924556999874767,,20,9,2026-03-02_16h11.35.579,2026A_exp2,2022.2.4,59.95433876990633,
1,0,0.0,0.0,0,0,80,80,17,,,,,264.43151530000614,265.0823351999861,265.0823351999861,265.58338349999394,315,315,265.58338349999394,265.58338349999394,265.58338349999394,265.58338349999394,265.58338349999394,265.58338349999394,265.58338349999394,265.58338349999394,265.58338349999394,265.93314340000506,265.93314340000506,265.93314340000506,265.93314340000506,265.93314340000506,265.93314340000506,265.93314340000506,265.93314340000506,265.93314340000506,0,1,[0.0012361000117380172],[0.3503816000011284],265.93314340000506,266.1333513999998,0.0,266.1333513999998,0,0.0,0,1,1000,num_1,0.6981567000038922,,20,9,2026-03-02_16h11.35.579,2026A_exp2,2022.2.4,59.95433876990633,
1000,1,0.0,0.0,0,0,81,81,15,,,,,266.85075409998535,267.5012108999945,267.5012108999945,267.9857294000103,45,315,267.9857294000103,267.9857294000103,267.9857294000103,267.9857294000103,267.9857294000103,267.9857294000103,267.9857294000103,267.9857294000103,267.9857294000103,268.35217679999187,268.35217679999187,268.35217679999187,268.35217679999187,268.35217679999187,268.35217679999187,268.35217679999187,268.35217679999187,268.35217679999187,2,3,"[0.0012495999981183559, 0.2670042999961879, 0.3337617999932263]","[0.25046509999083355, 0.3170764000096824, 0.3672919000091497]",268.35217679999187,268.55393080000067,1000,268.55393080000067,1000,1000,1000,1000,0,num_3,0.4061617999977898,,20,9,2026-03-02_16h11.35.579,2026A_exp2,2022.2.4,59.95433876990633,
1000,1,0.0,3.7,0,0,82,82,57,,,,,268.98634589998983,269.6368966999871,269.6368966999871,270.1378885000013,315,45,270.1378885000013,270.1378885000013,270.1378885000013,270.1378885000013,270.1378885000013,270.1378885000013,270.1378885000013,270.1378885000013,270.1378885000013,270.5041932000022,270.5041932000022,270.5041932000022,270.5041932000022,270.5041932000022,270.5041932000022,270.5041932000022,270.5041932000022,270.5041932000022,0,1,[0.0013498000043909997],[0.36729309998918325],270.5041932000022,270.7070682999911,1000,270.7070682999911,1000,1000,1000,1000,1,num_2,0.3486059999850113,,20,9,2026-03-02_16h11.35.579,2026A_exp2,2022.2.4,59.95433876990633,
1000,1,0.0,4.9,0,0,83,83,53,,,,,271.07172449998325,271.72229989999323,271.72229989999323,272.2233803999843,315,45,272.2233803999843,272.2233803999843,272.2233803999843,272.2233803999843,272.2233803999843,272.2233803999843,272.2233803999843,272.2233803999843,272.2233803999843,272.5898206999991,272.5898206999991,272.5898206999991,272.5898206999991,272.5898206999991,272.5898206999991,272.5898206999991,272.5898206999991,272.5898206999991,0,1,[0.0012499000004027039],[0.36713859997689724],272.5898206999991,272.79182250000304,1000,272.79182250000304,1000,1000,1000,1000,1,num_2,0.33543590002227575,,20,9,2026-03-02_16h11.35.579,2026A_exp2,2022.2.4,59.95433876990633,
1,0,0.0,6.1,0,0,84,84,43,,,,,273.1570018999919,273.80769119999604,273.80769119999604,274.2921426999965,45,315,274.2921426999965,274.2921426999965,274.2921426999965,274.2921426999965,274.2921426999965,274.2921426999965,274.2921426999965,274.2921426999965,274.2921426999965,274.6585102999816,274.6585102999816,274.6585102999816,274.6585102999816,274.6585102999816,274.6585102999816,274.6585102999816,274.6585102999816,274.6585102999816,0,1,[0.0012280000082682818],[0.36708760002511553],274.6585102999816,274.85877200000687,0.0,274.85877200000687,1,0.0,0,0,1000,num_4,0.6203572000085842,,20,9,2026-03-02_16h11.35.579,2026A_exp2,2022.2.4,59.95433876990633,
1000,1,6.1,4.9,0,0,85,85,68,,,,,275.5093942999956,276.159908200003,276.159908200003,276.6442978999985,45,315,276.6442978999985,276.6442978999985,276.6442978999985,276.6442978999985,276.6442978999985,276.6442978999985,276.6442978999985,276.6442978999985,276.6442978999985,277.01060139999026,277.01060139999026,277.01060139999026,277.01060139999026,277.01060139999026,277.01060139999026,277.01060139999026,277.01060139999026,277.01060139999026,0,1,[0.0012136000150348991],[0.3670194000005722],277.01060139999026,277.21273159998236,1000,277.21273159998236,1000,1000,1000,1000,0,num_3,0.33855809998931363,,20,9,2026-03-02_16h11.35.579,2026A_exp2,2022.2.4,59.95433876990633,
1,0,4.9,0.0,1,0,86,86,25,,,,,277.5782116999908,278.2286752999935,278.2286752999935,278.7298581000068,45,45,278.7298581000068,278.7298581000068,278.7298581000068,278.7298581000068,278.7298581000068,278.7298581000068,278.7298581000068,278.7298581000068,278.7298581000068,279.07947649998823,279.07947649998823,279.07947649998823,279.07947649998823,279.07947649998823,279.07947649998823,279.07947649998823,279.07947649998823,279.07947649998823,2,2,"[0.0012054000108037144, 0.16694130000541918]","[0.13367190002463758, 0.3505606000253465]",279.07947649998823,279.27981340000406,0.0,279.27981340000406,0,0.0,0,1,1000,num_1,0.4951702000107616,,20,9,2026-03-02_16h11.35.579,2026A_exp2,2022.2.4,59.95433876990633,
0,0,3.7,6.1,0,0,87,87,73,,,,,279.7970490999869,280.4475839000079,280.4475839000079,280.93213669999386,45,45,280.93213669999386,280.93213669999386,280.93213669999386,280.93213669999386,280.93213669999386,280.93213669999386,280.93213669999386,280.93213669999386,280.93213669999386,281.2985653000069,281.2985653000069,281.2985653000069,281.2985653000069,281.2985653000069,281.2985653000069,281.2985653000069,281.2985653000069,281.2985653000069,0,1,[0.0012048999778926373],[0.366825399978552],281.2985653000069,281.49869169999147,6.1,281.49869169999147,1,6.1,1,1,1000,num_4,0.7561396000091918,,20,9,2026-03-02_16h11.35.579,2026A_exp2,2022.2.4,59.95433876990633,
1,0,0.0,0.0,1,0,88,88,24,,,,,282.2828551999992,282.9333825999929,282.9333825999929,283.417975999997,45,315,283.417975999997,283.417975999997,283.417975999997,283.417975999997,283.417975999997,283.417975999997,283.417975999997,283.417975999997,283.417975999997,283.78440239999327,283.78440239999327,283.78440239999327,283.78440239999327,283.78440239999327,283.78440239999327,283.78440239999327,283.78440239999327,283.78440239999327,19,2,"[0.03358610000577755, 0.13378450000891462]","[0.05039630000828765, 0.18385679999482818]",283.78440239999327,283.9844541999919,0.0,283.9844541999919,0,0.0,0,1,1000,num_1,1.1192510999972,,20,9,2026-03-02_16h11.35.579,2026A_exp2,2022.2.4,59.95433876990633,
1,0,4.9,3.7,0,0,89,89,9,,,,,285.11982100000023,285.7695309999981,285.7695309999981,286.2707853000029,45,45,286.2707853000029,286.2707853000029,286.2707853000029,286.2707853000029,286.2707853000029,286.2707853000029,286.2707853000029,286.2707853000029,286.2707853000029,286.6371844999958,286.6371844999958,286.6371844999958,286.6371844999958,286.6371844999958,286.6371844999958,286.6371844999958,286.6371844999958,286.6371844999958,4,3,"[0.0013061999925412238, 0.05026920000091195, 0.13348680001217872]","[0.03350930000306107, 0.08346339999116026, 0.36724630001117475]",286.6371844999958,286.8374452999851,4.9,286.8374452999851,1,4.9,1,1,1000,num_4,0.5936705000058282,,20,9,2026-03-02_16h11.35.579,2026A_exp2,2022.2.4,59.95433876990633,
,,,,,,,,,,,,,,,,,,,,,,,,,,,,,,,,,,,,,,,,,,,,,,,,,,,,287.4574583999929,,,,,,,
