validity,detectorcomp,contrastCW,contrastCCW,precueCWorCCW,block_80trials.thisRepN,block_80trials.thisTrialN,block_80trials.thisN,block_80trials.thisIndex,etRecord.started,etRecord.stopped,text.started,text.stopped,text_4.started,text_4.stopped,text_6.started,text_6.stopped,oriCW,oriCCW,roi_2.started,grating_UR.started,grating_UL.started,grating_LR.started,grating_LL.started,noise_UR.started,noise_UL.started,noise_LR.started,noise_LL.started,roi_2.stopped,grating_UR.stopped,grating_UL.stopped,grating_LR.stopped,grating_LL.stopped,noise_UR.stopped,noise_UL.stopped,noise_LR.stopped,noise_LL.stopped,outframe,roi_2.numLooks,roi_2.timesOn,roi_2.timesOff,text_2.started,text_2.stopped,probedcontrast,key_resp.started,respdetect,relevantContrast,correctDetect,TorFdetect,respCWorCCW,key_resp.keys,key_resp.rt,feedback_display_.started,participantNo,blockNo,date,expName,psychopyVersion,frameRate,
1,0,0.0,0.0,0,0,0,0,64,6.120000034570694e-05,6.120000034570694e-05,57.7631063000008,59.774700800015125,59.774700800015125,60.417171100009,60.417171100009,60.9380841999955,45,315,60.9380841999955,60.9380841999955,60.9380841999955,60.9380841999955,60.9380841999955,60.9380841999955,60.9380841999955,60.9380841999955,60.9380841999955,61.28467660001479,61.28467660001479,61.28467660001479,61.28467660001479,61.28467660001479,61.28467660001479,61.28467660001479,61.28467660001479,61.28467660001479,0,1,[0.0008978999976534396],[0.3677357000124175],61.28467660001479,61.484708200005116,0.0,61.484708200005116,0,0.0,0,1,1000,num_1,0.8222739000048023,,21,14,2026-03-02_18h27.12.362,2026A_exp2,2022.2.4,59.94362900772439,
1,0,3.7,0.0,1,0,1,1,73,,,,,62.335745600023074,62.98634450000827,62.98634450000827,63.487545500014676,45,45,63.487545500014676,63.487545500014676,63.487545500014676,63.487545500014676,63.487545500014676,63.487545500014676,63.487545500014676,63.487545500014676,63.487545500014676,63.83733010001015,63.83733010001015,63.83733010001015,63.83733010001015,63.83733010001015,63.83733010001015,63.83733010001015,63.83733010001015,63.83733010001015,0,1,[0.0012113999982830137],[0.35023509999155067],63.83733010001015,64.0374209000147,0.0,64.0374209000147,0,0.0,0,1,1000,num_1,0.3323545000166632,,21,14,2026-03-02_18h27.12.362,2026A_exp2,2022.2.4,59.94362900772439,
0,0,3.7,0.0,0,0,2,2,16,,,,,64.3877710000088,65.03830350001226,65.03830350001226,65.52268570000888,45,45,65.52268570000888,65.52268570000888,65.52268570000888,65.52268570000888,65.52268570000888,65.52268570000888,65.52268570000888,65.52268570000888,65.52268570000888,65.88940450001974,65.88940450001974,65.88940450001974,65.88940450001974,65.88940450001974,65.88940450001974,65.88940450001974,65.88940450001974,65.88940450001974,0,1,[0.0012741999817080796],[0.36694429998169653],65.88940450001974,66.08948920000694,0.0,66.08948920000694,0,0.0,0,1,1000,num_1,0.39230249999673106,,21,14,2026-03-02_18h27.12.362,2026A_exp2,2022.2.4,59.94362900772439,
1000,1,4.9,4.9,0,0,3,3,36,,,,,66.50619790001656,67.15717300001415,67.15717300001415,67.64181430000463,45,45,67.64181430000463,67.64181430000463,67.64181430000463,67.64181430000463,67.64181430000463,67.64181430000463,67.64181430000463,67.64181430000463,67.64181430000463,68.00799330000882,68.00799330000882,68.00799330000882,68.00799330000882,68.00799330000882,68.00799330000882,68.00799330000882,68.00799330000882,68.00799330000882,0,1,[0.0012654000020120293],[0.367212200013455],68.00799330000882,68.2132949999941,1000,68.2132949999941,1000,1000,1000,1000,0,num_3,0.6772416000021622,,21,14,2026-03-02_18h27.12.362,2026A_exp2,2022.2.4,59.94362900772439,
1,0,4.9,0.0,0,0,4,4,47,,,,,68.90900270000566,69.55961240001488,69.55961240001488,70.06061149999732,45,315,70.06061149999732,70.06061149999732,70.06061149999732,70.06061149999732,70.06061149999732,70.06061149999732,70.06061149999732,70.06061149999732,70.06061149999732,70.42706390001695,70.42706390001695,70.42706390001695,70.42706390001695,70.42706390001695,70.42706390001695,70.42706390001695,70.42706390001695,70.42706390001695,0,1,[0.00127269999939017],[0.36694470001384616],70.42706390001695,70.62723640000331,4.9,70.62723640000331,1,4.9,1,1,1000,num_4,1.0876782999839634,,21,14,2026-03-02_18h27.12.362,2026A_exp2,2022.2.4,59.94362900772439,
1,0,0.0,0.0,1,0,5,5,56,,,,,71.74502170001506,72.39575460000196,72.39575460000196,72.89700540000922,315,315,72.89700540000922,72.89700540000922,72.89700540000922,72.89700540000922,72.89700540000922,72.89700540000922,72.89700540000922,72.89700540000922,72.89700540000922,73.26322360002086,73.26322360002086,73.26322360002086,73.26322360002086,73.26322360002086,73.26322360002086,73.26322360002086,73.26322360002086,73.26322360002086,0,1,[0.0012267999991308898],[0.36734419999993406],73.26322360002086,73.46349960000953,0.0,73.46349960000953,0,0.0,0,1,1000,num_1,0.3468521000177134,,21,14,2026-03-02_18h27.12.362,2026A_exp2,2022.2.4,59.94362900772439,
1,0,0.0,4.9,1,0,6,6,2,,,,,73.83039820002159,74.48125720000826,74.48125720000826,74.9656083000009,45,315,74.9656083000009,74.9656083000009,74.9656083000009,74.9656083000009,74.9656083000009,74.9656083000009,74.9656083000009,74.9656083000009,74.9656083000009,75.33192980001331,75.33192980001331,75.33192980001331,75.33192980001331,75.33192980001331,75.33192980001331,75.33192980001331,75.33192980001331,75.33192980001331,0,1,[0.0012393000070005655],[0.3671829999948386],75.33192980001331,75.5323822000064,4.9,75.5323822000064,1,4.9,1,1,1000,num_4,0.8860767999722157,,21,14,2026-03-02_18h27.12.362,2026A_exp2,2022.2.4,59.94362900772439,
1,0,0.0,0.0,1,0,7,7,60,,,,,76.44960680001532,77.1004412000184,77.1004412000184,77.58488790001138,45,315,77.58488790001138,77.58488790001138,77.58488790001138,77.58488790001138,77.58488790001138,77.58488790001138,77.58488790001138,77.58488790001138,77.58488790001138,77.95117190000019,77.95117190000019,77.95117190000019,77.95117190000019,77.95117190000019,77.95117190000019,77.95117190000019,77.95117190000019,77.95117190000019,0,1,[0.0012451999937184155],[0.36707429998205043],77.95117190000019,78.1513937000127,0.0,78.1513937000127,0,0.0,0,1,1000,num_1,0.3308342999953311,,21,14,2026-03-02_18h27.12.362,2026A_exp2,2022.2.4,59.94362900772439,
1000,1,4.9,6.1,1,0,8,8,4,,,,,78.50173150000046,79.15254000001005,79.15254000001005,79.63692800002173,45,315,79.63692800002173,79.63692800002173,79.63692800002173,79.63692800002173,79.63692800002173,79.63692800002173,79.63692800002173,79.63692800002173,79.63692800002173,80.00334409999778,80.00334409999778,80.00334409999778,80.00334409999778,80.00334409999778,80.00334409999778,80.00334409999778,80.00334409999778,80.00334409999778,0,1,[0.0012507000064942986],[0.36713319999398664],80.00334409999778,80.20387080000364,1000,80.20387080000364,1000,1000,1000,1000,1,num_2,0.5821256999915931,,21,14,2026-03-02_18h27.12.362,2026A_exp2,2022.2.4,59.94362900772439,
1000,1,0.0,6.1,0,0,9,9,85,,,,,80.80402589999721,81.45475610002177,81.45475610002177,81.95599489999586,45,315,81.95599489999586,81.95599489999586,81.95599489999586,81.95599489999586,81.95599489999586,81.95599489999586,81.95599489999586,81.95599489999586,81.95599489999586,82.32221110002138,82.32221110002138,82.32221110002138,82.32221110002138,82.32221110002138,82.32221110002138,82.32221110002138,82.32221110002138,82.32221110002138,0,1,[0.0012440999853424728],[0.3670061999873724],82.32221110002138,82.52458680002019,1000,82.52458680002019,1000,1000,1000,1000,1,num_2,0.4541614999761805,,21,14,2026-03-02_18h27.12.362,2026A_exp2,2022.2.4,59.94362900772439,
1000,1,0.0,0.0,0,0,10,10,33,,,,,83.00642320001498,83.6570888000133,83.6570888000133,84.14135580000584,45,315,84.14135580000584,84.14135580000584,84.14135580000584,84.14135580000584,84.14135580000584,84.14135580000584,84.14135580000584,84.14135580000584,84.14135580000584,84.50795830000425,84.50795830000425,84.50795830000425,84.50795830000425,84.50795830000425,84.50795830000425,84.50795830000425,84.50795830000425,84.50795830000425,0,1,[0.0012663999805226922],[0.36715119998552836],84.50795830000425,84.70918659999734,1000,84.70918659999734,1000,1000,1000,1000,1,num_2,0.8126050000137184,,21,14,2026-03-02_18h27.12.362,2026A_exp2,2022.2.4,59.94362900772439,
1000,1,0.0,3.7,0,0,11,11,21,,,,,85.542142899998,86.19286790001206,86.19286790001206,86.69388100001379,315,45,86.69388100001379,86.69388100001379,86.69388100001379,86.69388100001379,86.69388100001379,86.69388100001379,86.69388100001379,86.69388100001379,86.69388100001379,87.06020219999482,87.06020219999482,87.06020219999482,87.06020219999482,87.06020219999482,87.06020219999482,87.06020219999482,87.06020219999482,87.06020219999482,0,1,[0.0012042000016663224],[0.3668271000206005],87.06020219999482,87.26055720000295,1000,87.26055720000295,1000,1000,1000,1000,1,num_2,0.3975716000131797,,21,14,2026-03-02_18h27.12.362,2026A_exp2,2022.2.4,59.94362900772439,
1000,1,3.7,0.0,0,0,12,12,28,,,,,87.67772190002142,88.32818750001024,88.32818750001024,88.82931689999532,45,315,88.82931689999532,88.82931689999532,88.82931689999532,88.82931689999532,88.82931689999532,88.82931689999532,88.82931689999532,88.82931689999532,88.82931689999532,89.19581190001918,89.19581190001918,89.19581190001918,89.19581190001918,89.19581190001918,89.19581190001918,89.19581190001918,89.19581190001918,89.19581190001918,0,1,[0.0012070999946445227],[0.3671796999988146],89.19581190001918,89.39620839999407,1000,89.39620839999407,1000,1000,1000,1000,0,num_3,0.4458364000020083,,21,14,2026-03-02_18h27.12.362,2026A_exp2,2022.2.4,59.94362900772439,
1000,1,0.0,3.7,1,0,13,13,86,,,,,89.86304440000094,90.51386900001671,90.51386900001671,91.01480550001725,45,315,91.01480550001725,91.01480550001725,91.01480550001725,91.01480550001725,91.01480550001725,91.01480550001725,91.01480550001725,91.01480550001725,91.01480550001725,91.36474990000715,91.36474990000715,91.36474990000715,91.36474990000715,91.36474990000715,91.36474990000715,91.36474990000715,91.36474990000715,91.36474990000715,0,1,[0.0012509000080171973],[0.3504702000063844],91.36474990000715,91.56658810001682,1000,91.56658810001682,1000,1000,1000,1000,1,num_2,0.41999580000992864,,21,14,2026-03-02_18h27.12.362,2026A_exp2,2022.2.4,59.94362900772439,
1000,1,4.9,6.1,0,0,14,14,35,,,,,92.01527560001705,92.66594070001156,92.66594070001156,93.1670446000062,45,315,93.1670446000062,93.1670446000062,93.1670446000062,93.1670446000062,93.1670446000062,93.1670446000062,93.1670446000062,93.1670446000062,93.1670446000062,93.51693430001615,93.51693430001615,93.51693430001615,93.51693430001615,93.51693430001615,93.51693430001615,93.51693430001615,93.51693430001615,93.51693430001615,0,1,[0.0012507999781519175],[0.3507235999859404],93.51693430001615,93.71927370000049,1000,93.73370860001887,1000,1000,1000,1000,1,num_2,0.3400526000186801,,21,14,2026-03-02_18h27.12.362,2026A_exp2,2022.2.4,59.94362900772439,
1,0,6.1,0.0,0,0,15,15,22,,,,,94.10066399999778,94.751399700006,94.751399700006,95.25253300002078,45,45,95.25253300002078,95.25253300002078,95.25253300002078,95.25253300002078,95.25253300002078,95.25253300002078,95.25253300002078,95.25253300002078,95.25253300002078,95.61912230000598,95.61912230000598,95.61912230000598,95.61912230000598,95.61912230000598,95.61912230000598,95.61912230000598,95.61912230000598,95.61912230000598,9,1,[0.00130969999008812],[0.23368880001362413],95.61912230000598,95.81926600000588,6.1,95.81926600000588,1,6.1,1,1,1000,num_4,0.591864899994107,,21,14,2026-03-02_18h27.12.362,2026A_exp2,2022.2.4,59.94362900772439,
1000,1,4.9,6.1,0,0,16,16,49,,,,,96.43626030001906,97.08715510001639,97.08715510001639,97.5714993000147,45,315,97.5714993000147,97.5714993000147,97.5714993000147,97.5714993000147,97.5714993000147,97.5714993000147,97.5714993000147,97.5714993000147,97.5714993000147,97.93798680001055,97.93798680001055,97.93798680001055,97.93798680001055,97.93798680001055,97.93798680001055,97.93798680001055,97.93798680001055,97.93798680001055,0,1,[0.0013174000196158886],[0.3672808000119403],97.93798680001055,98.14006220002193,1000,98.14006220002193,1000,1000,1000,1000,1,num_2,0.4696888000180479,,21,14,2026-03-02_18h27.12.362,2026A_exp2,2022.2.4,59.94362900772439,
1,0,3.7,0.0,1,0,17,17,55,,,,,98.63838109999779,99.28914130001795,99.28914130001795,99.79032709999592,45,315,99.79032709999592,99.79032709999592,99.79032709999592,99.79032709999592,99.79032709999592,99.79032709999592,99.79032709999592,99.79032709999592,99.79032709999592,100.15682940001716,100.15682940001716,100.15682940001716,100.15682940001716,100.15682940001716,100.15682940001716,100.15682940001716,100.15682940001716,100.15682940001716,0,1,[0.0008666999929118901],[0.3673658999905456],100.15682940001716,100.35707769999863,0.0,100.35707769999863,0,0.0,0,1,1000,num_1,0.32554829999571666,,21,14,2026-03-02_18h27.12.362,2026A_exp2,2022.2.4,59.94362900772439,
1,0,0.0,3.7,0,0,18,18,34,,,,,100.70724509999854,101.357918099995,101.357918099995,101.84254820001661,315,315,101.84254820001661,101.84254820001661,101.84254820001661,101.84254820001661,101.84254820001661,101.84254820001661,101.84254820001661,101.84254820001661,101.84254820001661,102.20895220001694,102.20895220001694,102.20895220001694,102.20895220001694,102.20895220001694,102.20895220001694,102.20895220001694,102.20895220001694,102.20895220001694,0,1,[0.0012448999914340675],[0.3672346000093967],102.20895220001694,102.40912080000271,0.0,102.40912080000271,0,0.0,0,1,1000,num_1,0.50478370001656,,21,14,2026-03-02_18h27.12.362,2026A_exp2,2022.2.4,59.94362900772439,
1,0,4.9,0.0,0,0,19,19,19,,,,,102.94269310001982,103.59365720002097,103.59365720002097,104.07802080002148,45,45,104.07802080002148,104.07802080002148,104.07802080002148,104.07802080002148,104.07802080002148,104.07802080002148,104.07802080002148,104.07802080002148,104.07802080002148,104.4443935000163,104.4443935000163,104.4443935000163,104.4443935000163,104.4443935000163,104.4443935000163,104.4443935000163,104.4443935000163,104.4443935000163,0,1,[0.0010608999873511493],[0.36741030000848696],104.4443935000163,104.64464080001926,4.9,104.64464080001926,1,4.9,1,1,1000,num_4,0.6771346999739762,,21,14,2026-03-02_18h27.12.362,2026A_exp2,2022.2.4,59.94362900772439,
1000,1,4.9,0.0,0,0,20,20,82,,,,,105.34529190001194,105.99610780001967,105.99610780001967,106.480455300014,315,315,106.480455300014,106.480455300014,106.480455300014,106.480455300014,106.480455300014,106.480455300014,106.480455300014,106.480455300014,106.480455300014,106.84684450001805,106.84684450001805,106.84684450001805,106.84684450001805,106.84684450001805,106.84684450001805,106.84684450001805,106.84684450001805,106.84684450001805,23,0,,,106.84684450001805,107.04876850001165,1000,107.04876850001165,1000,1000,1000,1000,0,num_3,0.46594419999746606,,21,14,2026-03-02_18h27.12.362,2026A_exp2,2022.2.4,59.94362900772439,
1000,1,0.0,0.0,1,0,21,21,78,,,,,107.53078319999622,108.18150840001181,108.18150840001181,108.68256950000068,45,45,108.68256950000068,108.68256950000068,108.68256950000068,108.68256950000068,108.68256950000068,108.68256950000068,108.68256950000068,108.68256950000068,108.68256950000068,109.04877340001985,109.04877340001985,109.04877340001985,109.04877340001985,109.04877340001985,109.04877340001985,109.04877340001985,109.04877340001985,109.04877340001985,23,0,,,109.04877340001985,109.25104050000664,1000,109.25104050000664,1000,1000,1000,1000,1,num_2,0.9672094999987166,,21,14,2026-03-02_18h27.12.362,2026A_exp2,2022.2.4,59.94362900772439,
1,0,3.7,3.7,0,0,22,22,69,,,,,110.23352639999939,110.88427060001413,110.88427060001413,111.3852743000025,315,45,111.3852743000025,111.3852743000025,111.3852743000025,111.3852743000025,111.3852743000025,111.3852743000025,111.3852743000025,111.3852743000025,111.3852743000025,111.75178180000512,111.75178180000512,111.75178180000512,111.75178180000512,111.75178180000512,111.75178180000512,111.75178180000512,111.75178180000512,111.75178180000512,0,1,[0.0012266999983694404],[0.3672369999985676],111.75178180000512,111.95205500000156,3.7,111.95205500000156,1,3.7,1,1,1000,num_4,1.4186467000108678,,21,14,2026-03-02_18h27.12.362,2026A_exp2,2022.2.4,59.94362900772439,
1000,1,0.0,6.1,0,0,23,23,5,,,,,113.38658710001619,114.03734080001595,114.03734080001595,114.52174640001613,315,45,114.52174640001613,114.52174640001613,114.52174640001613,114.52174640001613,114.52174640001613,114.52174640001613,114.52174640001613,114.52174640001613,114.52174640001613,114.88828700000886,114.88828700000886,114.88828700000886,114.88828700000886,114.88828700000886,114.88828700000886,114.88828700000886,114.88828700000886,114.88828700000886,0,1,[0.0012980000174138695],[0.3673269000137225],114.88828700000886,115.09042789999512,1000,115.09042789999512,1000,1000,1000,1000,1,num_2,0.44826930001727305,,21,14,2026-03-02_18h27.12.362,2026A_exp2,2022.2.4,59.94362900772439,
1,0,4.9,0.0,1,0,24,24,52,,,,,115.55555310001364,116.20618840001407,116.20618840001407,116.70726019999711,315,315,116.70726019999711,116.70726019999711,116.70726019999711,116.70726019999711,116.70726019999711,116.70726019999711,116.70726019999711,116.70726019999711,116.70726019999711,117.05708670002059,117.05708670002059,117.05708670002059,117.05708670002059,117.05708670002059,117.05708670002059,117.05708670002059,117.05708670002059,117.05708670002059,0,1,[0.0012131999828852713],[0.3502029999799561],117.05708670002059,117.25710129999788,0.0,117.25710129999788,0,0.0,0,1,1000,num_1,0.6087036000099033,,21,14,2026-03-02_18h27.12.362,2026A_exp2,2022.2.4,59.94362900772439,
1000,1,0.0,0.0,1,0,25,25,80,,,,,117.89130250000744,118.54187980000279,118.54187980000279,119.02641330001643,45,45,119.02641330001643,119.02641330001643,119.02641330001643,119.02641330001643,119.02641330001643,119.02641330001643,119.02641330001643,119.02641330001643,119.02641330001643,119.39273660001345,119.39273660001345,119.39273660001345,119.39273660001345,119.39273660001345,119.39273660001345,119.39273660001345,119.39273660001345,119.39273660001345,0,1,[0.0011989999911747873],[0.36733099998673424],119.39273660001345,119.5951994000061,1000,119.5951994000061,1000,1000,1000,1000,0,num_3,0.7037498999852687,,21,14,2026-03-02_18h27.12.362,2026A_exp2,2022.2.4,59.94362900772439,
1000,1,0.0,3.7,0,0,26,26,18,,,,,120.32702240001527,120.97759230001247,120.97759230001247,121.47867270000279,315,315,121.47867270000279,121.47867270000279,121.47867270000279,121.47867270000279,121.47867270000279,121.47867270000279,121.47867270000279,121.47867270000279,121.47867270000279,121.84522980000474,121.84522980000474,121.84522980000474,121.84522980000474,121.84522980000474,121.84522980000474,121.84522980000474,121.84522980000474,121.84522980000474,20,1,[0.03338229999644682],[0.08335339999757707],121.84522980000474,122.04717010000604,1000,122.04717010000604,1000,1000,1000,1000,1,num_2,0.47541569999884814,,21,14,2026-03-02_18h27.12.362,2026A_exp2,2022.2.4,59.94362900772439,
1,0,6.1,0.0,1,0,27,27,41,,,,,122.54606190000777,123.19661970000016,123.19661970000016,123.69753659999697,45,315,123.69753659999697,123.69753659999697,123.69753659999697,123.69753659999697,123.69753659999697,123.69753659999697,123.69753659999697,123.69753659999697,123.69753659999697,124.04723369999556,124.04723369999556,124.04723369999556,124.04723369999556,124.04723369999556,124.04723369999556,124.04723369999556,124.04723369999556,124.04723369999556,0,1,[0.0007208000170066953],[0.3511411999934353],124.04723369999556,124.24768020000192,0.0,124.24768020000192,0,0.0,0,1,1000,num_1,0.554926799988607,,21,14,2026-03-02_18h27.12.362,2026A_exp2,2022.2.4,59.94362900772439,
1,0,0.0,0.0,1,0,28,28,24,,,,,124.83141559999785,125.48206189999473,125.48206189999473,125.96654920000583,315,45,125.96654920000583,125.96654920000583,125.96654920000583,125.96654920000583,125.96654920000583,125.96654920000583,125.96654920000583,125.96654920000583,125.96654920000583,126.33301980001852,126.33301980001852,126.33301980001852,126.33301980001852,126.33301980001852,126.33301980001852,126.33301980001852,126.33301980001852,126.33301980001852,0,1,[0.0012580000038724393],[0.3670369000174105],126.33301980001852,126.53315410000505,0.0,126.53315410000505,0,0.0,0,1,1000,num_1,0.5730703999870457,,21,14,2026-03-02_18h27.12.362,2026A_exp2,2022.2.4,59.94362900772439,
1,0,3.7,0.0,0,0,29,29,15,,,,,127.13370609999401,127.78453620002256,127.78453620002256,128.26882190001197,315,315,128.26882190001197,128.26882190001197,128.26882190001197,128.26882190001197,128.26882190001197,128.26882190001197,128.26882190001197,128.26882190001197,128.26882190001197,128.63539730000775,128.63539730000775,128.63539730000775,128.63539730000775,128.63539730000775,128.63539730000775,128.63539730000775,128.63539730000775,128.63539730000775,23,0,,,128.63539730000775,128.83539250001195,3.7,128.83539250001195,0,3.7,1,0,1000,num_1,1.711542399978498,,21,14,2026-03-02_18h27.12.362,2026A_exp2,2022.2.4,59.94362900772439,
1,0,6.1,3.7,1,0,30,30,45,,,,,130.57044559999486,131.22131650001393,131.22131650001393,131.7222511,45,315,131.7222511,131.7222511,131.7222511,131.7222511,131.7222511,131.7222511,131.7222511,131.7222511,131.7222511,132.07184140000027,132.07184140000027,132.07184140000027,132.07184140000027,132.07184140000027,132.07184140000027,132.07184140000027,132.07184140000027,132.07184140000027,0,1,[0.001244000013684854],[0.3503525000123773],132.07184140000027,132.2723713000014,3.7,132.2723713000014,0,3.7,1,0,1000,num_1,0.7620079000189435,,21,14,2026-03-02_18h27.12.362,2026A_exp2,2022.2.4,59.94362900772439,
1000,1,0.0,4.9,1,0,31,31,51,,,,,133.05619360000128,133.7069962999958,133.7069962999958,134.19159110001056,315,45,134.19159110001056,134.19159110001056,134.19159110001056,134.19159110001056,134.19159110001056,134.19159110001056,134.19159110001056,134.19159110001056,134.19159110001056,134.55793670000276,134.55793670000276,134.55793670000276,134.55793670000276,134.55793670000276,134.55793670000276,134.55793670000276,134.55793670000276,134.55793670000276,0,1,[0.0012427000037860125],[0.3671262999996543],134.55793670000276,134.76002529999823,1000,134.76002529999823,1000,1000,1000,1000,1,num_2,0.5226273999724071,,21,14,2026-03-02_18h27.12.362,2026A_exp2,2022.2.4,59.94362900772439,
1,0,6.1,3.7,0,0,32,32,79,,,,,135.30854880000697,135.95937440000125,135.95937440000125,136.46044759999495,45,315,136.46044759999495,136.46044759999495,136.46044759999495,136.46044759999495,136.46044759999495,136.46044759999495,136.46044759999495,136.46044759999495,136.46044759999495,136.81010930001503,136.81010930001503,136.81010930001503,136.81010930001503,136.81010930001503,136.81010930001503,136.81010930001503,136.81010930001503,136.81010930001503,0,1,[0.0012377000239212066],[0.3505180000211112],136.81010930001503,137.01022190001095,6.1,137.02695210001548,1,6.1,1,1,1000,num_4,0.4074966000043787,,21,14,2026-03-02_18h27.12.362,2026A_exp2,2022.2.4,59.94362900772439,
1000,1,0.0,0.0,1,0,33,33,27,,,,,137.46089390001725,138.10548260001815,138.10548260001815,138.59581690002233,315,315,138.59581690002233,138.59581690002233,138.59581690002233,138.59581690002233,138.59581690002233,138.59581690002233,138.59581690002233,138.59581690002233,138.59581690002233,138.96221719999448,138.96221719999448,138.96221719999448,138.96221719999448,138.96221719999448,138.96221719999448,138.96221719999448,138.96221719999448,138.96221719999448,5,4,"[0.0015133999986574054, 0.1167686999833677, 0.20017530000768602, 0.316980000003241]","[0.08331190000171773, 0.18342650000704452, 0.2835460999922361, 0.3669299999892246]",138.96221719999448,139.16243700002087,1000,139.16243700002087,1000,1000,1000,1000,0,num_3,0.6795951999956742,,21,14,2026-03-02_18h27.12.362,2026A_exp2,2022.2.4,59.94362900772439,
1,0,4.9,0.0,0,0,34,34,14,,,,,139.863121900009,140.51387740002247,140.51387740002247,141.01512950001052,45,315,141.01512950001052,141.01512950001052,141.01512950001052,141.01512950001052,141.01512950001052,141.01512950001052,141.01512950001052,141.01512950001052,141.01512950001052,141.38141349999933,141.38141349999933,141.38141349999933,141.38141349999933,141.38141349999933,141.38141349999933,141.38141349999933,141.38141349999933,141.38141349999933,17,4,"[0.001206899993121624, 0.05013469999539666, 0.10034210002049804, 0.13352810000651516]","[0.017516399995656684, 0.08357859999523498, 0.11699390001012944, 0.1834464000130538]",141.38141349999933,141.58166560000973,4.9,141.58166560000973,1,4.9,1,1,1000,num_4,0.36415939999278635,,21,14,2026-03-02_18h27.12.362,2026A_exp2,2022.2.4,59.94362900772439,
1000,1,3.7,3.7,0,0,35,35,76,,,,,141.96520060001058,142.61590279999655,142.61590279999655,143.10046770001645,45,45,143.10046770001645,143.10046770001645,143.10046770001645,143.10046770001645,143.10046770001645,143.10046770001645,143.10046770001645,143.10046770001645,143.10046770001645,143.46680160000687,143.46680160000687,143.46680160000687,143.46680160000687,143.46680160000687,143.46680160000687,143.46680160000687,143.46680160000687,143.46680160000687,0,1,[0.0012618000037036836],[0.36716080000041984],143.46680160000687,143.66868250002153,1000,143.66868250002153,1000,1000,1000,1000,1,num_2,0.6784124000114389,,21,14,2026-03-02_18h27.12.362,2026A_exp2,2022.2.4,59.94362900772439,
1000,1,4.9,3.7,0,0,36,36,26,,,,,144.36760830000276,145.0182648000191,145.0182648000191,145.51953610000783,315,45,145.51953610000783,145.51953610000783,145.51953610000783,145.51953610000783,145.51953610000783,145.51953610000783,145.51953610000783,145.51953610000783,145.51953610000783,145.88588529999834,145.88588529999834,145.88588529999834,145.88588529999834,145.88588529999834,145.88588529999834,145.88588529999834,145.88588529999834,145.88588529999834,2,3,"[0.0011006999993696809, 0.23377359998994507, 0.31722379999700934]","[0.21710139999049716, 0.30066889998852275, 0.3673246999969706]",145.88588529999834,146.08799190001446,1000,146.08799190001446,1000,1000,1000,1000,1,num_2,1.658587699988857,,21,14,2026-03-02_18h27.12.362,2026A_exp2,2022.2.4,59.94362900772439,
1,0,0.0,0.0,1,0,37,37,42,,,,,147.77124030000414,148.4217067999998,148.4217067999998,148.92274110001745,45,45,148.92274110001745,148.92274110001745,148.92274110001745,148.92274110001745,148.92274110001745,148.92274110001745,148.92274110001745,148.92274110001745,148.92274110001745,149.28933590001543,149.28933590001543,149.28933590001543,149.28933590001543,149.28933590001543,149.28933590001543,149.28933590001543,149.28933590001543,149.28933590001543,0,1,[0.0012091999815311283],[0.36714930000016466],149.28933590001543,149.48934390000068,0.0,149.48934390000068,0,0.0,0,1,1000,num_1,0.3935874999733642,,21,14,2026-03-02_18h27.12.362,2026A_exp2,2022.2.4,59.94362900772439,
0,0,6.1,0.0,0,0,38,38,65,,,,,149.90654660001746,150.55717350001214,150.55717350001214,151.041687000019,45,45,151.041687000019,151.041687000019,151.041687000019,151.041687000019,151.041687000019,151.041687000019,151.041687000019,151.041687000019,151.041687000019,151.40813830000116,151.40813830000116,151.40813830000116,151.40813830000116,151.40813830000116,151.40813830000116,151.40813830000116,151.40813830000116,151.40813830000116,22,1,[0.1004337000194937],[0.11702090001199394],151.40813830000116,151.6083440000075,0.0,151.6083440000075,0,0.0,0,1,1000,num_1,0.7467361000017263,,21,14,2026-03-02_18h27.12.362,2026A_exp2,2022.2.4,59.94362900772439,
1000,1,0.0,0.0,1,0,39,39,72,,,,,152.37563740002224,153.02639440001803,153.02639440001803,153.51072980000754,45,45,153.51072980000754,153.51072980000754,153.51072980000754,153.51072980000754,153.51072980000754,153.51072980000754,153.51072980000754,153.51072980000754,153.51072980000754,153.87689300000784,153.87689300000784,153.87689300000784,153.87689300000784,153.87689300000784,153.87689300000784,153.87689300000784,153.87689300000784,153.87689300000784,0,1,[0.001191799994558096],[0.3670087000064086],153.87689300000784,154.07908419999876,1000,154.07908419999876,1000,1000,1000,1000,1,num_2,0.5785529999993742,,21,14,2026-03-02_18h27.12.362,2026A_exp2,2022.2.4,59.94362900772439,
1,0,0.0,0.0,1,0,40,40,66,,,,,154.6778433000145,155.3286238000146,155.3286238000146,155.82970850000856,45,315,155.82970850000856,155.82970850000856,155.82970850000856,155.82970850000856,155.82970850000856,155.82970850000856,155.82970850000856,155.82970850000856,155.82970850000856,156.19607980002183,156.19607980002183,156.19607980002183,156.19607980002183,156.19607980002183,156.19607980002183,156.19607980002183,156.19607980002183,156.19607980002183,23,0,,,156.19607980002183,156.39643750002142,0.0,156.39643750002142,0,0.0,0,1,1000,num_1,0.7102046000072733,,21,14,2026-03-02_18h27.12.362,2026A_exp2,2022.2.4,59.94362900772439,
1,0,4.9,6.1,1,0,41,41,62,,,,,157.1303273999947,157.78119890001835,157.78119890001835,158.2654717999976,315,45,158.2654717999976,158.2654717999976,158.2654717999976,158.2654717999976,158.2654717999976,158.2654717999976,158.2654717999976,158.2654717999976,158.2654717999976,158.6320246999967,158.6320246999967,158.6320246999967,158.6320246999967,158.6320246999967,158.6320246999967,158.6320246999967,158.6320246999967,158.6320246999967,23,0,,,158.6320246999967,158.83225860001403,6.1,158.83225860001403,1,6.1,1,1,1000,num_4,0.5301821999892127,,21,14,2026-03-02_18h27.12.362,2026A_exp2,2022.2.4,59.94362900772439,
1000,1,6.1,0.0,1,0,42,42,71,,,,,159.38266669999575,160.03331430000253,160.03331430000253,160.51769910001894,315,45,160.51769910001894,160.51769910001894,160.51769910001894,160.51769910001894,160.51769910001894,160.51769910001894,160.51769910001894,160.51769910001894,160.51769910001894,160.88410910000675,160.88410910000675,160.88410910000675,160.88410910000675,160.88410910000675,160.88410910000675,160.88410910000675,160.88410910000675,160.88410910000675,17,3,"[0.0012900000147055835, 0.10027070000069216, 0.13370630002464168]","[0.05018910000217147, 0.11680600000545382, 0.16699540000990964]",160.88410910000675,161.0875731999986,1000,161.0875731999986,1000,1000,1000,1000,0,num_3,0.6027281999995466,,21,14,2026-03-02_18h27.12.362,2026A_exp2,2022.2.4,59.94362900772439,
1000,1,4.9,3.7,1,0,43,43,46,,,,,161.71836160001112,162.3691652000125,162.3691652000125,162.87025070001255,315,45,162.87025070001255,162.87025070001255,162.87025070001255,162.87025070001255,162.87025070001255,162.87025070001255,162.87025070001255,162.87025070001255,162.87025070001255,163.2365002000006,163.2365002000006,163.2365002000006,163.2365002000006,163.2365002000006,163.2365002000006,163.2365002000006,163.2365002000006,163.2365002000006,23,0,,,163.2365002000006,163.43899090000195,1000,163.43899090000195,1000,1000,1000,1000,0,num_3,0.4677793000009842,,21,14,2026-03-02_18h27.12.362,2026A_exp2,2022.2.4,59.94362900772439,
1000,1,0.0,0.0,1,0,44,44,8,,,,,163.93722700001672,164.5879763000121,164.5879763000121,165.0891240000201,45,45,165.0891240000201,165.0891240000201,165.0891240000201,165.0891240000201,165.0891240000201,165.0891240000201,165.0891240000201,165.0891240000201,165.0891240000201,165.45548810000764,165.45548810000764,165.45548810000764,165.45548810000764,165.45548810000764,165.45548810000764,165.45548810000764,165.45548810000764,165.45548810000764,23,0,,,165.45548810000764,165.65776309999637,1000,165.65776309999637,1000,1000,1000,1000,0,num_3,0.6732566000137012,,21,14,2026-03-02_18h27.12.362,2026A_exp2,2022.2.4,59.94362900772439,
0,0,4.9,3.7,1,0,45,45,13,,,,,166.35625440001604,167.00711410000804,167.00711410000804,167.50822730001528,315,315,167.50822730001528,167.50822730001528,167.50822730001528,167.50822730001528,167.50822730001528,167.50822730001528,167.50822730001528,167.50822730001528,167.50822730001528,167.85797770001227,167.85797770001227,167.85797770001227,167.85797770001227,167.85797770001227,167.85797770001227,167.85797770001227,167.85797770001227,167.85797770001227,22,0,,,167.85797770001227,168.05784700001823,4.9,168.07462530001067,1,4.9,1,1,1000,num_4,1.06388479997986,,21,14,2026-03-02_18h27.12.362,2026A_exp2,2022.2.4,59.94362900772439,
1,0,0.0,0.0,1,0,46,46,77,,,,,169.15905000001658,169.80989190001856,169.80989190001856,170.29429400002118,45,315,170.29429400002118,170.29429400002118,170.29429400002118,170.29429400002118,170.29429400002118,170.29429400002118,170.29429400002118,170.29429400002118,170.29429400002118,170.66062000000966,170.66062000000966,170.66062000000966,170.66062000000966,170.66062000000966,170.66062000000966,170.66062000000966,170.66062000000966,170.66062000000966,23,0,,,170.66062000000966,170.860845600022,0.0,170.860845600022,0,0.0,0,1,1000,num_1,0.6774024000042118,,21,14,2026-03-02_18h27.12.362,2026A_exp2,2022.2.4,59.94362900772439,
1000,1,4.9,6.1,0,0,47,47,59,,,,,171.56159900000785,172.21210480001173,172.21210480001173,172.69673720002174,315,45,172.69673720002174,172.69673720002174,172.69673720002174,172.69673720002174,172.69673720002174,172.69673720002174,172.69673720002174,172.69673720002174,172.69673720002174,173.06313480000244,173.06313480000244,173.06313480000244,173.06313480000244,173.06313480000244,173.06313480000244,173.06313480000244,173.06313480000244,173.06313480000244,23,0,,,173.06313480000244,173.26518760001636,1000,173.26518760001636,1000,1000,1000,1000,1,num_2,0.6810973999963608,,21,14,2026-03-02_18h27.12.362,2026A_exp2,2022.2.4,59.94362900772439,
1,0,0.0,3.7,1,0,48,48,83,,,,,173.96420040001976,174.6146643999964,174.6146643999964,175.11571370001184,315,315,175.11571370001184,175.11571370001184,175.11571370001184,175.11571370001184,175.11571370001184,175.11571370001184,175.11571370001184,175.11571370001184,175.11571370001184,175.48206530002062,175.48206530002062,175.48206530002062,175.48206530002062,175.48206530002062,175.48206530002062,175.48206530002062,175.48206530002062,175.48206530002062,23,0,,,175.48206530002062,175.68235879999702,3.7,175.68235879999702,1,3.7,1,1,1000,num_4,1.0319145999965258,,21,14,2026-03-02_18h27.12.362,2026A_exp2,2022.2.4,59.94362900772439,
0,0,0.0,0.0,0,0,49,49,20,,,,,176.733241000009,177.38407450000523,177.38407450000523,177.86854550000862,315,315,177.86854550000862,177.86854550000862,177.86854550000862,177.86854550000862,177.86854550000862,177.86854550000862,177.86854550000862,177.86854550000862,177.86854550000862,178.23489110000082,178.23489110000082,178.23489110000082,178.23489110000082,178.23489110000082,178.23489110000082,178.23489110000082,178.23489110000082,178.23489110000082,23,0,,,178.23489110000082,178.43501200000173,0.0,178.43501200000173,0,0.0,0,1,1000,num_1,0.37561180000193417,,21,14,2026-03-02_18h27.12.362,2026A_exp2,2022.2.4,59.94362900772439,
1,0,4.9,4.9,1,0,50,50,32,,,,,178.83541920001153,179.48620770001435,179.48620770001435,179.97062310000183,45,315,179.97062310000183,179.97062310000183,179.97062310000183,179.97062310000183,179.97062310000183,179.97062310000183,179.97062310000183,179.97062310000183,179.97062310000183,180.3370605999953,180.3370605999953,180.3370605999953,180.3370605999953,180.3370605999953,180.3370605999953,180.3370605999953,180.3370605999953,180.3370605999953,23,0,,,180.3370605999953,180.53723240000545,4.9,180.53723240000545,1,4.9,1,1,1000,num_4,0.6169270000245888,,21,14,2026-03-02_18h27.12.362,2026A_exp2,2022.2.4,59.94362900772439,
1,0,3.7,3.7,1,0,51,51,11,,,,,181.17111630001455,181.8218651000061,181.8218651000061,182.3062784000067,315,45,182.3062784000067,182.3062784000067,182.3062784000067,182.3062784000067,182.3062784000067,182.3062784000067,182.3062784000067,182.3062784000067,182.3062784000067,182.67251910001505,182.67251910001505,182.67251910001505,182.67251910001505,182.67251910001505,182.67251910001505,182.67251910001505,182.67251910001505,182.67251910001505,23,0,,,182.67251910001505,182.8728909000056,3.7,182.8728909000056,1,3.7,1,1,1000,num_4,0.9852976000111084,,21,14,2026-03-02_18h27.12.362,2026A_exp2,2022.2.4,59.94362900772439,
1,0,3.7,6.1,0,0,52,52,74,,,,,183.8737695000018,184.52456420002272,184.52456420002272,185.0088684000075,315,45,185.0088684000075,185.0088684000075,185.0088684000075,185.0088684000075,185.0088684000075,185.0088684000075,185.0088684000075,185.0088684000075,185.0088684000075,185.37537640001392,185.37537640001392,185.37537640001392,185.37537640001392,185.37537640001392,185.37537640001392,185.37537640001392,185.37537640001392,185.37537640001392,5,5,"[0.0012638999905902892, 0.16697319998638704, 0.23373060001176782, 0.26712879998376593, 0.36703679998754524]","[0.15047510000295006, 0.21709140000166371, 0.2502849999873433, 0.33376459998544306, 0.3670409999904223]",185.37537640001392,185.57563560002018,3.7,185.57563560002018,0,3.7,1,0,1000,num_1,0.4912502999941353,,21,14,2026-03-02_18h27.12.362,2026A_exp2,2022.2.4,59.94362900772439,
1,0,3.7,4.9,0,0,53,53,70,,,,,186.09255950001534,186.74357859999873,186.74357859999873,187.22783530000015,315,45,187.22783530000015,187.22783530000015,187.22783530000015,187.22783530000015,187.22783530000015,187.22783530000015,187.22783530000015,187.22783530000015,187.22783530000015,187.5941598000063,187.5941598000063,187.5941598000063,187.5941598000063,187.5941598000063,187.5941598000063,187.5941598000063,187.5941598000063,187.5941598000063,14,5,"[0.05025460000615567, 0.13381979998666793, 0.18383009999524802, 0.26736860000528395, 0.36724120000144467]","[0.10039390000747517, 0.16708149999612942, 0.2170695999811869, 0.2839797000051476, 0.36724590000812896]",187.5941598000063,187.7944548999949,3.7,187.7944548999949,0,3.7,1,0,1000,num_1,0.5119467999902554,,21,14,2026-03-02_18h27.12.362,2026A_exp2,2022.2.4,59.94362900772439,
0,0,0.0,6.1,0,0,54,54,30,,,,,188.32836929999758,188.9790675000113,188.9790675000113,189.46341009999742,315,315,189.46341009999742,189.46341009999742,189.46341009999742,189.46341009999742,189.46341009999742,189.46341009999742,189.46341009999742,189.46341009999742,189.46341009999742,189.82972979999613,189.82972979999613,189.82972979999613,189.82972979999613,189.82972979999613,189.82972979999613,189.82972979999613,189.82972979999613,189.82972979999613,23,0,,,189.82972979999613,190.0299859000079,6.1,190.0299859000079,1,6.1,1,1,1000,num_4,0.596452900004806,,21,14,2026-03-02_18h27.12.362,2026A_exp2,2022.2.4,59.94362900772439,
1,0,0.0,0.0,0,0,55,55,75,,,,,190.64721280001686,191.29808770000818,191.29808770000818,191.78239629999734,45,315,191.78239629999734,191.78239629999734,191.78239629999734,191.78239629999734,191.78239629999734,191.78239629999734,191.78239629999734,191.78239629999734,191.78239629999734,192.14882329999818,192.14882329999818,192.14882329999818,192.14882329999818,192.14882329999818,192.14882329999818,192.14882329999818,192.14882329999818,192.14882329999818,23,0,,,192.14882329999818,192.34908270000597,0.0,192.34908270000597,0,0.0,0,1,1000,num_1,0.40600310001173057,,21,14,2026-03-02_18h27.12.362,2026A_exp2,2022.2.4,59.94362900772439,
1,0,4.9,3.7,0,0,56,56,89,,,,,192.78269230001024,193.43334000001778,193.43334000001778,193.91797020001104,315,45,193.91797020001104,193.91797020001104,193.91797020001104,193.91797020001104,193.91797020001104,193.91797020001104,193.91797020001104,193.91797020001104,193.91797020001104,194.28438409999944,194.28438409999944,194.28438409999944,194.28438409999944,194.28438409999944,194.28438409999944,194.28438409999944,194.28438409999944,194.28438409999944,23,0,,,194.28438409999944,194.48451979999663,4.9,194.48451979999663,1,4.9,1,1,1000,num_4,0.46981129999039695,,21,14,2026-03-02_18h27.12.362,2026A_exp2,2022.2.4,59.94362900772439,
0,0,0.0,6.1,0,0,57,57,12,,,,,194.98494740002207,195.63556700001936,195.63556700001936,196.13679879999836,45,45,196.13679879999836,196.13679879999836,196.13679879999836,196.13679879999836,196.13679879999836,196.13679879999836,196.13679879999836,196.13679879999836,196.13679879999836,196.48648140000296,196.48648140000296,196.48648140000296,196.48648140000296,196.48648140000296,196.48648140000296,196.48648140000296,196.48648140000296,196.48648140000296,22,0,,,196.48648140000296,196.68684330000542,6.1,196.68684330000542,1,6.1,1,1,1000,num_4,0.5154471999849193,,21,14,2026-03-02_18h27.12.362,2026A_exp2,2022.2.4,59.94362900772439,
1,0,0.0,4.9,0,0,58,58,48,,,,,197.22045290001552,197.87110790002043,197.87110790002043,198.35565770001267,45,315,198.35565770001267,198.35565770001267,198.35565770001267,198.35565770001267,198.35565770001267,198.35565770001267,198.35565770001267,198.35565770001267,198.35565770001267,198.72210030001588,198.72210030001588,198.72210030001588,198.72210030001588,198.72210030001588,198.72210030001588,198.72210030001588,198.72210030001588,198.72210030001588,23,0,,,198.72210030001588,198.92214959999546,0.0,198.92214959999546,0,0.0,0,1,1000,num_1,0.8718329999828711,,21,14,2026-03-02_18h27.12.362,2026A_exp2,2022.2.4,59.94362900772439,
1,0,0.0,6.1,1,0,59,59,17,,,,,199.82327320001787,200.47384340001736,200.47384340001736,200.95825930000865,315,45,200.95825930000865,200.95825930000865,200.95825930000865,200.95825930000865,200.95825930000865,200.95825930000865,200.95825930000865,200.95825930000865,200.95825930000865,201.32457820000127,201.32457820000127,201.32457820000127,201.32457820000127,201.32457820000127,201.32457820000127,201.32457820000127,201.32457820000127,201.32457820000127,15,2,"[0.16688589999102987, 0.350365199992666]","[0.2667252999963239, 0.36726299999281764]",201.32457820000127,201.52482419999433,6.1,201.52482419999433,1,6.1,1,1,1000,num_4,0.37426199999754317,,21,14,2026-03-02_18h27.12.362,2026A_exp2,2022.2.4,59.94362900772439,
1,0,6.1,0.0,1,0,60,60,29,,,,,201.925192900002,202.5759304999956,202.5759304999956,203.06030770001234,315,45,203.06030770001234,203.06030770001234,203.06030770001234,203.06030770001234,203.06030770001234,203.06030770001234,203.06030770001234,203.06030770001234,203.06030770001234,203.42678209999576,203.42678209999576,203.42678209999576,203.42678209999576,203.42678209999576,203.42678209999576,203.42678209999576,203.42678209999576,203.42678209999576,23,0,,,203.42678209999576,203.6269300999993,0.0,203.6269300999993,0,0.0,0,1,1000,num_1,1.8148388999979943,,21,14,2026-03-02_18h27.12.362,2026A_exp2,2022.2.4,59.94362900772439,
0,0,4.9,4.9,0,0,61,61,88,,,,,205.4622562000004,206.0964726000093,206.0964726000093,206.59718500002054,45,45,206.59718500002054,206.59718500002054,206.59718500002054,206.59718500002054,206.59718500002054,206.59718500002054,206.59718500002054,206.59718500002054,206.59718500002054,206.96345140002086,206.96345140002086,206.96345140002086,206.96345140002086,206.96345140002086,206.96345140002086,206.96345140002086,206.96345140002086,206.96345140002086,23,0,,,206.96345140002086,207.16366340001696,4.9,207.16366340001696,1,4.9,1,1,1000,num_4,0.6234302000084426,,21,14,2026-03-02_18h27.12.362,2026A_exp2,2022.2.4,59.94362900772439,
1000,1,6.1,3.7,0,0,62,62,43,,,,,207.81434149999404,208.46507570001995,208.46507570001995,208.94965009999578,315,315,208.94965009999578,208.94965009999578,208.94965009999578,208.94965009999578,208.94965009999578,208.94965009999578,208.94965009999578,208.94965009999578,208.94965009999578,209.31600360001903,209.31600360001903,209.31600360001903,209.31600360001903,209.31600360001903,209.31600360001903,209.31600360001903,209.31600360001903,209.31600360001903,23,0,,,209.31600360001903,209.51802930000122,1000,209.51802930000122,1000,1000,1000,1000,0,num_3,0.6843044999986887,,21,14,2026-03-02_18h27.12.362,2026A_exp2,2022.2.4,59.94362900772439,
1000,1,0.0,0.0,1,0,63,63,63,,,,,210.23371460000635,210.88387600000715,210.88387600000715,211.38544980000006,315,45,211.38544980000006,211.38544980000006,211.38544980000006,211.38544980000006,211.38544980000006,211.38544980000006,211.38544980000006,211.38544980000006,211.38544980000006,211.75170770002296,211.75170770002296,211.75170770002296,211.75170770002296,211.75170770002296,211.75170770002296,211.75170770002296,211.75170770002296,211.75170770002296,23,0,,,211.75170770002296,211.95364330001757,1000,211.95364330001757,1000,1000,1000,1000,0,num_3,0.9683613999804948,,21,14,2026-03-02_18h27.12.362,2026A_exp2,2022.2.4,59.94362900772439,
1000,1,4.9,4.9,1,0,64,64,67,,,,,212.93614410000737,213.58701260000817,213.58701260000817,214.08806229999755,45,315,214.08806229999755,214.08806229999755,214.08806229999755,214.08806229999755,214.08806229999755,214.08806229999755,214.08806229999755,214.08806229999755,214.08806229999755,214.4543268000125,214.4543268000125,214.4543268000125,214.4543268000125,214.4543268000125,214.4543268000125,214.4543268000125,214.4543268000125,214.4543268000125,23,0,,,214.4543268000125,214.65621099999407,1000,214.65621099999407,1000,1000,1000,1000,0,num_3,1.2748539000167511,,21,14,2026-03-02_18h27.12.362,2026A_exp2,2022.2.4,59.94362900772439,
1000,1,6.1,0.0,1,0,65,65,61,,,,,215.95578360001673,216.6065986000176,216.6065986000176,217.10752550000325,315,45,217.10752550000325,217.10752550000325,217.10752550000325,217.10752550000325,217.10752550000325,217.10752550000325,217.10752550000325,217.10752550000325,217.10752550000325,217.47419560002163,217.47419560002163,217.47419560002163,217.47419560002163,217.47419560002163,217.47419560002163,217.47419560002163,217.47419560002163,217.47419560002163,23,0,,,217.47419560002163,217.67637820000527,1000,217.67637820000527,1000,1000,1000,1000,0,num_3,0.4625258000160102,,21,14,2026-03-02_18h27.12.362,2026A_exp2,2022.2.4,59.94362900772439,
0,0,0.0,6.1,1,0,66,66,84,,,,,218.1580412000185,218.80882210002164,218.80882210002164,219.30987220001407,315,315,219.30987220001407,219.30987220001407,219.30987220001407,219.30987220001407,219.30987220001407,219.30987220001407,219.30987220001407,219.30987220001407,219.30987220001407,219.6764255000162,219.6764255000162,219.6764255000162,219.6764255000162,219.6764255000162,219.6764255000162,219.6764255000162,219.6764255000162,219.6764255000162,23,0,,,219.6764255000162,219.87656720000086,0.0,219.87656720000086,0,0.0,0,1,1000,num_1,0.9012727999943309,,21,14,2026-03-02_18h27.12.362,2026A_exp2,2022.2.4,59.94362900772439,
1,0,6.1,0.0,1,0,67,67,23,,,,,220.79399110001395,221.44479589999537,221.44479589999537,221.92959270000574,45,45,221.92959270000574,221.92959270000574,221.92959270000574,221.92959270000574,221.92959270000574,221.92959270000574,221.92959270000574,221.92959270000574,221.92959270000574,222.29569540001103,222.29569540001103,222.29569540001103,222.29569540001103,222.29569540001103,222.29569540001103,222.29569540001103,222.29569540001103,222.29569540001103,23,0,,,222.29569540001103,222.49582370001008,0.0,222.49582370001008,0,0.0,0,1,1000,num_1,0.7704664999910165,,21,14,2026-03-02_18h27.12.362,2026A_exp2,2022.2.4,59.94362900772439,
1,0,0.0,0.0,0,0,68,68,31,,,,,223.29670360000455,223.9473546000081,223.9473546000081,224.44845789999817,45,315,224.44845789999817,224.44845789999817,224.44845789999817,224.44845789999817,224.44845789999817,224.44845789999817,224.44845789999817,224.44845789999817,224.44845789999817,224.7981742999982,224.7981742999982,224.7981742999982,224.7981742999982,224.7981742999982,224.7981742999982,224.7981742999982,224.7981742999982,224.7981742999982,22,0,,,224.7981742999982,224.99842570000328,0.0,224.99842570000328,0,0.0,0,1,1000,num_1,0.5873256000049878,,21,14,2026-03-02_18h27.12.362,2026A_exp2,2022.2.4,59.94362900772439,
1,0,0.0,6.1,1,0,69,69,39,,,,,225.615544100001,226.2662762000109,226.2662762000109,226.75078610001947,45,315,226.75078610001947,226.75078610001947,226.75078610001947,226.75078610001947,226.75078610001947,226.75078610001947,226.75078610001947,226.75078610001947,226.75078610001947,227.1170645999955,227.1170645999955,227.1170645999955,227.1170645999955,227.1170645999955,227.1170645999955,227.1170645999955,227.1170645999955,227.1170645999955,23,0,,,227.1170645999955,227.3172978000075,6.1,227.3172978000075,1,6.1,1,1,1000,num_4,0.3890728999977,,21,14,2026-03-02_18h27.12.362,2026A_exp2,2022.2.4,59.94362900772439,
1,0,0.0,0.0,0,0,70,70,87,,,,,227.73421320001944,228.3850517999963,228.3850517999963,228.86949490002007,45,45,228.86949490002007,228.86949490002007,228.86949490002007,228.86949490002007,228.86949490002007,228.86949490002007,228.86949490002007,228.86949490002007,228.86949490002007,229.2360554000188,229.2360554000188,229.2360554000188,229.2360554000188,229.2360554000188,229.2360554000188,229.2360554000188,229.2360554000188,229.2360554000188,18,5,"[0.0012462000013329089, 0.03361489999224432, 0.10019860000465997, 0.16716060001635924, 0.3000494000152685]","[0.01738350000232458, 0.05023270001402125, 0.11700930001097731, 0.1836542999953963, 0.3168129000114277]",229.2360554000188,229.43595380001352,0.0,229.43595380001352,0,0.0,0,1,1000,num_1,0.43015150001156144,,21,14,2026-03-02_18h27.12.362,2026A_exp2,2022.2.4,59.94362900772439,
1000,1,0.0,3.7,1,0,71,71,7,,,,,229.886402300006,230.5371945000079,230.5371945000079,231.03829779999796,45,315,231.03829779999796,231.03829779999796,231.03829779999796,231.03829779999796,231.03829779999796,231.03829779999796,231.03829779999796,231.03829779999796,231.03829779999796,231.3880255999975,231.3880255999975,231.3880255999975,231.3880255999975,231.3880255999975,231.3880255999975,231.3880255999975,231.3880255999975,231.3880255999975,22,0,,,231.3880255999975,231.58996539999498,1000,231.60498060000828,1000,1000,1000,1000,1,num_2,0.6128279999829829,,21,14,2026-03-02_18h27.12.362,2026A_exp2,2022.2.4,59.94362900772439,
1,0,0.0,4.9,1,0,72,72,44,,,,,232.23865240000305,232.88952950001112,232.88952950001112,233.3907487000106,315,45,233.3907487000106,233.3907487000106,233.3907487000106,233.3907487000106,233.3907487000106,233.3907487000106,233.3907487000106,233.3907487000106,233.3907487000106,233.75707829999737,233.75707829999737,233.75707829999737,233.75707829999737,233.75707829999737,233.75707829999737,233.75707829999737,233.75707829999737,233.75707829999737,23,0,,,233.75707829999737,233.9572129000153,4.9,233.9572129000153,1,4.9,1,1,1000,num_4,0.5007222999993246,,21,14,2026-03-02_18h27.12.362,2026A_exp2,2022.2.4,59.94362900772439,
0,0,0.0,0.0,0,0,73,73,10,,,,,234.47439160000067,235.10848330002045,235.10848330002045,235.60947440000018,45,45,235.60947440000018,235.60947440000018,235.60947440000018,235.60947440000018,235.60947440000018,235.60947440000018,235.60947440000018,235.60947440000018,235.60947440000018,235.97593340001185,235.97593340001185,235.97593340001185,235.97593340001185,235.97593340001185,235.97593340001185,235.97593340001185,235.97593340001185,235.97593340001185,23,0,,,235.97593340001185,236.1761960000149,0.0,236.1761960000149,0,0.0,0,1,1000,num_1,1.3385966999921948,,21,14,2026-03-02_18h27.12.362,2026A_exp2,2022.2.4,59.94362900772439,
1,0,6.1,0.0,0,0,74,74,58,,,,,237.54412249999586,238.194885600009,238.194885600009,238.67921000000206,315,45,238.67921000000206,238.67921000000206,238.67921000000206,238.67921000000206,238.67921000000206,238.67921000000206,238.67921000000206,238.67921000000206,238.67921000000206,239.04569329999504,239.04569329999504,239.04569329999504,239.04569329999504,239.04569329999504,239.04569329999504,239.04569329999504,239.04569329999504,239.04569329999504,21,1,[0.03357050000340678],[0.06697030001669191],239.04569329999504,239.24598390000756,6.1,239.24598390000756,1,6.1,1,1,1000,num_4,0.3883633999794256,,21,14,2026-03-02_18h27.12.362,2026A_exp2,2022.2.4,59.94362900772439,
1000,1,3.7,3.7,1,0,75,75,25,,,,,239.66291680000722,240.31371970000328,240.31371970000328,240.79809520000708,45,315,240.79809520000708,240.79809520000708,240.79809520000708,240.79809520000708,240.79809520000708,240.79809520000708,240.79809520000708,240.79809520000708,240.79809520000708,241.1643285000173,241.1643285000173,241.1643285000173,241.1643285000173,241.1643285000173,241.1643285000173,241.1643285000173,241.1643285000173,241.1643285000173,22,1,[0.36714250000659376],[0.3671473000140395],241.1643285000173,241.366760600009,1000,241.366760600009,1000,1000,1000,1000,1,num_2,0.9794132000242826,,21,14,2026-03-02_18h27.12.362,2026A_exp2,2022.2.4,59.94362900772439,
1000,1,3.7,0.0,1,0,76,76,54,,,,,242.36561150001944,243.01636480001616,243.01636480001616,243.51759800000582,315,45,243.51759800000582,243.51759800000582,243.51759800000582,243.51759800000582,243.51759800000582,243.51759800000582,243.51759800000582,243.51759800000582,243.51759800000582,243.88374370001839,243.88374370001839,243.88374370001839,243.88374370001839,243.88374370001839,243.88374370001839,243.88374370001839,243.88374370001839,243.88374370001839,23,0,,,243.88374370001839,244.0857532999944,1000,244.0857532999944,1000,1000,1000,1000,0,num_3,0.5809134000155609,,21,14,2026-03-02_18h27.12.362,2026A_exp2,2022.2.4,59.94362900772439,
1,0,0.0,4.9,0,0,77,77,9,,,,,244.68466940001235,245.3353282000171,245.3353282000171,245.83643150000717,45,315,245.83643150000717,245.83643150000717,245.83643150000717,245.83643150000717,245.83643150000717,245.83643150000717,245.83643150000717,245.83643150000717,245.83643150000717,246.18622540001525,246.18622540001525,246.18622540001525,246.18622540001525,246.18622540001525,246.18622540001525,246.18622540001525,246.18622540001525,246.18622540001525,22,0,,,246.18622540001525,246.38643640000373,0.0,246.38643640000373,0,0.0,0,1,1000,num_1,0.7124046999961138,,21,14,2026-03-02_18h27.12.362,2026A_exp2,2022.2.4,59.94362900772439,
1000,1,0.0,0.0,1,0,78,78,37,,,,,247.12028279999504,247.77115539999795,247.77115539999795,248.25550739999744,45,45,248.25550739999744,248.25550739999744,248.25550739999744,248.25550739999744,248.25550739999744,248.25550739999744,248.25550739999744,248.25550739999744,248.25550739999744,248.62199200000032,248.62199200000032,248.62199200000032,248.62199200000032,248.62199200000032,248.62199200000032,248.62199200000032,248.62199200000032,248.62199200000032,23,0,,,248.62199200000032,248.8238806000154,1000,248.8238806000154,1000,1000,1000,1000,0,num_3,0.6978066999872681,,21,14,2026-03-02_18h27.12.362,2026A_exp2,2022.2.4,59.94362900772439,
1000,1,0.0,3.7,1,0,79,79,81,,,,,249.53943110001273,250.19025850002072,250.19025850002072,250.69124580000062,315,45,250.69124580000062,250.69124580000062,250.69124580000062,250.69124580000062,250.69124580000062,250.69124580000062,250.69124580000062,250.69124580000062,250.69124580000062,251.05767100001685,251.05767100001685,251.05767100001685,251.05767100001685,251.05767100001685,251.05767100001685,251.05767100001685,251.05767100001685,251.05767100001685,23,0,,,251.05767100001685,251.26020459999563,1000,251.26020459999563,1000,1000,1000,1000,1,num_2,0.47750900001847185,,21,14,2026-03-02_18h27.12.362,2026A_exp2,2022.2.4,59.94362900772439,
1,0,4.9,0.0,0,0,80,80,57,,,,,251.75844410000718,252.4090286999999,252.4090286999999,252.91007149999496,315,315,252.91007149999496,252.91007149999496,252.91007149999496,252.91007149999496,252.91007149999496,252.91007149999496,252.91007149999496,252.91007149999496,252.91007149999496,253.27663110001595,253.27663110001595,253.27663110001595,253.27663110001595,253.27663110001595,253.27663110001595,253.27663110001595,253.27663110001595,253.27663110001595,23,0,,,253.27663110001595,253.47682630000054,4.9,253.47682630000054,1,4.9,1,1,1000,num_4,0.5258280000125524,,21,14,2026-03-02_18h27.12.362,2026A_exp2,2022.2.4,59.94362900772439,
0,0,3.7,0.0,1,0,81,81,0,,,,,254.02726580001763,254.6781372000114,254.6781372000114,255.16241240000818,45,315,255.16241240000818,255.16241240000818,255.16241240000818,255.16241240000818,255.16241240000818,255.16241240000818,255.16241240000818,255.16241240000818,255.16241240000818,255.52890790000674,255.52890790000674,255.52890790000674,255.52890790000674,255.52890790000674,255.52890790000674,255.52890790000674,255.52890790000674,255.52890790000674,23,0,,,255.52890790000674,255.72900449999725,3.7,255.72900449999725,0,3.7,1,0,1000,num_1,0.8808872999798041,,21,14,2026-03-02_18h27.12.362,2026A_exp2,2022.2.4,59.94362900772439,
1,0,6.1,4.9,1,0,82,82,38,,,,,256.6298115999962,257.280497300002,257.280497300002,257.7650480000011,45,315,257.7650480000011,257.7650480000011,257.7650480000011,257.7650480000011,257.7650480000011,257.7650480000011,257.7650480000011,257.7650480000011,257.7650480000011,258.1315367000061,258.1315367000061,258.1315367000061,258.1315367000061,258.1315367000061,258.1315367000061,258.1315367000061,258.1315367000061,258.1315367000061,23,0,,,258.1315367000061,258.3315844000026,4.9,258.3315844000026,0,4.9,1,0,1000,num_1,2.206901800003834,,21,14,2026-03-02_18h27.12.362,2026A_exp2,2022.2.4,59.94362900772439,
1000,1,0.0,6.1,1,0,83,83,40,,,,,260.56706230001873,261.2177823999955,261.2177823999955,261.70236570001,315,45,261.70236570001,261.70236570001,261.70236570001,261.70236570001,261.70236570001,261.70236570001,261.70236570001,261.70236570001,261.70236570001,262.06874350001453,262.06874350001453,262.06874350001453,262.06874350001453,262.06874350001453,262.06874350001453,262.06874350001453,262.06874350001453,262.06874350001453,23,0,,,262.06874350001453,262.27097300000605,1000,262.27097300000605,1000,1000,1000,1000,1,num_2,0.6509788999974262,,21,14,2026-03-02_18h27.12.362,2026A_exp2,2022.2.4,59.94362900772439,
0,0,4.9,6.1,0,0,84,84,1,,,,,262.9530233000114,263.6037101999973,263.6037101999973,264.1046864000091,45,315,264.1046864000091,264.1046864000091,264.1046864000091,264.1046864000091,264.1046864000091,264.1046864000091,264.1046864000091,264.1046864000091,264.1046864000091,264.45443559999694,264.45443559999694,264.45443559999694,264.45443559999694,264.45443559999694,264.45443559999694,264.45443559999694,264.45443559999694,264.45443559999694,22,0,,,264.45443559999694,264.6544883000024,6.1,264.6709565000201,1,6.1,1,1,1000,num_4,1.8432067999965511,,21,14,2026-03-02_18h27.12.362,2026A_exp2,2022.2.4,59.94362900772439,
1,0,0.0,6.1,0,0,85,85,3,,,,,266.5399438000168,267.1902254000015,267.1902254000015,267.67497260001255,45,315,267.67497260001255,267.67497260001255,267.67497260001255,267.67497260001255,267.67497260001255,267.67497260001255,267.67497260001255,267.67497260001255,267.67497260001255,268.0411315000092,268.0411315000092,268.0411315000092,268.0411315000092,268.0411315000092,268.0411315000092,268.0411315000092,268.0411315000092,268.0411315000092,23,0,,,268.0411315000092,268.2416669999948,0.0,268.2416669999948,0,0.0,0,1,1000,num_1,0.5521236999775283,,21,14,2026-03-02_18h27.12.362,2026A_exp2,2022.2.4,59.94362900772439,
1,0,0.0,0.0,1,0,86,86,68,,,,,268.82541320001474,269.47631009999895,269.47631009999895,269.9772471000033,45,45,269.9772471000033,269.9772471000033,269.9772471000033,269.9772471000033,269.9772471000033,269.9772471000033,269.9772471000033,269.9772471000033,269.9772471000033,270.32686380000087,270.32686380000087,270.32686380000087,270.32686380000087,270.32686380000087,270.32686380000087,270.32686380000087,270.32686380000087,270.32686380000087,22,0,,,270.32686380000087,270.5271978999954,0.0,270.5271978999954,0,0.0,0,1,1000,num_1,0.3949369000038132,,21,14,2026-03-02_18h27.12.362,2026A_exp2,2022.2.4,59.94362900772439,
1000,1,0.0,4.9,0,0,87,87,50,,,,,270.9440880000184,271.5948696999985,271.5948696999985,272.07927159999963,45,315,272.07927159999963,272.07927159999963,272.07927159999963,272.07927159999963,272.07927159999963,272.07927159999963,272.07927159999963,272.07927159999963,272.07927159999963,272.4456820000196,272.4456820000196,272.4456820000196,272.4456820000196,272.4456820000196,272.4456820000196,272.4456820000196,272.4456820000196,272.4456820000196,23,0,,,272.4456820000196,272.64773910000804,1000,272.64773910000804,1000,1000,1000,1000,1,num_2,0.5380673999898136,,21,14,2026-03-02_18h27.12.362,2026A_exp2,2022.2.4,59.94362900772439,
1000,1,4.9,4.9,0,0,88,88,6,,,,,273.21319599999697,273.8639214000141,273.8639214000141,274.3650273999956,315,315,274.3650273999956,274.3650273999956,274.3650273999956,274.3650273999956,274.3650273999956,274.3650273999956,274.3650273999956,274.3650273999956,274.3650273999956,274.71477869999944,274.71477869999944,274.71477869999944,274.71477869999944,274.71477869999944,274.71477869999944,274.71477869999944,274.71477869999944,274.71477869999944,22,0,,,274.71477869999944,274.9165844999952,1000,274.93167099999846,1000,1000,1000,1000,1,num_2,0.7982361000031233,,21,14,2026-03-02_18h27.12.362,2026A_exp2,2022.2.4,59.94362900772439,
1,0,6.1,0.0,1,0,89,89,53,,,,,275.7489894000173,276.3995692000026,276.3995692000026,276.900764799997,315,315,276.900764799997,276.900764799997,276.900764799997,276.900764799997,276.900764799997,276.900764799997,276.900764799997,276.900764799997,276.900764799997,277.2673124000139,277.2673124000139,277.2673124000139,277.2673124000139,277.2673124000139,277.2673124000139,277.2673124000139,277.2673124000139,277.2673124000139,23,0,,,277.2673124000139,277.4674346999964,0.0,277.4674346999964,0,0.0,0,1,1000,num_1,0.7187049999774899,,21,14,2026-03-02_18h27.12.362,2026A_exp2,2022.2.4,59.94362900772439,
,,,,,,,,,,,,,,,,,,,,,,,,,,,,,,,,,,,,,,,,,,,,,,,,,,,,278.24166729999706,,,,,,,
