validity,detectorcomp,contrastCW,contrastCCW,precueCWorCCW,block_80trials.thisRepN,block_80trials.thisTrialN,block_80trials.thisN,block_80trials.thisIndex,etRecord.started,etRecord.stopped,text.started,text.stopped,text_4.started,text_4.stopped,text_6.started,text_6.stopped,oriCW,oriCCW,roi_2.started,grating_UR.started,grating_UL.started,grating_LR.started,grating_LL.started,noise_UR.started,noise_UL.started,noise_LR.started,noise_LL.started,roi_2.stopped,grating_UR.stopped,grating_UL.stopped,grating_LR.stopped,grating_LL.stopped,noise_UR.stopped,noise_UL.stopped,noise_LR.stopped,noise_LL.stopped,outframe,roi_2.numLooks,roi_2.timesOn,roi_2.timesOff,text_2.started,text_2.stopped,probedcontrast,key_resp.started,respdetect,relevantContrast,correctDetect,TorFdetect,respCWorCCW,key_resp.keys,key_resp.rt,feedback_display_.started,participantNo,blockNo,date,expName,psychopyVersion,frameRate,
1000,1,6.1,0.0,0,0,0,0,8,3.3899996196851134e-05,3.3899996196851134e-05,55.64153150000493,57.64323849999346,57.64323849999346,58.27715549999266,58.27715549999266,58.79749170001014,315,315,58.79749170001014,58.79749170001014,58.79749170001014,58.79749170001014,58.79749170001014,58.79749170001014,58.79749170001014,58.79749170001014,58.79749170001014,59.1450914000161,59.1450914000161,59.1450914000161,59.1450914000161,59.1450914000161,59.1450914000161,59.1450914000161,59.1450914000161,59.1450914000161,0,1,[0.001035199995385483],[0.36588969998410903],59.1450914000161,59.3459647000127,1000,59.3459647000127,1000,1000,1000,1000,0,num_3,0.7487523999880068,,21,16,2026-03-02_18h38.37.740,2026A_exp2,2022.2.4,60.02094730940491,
1000,1,4.9,4.9,1,0,1,1,60,,,,,60.11240350001026,60.76311130000977,60.76311130000977,61.26421019999543,45,45,61.26421019999543,61.26421019999543,61.26421019999543,61.26421019999543,61.26421019999543,61.26421019999543,61.26421019999543,61.26421019999543,61.26421019999543,61.6143265000137,61.6143265000137,61.6143265000137,61.6143265000137,61.6143265000137,61.6143265000137,61.6143265000137,61.6143265000137,61.6143265000137,0,1,[0.0008969999908003956],[0.3509188999887556],61.6143265000137,61.814291000016965,1000,61.8308512000076,1000,1000,1000,1000,0,num_3,0.6631826999946497,,21,16,2026-03-02_18h38.37.740,2026A_exp2,2022.2.4,60.02094730940491,
1000,1,4.9,0.0,0,0,2,2,20,,,,,62.51507150000543,63.16552090001642,63.16552090001642,63.66745840001386,315,45,63.66745840001386,63.66745840001386,63.66745840001386,63.66745840001386,63.66745840001386,63.66745840001386,63.66745840001386,63.66745840001386,63.66745840001386,64.032881799998,64.032881799998,64.032881799998,64.032881799998,64.032881799998,64.032881799998,64.032881799998,64.032881799998,64.032881799998,0,1,[0.0008352000149898231],[0.36584060001769103],64.032881799998,64.23417109998991,1000,64.23417109998991,1000,1000,1000,1000,0,num_3,0.4444217999698594,,21,16,2026-03-02_18h38.37.740,2026A_exp2,2022.2.4,60.02094730940491,
1000,1,6.1,0.0,0,0,3,3,68,,,,,64.70056510000722,65.33441519999178,65.33441519999178,65.83541570001398,45,45,65.83541570001398,65.83541570001398,65.83541570001398,65.83541570001398,65.83541570001398,65.83541570001398,65.83541570001398,65.83541570001398,65.83541570001398,66.2018011000182,66.2018011000182,66.2018011000182,66.2018011000182,66.2018011000182,66.2018011000182,66.2018011000182,66.2018011000182,66.2018011000182,0,1,[0.0008001999813131988],[0.3678417999763042],66.2018011000182,66.40193500000169,1000,66.40193500000169,1000,1000,1000,1000,0,num_3,0.33191599999554455,,21,16,2026-03-02_18h38.37.740,2026A_exp2,2022.2.4,60.02094730940491,
1000,1,3.7,0.0,1,0,4,4,44,,,,,66.75243059999775,67.38713509999798,67.38713509999798,67.88743689999683,315,315,67.88743689999683,67.88743689999683,67.88743689999683,67.88743689999683,67.88743689999683,67.88743689999683,67.88743689999683,67.88743689999683,67.88743689999683,68.25382020001416,68.25382020001416,68.25382020001416,68.25382020001416,68.25382020001416,68.25382020001416,68.25382020001416,68.25382020001416,68.25382020001416,0,1,[0.0009558000019751489],[0.3668404000054579],68.25382020001416,68.45413100000587,1000,68.45413100000587,1000,1000,1000,1000,0,num_3,0.3918916000111494,,21,16,2026-03-02_18h38.37.740,2026A_exp2,2022.2.4,60.02094730940491,
1,0,0.0,3.7,1,0,5,5,10,,,,,68.87121750001097,69.52179659999092,69.52179659999092,70.00639190000948,315,315,70.00639190000948,70.00639190000948,70.00639190000948,70.00639190000948,70.00639190000948,70.00639190000948,70.00639190000948,70.00639190000948,70.00639190000948,70.3730668000062,70.3730668000062,70.3730668000062,70.3730668000062,70.3730668000062,70.3730668000062,70.3730668000062,70.3730668000062,70.3730668000062,0,1,[0.0007428999815601856],[0.367329200002132],70.3730668000062,70.57278190000216,3.7,70.57278190000216,1,3.7,1,1,1000,num_4,3.6574397000076715,,21,16,2026-03-02_18h38.37.740,2026A_exp2,2022.2.4,60.02094730940491,
1,0,6.1,6.1,1,0,6,6,89,,,,,74.25970039999811,74.9104687999934,74.9104687999934,75.39493909999146,315,315,75.39493909999146,75.39493909999146,75.39493909999146,75.39493909999146,75.39493909999146,75.39493909999146,75.39493909999146,75.39493909999146,75.39493909999146,75.76118390000192,75.76118390000192,75.76118390000192,75.76118390000192,75.76118390000192,75.76118390000192,75.76118390000192,75.76118390000192,75.76118390000192,0,1,[0.0007645000005140901],[0.3670859999838285],75.76118390000192,75.96162620000541,6.1,75.96162620000541,0,6.1,1,0,1000,num_1,1.1244911999965552,,21,16,2026-03-02_18h38.37.740,2026A_exp2,2022.2.4,60.02094730940491,
1000,1,3.7,3.7,0,0,7,7,16,,,,,77.11345160001656,77.76323250000132,77.76323250000132,78.24775450001471,315,315,78.24775450001471,78.24775450001471,78.24775450001471,78.24775450001471,78.24775450001471,78.24775450001471,78.24775450001471,78.24775450001471,78.24775450001471,78.61440290001337,78.61440290001337,78.61440290001337,78.61440290001337,78.61440290001337,78.61440290001337,78.61440290001337,78.61440290001337,78.61440290001337,0,1,[0.0007209999894257635],[0.36722779998672195],78.61440290001337,78.81465849999222,1000,78.81465849999222,1000,1000,1000,1000,1,num_2,0.9530351999856066,,21,16,2026-03-02_18h38.37.740,2026A_exp2,2022.2.4,60.02094730940491,
1000,1,3.7,4.9,0,0,8,8,13,,,,,79.79882080000243,80.43268790000002,80.43268790000002,80.93366320000496,315,315,80.93366320000496,80.93366320000496,80.93366320000496,80.93366320000496,80.93366320000496,80.93366320000496,80.93366320000496,80.93366320000496,80.93366320000496,81.30001679999987,81.30001679999987,81.30001679999987,81.30001679999987,81.30001679999987,81.30001679999987,81.30001679999987,81.30001679999987,81.30001679999987,0,1,[0.0007387999794445932],[0.3673607999808155],81.30001679999987,81.50064770001336,1000,81.50064770001336,1000,1000,1000,1000,1,num_2,0.5461020999937318,,21,16,2026-03-02_18h38.37.740,2026A_exp2,2022.2.4,60.02094730940491,
1000,1,3.7,0.0,1,0,9,9,33,,,,,82.06814069999382,82.71820800000569,82.71820800000569,83.21988129999954,45,315,83.21988129999954,83.21988129999954,83.21988129999954,83.21988129999954,83.21988129999954,83.21988129999954,83.21988129999954,83.21988129999954,83.21988129999954,83.56908909999765,83.56908909999765,83.56908909999765,83.56908909999765,83.56908909999765,83.56908909999765,83.56908909999765,83.56908909999765,83.56908909999765,0,1,[0.0007674000225961208],[0.3504075000237208],83.56908909999765,83.76937640001415,1000,83.76937640001415,1000,1000,1000,1000,0,num_3,0.46068459999514744,,21,16,2026-03-02_18h38.37.740,2026A_exp2,2022.2.4,60.02094730940491,
1000,1,6.1,3.7,1,0,10,10,45,,,,,84.2533381000103,84.9040559999994,84.9040559999994,85.40562100001262,45,45,85.40562100001262,85.40562100001262,85.40562100001262,85.40562100001262,85.40562100001262,85.40562100001262,85.40562100001262,85.40562100001262,85.40562100001262,85.7711505999905,85.7711505999905,85.7711505999905,85.7711505999905,85.7711505999905,85.7711505999905,85.7711505999905,85.7711505999905,85.7711505999905,23,0,,,85.7711505999905,85.9715572000132,1000,85.9715572000132,1000,1000,1000,1000,0,num_3,0.3631425999919884,,21,16,2026-03-02_18h38.37.740,2026A_exp2,2022.2.4,60.02094730940491,
1000,1,3.7,3.7,1,0,11,11,88,,,,,86.35531010001432,87.00572290000855,87.00572290000855,87.4902962000051,315,315,87.4902962000051,87.4902962000051,87.4902962000051,87.4902962000051,87.4902962000051,87.4902962000051,87.4902962000051,87.4902962000051,87.4902962000051,87.8567810000095,87.8567810000095,87.8567810000095,87.8567810000095,87.8567810000095,87.8567810000095,87.8567810000095,87.8567810000095,87.8567810000095,0,1,[0.0007634000212419778],[0.36734789999900386],87.8567810000095,88.05718490001163,1000,88.05718490001163,1000,1000,1000,1000,0,num_3,0.6611744999827351,,21,16,2026-03-02_18h38.37.740,2026A_exp2,2022.2.4,60.02094730940491,
1,0,0.0,3.7,0,0,12,12,1,,,,,88.74219489999814,89.39176230001613,89.39176230001613,89.8925784000021,45,45,89.8925784000021,89.8925784000021,89.8925784000021,89.8925784000021,89.8925784000021,89.8925784000021,89.8925784000021,89.8925784000021,89.8925784000021,90.25898030001554,90.25898030001554,90.25898030001554,90.25898030001554,90.25898030001554,90.25898030001554,90.25898030001554,90.25898030001554,90.25898030001554,0,1,[0.0008762000070419163],[0.36701170000014827],90.25898030001554,90.45918000000529,0.0,90.45918000000529,0,0.0,0,1,1000,num_1,0.6108513999788556,,21,16,2026-03-02_18h38.37.740,2026A_exp2,2022.2.4,60.02094730940491,
0,0,0.0,0.0,0,0,13,13,67,,,,,91.09323430000222,91.72731760001625,91.72731760001625,92.22852850001073,315,315,92.22852850001073,92.22852850001073,92.22852850001073,92.22852850001073,92.22852850001073,92.22852850001073,92.22852850001073,92.22852850001073,92.22852850001073,92.5950514000142,92.5950514000142,92.5950514000142,92.5950514000142,92.5950514000142,92.5950514000142,92.5950514000142,92.5950514000142,92.5950514000142,0,1,[0.0007337999995797873],[0.36749289999715984],92.5950514000142,92.79560070001753,0.0,92.79560070001753,0,0.0,0,1,1000,num_1,0.3547351000015624,,21,16,2026-03-02_18h38.37.740,2026A_exp2,2022.2.4,60.02094730940491,
1000,1,4.9,3.7,1,0,14,14,14,,,,,93.17939760000445,93.82939190001343,93.82939190001343,94.3140490000078,45,315,94.3140490000078,94.3140490000078,94.3140490000078,94.3140490000078,94.3140490000078,94.3140490000078,94.3140490000078,94.3140490000078,94.3140490000078,94.68074509999133,94.68074509999133,94.68074509999133,94.68074509999133,94.68074509999133,94.68074509999133,94.68074509999133,94.68074509999133,94.68074509999133,0,1,[0.0009083000186365098],[0.3673311000165995],94.68074509999133,94.88063110000803,1000,94.88063110000803,1000,1000,1000,1000,0,num_3,0.4694673999911174,,21,16,2026-03-02_18h38.37.740,2026A_exp2,2022.2.4,60.02094730940491,
1000,1,3.7,3.7,1,0,15,15,46,,,,,95.38122129999101,96.03167970001232,96.03167970001232,96.53292260001763,45,45,96.53292260001763,96.53292260001763,96.53292260001763,96.53292260001763,96.53292260001763,96.53292260001763,96.53292260001763,96.53292260001763,96.53292260001763,96.88250890001655,96.88250890001655,96.88250890001655,96.88250890001655,96.88250890001655,96.88250890001655,96.88250890001655,96.88250890001655,96.88250890001655,0,1,[0.0009261000086553395],[0.3503208000038285],96.88250890001655,97.08292169999913,1000,97.08292169999913,1000,1000,1000,1000,0,num_3,0.42690680001396686,,21,16,2026-03-02_18h38.37.740,2026A_exp2,2022.2.4,60.02094730940491,
1000,1,3.7,0.0,1,0,16,16,21,,,,,97.53319190000184,98.18430180000723,98.18430180000723,98.66817620000802,45,315,98.66817620000802,98.66817620000802,98.66817620000802,98.66817620000802,98.66817620000802,98.66817620000802,98.66817620000802,98.66817620000802,98.66817620000802,99.03457530000014,99.03457530000014,99.03457530000014,99.03457530000014,99.03457530000014,99.03457530000014,99.03457530000014,99.03457530000014,99.03457530000014,1,2,"[0.0009639999771025032, 0.10063179998542182]","[0.08442759999888949, 0.36711799999466166]",99.03457530000014,99.23502870000084,1000,99.23502870000084,1000,1000,1000,1000,0,num_3,0.41159740000148304,,21,16,2026-03-02_18h38.37.740,2026A_exp2,2022.2.4,60.02094730940491,
1,0,6.1,6.1,0,0,17,17,51,,,,,99.66866429999936,100.30309160001343,100.30309160001343,100.8037622999982,315,45,100.8037622999982,100.8037622999982,100.8037622999982,100.8037622999982,100.8037622999982,100.8037622999982,100.8037622999982,100.8037622999982,100.8037622999982,101.1700550999958,101.1700550999958,101.1700550999958,101.1700550999958,101.1700550999958,101.1700550999958,101.1700550999958,101.1700550999958,101.1700550999958,2,2,"[0.0007347000064328313, 0.3175587000150699]","[0.3007817000034265, 0.36720080001396127]",101.1700550999958,101.37029560000519,6.1,101.37029560000519,1,6.1,1,1,1000,num_4,0.6759159000066575,,21,16,2026-03-02_18h38.37.740,2026A_exp2,2022.2.4,60.02094730940491,
1000,1,6.1,6.1,0,0,18,18,56,,,,,102.07121530000586,102.70496900001308,102.70496900001308,103.20617740001762,315,315,103.20617740001762,103.20617740001762,103.20617740001762,103.20617740001762,103.20617740001762,103.20617740001762,103.20617740001762,103.20617740001762,103.20617740001762,103.57260449999012,103.57260449999012,103.57260449999012,103.57260449999012,103.57260449999012,103.57260449999012,103.57260449999012,103.57260449999012,103.57260449999012,0,1,[0.0007498000049963593],[0.3672583999868948],103.57260449999012,103.77278890000889,1000,103.77278890000889,1000,1000,1000,1000,1,num_2,0.9932567000214476,,21,16,2026-03-02_18h38.37.740,2026A_exp2,2022.2.4,60.02094730940491,
1000,1,4.9,4.9,1,0,19,19,85,,,,,104.79044350000913,105.44112750000204,105.44112750000204,105.92543719999958,45,45,105.92543719999958,105.92543719999958,105.92543719999958,105.92543719999958,105.92543719999958,105.92543719999958,105.92543719999958,105.92543719999958,105.92543719999958,106.29178930001217,106.29178930001217,106.29178930001217,106.29178930001217,106.29178930001217,106.29178930001217,106.29178930001217,106.29178930001217,106.29178930001217,11,5,"[0.05020430000149645, 0.10038590000476688, 0.13347870000870898, 0.2006284999952186, 0.2671455999952741]","[0.08362530000158586, 0.11705200001597404, 0.15017280000029132, 0.21725079999305308, 0.3672624000173528]",106.29178930001217,106.49262490001274,1000,106.49262490001274,1000,1000,1000,1000,0,num_3,0.7461446000088472,,21,16,2026-03-02_18h38.37.740,2026A_exp2,2022.2.4,60.02094730940491,
1000,1,0.0,4.9,0,0,20,20,27,,,,,107.25960300001316,107.91007240000181,107.91007240000181,108.41126829999848,45,45,108.41126829999848,108.41126829999848,108.41126829999848,108.41126829999848,108.41126829999848,108.41126829999848,108.41126829999848,108.41126829999848,108.41126829999848,108.76170309999725,108.76170309999725,108.76170309999725,108.76170309999725,108.76170309999725,108.76170309999725,108.76170309999725,108.76170309999725,108.76170309999725,0,1,[0.0007159000087995082],[0.3509142000111751],108.76170309999725,108.96176870001364,1000,108.96176870001364,1000,1000,1000,1000,1,num_2,0.46874499999103136,,21,16,2026-03-02_18h38.37.740,2026A_exp2,2022.2.4,60.02094730940491,
1000,1,0.0,3.7,0,0,21,21,32,,,,,109.46192329999758,110.11234140000306,110.11234140000306,110.59728250000626,315,315,110.59728250000626,110.59728250000626,110.59728250000626,110.59728250000626,110.59728250000626,110.59728250000626,110.59728250000626,110.59728250000626,110.59728250000626,110.96422910000547,110.96422910000547,110.96422910000547,110.96422910000547,110.96422910000547,110.96422910000547,110.96422910000547,110.96422910000547,110.96422910000547,0,1,[0.0007465000089723617],[0.36708170000929385],110.96422910000547,111.16359979999834,1000,111.16359979999834,1000,1000,1000,1000,1,num_2,0.3862321000196971,,21,16,2026-03-02_18h38.37.740,2026A_exp2,2022.2.4,60.02094730940491,
1000,1,0.0,0.0,1,0,22,22,42,,,,,111.58046560001094,112.23127530000056,112.23127530000056,112.71607260001474,315,315,112.71607260001474,112.71607260001474,112.71607260001474,112.71607260001474,112.71607260001474,112.71607260001474,112.71607260001474,112.71607260001474,112.71607260001474,113.08222330000717,113.08222330000717,113.08222330000717,113.08222330000717,113.08222330000717,113.08222330000717,113.08222330000717,113.08222330000717,113.08222330000717,0,1,[0.0007622999837622046],[0.36753869999665767],113.08222330000717,113.28470320001361,1000,113.28470320001361,1000,1000,1000,1000,0,num_3,0.8738051000109408,,21,16,2026-03-02_18h38.37.740,2026A_exp2,2022.2.4,60.02094730940491,
1000,1,6.1,6.1,0,0,23,23,74,,,,,114.18353500001831,114.83400380000239,114.83400380000239,115.33521970000584,45,45,115.33521970000584,115.33521970000584,115.33521970000584,115.33521970000584,115.33521970000584,115.33521970000584,115.33521970000584,115.33521970000584,115.33521970000584,115.7014487000124,115.7014487000124,115.7014487000124,115.7014487000124,115.7014487000124,115.7014487000124,115.7014487000124,115.7014487000124,115.7014487000124,0,1,[0.0012194000009912997],[0.3671535000030417],115.7014487000124,115.90368660000968,1000,115.90368660000968,1000,1000,1000,1000,0,num_3,0.7107577999995556,,21,16,2026-03-02_18h38.37.740,2026A_exp2,2022.2.4,60.02094730940491,
1000,1,0.0,4.9,1,0,24,24,73,,,,,116.63571699999738,117.2865732999926,117.2865732999926,117.78767089999747,315,45,117.78767089999747,117.78767089999747,117.78767089999747,117.78767089999747,117.78767089999747,117.78767089999747,117.78767089999747,117.78767089999747,117.78767089999747,118.15405770001234,118.15405770001234,118.15405770001234,118.15405770001234,118.15405770001234,118.15405770001234,118.15405770001234,118.15405770001234,118.15405770001234,0,1,[0.0012472000089474022],[0.3672372000000905],118.15405770001234,118.35615690000122,1000,118.35615690000122,1000,1000,1000,1000,1,num_2,0.3777315000188537,,21,16,2026-03-02_18h38.37.740,2026A_exp2,2022.2.4,60.02094730940491,
1000,1,4.9,0.0,1,0,25,25,7,,,,,118.75454600001103,119.4053208999976,119.4053208999976,119.90643590001855,45,315,119.90643590001855,119.90643590001855,119.90643590001855,119.90643590001855,119.90643590001855,119.90643590001855,119.90643590001855,119.90643590001855,119.90643590001855,120.2561362000124,120.2561362000124,120.2561362000124,120.2561362000124,120.2561362000124,120.2561362000124,120.2561362000124,120.2561362000124,120.2561362000124,22,0,,,120.2561362000124,120.45860010001343,1000,120.47305140001117,1000,1000,1000,1000,0,num_3,0.32532820000778884,,21,16,2026-03-02_18h38.37.740,2026A_exp2,2022.2.4,60.02094730940491,
1000,1,0.0,0.0,1,0,26,26,71,,,,,120.8234880999953,121.45727440001792,121.45727440001792,121.95823250000831,45,45,121.95823250000831,121.95823250000831,121.95823250000831,121.95823250000831,121.95823250000831,121.95823250000831,121.95823250000831,121.95823250000831,121.95823250000831,122.32484909999766,122.32484909999766,122.32484909999766,122.32484909999766,122.32484909999766,122.32484909999766,122.32484909999766,122.32484909999766,122.32484909999766,0,1,[0.0012162999773863703],[0.36754199999268167],122.32484909999766,122.52741959999548,1000,122.52741959999548,1000,1000,1000,1000,0,num_3,0.6954555999836884,,21,16,2026-03-02_18h38.37.740,2026A_exp2,2022.2.4,60.02094730940491,
0,0,0.0,0.0,0,0,27,27,4,,,,,123.2423931999947,123.89317220001249,123.89317220001249,124.39404990000185,315,45,124.39404990000185,124.39404990000185,124.39404990000185,124.39404990000185,124.39404990000185,124.39404990000185,124.39404990000185,124.39404990000185,124.39404990000185,124.76062570000067,124.76062570000067,124.76062570000067,124.76062570000067,124.76062570000067,124.76062570000067,124.76062570000067,124.76062570000067,124.76062570000067,3,2,"[0.03308259998448193, 0.18323339999187738]","[0.16668140000547282, 0.366694299998926]",124.76062570000067,124.96084600000177,0.0,124.96084600000177,0,0.0,0,1,1000,num_1,0.7650825000018813,,21,16,2026-03-02_18h38.37.740,2026A_exp2,2022.2.4,60.02094730940491,
1000,1,6.1,3.7,0,0,28,28,61,,,,,125.74472750001587,126.39561010000762,126.39561010000762,126.88004829999409,45,315,126.88004829999409,126.88004829999409,126.88004829999409,126.88004829999409,126.88004829999409,126.88004829999409,126.88004829999409,126.88004829999409,126.88004829999409,127.24649230000796,127.24649230000796,127.24649230000796,127.24649230000796,127.24649230000796,127.24649230000796,127.24649230000796,127.24649230000796,127.24649230000796,23,0,,,127.24649230000796,127.44851029998972,1000,127.44851029998972,1000,1000,1000,1000,0,num_3,0.4861335000023246,,21,16,2026-03-02_18h38.37.740,2026A_exp2,2022.2.4,60.02094730940491,
1,0,4.9,0.0,0,0,29,29,87,,,,,127.96384099998977,128.6145177000144,128.6145177000144,129.115752600017,45,315,129.115752600017,129.115752600017,129.115752600017,129.115752600017,129.115752600017,129.115752600017,129.115752600017,129.115752600017,129.115752600017,129.48188910001772,129.48188910001772,129.48188910001772,129.48188910001772,129.48188910001772,129.48188910001772,129.48188910001772,129.48188910001772,129.48188910001772,23,0,,,129.48188910001772,129.68221739999717,4.9,129.68221739999717,1,4.9,1,1,1000,num_4,0.6607255999988411,,21,16,2026-03-02_18h38.37.740,2026A_exp2,2022.2.4,60.02094730940491,
1,0,0.0,0.0,0,0,30,30,49,,,,,130.3661332000047,131.01690409998992,131.01690409998992,131.5011988999904,45,45,131.5011988999904,131.5011988999904,131.5011988999904,131.5011988999904,131.5011988999904,131.5011988999904,131.5011988999904,131.5011988999904,131.5011988999904,131.86766839999473,131.86766839999473,131.86766839999473,131.86766839999473,131.86766839999473,131.86766839999473,131.86766839999473,131.86766839999473,131.86766839999473,23,0,,,131.86766839999473,132.06798230001004,0.0,132.06798230001004,0,0.0,0,1,1000,num_1,0.6822979999997187,,21,16,2026-03-02_18h38.37.740,2026A_exp2,2022.2.4,60.02094730940491,
1000,1,0.0,0.0,0,0,31,31,5,,,,,132.7685737000138,133.4192999000079,133.4192999000079,133.92035689999466,45,45,133.92035689999466,133.92035689999466,133.92035689999466,133.92035689999466,133.92035689999466,133.92035689999466,133.92035689999466,133.92035689999466,133.92035689999466,134.27012780000223,134.27012780000223,134.27012780000223,134.27012780000223,134.27012780000223,134.27012780000223,134.27012780000223,134.27012780000223,134.27012780000223,21,1,[0.1669977999990806],[0.1836864999786485],134.27012780000223,134.47260700000334,1000,134.47260700000334,1000,1000,1000,1000,1,num_2,0.8863810999901034,,21,16,2026-03-02_18h38.37.740,2026A_exp2,2022.2.4,60.02094730940491,
1,0,0.0,3.7,1,0,32,32,12,,,,,135.38786499999696,136.03862380000646,136.03862380000646,136.53963189999922,45,45,136.53963189999922,136.53963189999922,136.53963189999922,136.53963189999922,136.53963189999922,136.53963189999922,136.53963189999922,136.53963189999922,136.53963189999922,136.9061752000125,136.9061752000125,136.9061752000125,136.9061752000125,136.9061752000125,136.9061752000125,136.9061752000125,136.9061752000125,136.9061752000125,23,0,,,136.9061752000125,137.10631390000344,3.7,137.10631390000344,1,3.7,1,1,1000,num_4,0.7316179999907035,,21,16,2026-03-02_18h38.37.740,2026A_exp2,2022.2.4,60.02094730940491,
1000,1,0.0,0.0,1,0,33,33,40,,,,,137.85683710000012,138.4910649000085,138.4910649000085,138.99212840001564,315,45,138.99212840001564,138.99212840001564,138.99212840001564,138.99212840001564,138.99212840001564,138.99212840001564,138.99212840001564,138.99212840001564,138.99212840001564,139.35852159999195,139.35852159999195,139.35852159999195,139.35852159999195,139.35852159999195,139.35852159999195,139.35852159999195,139.35852159999195,139.35852159999195,22,1,[0.3004277999862097],[0.31708439998328686],139.35852159999195,139.56036570001743,1000,139.56036570001743,1000,1000,1000,1000,0,num_3,0.7338295999797992,,21,16,2026-03-02_18h38.37.740,2026A_exp2,2022.2.4,60.02094730940491,
1000,1,6.1,0.0,1,0,34,34,52,,,,,140.30946560000302,140.9599334000086,140.9599334000086,141.46110340001178,315,315,141.46110340001178,141.46110340001178,141.46110340001178,141.46110340001178,141.46110340001178,141.46110340001178,141.46110340001178,141.46110340001178,141.46110340001178,141.82774820001214,141.82774820001214,141.82774820001214,141.82774820001214,141.82774820001214,141.82774820001214,141.82774820001214,141.82774820001214,141.82774820001214,1,2,"[0.0012434000091161579, 0.16690499999094754]","[0.15026080000097863, 0.36705860000802204]",141.82774820001214,142.02984940001625,1000,142.02984940001625,1000,1000,1000,1000,0,num_3,0.36068000001250766,,21,16,2026-03-02_18h38.37.740,2026A_exp2,2022.2.4,60.02094730940491,
1,0,0.0,4.9,1,0,35,35,65,,,,,142.41146760000265,143.06228559999727,143.06228559999727,143.56333629999426,315,315,143.56333629999426,143.56333629999426,143.56333629999426,143.56333629999426,143.56333629999426,143.56333629999426,143.56333629999426,143.56333629999426,143.56333629999426,143.92975119999028,143.92975119999028,143.92975119999028,143.92975119999028,143.92975119999028,143.92975119999028,143.92975119999028,143.92975119999028,143.92975119999028,20,3,"[0.28398989999550395, 0.31734290000167675, 0.3674507999967318]","[0.30087669999920763, 0.3343087999965064, 0.36745479999808595]",143.92975119999028,144.12991930000135,4.9,144.12991930000135,1,4.9,1,1,1000,num_4,1.3643424999900162,,21,16,2026-03-02_18h38.37.740,2026A_exp2,2022.2.4,60.02094730940491,
1,0,0.0,3.7,0,0,36,36,2,,,,,145.51463910000166,146.1653082999983,146.1653082999983,146.64969640001073,45,315,146.64969640001073,146.64969640001073,146.64969640001073,146.64969640001073,146.64969640001073,146.64969640001073,146.64969640001073,146.64969640001073,146.64969640001073,147.01622849999694,147.01622849999694,147.01622849999694,147.01622849999694,147.01622849999694,147.01622849999694,147.01622849999694,147.01622849999694,147.01622849999694,9,4,"[0.0012870000209659338, 0.08380680001573637, 0.13356760001624934, 0.18373700001393445]","[0.06701590001466684, 0.10040970001136884, 0.16693400000804104, 0.28371400001924485]",147.01622849999694,147.2163836999971,0.0,147.2163836999971,0,0.0,0,1,1000,num_1,0.6465793999959715,,21,16,2026-03-02_18h38.37.740,2026A_exp2,2022.2.4,60.02094730940491,
1,0,0.0,0.0,1,0,37,37,82,,,,,147.88372199999867,148.5343506000063,148.5343506000063,149.01881629999843,45,315,149.01881629999843,149.01881629999843,149.01881629999843,149.01881629999843,149.01881629999843,149.01881629999843,149.01881629999843,149.01881629999843,149.01881629999843,149.38530140000512,149.38530140000512,149.38530140000512,149.38530140000512,149.38530140000512,149.38530140000512,149.38530140000512,149.38530140000512,149.38530140000512,5,3,"[0.0007252999930642545, 0.2674416999798268, 0.33424500000546686]","[0.2509084999910556, 0.2843824999872595, 0.36768559998017736]",149.38530140000512,149.58552849999978,0.0,149.58552849999978,0,0.0,0,1,1000,num_1,0.4050208999833558,,21,16,2026-03-02_18h38.37.740,2026A_exp2,2022.2.4,60.02094730940491,
0,0,3.7,3.7,0,0,38,38,63,,,,,150.01924799999688,150.65313769999193,150.65313769999193,151.15422970001237,45,315,151.15422970001237,151.15422970001237,151.15422970001237,151.15422970001237,151.15422970001237,151.15422970001237,151.15422970001237,151.15422970001237,151.15422970001237,151.5205951000098,151.5205951000098,151.5205951000098,151.5205951000098,151.5205951000098,151.5205951000098,151.5205951000098,151.5205951000098,151.5205951000098,0,1,[0.000769199978094548],[0.3673592999984976],151.5205951000098,151.72089520000736,3.7,151.72089520000736,0,3.7,1,0,1000,num_1,0.8139381999790203,,21,16,2026-03-02_18h38.37.740,2026A_exp2,2022.2.4,60.02094730940491,
1,0,4.9,0.0,0,0,39,39,23,,,,,152.55501370001002,153.20563240000047,153.20563240000047,153.6901807000104,315,315,153.6901807000104,153.6901807000104,153.6901807000104,153.6901807000104,153.6901807000104,153.6901807000104,153.6901807000104,153.6901807000104,153.6901807000104,154.05649180000182,154.05649180000182,154.05649180000182,154.05649180000182,154.05649180000182,154.05649180000182,154.05649180000182,154.05649180000182,154.05649180000182,20,1,[0.3337947000109125],[0.36750340001890436],154.05649180000182,154.25672150001628,4.9,154.25672150001628,1,4.9,1,1,1000,num_4,0.40580259999842383,,21,16,2026-03-02_18h38.37.740,2026A_exp2,2022.2.4,60.02094730940491,
1000,1,6.1,0.0,0,0,40,40,58,,,,,154.69058550000773,155.3412157999992,155.3412157999992,155.82552889999351,45,45,155.82552889999351,155.82552889999351,155.82552889999351,155.82552889999351,155.82552889999351,155.82552889999351,155.82552889999351,155.82552889999351,155.82552889999351,156.1921532000124,156.1921532000124,156.1921532000124,156.1921532000124,156.1921532000124,156.1921532000124,156.1921532000124,156.1921532000124,156.1921532000124,0,1,[0.0012267999991308898],[0.36681989999487996],156.1921532000124,156.3939095000096,1000,156.3939095000096,1000,1000,1000,1000,0,num_3,0.5321858999959659,,21,16,2026-03-02_18h38.37.740,2026A_exp2,2022.2.4,60.02094730940491,
1000,1,0.0,0.0,0,0,41,41,41,,,,,156.94281209999463,157.59343080001418,157.59343080001418,158.09453299999586,45,45,158.09453299999586,158.09453299999586,158.09453299999586,158.09453299999586,158.09453299999586,158.09453299999586,158.09453299999586,158.09453299999586,158.09453299999586,158.46101210001507,158.46101210001507,158.46101210001507,158.46101210001507,158.46101210001507,158.46101210001507,158.46101210001507,158.46101210001507,158.46101210001507,0,1,[0.001229399989824742],[0.367143399984343],158.46101210001507,158.66292040000553,1000,158.66292040000553,1000,1000,1000,1000,0,num_3,1.2952929000020958,,21,16,2026-03-02_18h38.37.740,2026A_exp2,2022.2.4,60.02094730940491,
1,0,0.0,4.9,1,0,42,42,36,,,,,159.97901249999995,160.62979880001512,160.62979880001512,161.13099979999242,315,315,161.13099979999242,161.13099979999242,161.13099979999242,161.13099979999242,161.13099979999242,161.13099979999242,161.13099979999242,161.13099979999242,161.13099979999242,161.49717580000288,161.49717580000288,161.49717580000288,161.49717580000288,161.49717580000288,161.49717580000288,161.49717580000288,161.49717580000288,161.49717580000288,5,3,"[0.0012322999828029424, 0.15036669999244623, 0.2503218999772798]","[0.1002161999931559, 0.21699109999462962, 0.366873899998609]",161.49717580000288,161.69762310001533,4.9,161.69762310001533,1,4.9,1,1,1000,num_4,0.8607798000157345,,21,16,2026-03-02_18h38.37.740,2026A_exp2,2022.2.4,60.02094730940491,
1,0,0.0,0.0,0,0,43,43,19,,,,,162.58171420000144,163.23240239999723,163.23240239999723,163.716699600016,45,315,163.716699600016,163.716699600016,163.716699600016,163.716699600016,163.716699600016,163.716699600016,163.716699600016,163.716699600016,163.716699600016,164.0833280000079,164.0833280000079,164.0833280000079,164.0833280000079,164.0833280000079,164.0833280000079,164.0833280000079,164.0833280000079,164.0833280000079,3,3,"[0.0007028999971225858, 0.049511499993968755, 0.3169155999785289]","[0.0325060999894049, 0.2835696999973152, 0.36693479999667034]",164.0833280000079,164.2835532000172,0.0,164.2835532000172,0,0.0,0,1,1000,num_1,0.4264234000002034,,21,16,2026-03-02_18h38.37.740,2026A_exp2,2022.2.4,60.02094730940491,
1,0,0.0,0.0,0,0,44,44,66,,,,,164.73385489999782,165.38444270001492,165.38444270001492,165.86894439999014,315,315,165.86894439999014,165.86894439999014,165.86894439999014,165.86894439999014,165.86894439999014,165.86894439999014,165.86894439999014,165.86894439999014,165.86894439999014,166.23556470000767,166.23556470000767,166.23556470000767,166.23556470000767,166.23556470000767,166.23556470000767,166.23556470000767,166.23556470000767,166.23556470000767,4,3,"[0.0012046000047121197, 0.1836229999898933, 0.3338742000050843]","[0.1671038999920711, 0.3171831000072416, 0.3506315000122413]",166.23556470000767,166.43553740001516,0.0,166.43553740001516,0,0.0,0,1,1000,num_1,0.4104286999790929,,21,16,2026-03-02_18h38.37.740,2026A_exp2,2022.2.4,60.02094730940491,
1000,1,4.9,4.9,1,0,45,45,26,,,,,166.86945040000137,167.51991800000542,167.51991800000542,168.00453060001018,315,45,168.00453060001018,168.00453060001018,168.00453060001018,168.00453060001018,168.00453060001018,168.00453060001018,168.00453060001018,168.00453060001018,168.00453060001018,168.37077870001667,168.37077870001667,168.37077870001667,168.37077870001667,168.37077870001667,168.37077870001667,168.37077870001667,168.37077870001667,168.37077870001667,2,3,"[0.001193300005979836, 0.20039980000001378, 0.31724830000894144]","[0.18373060002340935, 0.3004685000050813, 0.36718120001023635]",168.37077870001667,168.5713906000019,1000,168.5713906000019,1000,1000,1000,1000,1,num_2,0.6106918999867048,,21,16,2026-03-02_18h38.37.740,2026A_exp2,2022.2.4,60.02094730940491,
1,0,4.9,0.0,1,0,46,46,15,,,,,169.20496619999176,169.85577779999585,169.85577779999585,170.35670150001533,315,45,170.35670150001533,170.35670150001533,170.35670150001533,170.35670150001533,170.35670150001533,170.35670150001533,170.35670150001533,170.35670150001533,170.35670150001533,170.72332389999065,170.72332389999065,170.72332389999065,170.72332389999065,170.72332389999065,170.72332389999065,170.72332389999065,170.72332389999065,170.72332389999065,9,1,[0.0012432000075932592],[0.23350329999811947],170.72332389999065,170.9235422000056,0.0,170.9235422000056,0,0.0,0,1,1000,num_1,1.7063410999835469,,21,16,2026-03-02_18h38.37.740,2026A_exp2,2022.2.4,60.02094730940491,
1000,1,6.1,4.9,1,0,47,47,76,,,,,172.65841730000102,173.30922379999538,173.30922379999538,173.8100659000047,45,315,173.8100659000047,173.8100659000047,173.8100659000047,173.8100659000047,173.8100659000047,173.8100659000047,173.8100659000047,173.8100659000047,173.8100659000047,174.17674329999136,174.17674329999136,174.17674329999136,174.17674329999136,174.17674329999136,174.17674329999136,174.17674329999136,174.17674329999136,174.17674329999136,3,3,"[0.0007770000083837658, 0.10034960001939908, 0.2671814000059385]","[0.06698920001508668, 0.25042799999937415, 0.36720880001666956]",174.17674329999136,174.37895089999074,1000,174.37895089999074,1000,1000,1000,1000,0,num_3,0.5877187999722082,,21,16,2026-03-02_18h38.37.740,2026A_exp2,2022.2.4,60.02094730940491,
1000,1,6.1,0.0,0,0,48,48,80,,,,,174.9940972000186,175.6448534000083,175.6448534000083,176.14599439999438,315,45,176.14599439999438,176.14599439999438,176.14599439999438,176.14599439999438,176.14599439999438,176.14599439999438,176.14599439999438,176.14599439999438,176.14599439999438,176.51240040000994,176.51240040000994,176.51240040000994,176.51240040000994,176.51240040000994,176.51240040000994,176.51240040000994,176.51240040000994,176.51240040000994,23,0,,,176.51240040000994,176.7143728999945,1000,176.7143728999945,1000,1000,1000,1000,0,num_3,0.4437024000217207,,21,16,2026-03-02_18h38.37.740,2026A_exp2,2022.2.4,60.02094730940491,
1000,1,0.0,6.1,0,0,49,49,83,,,,,177.17963140000938,177.8305318999919,177.8305318999919,178.33151230000658,45,315,178.33151230000658,178.33151230000658,178.33151230000658,178.33151230000658,178.33151230000658,178.33151230000658,178.33151230000658,178.33151230000658,178.33151230000658,178.69786260000546,178.69786260000546,178.69786260000546,178.69786260000546,178.69786260000546,178.69786260000546,178.69786260000546,178.69786260000546,178.69786260000546,23,0,,,178.69786260000546,178.89810069999658,1000,178.89810069999658,1000,1000,1000,1000,1,num_2,0.5964920000114944,,21,16,2026-03-02_18h38.37.740,2026A_exp2,2022.2.4,60.02094730940491,
1,0,0.0,0.0,0,0,50,50,29,,,,,179.5153266999987,180.1659931000031,180.1659931000031,180.6670729999896,45,45,180.6670729999896,180.6670729999896,180.6670729999896,180.6670729999896,180.6670729999896,180.6670729999896,180.6670729999896,180.6670729999896,180.6670729999896,181.01694689999567,181.01694689999567,181.01694689999567,181.01694689999567,181.01694689999567,181.01694689999567,181.01694689999567,181.01694689999567,181.01694689999567,22,0,,,181.01694689999567,181.2171376000042,0.0,181.23377930000424,0,0.0,0,1,1000,num_1,0.4366425999905914,,21,16,2026-03-02_18h38.37.740,2026A_exp2,2022.2.4,60.02094730940491,
1000,1,0.0,0.0,1,0,51,51,39,,,,,181.70140590000665,182.3348718000052,182.3348718000052,182.83597899999586,315,315,182.83597899999586,182.83597899999586,182.83597899999586,182.83597899999586,182.83597899999586,182.83597899999586,182.83597899999586,182.83597899999586,182.83597899999586,183.20241520000855,183.20241520000855,183.20241520000855,183.20241520000855,183.20241520000855,183.20241520000855,183.20241520000855,183.20241520000855,183.20241520000855,19,2,"[0.05031059999600984, 0.31682109998655505]","[0.10029969998868182, 0.33370379998814315]",183.20241520000855,183.40440800000215,1000,183.40440800000215,1000,1000,1000,1000,0,num_3,0.9454671999847051,,21,16,2026-03-02_18h38.37.740,2026A_exp2,2022.2.4,60.02094730940491,
1000,1,0.0,4.9,0,0,52,52,9,,,,,184.370150200004,185.02088470000308,185.02088470000308,185.52188660000684,315,315,185.52188660000684,185.52188660000684,185.52188660000684,185.52188660000684,185.52188660000684,185.52188660000684,185.52188660000684,185.52188660000684,185.52188660000684,185.88840739999432,185.88840739999432,185.88840739999432,185.88840739999432,185.88840739999432,185.88840739999432,185.88840739999432,185.88840739999432,185.88840739999432,4,5,"[0.0012442000152077526, 0.05012400000123307, 0.26695509999990463, 0.3004040000087116, 0.367106399993645]","[0.033556100010173395, 0.25042759999632835, 0.2836365000111982, 0.3507844000123441, 0.36711099999956787]",185.88840739999432,186.0902960000094,1000,186.0902960000094,1000,1000,1000,1000,1,num_2,0.43644449999555945,,21,16,2026-03-02_18h38.37.740,2026A_exp2,2022.2.4,60.02094730940491,
1000,1,0.0,3.7,1,0,53,53,75,,,,,186.5558730000048,187.20629999999073,187.20629999999073,187.70740800001658,315,45,187.70740800001658,187.70740800001658,187.70740800001658,187.70740800001658,187.70740800001658,187.70740800001658,187.70740800001658,187.70740800001658,187.70740800001658,188.0739590000012,188.0739590000012,188.0739590000012,188.0739590000012,188.0739590000012,188.0739590000012,188.0739590000012,188.0739590000012,188.0739590000012,22,1,[0.2835586000001058],[0.3005207999958657],188.0739590000012,188.27585080001154,1000,188.27585080001154,1000,1000,1000,1000,1,num_2,0.3864443000056781,,21,16,2026-03-02_18h38.37.740,2026A_exp2,2022.2.4,60.02094730940491,
1000,1,0.0,0.0,1,0,54,54,62,,,,,188.69115070000407,189.341929599992,189.341929599992,189.84311630000593,315,315,189.84311630000593,189.84311630000593,189.84311630000593,189.84311630000593,189.84311630000593,189.84311630000593,189.84311630000593,189.84311630000593,189.84311630000593,190.20926309999777,190.20926309999777,190.20926309999777,190.20926309999777,190.20926309999777,190.20926309999777,190.20926309999777,190.20926309999777,190.20926309999777,20,3,"[0.2837994000001345, 0.31726810001418926, 0.35056360001908615]","[0.30049930000677705, 0.3338647999917157, 0.3671835999994073]",190.20926309999777,190.41131650001626,1000,190.41131650001626,1000,1000,1000,1000,0,num_3,0.8988023000129033,,21,16,2026-03-02_18h38.37.740,2026A_exp2,2022.2.4,60.02094730940491,
1,0,3.7,6.1,0,0,55,55,55,,,,,191.3270893000008,191.9888954999915,191.9888954999915,192.4788913000084,315,315,192.4788913000084,192.4788913000084,192.4788913000084,192.4788913000084,192.4788913000084,192.4788913000084,192.4788913000084,192.4788913000084,192.4788913000084,192.8453554000007,192.8453554000007,192.8453554000007,192.8453554000007,192.8453554000007,192.8453554000007,192.8453554000007,192.8453554000007,192.8453554000007,0,1,[0.0014076999796088785],[0.36710229999152943],192.8453554000007,193.04550279999967,3.7,193.04550279999967,0,3.7,1,0,1000,num_1,1.5770143000117969,,21,16,2026-03-02_18h38.37.740,2026A_exp2,2022.2.4,60.02094730940491,
1000,1,4.9,6.1,1,0,56,56,18,,,,,194.64715950001846,195.29775319999317,195.29775319999317,195.78218780001043,45,315,195.78218780001043,195.78218780001043,195.78218780001043,195.78218780001043,195.78218780001043,195.78218780001043,195.78218780001043,195.78218780001043,195.78218780001043,196.14852710001287,196.14852710001287,196.14852710001287,196.14852710001287,196.14852710001287,196.14852710001287,196.14852710001287,196.14852710001287,196.14852710001287,13,3,"[0.05024700000649318, 0.23374199998215772, 0.3504028999886941]","[0.10034770000493154, 0.3337778999994043, 0.3666866999992635]",196.14852710001287,196.35055699999793,1000,196.35055699999793,1000,1000,1000,1000,1,num_2,0.5597163000202272,,21,16,2026-03-02_18h38.37.740,2026A_exp2,2022.2.4,60.02094730940491,
1,0,6.1,0.0,1,0,57,57,54,,,,,196.9326750000182,197.58351409999887,197.58351409999887,198.0849003000185,45,315,198.0849003000185,198.0849003000185,198.0849003000185,198.0849003000185,198.0849003000185,198.0849003000185,198.0849003000185,198.0849003000185,198.0849003000185,198.45083469999372,198.45083469999372,198.45083469999372,198.45083469999372,198.45083469999372,198.45083469999372,198.45083469999372,198.45083469999372,198.45083469999372,14,6,"[0.08344380001653917, 0.11720360000617802, 0.16719690000172704, 0.21728230000007898, 0.2505517000099644, 0.3175413999997545]","[0.10031070001423359, 0.1338250000262633, 0.20048030000180006, 0.2340091000078246, 0.30074070001137443, 0.33414300001459196]",198.45083469999372,198.65122120000888,0.0,198.65122120000888,0,0.0,0,1,1000,num_1,0.707329299999401,,21,16,2026-03-02_18h38.37.740,2026A_exp2,2022.2.4,60.02094730940491,
1,0,3.7,3.7,1,0,58,58,64,,,,,199.38516679999884,200.0358297000057,200.0358297000057,200.52040169999236,45,45,200.52040169999236,200.52040169999236,200.52040169999236,200.52040169999236,200.52040169999236,200.52040169999236,200.52040169999236,200.52040169999236,200.52040169999236,200.88677630000166,200.88677630000166,200.88677630000166,200.88677630000166,200.88677630000166,200.88677630000166,200.88677630000166,200.88677630000166,200.88677630000166,22,1,[0.0012687999987974763],[0.017432900000130758],200.88677630000166,201.0868446000095,3.7,201.0868446000095,1,3.7,1,1,1000,num_4,0.4961007000238169,,21,16,2026-03-02_18h38.37.740,2026A_exp2,2022.2.4,60.02094730940491,
0,0,3.7,6.1,1,0,59,59,17,,,,,201.60390869999537,202.25477379999938,202.25477379999938,202.73910900001647,45,315,202.73910900001647,202.73910900001647,202.73910900001647,202.73910900001647,202.73910900001647,202.73910900001647,202.73910900001647,202.73910900001647,202.73910900001647,203.10568110001623,203.10568110001623,203.10568110001623,203.10568110001623,203.10568110001623,203.10568110001623,203.10568110001623,203.10568110001623,203.10568110001623,22,1,[0.3169283000170253],[0.33360330000869],203.10568110001623,203.30575600001612,3.7,203.30575600001612,0,3.7,1,0,1000,num_1,0.8771219000045676,,21,16,2026-03-02_18h38.37.740,2026A_exp2,2022.2.4,60.02094730940491,
1000,1,4.9,4.9,0,0,60,60,34,,,,,204.20704750000732,204.85736610001186,204.85736610001186,205.34183220000705,315,45,205.34183220000705,205.34183220000705,205.34183220000705,205.34183220000705,205.34183220000705,205.34183220000705,205.34183220000705,205.34183220000705,205.34183220000705,205.70822560001398,205.70822560001398,205.70822560001398,205.70822560001398,205.70822560001398,205.70822560001398,205.70822560001398,205.70822560001398,205.70822560001398,23,0,,,205.70822560001398,205.91035369999008,1000,205.91035369999008,1000,1000,1000,1000,0,num_3,0.7207221999997273,,21,16,2026-03-02_18h38.37.740,2026A_exp2,2022.2.4,60.02094730940491,
1,0,6.1,6.1,0,0,61,61,11,,,,,206.65919880001456,207.30973800001084,207.30973800001084,207.8110239999951,45,315,207.8110239999951,207.8110239999951,207.8110239999951,207.8110239999951,207.8110239999951,207.8110239999951,207.8110239999951,207.8110239999951,207.8110239999951,208.17741669999668,208.17741669999668,208.17741669999668,208.17741669999668,208.17741669999668,208.17741669999668,208.17741669999668,208.17741669999668,208.17741669999668,23,0,,,208.17741669999668,208.37765110001783,6.1,208.37765110001783,1,6.1,1,1,1000,num_4,0.7327226000197697,,21,16,2026-03-02_18h38.37.740,2026A_exp2,2022.2.4,60.02094730940491,
1,0,0.0,0.0,0,0,62,62,0,,,,,209.12839950001216,209.7790345000103,209.7790345000103,210.2634418999951,315,315,210.2634418999951,210.2634418999951,210.2634418999951,210.2634418999951,210.2634418999951,210.2634418999951,210.2634418999951,210.2634418999951,210.2634418999951,210.62979710000218,210.62979710000218,210.62979710000218,210.62979710000218,210.62979710000218,210.62979710000218,210.62979710000218,210.62979710000218,210.62979710000218,23,0,,,210.62979710000218,210.8301008999988,0.0,210.8301008999988,0,0.0,0,1,1000,num_1,0.41566769999917597,,21,16,2026-03-02_18h38.37.740,2026A_exp2,2022.2.4,60.02094730940491,
1,0,3.7,0.0,1,0,63,63,59,,,,,211.26366319999215,211.91448229999514,211.91448229999514,212.3987352999975,45,315,212.3987352999975,212.3987352999975,212.3987352999975,212.3987352999975,212.3987352999975,212.3987352999975,212.3987352999975,212.3987352999975,212.3987352999975,212.76515759999165,212.76515759999165,212.76515759999165,212.76515759999165,212.76515759999165,212.76515759999165,212.76515759999165,212.76515759999165,212.76515759999165,23,0,,,212.76515759999165,212.9655555000063,0.0,212.9655555000063,0,0.0,0,1,1000,num_1,0.7764410999952815,,21,16,2026-03-02_18h38.37.740,2026A_exp2,2022.2.4,60.02094730940491,
1,0,6.1,3.7,0,0,64,64,86,,,,,213.76613920001546,214.41680780000752,214.41680780000752,214.90142310000374,315,315,214.90142310000374,214.90142310000374,214.90142310000374,214.90142310000374,214.90142310000374,214.90142310000374,214.90142310000374,214.90142310000374,214.90142310000374,215.26770270001725,215.26770270001725,215.26770270001725,215.26770270001725,215.26770270001725,215.26770270001725,215.26770270001725,215.26770270001725,215.26770270001725,20,1,[0.26720919998479076],[0.3172005999949761],215.26770270001725,215.46796290000202,6.1,215.46796290000202,1,6.1,1,1,1000,num_4,0.6022701000038069,,21,16,2026-03-02_18h38.37.740,2026A_exp2,2022.2.4,60.02094730940491,
1,0,3.7,4.9,0,0,65,65,84,,,,,216.10180730000138,216.7524895000097,216.7524895000097,217.25341170001775,45,45,217.25341170001775,217.25341170001775,217.25341170001775,217.25341170001775,217.25341170001775,217.25341170001775,217.25341170001775,217.25341170001775,217.25341170001775,217.60341740000877,217.60341740000877,217.60341740000877,217.60341740000877,217.60341740000877,217.60341740000877,217.60341740000877,217.60341740000877,217.60341740000877,22,0,,,217.60341740000877,217.80353010000545,3.7,217.80353010000545,0,3.7,1,0,1000,num_1,0.763019699981669,,21,16,2026-03-02_18h38.37.740,2026A_exp2,2022.2.4,60.02094730940491,
1,0,0.0,4.9,0,0,66,66,35,,,,,218.58767480001552,219.23830669999006,219.23830669999006,219.7226510999899,45,315,219.7226510999899,219.7226510999899,219.7226510999899,219.7226510999899,219.7226510999899,219.7226510999899,219.7226510999899,219.7226510999899,219.7226510999899,220.08930809999583,220.08930809999583,220.08930809999583,220.08930809999583,220.08930809999583,220.08930809999583,220.08930809999583,220.08930809999583,220.08930809999583,23,0,,,220.08930809999583,220.28935320000164,0.0,220.28935320000164,0,0.0,0,1,1000,num_1,0.7255041000025813,,21,16,2026-03-02_18h38.37.740,2026A_exp2,2022.2.4,60.02094730940491,
1000,1,6.1,4.9,0,0,67,67,77,,,,,221.04009900000528,221.6908676000021,221.6908676000021,222.17540030000964,315,315,222.17540030000964,222.17540030000964,222.17540030000964,222.17540030000964,222.17540030000964,222.17540030000964,222.17540030000964,222.17540030000964,222.17540030000964,222.54132439999375,222.54132439999375,222.54132439999375,222.54132439999375,222.54132439999375,222.54132439999375,222.54132439999375,222.54132439999375,222.54132439999375,23,0,,,222.54132439999375,222.74372580001364,1000,222.74372580001364,1000,1000,1000,1000,0,num_3,0.6141525999992155,,21,16,2026-03-02_18h38.37.740,2026A_exp2,2022.2.4,60.02094730940491,
1000,1,3.7,6.1,0,0,68,68,81,,,,,223.37590469999122,224.026477300009,224.026477300009,224.52753230000963,315,315,224.52753230000963,224.52753230000963,224.52753230000963,224.52753230000963,224.52753230000963,224.52753230000963,224.52753230000963,224.52753230000963,224.52753230000963,224.8940860000148,224.8940860000148,224.8940860000148,224.8940860000148,224.8940860000148,224.8940860000148,224.8940860000148,224.8940860000148,224.8940860000148,23,0,,,224.8940860000148,225.09853570000269,1000,225.09853570000269,1000,1000,1000,1000,1,num_2,0.5078798999893479,,21,16,2026-03-02_18h38.37.740,2026A_exp2,2022.2.4,60.02094730940491,
1000,1,0.0,3.7,1,0,69,69,43,,,,,225.62815030000638,226.27888329999405,226.27888329999405,226.77991529999417,315,45,226.77991529999417,226.77991529999417,226.77991529999417,226.77991529999417,226.77991529999417,226.77991529999417,226.77991529999417,226.77991529999417,226.77991529999417,227.1463633000094,227.1463633000094,227.1463633000094,227.1463633000094,227.1463633000094,227.1463633000094,227.1463633000094,227.1463633000094,227.1463633000094,23,0,,,227.1463633000094,227.34832940000342,1000,227.34832940000342,1000,1000,1000,1000,1,num_2,0.5785007000085898,,21,16,2026-03-02_18h38.37.740,2026A_exp2,2022.2.4,60.02094730940491,
1000,1,3.7,0.0,0,0,70,70,37,,,,,227.94710220000707,228.59774590001325,228.59774590001325,229.09873200001311,45,315,229.09873200001311,229.09873200001311,229.09873200001311,229.09873200001311,229.09873200001311,229.09873200001311,229.09873200001311,229.09873200001311,229.09873200001311,229.46526739999535,229.46526739999535,229.46526739999535,229.46526739999535,229.46526739999535,229.46526739999535,229.46526739999535,229.46526739999535,229.46526739999535,23,0,,,229.46526739999535,229.66808950001723,1000,229.66808950001723,1000,1000,1000,1000,0,num_3,0.4745021999988239,,21,16,2026-03-02_18h38.37.740,2026A_exp2,2022.2.4,60.02094730940491,
1,0,4.9,0.0,1,0,71,71,48,,,,,230.16582369999378,230.81664199999068,230.81664199999068,231.3011506999901,315,315,231.3011506999901,231.3011506999901,231.3011506999901,231.3011506999901,231.3011506999901,231.3011506999901,231.3011506999901,231.3011506999901,231.3011506999901,231.66755440001725,231.66755440001725,231.66755440001725,231.66755440001725,231.66755440001725,231.66755440001725,231.66755440001725,231.66755440001725,231.66755440001725,23,0,,,231.66755440001725,231.86777889999212,0.0,231.86777889999212,0,0.0,0,1,1000,num_1,0.8112485000165179,,21,16,2026-03-02_18h38.37.740,2026A_exp2,2022.2.4,60.02094730940491,
1000,1,0.0,0.0,1,0,72,72,70,,,,,232.70181850000517,233.3526264000102,233.3526264000102,233.8370117000013,315,315,233.8370117000013,233.8370117000013,233.8370117000013,233.8370117000013,233.8370117000013,233.8370117000013,233.8370117000013,233.8370117000013,233.8370117000013,234.20298050000565,234.20298050000565,234.20298050000565,234.20298050000565,234.20298050000565,234.20298050000565,234.20298050000565,234.20298050000565,234.20298050000565,23,0,,,234.20298050000565,234.4056860000128,1000,234.4056860000128,1000,1000,1000,1000,0,num_3,0.5448019000177737,,21,16,2026-03-02_18h38.37.740,2026A_exp2,2022.2.4,60.02094730940491,
1000,1,6.1,0.0,1,0,73,73,79,,,,,234.97087910000118,235.62181310000597,235.62181310000597,236.10581559999264,45,315,236.10581559999264,236.10581559999264,236.10581559999264,236.10581559999264,236.10581559999264,236.10581559999264,236.10581559999264,236.10581559999264,236.10581559999264,236.47237770000356,236.47237770000356,236.47237770000356,236.47237770000356,236.47237770000356,236.47237770000356,236.47237770000356,236.47237770000356,236.47237770000356,23,0,,,236.47237770000356,236.6741949999996,1000,236.6741949999996,1000,1000,1000,1000,0,num_3,0.44417069997871295,,21,16,2026-03-02_18h38.37.740,2026A_exp2,2022.2.4,60.02094730940491,
1000,1,0.0,0.0,0,0,74,74,47,,,,,237.1395574999915,237.7903062000114,237.7903062000114,238.2914824000036,45,45,238.2914824000036,238.2914824000036,238.2914824000036,238.2914824000036,238.2914824000036,238.2914824000036,238.2914824000036,238.2914824000036,238.2914824000036,238.6412316999922,238.6412316999922,238.6412316999922,238.6412316999922,238.6412316999922,238.6412316999922,238.6412316999922,238.6412316999922,238.6412316999922,22,0,,,238.6412316999922,238.84151699999347,1000,238.8580159000121,1000,1000,1000,1000,1,num_2,1.0838957999949344,,21,16,2026-03-02_18h38.37.740,2026A_exp2,2022.2.4,60.02094730940491,
1,0,6.1,0.0,0,0,75,75,24,,,,,239.95906160000595,240.60959629999707,240.60959629999707,241.11067570000887,45,315,241.11067570000887,241.11067570000887,241.11067570000887,241.11067570000887,241.11067570000887,241.11067570000887,241.11067570000887,241.11067570000887,241.11067570000887,241.47734640000272,241.47734640000272,241.47734640000272,241.47734640000272,241.47734640000272,241.47734640000272,241.47734640000272,241.47734640000272,241.47734640000272,23,0,,,241.47734640000272,241.6771948999958,6.1,241.6771948999958,1,6.1,1,1,1000,num_4,0.6335666000086349,,21,16,2026-03-02_18h38.37.740,2026A_exp2,2022.2.4,60.02094730940491,
1,0,0.0,6.1,0,0,76,76,57,,,,,242.3280029000016,242.97893440001644,242.97893440001644,243.47997839999152,45,315,243.47997839999152,243.47997839999152,243.47997839999152,243.47997839999152,243.47997839999152,243.47997839999152,243.47997839999152,243.47997839999152,243.47997839999152,243.84644839999964,243.84644839999964,243.84644839999964,243.84644839999964,243.84644839999964,243.84644839999964,243.84644839999964,243.84644839999964,243.84644839999964,23,0,,,243.84644839999964,244.0466460000025,0.0,244.0466460000025,0,0.0,0,1,1000,num_1,0.7036637999990489,,21,16,2026-03-02_18h38.37.740,2026A_exp2,2022.2.4,60.02094730940491,
1,0,0.0,3.7,0,0,77,77,22,,,,,244.7805542999995,245.43115039999248,245.43115039999248,245.91560249999748,45,45,245.91560249999748,245.91560249999748,245.91560249999748,245.91560249999748,245.91560249999748,245.91560249999748,245.91560249999748,245.91560249999748,245.91560249999748,246.2821421000117,246.2821421000117,246.2821421000117,246.2821421000117,246.2821421000117,246.2821421000117,246.2821421000117,246.2821421000117,246.2821421000117,23,0,,,246.2821421000117,246.4823602999968,0.0,246.4823602999968,0,0.0,0,1,1000,num_1,0.6038470999919809,,21,16,2026-03-02_18h38.37.740,2026A_exp2,2022.2.4,60.02094730940491,
1,0,6.1,4.9,0,0,78,78,30,,,,,247.1162359000009,247.76706710000872,247.76706710000872,248.25142760001472,315,315,248.25142760001472,248.25142760001472,248.25142760001472,248.25142760001472,248.25142760001472,248.25142760001472,248.25142760001472,248.25142760001472,248.25142760001472,248.6178879000072,248.6178879000072,248.6178879000072,248.6178879000072,248.6178879000072,248.6178879000072,248.6178879000072,248.6178879000072,248.6178879000072,23,0,,,248.6178879000072,248.81809220000287,6.1,248.81809220000287,1,6.1,1,1,1000,num_4,0.9562926999933552,,21,16,2026-03-02_18h38.37.740,2026A_exp2,2022.2.4,60.02094730940491,
1,0,0.0,3.7,1,0,79,79,25,,,,,249.802159200015,250.4529964000103,250.4529964000103,250.9374048000027,315,45,250.9374048000027,250.9374048000027,250.9374048000027,250.9374048000027,250.9374048000027,250.9374048000027,250.9374048000027,250.9374048000027,250.9374048000027,251.3038790000137,251.3038790000137,251.3038790000137,251.3038790000137,251.3038790000137,251.3038790000137,251.3038790000137,251.3038790000137,251.3038790000137,23,0,,,251.3038790000137,251.50404020000133,3.7,251.50404020000133,1,3.7,1,1,1000,num_4,0.44629510000231676,,21,16,2026-03-02_18h38.37.740,2026A_exp2,2022.2.4,60.02094730940491,
0,0,0.0,0.0,0,0,80,80,69,,,,,251.97102830000222,252.62173250000342,252.62173250000342,253.10627180000301,45,315,253.10627180000301,253.10627180000301,253.10627180000301,253.10627180000301,253.10627180000301,253.10627180000301,253.10627180000301,253.10627180000301,253.10627180000301,253.47269450000022,253.47269450000022,253.47269450000022,253.47269450000022,253.47269450000022,253.47269450000022,253.47269450000022,253.47269450000022,253.47269450000022,23,0,,,253.47269450000022,253.6727036999946,0.0,253.6727036999946,0,0.0,0,1,1000,num_1,0.5259033000038471,,21,16,2026-03-02_18h38.37.740,2026A_exp2,2022.2.4,60.02094730940491,
1,0,0.0,0.0,1,0,81,81,53,,,,,254.22332320001442,254.8740373000037,254.8740373000037,255.35855080001056,315,315,255.35855080001056,255.35855080001056,255.35855080001056,255.35855080001056,255.35855080001056,255.35855080001056,255.35855080001056,255.35855080001056,255.35855080001056,255.72491920000175,255.72491920000175,255.72491920000175,255.72491920000175,255.72491920000175,255.72491920000175,255.72491920000175,255.72491920000175,255.72491920000175,23,0,,,255.72491920000175,255.92505849999725,0.0,255.92505849999725,0,0.0,0,1,1000,num_1,0.4100124000106007,,21,16,2026-03-02_18h38.37.740,2026A_exp2,2022.2.4,60.02094730940491,
1000,1,6.1,6.1,0,0,82,82,50,,,,,256.3587489000056,257.00954739999725,257.00954739999725,257.494017399993,315,45,257.494017399993,257.494017399993,257.494017399993,257.494017399993,257.494017399993,257.494017399993,257.494017399993,257.494017399993,257.494017399993,257.86047780001536,257.86047780001536,257.86047780001536,257.86047780001536,257.86047780001536,257.86047780001536,257.86047780001536,257.86047780001536,257.86047780001536,23,0,,,257.86047780001536,258.0625534999999,1000,258.0625534999999,1000,1000,1000,1000,1,num_2,0.9434266999887768,,21,16,2026-03-02_18h38.37.740,2026A_exp2,2022.2.4,60.02094730940491,
1,0,0.0,6.1,0,0,83,83,72,,,,,259.02807610001764,259.67881569999736,259.67881569999736,260.1800453000178,45,45,260.1800453000178,260.1800453000178,260.1800453000178,260.1800453000178,260.1800453000178,260.1800453000178,260.1800453000178,260.1800453000178,260.1800453000178,260.52971639999305,260.52971639999305,260.52971639999305,260.52971639999305,260.52971639999305,260.52971639999305,260.52971639999305,260.52971639999305,260.52971639999305,22,0,,,260.52971639999305,260.72983679999015,0.0,260.72983679999015,0,0.0,0,1,1000,num_1,0.6926093000220135,,21,16,2026-03-02_18h38.37.740,2026A_exp2,2022.2.4,60.02094730940491,
1000,1,0.0,6.1,1,0,84,84,3,,,,,261.44754180000746,262.0979222000169,262.0979222000169,262.5824056999991,45,45,262.5824056999991,262.5824056999991,262.5824056999991,262.5824056999991,262.5824056999991,262.5824056999991,262.5824056999991,262.5824056999991,262.5824056999991,262.94876790000126,262.94876790000126,262.94876790000126,262.94876790000126,262.94876790000126,262.94876790000126,262.94876790000126,262.94876790000126,262.94876790000126,23,0,,,262.94876790000126,263.150709700014,1000,263.150709700014,1000,1000,1000,1000,1,num_2,0.5281500999990385,,21,16,2026-03-02_18h38.37.740,2026A_exp2,2022.2.4,60.02094730940491,
1000,1,4.9,0.0,1,0,85,85,28,,,,,263.6993696000136,264.35015879999264,264.35015879999264,264.8513198000146,315,45,264.8513198000146,264.8513198000146,264.8513198000146,264.8513198000146,264.8513198000146,264.8513198000146,264.8513198000146,264.8513198000146,264.8513198000146,265.2010719999962,265.2010719999962,265.2010719999962,265.2010719999962,265.2010719999962,265.2010719999962,265.2010719999962,265.2010719999962,265.2010719999962,22,0,,,265.2010719999962,265.403112400003,1000,265.41789199999766,1000,1000,1000,1000,0,num_3,0.5560007999883965,,21,16,2026-03-02_18h38.37.740,2026A_exp2,2022.2.4,60.02094730940491,
1000,1,4.9,0.0,0,0,86,86,78,,,,,266.00181099999463,266.63590419999673,266.63590419999673,267.1368962000124,315,45,267.1368962000124,267.1368962000124,267.1368962000124,267.1368962000124,267.1368962000124,267.1368962000124,267.1368962000124,267.1368962000124,267.1368962000124,267.50326600001426,267.50326600001426,267.50326600001426,267.50326600001426,267.50326600001426,267.50326600001426,267.50326600001426,267.50326600001426,267.50326600001426,23,0,,,267.50326600001426,267.70500710001215,1000,267.70500710001215,1000,1000,1000,1000,0,num_3,0.3414885999809485,,21,16,2026-03-02_18h38.37.740,2026A_exp2,2022.2.4,60.02094730940491,
1,0,3.7,6.1,1,0,87,87,6,,,,,268.0703402000072,268.7212806000025,268.7212806000025,269.2224521000171,315,45,269.2224521000171,269.2224521000171,269.2224521000171,269.2224521000171,269.2224521000171,269.2224521000171,269.2224521000171,269.2224521000171,269.2224521000171,269.58862680001766,269.58862680001766,269.58862680001766,269.58862680001766,269.58862680001766,269.58862680001766,269.58862680001766,269.58862680001766,269.58862680001766,23,0,,,269.58862680001766,269.7888891000184,6.1,269.7888891000184,1,6.1,1,1,1000,num_4,0.5296116000099573,,21,16,2026-03-02_18h38.37.740,2026A_exp2,2022.2.4,60.02094730940491,
1,0,6.1,0.0,1,0,88,88,38,,,,,270.339395100018,270.99018849999993,270.99018849999993,271.47469020000426,45,45,271.47469020000426,271.47469020000426,271.47469020000426,271.47469020000426,271.47469020000426,271.47469020000426,271.47469020000426,271.47469020000426,271.47469020000426,271.84085030001006,271.84085030001006,271.84085030001006,271.84085030001006,271.84085030001006,271.84085030001006,271.84085030001006,271.84085030001006,271.84085030001006,23,0,,,271.84085030001006,272.0411579000065,0.0,272.0411579000065,0,0.0,0,1,1000,num_1,0.7407925999723375,,21,16,2026-03-02_18h38.37.740,2026A_exp2,2022.2.4,60.02094730940491,
1,0,3.7,4.9,0,0,89,89,31,,,,,272.80848989999504,273.45889579999493,273.45889579999493,273.94382810001844,45,315,273.94382810001844,273.94382810001844,273.94382810001844,273.94382810001844,273.94382810001844,273.94382810001844,273.94382810001844,273.94382810001844,273.94382810001844,274.31034779999754,274.31034779999754,274.31034779999754,274.31034779999754,274.31034779999754,274.31034779999754,274.31034779999754,274.31034779999754,274.31034779999754,23,0,,,274.31034779999754,274.51018959999783,3.7,274.51018959999783,1,3.7,1,1,1000,num_4,0.7523673999821767,,21,16,2026-03-02_18h38.37.740,2026A_exp2,2022.2.4,60.02094730940491,
,,,,,,,,,,,,,,,,,,,,,,,,,,,,,,,,,,,,,,,,,,,,,,,,,,,,275.30347859999165,,,,,,,
