validity,detectorcomp,contrastCW,contrastCCW,precueCWorCCW,block_80trials.thisRepN,block_80trials.thisTrialN,block_80trials.thisN,block_80trials.thisIndex,etRecord.started,etRecord.stopped,text.started,text.stopped,text_4.started,text_4.stopped,text_6.started,text_6.stopped,oriCW,oriCCW,roi_2.started,grating_UR.started,grating_UL.started,grating_LR.started,grating_LL.started,noise_UR.started,noise_UL.started,noise_LR.started,noise_LL.started,roi_2.stopped,grating_UR.stopped,grating_UL.stopped,grating_LR.stopped,grating_LL.stopped,noise_UR.stopped,noise_UL.stopped,noise_LR.stopped,noise_LL.stopped,outframe,roi_2.numLooks,roi_2.timesOn,roi_2.timesOff,text_2.started,text_2.stopped,probedcontrast,key_resp.started,respdetect,relevantContrast,correctDetect,TorFdetect,respCWorCCW,key_resp.keys,key_resp.rt,feedback_display_.started,participantNo,blockNo,date,expName,psychopyVersion,frameRate,
1000,1,3.7,0.0,1,0,0,0,19,4.959991201758385e-05,4.959991201758385e-05,55.03879970009439,57.042429300025105,57.042429300025105,57.69240990001708,57.69240990001708,58.1961384001188,315,45,58.1961384001188,58.1961384001188,58.1961384001188,58.1961384001188,58.1961384001188,58.1961384001188,58.1961384001188,58.1961384001188,58.1961384001188,58.54298819997348,58.54298819997348,58.54298819997348,58.54298819997348,58.54298819997348,58.54298819997348,58.54298819997348,58.54298819997348,58.54298819997348,23,0,,,58.54298819997348,58.75075999996625,1000,58.75075999996625,1000,1000,1000,1000,0,num_3,1.3857714999467134,,31,7,2026-03-12_13h57.07.536,2026A_exp2,2022.2.4,59.83853175817093,
1,0,4.9,4.9,1,0,1,1,18,,,,,60.16143460012972,60.81180469994433,60.81180469994433,61.31325799995102,45,45,61.31325799995102,61.31325799995102,61.31325799995102,61.31325799995102,61.31325799995102,61.31325799995102,61.31325799995102,61.31325799995102,61.31325799995102,61.67908099992201,61.67908099992201,61.67908099992201,61.67908099992201,61.67908099992201,61.67908099992201,61.67908099992201,61.67908099992201,61.67908099992201,23,0,,,61.67908099992201,61.87972730002366,4.9,61.87972730002366,1,4.9,1,1,1000,num_4,1.2326516998000443,,31,7,2026-03-12_13h57.07.536,2026A_exp2,2022.2.4,59.83853175817093,
1,0,3.7,3.7,0,0,2,2,8,,,,,63.13097529998049,63.781290699960664,63.781290699960664,64.26593360002153,45,315,64.26593360002153,64.26593360002153,64.26593360002153,64.26593360002153,64.26593360002153,64.26593360002153,64.26593360002153,64.26593360002153,64.26593360002153,64.6323842999991,64.6323842999991,64.6323842999991,64.6323842999991,64.6323842999991,64.6323842999991,64.6323842999991,64.6323842999991,64.6323842999991,23,0,,,64.6323842999991,64.83253260003403,3.7,64.83253260003403,1,3.7,1,1,1000,num_4,1.1042827998753637,,31,7,2026-03-12_13h57.07.536,2026A_exp2,2022.2.4,59.83853175817093,
1,0,6.1,3.7,1,0,3,3,83,,,,,65.96701540006325,66.61773790000007,66.61773790000007,67.10218570008874,45,45,67.10218570008874,67.10218570008874,67.10218570008874,67.10218570008874,67.10218570008874,67.10218570008874,67.10218570008874,67.10218570008874,67.10218570008874,67.46829769993201,67.46829769993201,67.46829769993201,67.46829769993201,67.46829769993201,67.46829769993201,67.46829769993201,67.46829769993201,67.46829769993201,23,0,,,67.46829769993201,67.6687924999278,3.7,67.6687924999278,1,3.7,1,1,1000,num_4,1.1159045998938382,,31,7,2026-03-12_13h57.07.536,2026A_exp2,2022.2.4,59.83853175817093,
1,0,6.1,0.0,0,0,4,4,77,,,,,68.80321509996429,69.45392349991016,69.45392349991016,69.95470910007134,45,45,69.95470910007134,69.95470910007134,69.95470910007134,69.95470910007134,69.95470910007134,69.95470910007134,69.95470910007134,69.95470910007134,69.95470910007134,70.32145599997602,70.32145599997602,70.32145599997602,70.32145599997602,70.32145599997602,70.32145599997602,70.32145599997602,70.32145599997602,70.32145599997602,23,0,,,70.32145599997602,70.52171580004506,6.1,70.52171580004506,1,6.1,1,1,1000,num_4,0.7827212999109179,,31,7,2026-03-12_13h57.07.536,2026A_exp2,2022.2.4,59.83853175817093,
1,0,0.0,0.0,0,0,5,5,61,,,,,71.32248990004882,71.97312390012667,71.97312390012667,72.45753360004164,315,45,72.45753360004164,72.45753360004164,72.45753360004164,72.45753360004164,72.45753360004164,72.45753360004164,72.45753360004164,72.45753360004164,72.45753360004164,72.82392539991997,72.82392539991997,72.82392539991997,72.82392539991997,72.82392539991997,72.82392539991997,72.82392539991997,72.82392539991997,72.82392539991997,23,0,,,72.82392539991997,73.02422549994662,0.0,73.02422549994662,0,0.0,0,1,1000,num_1,0.8253299000207335,,31,7,2026-03-12_13h57.07.536,2026A_exp2,2022.2.4,59.83853175817093,
1,0,0.0,3.7,1,0,6,6,30,,,,,73.87492140009999,74.52571650012396,74.52571650012396,75.00995810003951,315,315,75.00995810003951,75.00995810003951,75.00995810003951,75.00995810003951,75.00995810003951,75.00995810003951,75.00995810003951,75.00995810003951,75.00995810003951,75.37651040009223,75.37651040009223,75.37651040009223,75.37651040009223,75.37651040009223,75.37651040009223,75.37651040009223,75.37651040009223,75.37651040009223,23,0,,,75.37651040009223,75.57666669995524,3.7,75.57666669995524,1,3.7,1,1,1000,num_4,0.42426460003480315,,31,7,2026-03-12_13h57.07.536,2026A_exp2,2022.2.4,59.83853175817093,
1000,1,4.9,0.0,0,0,7,7,12,,,,,76.02703729993664,76.67767650005408,76.67767650005408,77.16226879996248,315,45,77.16226879996248,77.16226879996248,77.16226879996248,77.16226879996248,77.16226879996248,77.16226879996248,77.16226879996248,77.16226879996248,77.16226879996248,77.52868820005096,77.52868820005096,77.52868820005096,77.52868820005096,77.52868820005096,77.52868820005096,77.52868820005096,77.52868820005096,77.52868820005096,23,0,,,77.52868820005096,77.73052340000868,1000,77.73052340000868,1000,1000,1000,1000,0,num_3,0.869793799938634,,31,7,2026-03-12_13h57.07.536,2026A_exp2,2022.2.4,59.83853175817093,
1000,1,0.0,0.0,1,0,8,8,44,,,,,78.62964590010233,79.28041410003789,79.28041410003789,79.78155869990587,45,315,79.78155869990587,79.78155869990587,79.78155869990587,79.78155869990587,79.78155869990587,79.78155869990587,79.78155869990587,79.78155869990587,79.78155869990587,80.14803620008752,80.14803620008752,80.14803620008752,80.14803620008752,80.14803620008752,80.14803620008752,80.14803620008752,80.14803620008752,80.14803620008752,23,0,,,80.14803620008752,80.34807540010661,1000,80.34807540010661,1000,1000,1000,1000,0,num_3,1.0365748000331223,,31,7,2026-03-12_13h57.07.536,2026A_exp2,2022.2.4,59.83853175817093,
1000,1,6.1,4.9,1,0,9,9,86,,,,,81.41594470012933,82.06623609992675,82.06623609992675,82.56767660006881,315,315,82.56767660006881,82.56767660006881,82.56767660006881,82.56767660006881,82.56767660006881,82.56767660006881,82.56767660006881,82.56767660006881,82.56767660006881,82.91742369998246,82.91742369998246,82.91742369998246,82.91742369998246,82.91742369998246,82.91742369998246,82.91742369998246,82.91742369998246,82.91742369998246,22,0,,,82.91742369998246,83.11967079993337,1000,83.11967079993337,1000,1000,1000,1000,1,num_2,0.5936855997424573,,31,7,2026-03-12_13h57.07.536,2026A_exp2,2022.2.4,59.83853175817093,
1,0,0.0,0.0,0,0,10,10,39,,,,,83.73477250011638,84.38513569999486,84.38513569999486,84.88662449992262,45,45,84.88662449992262,84.88662449992262,84.88662449992262,84.88662449992262,84.88662449992262,84.88662449992262,84.88662449992262,84.88662449992262,84.88662449992262,85.25304870004766,85.25304870004766,85.25304870004766,85.25304870004766,85.25304870004766,85.25304870004766,85.25304870004766,85.25304870004766,85.25304870004766,23,0,,,85.25304870004766,85.45321539998986,0.0,85.45321539998986,0,0.0,0,1,1000,num_1,0.660042000003159,,31,7,2026-03-12_13h57.07.536,2026A_exp2,2022.2.4,59.83853175817093,
1000,1,6.1,0.0,0,0,11,11,69,,,,,86.13714240002446,86.78788259997964,86.78788259997964,87.27240159991197,315,315,87.27240159991197,87.27240159991197,87.27240159991197,87.27240159991197,87.27240159991197,87.27240159991197,87.27240159991197,87.27240159991197,87.27240159991197,87.63867050013505,87.63867050013505,87.63867050013505,87.63867050013505,87.63867050013505,87.63867050013505,87.63867050013505,87.63867050013505,87.63867050013505,23,0,,,87.63867050013505,87.84089610003866,1000,87.84089610003866,1000,1000,1000,1000,0,num_3,0.6567762999329716,,31,7,2026-03-12_13h57.07.536,2026A_exp2,2022.2.4,59.83853175817093,
1000,1,0.0,0.0,1,0,12,12,63,,,,,88.52293840004131,89.173659699969,89.173659699969,89.67480750009418,45,45,89.67480750009418,89.67480750009418,89.67480750009418,89.67480750009418,89.67480750009418,89.67480750009418,89.67480750009418,89.67480750009418,89.67480750009418,90.0410339999944,90.0410339999944,90.0410339999944,90.0410339999944,90.0410339999944,90.0410339999944,90.0410339999944,90.0410339999944,90.0410339999944,23,0,,,90.0410339999944,90.24351590010338,1000,90.24351590010338,1000,1000,1000,1000,0,num_3,0.7814563999418169,,31,7,2026-03-12_13h57.07.536,2026A_exp2,2022.2.4,59.83853175817093,
1,0,0.0,0.0,1,0,13,13,20,,,,,91.04204450012185,91.69281030003913,91.69281030003913,92.19398030010052,45,45,92.19398030010052,92.19398030010052,92.19398030010052,92.19398030010052,92.19398030010052,92.19398030010052,92.19398030010052,92.19398030010052,92.19398030010052,92.56037819990888,92.56037819990888,92.56037819990888,92.56037819990888,92.56037819990888,92.56037819990888,92.56037819990888,92.56037819990888,92.56037819990888,23,0,,,92.56037819990888,92.760653299978,0.0,92.760653299978,1,0.0,0,0,1000,num_4,0.7124716998077929,,31,7,2026-03-12_13h57.07.536,2026A_exp2,2022.2.4,59.83853175817093,
1,0,4.9,4.9,0,0,14,14,28,,,,,93.49444500007667,94.14536760002375,94.14536760002375,94.6297440000344,315,315,94.6297440000344,94.6297440000344,94.6297440000344,94.6297440000344,94.6297440000344,94.6297440000344,94.6297440000344,94.6297440000344,94.6297440000344,94.99617590010166,94.99617590010166,94.99617590010166,94.99617590010166,94.99617590010166,94.99617590010166,94.99617590010166,94.99617590010166,94.99617590010166,23,0,,,94.99617590010166,95.19638430001214,4.9,95.19638430001214,1,4.9,1,1,1000,num_4,1.1249565999023616,,31,7,2026-03-12_13h57.07.536,2026A_exp2,2022.2.4,59.83853175817093,
1,0,3.7,6.1,1,0,15,15,75,,,,,96.3473062000703,96.99800539994612,96.99800539994612,97.48244920000434,45,315,97.48244920000434,97.48244920000434,97.48244920000434,97.48244920000434,97.48244920000434,97.48244920000434,97.48244920000434,97.48244920000434,97.48244920000434,97.8487146999687,97.8487146999687,97.8487146999687,97.8487146999687,97.8487146999687,97.8487146999687,97.8487146999687,97.8487146999687,97.8487146999687,23,0,,,97.8487146999687,98.04893640009686,6.1,98.04893640009686,1,6.1,1,1,1000,num_4,0.3757772999815643,,31,7,2026-03-12_13h57.07.536,2026A_exp2,2022.2.4,59.83853175817093,
1,0,0.0,0.0,0,0,16,16,32,,,,,98.44994550012052,99.10020740004256,99.10020740004256,99.60130360000767,45,45,99.60130360000767,99.60130360000767,99.60130360000767,99.60130360000767,99.60130360000767,99.60130360000767,99.60130360000767,99.60130360000767,99.60130360000767,99.96778669999912,99.96778669999912,99.96778669999912,99.96778669999912,99.96778669999912,99.96778669999912,99.96778669999912,99.96778669999912,99.96778669999912,23,0,,,99.96778669999912,100.16790780005977,0.0,100.16790780005977,0,0.0,0,1,1000,num_1,1.161804199917242,,31,7,2026-03-12_13h57.07.536,2026A_exp2,2022.2.4,59.83853175817093,
1,0,6.1,6.1,0,0,17,17,89,,,,,101.3524352000095,102.00311019993387,102.00311019993387,102.48742370004766,315,315,102.48742370004766,102.48742370004766,102.48742370004766,102.48742370004766,102.48742370004766,102.48742370004766,102.48742370004766,102.48742370004766,102.48742370004766,102.85397009993903,102.85397009993903,102.85397009993903,102.85397009993903,102.85397009993903,102.85397009993903,102.85397009993903,102.85397009993903,102.85397009993903,23,0,,,102.85397009993903,103.05410120007582,6.1,103.05410120007582,1,6.1,1,1,1000,num_4,0.6347046999726444,,31,7,2026-03-12_13h57.07.536,2026A_exp2,2022.2.4,59.83853175817093,
1000,1,6.1,0.0,0,0,18,18,21,,,,,103.70475349994376,104.3554543000646,104.3554543000646,104.85649030003697,315,315,104.85649030003697,104.85649030003697,104.85649030003697,104.85649030003697,104.85649030003697,104.85649030003697,104.85649030003697,104.85649030003697,104.85649030003697,105.20634180004708,105.20634180004708,105.20634180004708,105.20634180004708,105.20634180004708,105.20634180004708,105.20634180004708,105.20634180004708,105.20634180004708,22,0,,,105.20634180004708,105.40878960001282,1000,105.40878960001282,1000,1000,1000,1000,0,num_3,0.6478925996925682,,31,7,2026-03-12_13h57.07.536,2026A_exp2,2022.2.4,59.83853175817093,
1000,1,3.7,3.7,1,0,19,19,54,,,,,106.07375250011683,106.72439990006387,106.72439990006387,107.22553659998812,45,315,107.22553659998812,107.22553659998812,107.22553659998812,107.22553659998812,107.22553659998812,107.22553659998812,107.22553659998812,107.22553659998812,107.22553659998812,107.5918771000579,107.5918771000579,107.5918771000579,107.5918771000579,107.5918771000579,107.5918771000579,107.5918771000579,107.5918771000579,107.5918771000579,23,0,,,107.5918771000579,107.79434380005114,1000,107.79434380005114,1000,1000,1000,1000,0,num_3,0.7506923999171704,,31,7,2026-03-12_13h57.07.536,2026A_exp2,2022.2.4,59.83853175817093,
1000,1,0.0,0.0,0,0,20,20,2,,,,,108.57630760013126,109.22693000012077,109.22693000012077,109.72807650011964,45,45,109.72807650011964,109.72807650011964,109.72807650011964,109.72807650011964,109.72807650011964,109.72807650011964,109.72807650011964,109.72807650011964,109.72807650011964,110.09452640009113,110.09452640009113,110.09452640009113,110.09452640009113,110.09452640009113,110.09452640009113,110.09452640009113,110.09452640009113,110.09452640009113,23,0,,,110.09452640009113,110.29656479996629,1000,110.29656479996629,1000,1000,1000,1000,0,num_3,0.6238879996817559,,31,7,2026-03-12_13h57.07.536,2026A_exp2,2022.2.4,59.83853175817093,
1,0,0.0,4.9,1,0,21,21,73,,,,,110.94533849996515,111.59592600003816,111.59592600003816,112.09724660008214,45,315,112.09724660008214,112.09724660008214,112.09724660008214,112.09724660008214,112.09724660008214,112.09724660008214,112.09724660008214,112.09724660008214,112.09724660008214,112.46344540012069,112.46344540012069,112.46344540012069,112.46344540012069,112.46344540012069,112.46344540012069,112.46344540012069,112.46344540012069,112.46344540012069,23,0,,,112.46344540012069,112.66368740005419,4.9,112.66368740005419,1,4.9,1,1,1000,num_4,0.8567359000444412,,31,7,2026-03-12_13h57.07.536,2026A_exp2,2022.2.4,59.83853175817093,
1000,1,0.0,4.9,1,0,22,22,57,,,,,113.54780249996111,114.19871350005269,114.19871350005269,114.68323650001548,315,315,114.68323650001548,114.68323650001548,114.68323650001548,114.68323650001548,114.68323650001548,114.68323650001548,114.68323650001548,114.68323650001548,114.68323650001548,115.04955390002578,115.04955390002578,115.04955390002578,115.04955390002578,115.04955390002578,115.04955390002578,115.04955390002578,115.04955390002578,115.04955390002578,23,0,,,115.04955390002578,115.2517794999294,1000,115.2517794999294,1000,1000,1000,1000,1,num_2,0.6449996000155807,,31,7,2026-03-12_13h57.07.536,2026A_exp2,2022.2.4,59.83853175817093,
0,0,3.7,3.7,1,0,23,23,62,,,,,115.9168688999489,116.56772880000062,116.56772880000062,117.06884149997495,315,45,117.06884149997495,117.06884149997495,117.06884149997495,117.06884149997495,117.06884149997495,117.06884149997495,117.06884149997495,117.06884149997495,117.06884149997495,117.43515500007197,117.43515500007197,117.43515500007197,117.43515500007197,117.43515500007197,117.43515500007197,117.43515500007197,117.43515500007197,117.43515500007197,23,0,,,117.43515500007197,117.63539530010894,3.7,117.63539530010894,0,3.7,1,0,1000,num_1,0.9653455999214202,,31,7,2026-03-12_13h57.07.536,2026A_exp2,2022.2.4,59.83853175817093,
1000,1,6.1,6.1,0,0,24,24,87,,,,,118.61955359997228,119.27069539995864,119.27069539995864,119.75472470000386,315,45,119.75472470000386,119.75472470000386,119.75472470000386,119.75472470000386,119.75472470000386,119.75472470000386,119.75472470000386,119.75472470000386,119.75472470000386,120.1212876001373,120.1212876001373,120.1212876001373,120.1212876001373,120.1212876001373,120.1212876001373,120.1212876001373,120.1212876001373,120.1212876001373,23,0,,,120.1212876001373,120.32355610001832,1000,120.32355610001832,1000,1000,1000,1000,0,num_3,0.5650122999213636,,31,7,2026-03-12_13h57.07.536,2026A_exp2,2022.2.4,59.83853175817093,
1000,1,3.7,0.0,0,0,25,25,55,,,,,120.90522730001248,121.55609360011294,121.55609360011294,122.05715709994547,315,45,122.05715709994547,122.05715709994547,122.05715709994547,122.05715709994547,122.05715709994547,122.05715709994547,122.05715709994547,122.05715709994547,122.05715709994547,122.42357129999436,122.42357129999436,122.42357129999436,122.42357129999436,122.42357129999436,122.42357129999436,122.42357129999436,122.42357129999436,122.42357129999436,23,0,,,122.42357129999436,122.6237232000567,1000,122.6237232000567,1000,1000,1000,1000,0,num_3,0.6817781000863761,,31,7,2026-03-12_13h57.07.536,2026A_exp2,2022.2.4,59.83853175817093,
0,0,6.1,6.1,1,0,26,26,48,,,,,123.32431789999828,123.97515800013207,123.97515800013207,124.4760871999897,315,45,124.4760871999897,124.4760871999897,124.4760871999897,124.4760871999897,124.4760871999897,124.4760871999897,124.4760871999897,124.4760871999897,124.4760871999897,124.84238960011862,124.84238960011862,124.84238960011862,124.84238960011862,124.84238960011862,124.84238960011862,124.84238960011862,124.84238960011862,124.84238960011862,23,0,,,124.84238960011862,125.04262419999577,6.1,125.04262419999577,1,6.1,1,1,1000,num_4,0.9746367000043392,,31,7,2026-03-12_13h57.07.536,2026A_exp2,2022.2.4,59.83853175817093,
0,0,0.0,6.1,1,0,27,27,46,,,,,126.04371899995022,126.69454529997893,126.69454529997893,127.19555029994808,315,315,127.19555029994808,127.19555029994808,127.19555029994808,127.19555029994808,127.19555029994808,127.19555029994808,127.19555029994808,127.19555029994808,127.19555029994808,127.54507350013591,127.54507350013591,127.54507350013591,127.54507350013591,127.54507350013591,127.54507350013591,127.54507350013591,127.54507350013591,127.54507350013591,22,0,,,127.54507350013591,127.74533810000867,0.0,127.74533810000867,1,0.0,0,0,1000,num_4,1.1677265998441726,,31,7,2026-03-12_13h57.07.536,2026A_exp2,2022.2.4,59.83853175817093,
1000,1,3.7,0.0,1,0,28,28,52,,,,,128.92990550003015,129.58060549991205,129.58060549991205,130.08174000005238,315,45,130.08174000005238,130.08174000005238,130.08174000005238,130.08174000005238,130.08174000005238,130.08174000005238,130.08174000005238,130.08174000005238,130.08174000005238,130.44827800011262,130.44827800011262,130.44827800011262,130.44827800011262,130.44827800011262,130.44827800011262,130.44827800011262,130.44827800011262,130.44827800011262,23,0,,,130.44827800011262,130.65015510004014,1000,130.65015510004014,1000,1000,1000,1000,0,num_3,1.20678579993546,,31,7,2026-03-12_13h57.07.536,2026A_exp2,2022.2.4,59.83853175817093,
1000,1,3.7,6.1,1,0,29,29,43,,,,,131.88309099990875,132.53368479991332,132.53368479991332,133.0349004000891,315,315,133.0349004000891,133.0349004000891,133.0349004000891,133.0349004000891,133.0349004000891,133.0349004000891,133.0349004000891,133.0349004000891,133.0349004000891,133.40104450006038,133.40104450006038,133.40104450006038,133.40104450006038,133.40104450006038,133.40104450006038,133.40104450006038,133.40104450006038,133.40104450006038,23,0,,,133.40104450006038,133.60383690008894,1000,133.60383690008894,1000,1000,1000,1000,1,num_2,0.5968493998516351,,31,7,2026-03-12_13h57.07.536,2026A_exp2,2022.2.4,59.83853175817093,
1000,1,0.0,3.7,1,0,30,30,1,,,,,134.21887179999612,134.8691823000554,134.8691823000554,135.37044090009294,45,45,135.37044090009294,135.37044090009294,135.37044090009294,135.37044090009294,135.37044090009294,135.37044090009294,135.37044090009294,135.37044090009294,135.37044090009294,135.73687790008262,135.73687790008262,135.73687790008262,135.73687790008262,135.73687790008262,135.73687790008262,135.73687790008262,135.73687790008262,135.73687790008262,23,0,,,135.73687790008262,135.93886390002444,1000,135.93886390002444,1000,1000,1000,1000,1,num_2,0.5978343999013305,,31,7,2026-03-12_13h57.07.536,2026A_exp2,2022.2.4,59.83853175817093,
1,0,4.9,3.7,1,0,31,31,71,,,,,136.5542059999425,137.20503200008534,137.20503200008534,137.70599210006185,315,315,137.70599210006185,137.70599210006185,137.70599210006185,137.70599210006185,137.70599210006185,137.70599210006185,137.70599210006185,137.70599210006185,137.70599210006185,138.07258339994587,138.07258339994587,138.07258339994587,138.07258339994587,138.07258339994587,138.07258339994587,138.07258339994587,138.07258339994587,138.07258339994587,23,0,,,138.07258339994587,138.2726275001187,3.7,138.2726275001187,1,3.7,1,1,1000,num_4,0.7680504997260869,,31,7,2026-03-12_13h57.07.536,2026A_exp2,2022.2.4,59.83853175817093,
1000,1,4.9,0.0,0,0,32,32,37,,,,,139.05676309997216,139.70749139995314,139.70749139995314,140.19191720010713,45,315,140.19191720010713,140.19191720010713,140.19191720010713,140.19191720010713,140.19191720010713,140.19191720010713,140.19191720010713,140.19191720010713,140.19191720010713,140.55825629993342,140.55825629993342,140.55825629993342,140.55825629993342,140.55825629993342,140.55825629993342,140.55825629993342,140.55825629993342,140.55825629993342,23,0,,,140.55825629993342,140.76071860012598,1000,140.76071860012598,1000,1000,1000,1000,0,num_3,0.5048849999438971,,31,7,2026-03-12_13h57.07.536,2026A_exp2,2022.2.4,59.83853175817093,
1,0,3.7,0.0,0,0,33,33,9,,,,,141.29236160009168,141.94308790005744,141.94308790005744,142.45658840006217,45,45,142.45658840006217,142.45658840006217,142.45658840006217,142.45658840006217,142.45658840006217,142.45658840006217,142.45658840006217,142.45658840006217,142.45658840006217,142.81070880009793,142.81070880009793,142.81070880009793,142.81070880009793,142.81070880009793,142.81070880009793,142.81070880009793,142.81070880009793,142.81070880009793,23,0,,,142.81070880009793,143.0111082000658,3.7,143.0111082000658,1,3.7,1,1,1000,num_4,0.6303343998733908,,31,7,2026-03-12_13h57.07.536,2026A_exp2,2022.2.4,59.83853175817093,
0,0,0.0,0.0,1,0,34,34,80,,,,,143.66135230008513,144.31216350011528,144.31216350011528,144.81308669992723,315,315,144.81308669992723,144.81308669992723,144.81308669992723,144.81308669992723,144.81308669992723,144.81308669992723,144.81308669992723,144.81308669992723,144.81308669992723,145.17940400005318,145.17940400005318,145.17940400005318,145.17940400005318,145.17940400005318,145.17940400005318,145.17940400005318,145.17940400005318,145.17940400005318,23,0,,,145.17940400005318,145.37970850011334,0.0,145.37970850011334,1,0.0,0,0,1000,num_4,1.4529881998896599,,31,7,2026-03-12_13h57.07.536,2026A_exp2,2022.2.4,59.83853175817093,
1,0,0.0,0.0,0,0,35,35,22,,,,,146.86471399990842,147.51533100008965,147.51533100008965,147.99974730005488,45,315,147.99974730005488,147.99974730005488,147.99974730005488,147.99974730005488,147.99974730005488,147.99974730005488,147.99974730005488,147.99974730005488,147.99974730005488,148.36606419994496,148.36606419994496,148.36606419994496,148.36606419994496,148.36606419994496,148.36606419994496,148.36606419994496,148.36606419994496,148.36606419994496,23,0,,,148.36606419994496,148.56624850002117,0.0,148.56624850002117,1,0.0,0,0,1000,num_4,0.7067024998832494,,31,7,2026-03-12_13h57.07.536,2026A_exp2,2022.2.4,59.83853175817093,
1,0,6.1,6.1,1,0,36,36,49,,,,,149.30038430006243,149.95105629996397,149.95105629996397,150.43555320007727,45,315,150.43555320007727,150.43555320007727,150.43555320007727,150.43555320007727,150.43555320007727,150.43555320007727,150.43555320007727,150.43555320007727,150.43555320007727,150.8019365000073,150.8019365000073,150.8019365000073,150.8019365000073,150.8019365000073,150.8019365000073,150.8019365000073,150.8019365000073,150.8019365000073,23,0,,,150.8019365000073,151.00210699997842,6.1,151.00210699997842,1,6.1,1,1,1000,num_4,0.5669946998823434,,31,7,2026-03-12_13h57.07.536,2026A_exp2,2022.2.4,59.83853175817093,
1000,1,3.7,0.0,0,0,37,37,81,,,,,151.5859221999999,152.23673629993573,152.23673629993573,152.73780130012892,45,45,152.73780130012892,152.73780130012892,152.73780130012892,152.73780130012892,152.73780130012892,152.73780130012892,152.73780130012892,152.73780130012892,152.73780130012892,153.08754700003192,153.08754700003192,153.08754700003192,153.08754700003192,153.08754700003192,153.08754700003192,153.08754700003192,153.08754700003192,153.08754700003192,22,0,,,153.08754700003192,153.2894566000905,1000,153.2894566000905,1000,1000,1000,1000,0,num_3,0.5188906998373568,,31,7,2026-03-12_13h57.07.536,2026A_exp2,2022.2.4,59.83853175817093,
1000,1,3.7,0.0,1,0,38,38,38,,,,,153.8381952000782,154.48901439993642,154.48901439993642,154.9899555000011,315,315,154.9899555000011,154.9899555000011,154.9899555000011,154.9899555000011,154.9899555000011,154.9899555000011,154.9899555000011,154.9899555000011,154.9899555000011,155.35658290004358,155.35658290004358,155.35658290004358,155.35658290004358,155.35658290004358,155.35658290004358,155.35658290004358,155.35658290004358,155.35658290004358,23,0,,,155.35658290004358,155.55848160013556,1000,155.55848160013556,1000,1000,1000,1000,0,num_3,0.5380998000036925,,31,7,2026-03-12_13h57.07.536,2026A_exp2,2022.2.4,59.83853175817093,
1,0,3.7,3.7,0,0,39,39,60,,,,,156.123823300004,156.77456469996832,156.77456469996832,157.2757355000358,45,45,157.2757355000358,157.2757355000358,157.2757355000358,157.2757355000358,157.2757355000358,157.2757355000358,157.2757355000358,157.2757355000358,157.2757355000358,157.62513400008902,157.62513400008902,157.62513400008902,157.62513400008902,157.62513400008902,157.62513400008902,157.62513400008902,157.62513400008902,157.62513400008902,22,0,,,157.62513400008902,157.82548659993336,3.7,157.82548659993336,1,3.7,1,1,1000,num_4,0.89511219994165,,31,7,2026-03-12_13h57.07.536,2026A_exp2,2022.2.4,59.83853175817093,
1000,1,0.0,0.0,0,0,40,40,79,,,,,158.74276529997587,159.37673770007677,159.37673770007677,159.87832559994422,45,45,159.87832559994422,159.87832559994422,159.87832559994422,159.87832559994422,159.87832559994422,159.87832559994422,159.87832559994422,159.87832559994422,159.87832559994422,160.24474589992315,160.24474589992315,160.24474589992315,160.24474589992315,160.24474589992315,160.24474589992315,160.24474589992315,160.24474589992315,160.24474589992315,23,0,,,160.24474589992315,160.44703570008278,1000,160.44703570008278,1000,1000,1000,1000,0,num_3,0.7142317998223007,,31,7,2026-03-12_13h57.07.536,2026A_exp2,2022.2.4,59.83853175817093,
1,0,0.0,3.7,0,0,41,41,64,,,,,161.17878099996597,161.82961899996735,161.82961899996735,162.3306825000327,45,315,162.3306825000327,162.3306825000327,162.3306825000327,162.3306825000327,162.3306825000327,162.3306825000327,162.3306825000327,162.3306825000327,162.3306825000327,162.69719749991782,162.69719749991782,162.69719749991782,162.69719749991782,162.69719749991782,162.69719749991782,162.69719749991782,162.69719749991782,162.69719749991782,23,0,,,162.69719749991782,162.897352400003,0.0,162.897352400003,0,0.0,0,1,1000,num_1,1.1675974999088794,,31,7,2026-03-12_13h57.07.536,2026A_exp2,2022.2.4,59.83853175817093,
1000,1,0.0,6.1,0,0,42,42,27,,,,,164.08175859996118,164.73244030005299,164.73244030005299,165.21678330004215,45,45,165.21678330004215,165.21678330004215,165.21678330004215,165.21678330004215,165.21678330004215,165.21678330004215,165.21678330004215,165.21678330004215,165.21678330004215,165.58340630005114,165.58340630005114,165.58340630005114,165.58340630005114,165.58340630005114,165.58340630005114,165.58340630005114,165.58340630005114,165.58340630005114,23,0,,,165.58340630005114,165.78581369994208,1000,165.78581369994208,1000,1000,1000,1000,1,num_2,0.9597044000402093,,31,7,2026-03-12_13h57.07.536,2026A_exp2,2022.2.4,59.83853175817093,
1000,1,0.0,0.0,1,0,43,43,68,,,,,166.7676041999366,167.41851449990645,167.41851449990645,167.91967030009255,45,45,167.91967030009255,167.91967030009255,167.91967030009255,167.91967030009255,167.91967030009255,167.91967030009255,167.91967030009255,167.91967030009255,167.91967030009255,168.28602940007113,168.28602940007113,168.28602940007113,168.28602940007113,168.28602940007113,168.28602940007113,168.28602940007113,168.28602940007113,168.28602940007113,23,0,,,168.28602940007113,168.48866109992377,1000,168.48866109992377,1000,1000,1000,1000,0,num_3,0.8718673998955637,,31,7,2026-03-12_13h57.07.536,2026A_exp2,2022.2.4,59.83853175817093,
1000,1,3.7,0.0,1,0,44,44,78,,,,,169.38691950007342,170.03787330002524,170.03787330002524,170.53898370009847,45,315,170.53898370009847,170.53898370009847,170.53898370009847,170.53898370009847,170.53898370009847,170.53898370009847,170.53898370009847,170.53898370009847,170.53898370009847,170.90537480008788,170.90537480008788,170.90537480008788,170.90537480008788,170.90537480008788,170.90537480008788,170.90537480008788,170.90537480008788,170.90537480008788,23,0,,,170.90537480008788,171.10732619999908,1000,171.10732619999908,1000,1000,1000,1000,0,num_3,0.8529512998647988,,31,7,2026-03-12_13h57.07.536,2026A_exp2,2022.2.4,59.83853175817093,
1,0,4.9,6.1,0,0,45,45,29,,,,,171.98972319997847,172.64036049996503,172.64036049996503,173.1416017001029,45,45,173.1416017001029,173.1416017001029,173.1416017001029,173.1416017001029,173.1416017001029,173.1416017001029,173.1416017001029,173.1416017001029,173.1416017001029,173.507876599906,173.507876599906,173.507876599906,173.507876599906,173.507876599906,173.507876599906,173.507876599906,173.507876599906,173.507876599906,23,0,,,173.507876599906,173.7081236001104,4.9,173.7081236001104,1,4.9,1,1,1000,num_4,1.3964121998287737,,31,7,2026-03-12_13h57.07.536,2026A_exp2,2022.2.4,59.83853175817093,
1,0,0.0,6.1,1,0,46,46,5,,,,,175.12630979996175,175.76017579995096,175.76017579995096,176.26137170009315,45,45,176.26137170009315,176.26137170009315,176.26137170009315,176.26137170009315,176.26137170009315,176.26137170009315,176.26137170009315,176.26137170009315,176.26137170009315,176.6276899999939,176.6276899999939,176.6276899999939,176.6276899999939,176.6276899999939,176.6276899999939,176.6276899999939,176.6276899999939,176.6276899999939,23,0,,,176.6276899999939,176.82803310011514,6.1,176.82803310011514,1,6.1,1,1,1000,num_4,0.5643352000042796,,31,7,2026-03-12_13h57.07.536,2026A_exp2,2022.2.4,59.83853175817093,
1000,1,6.1,4.9,1,0,47,47,15,,,,,177.41173589997925,178.06246459996328,178.06246459996328,178.5469776999671,315,315,178.5469776999671,178.5469776999671,178.5469776999671,178.5469776999671,178.5469776999671,178.5469776999671,178.5469776999671,178.5469776999671,178.5469776999671,178.91326140007004,178.91326140007004,178.91326140007004,178.91326140007004,178.91326140007004,178.91326140007004,178.91326140007004,178.91326140007004,178.91326140007004,0,1,[0.001248599961400032],[0.36715899989940226],178.91326140007004,179.1153450999409,1000,179.1153450999409,1000,1000,1000,1000,1,num_2,1.2136834999546409,,31,7,2026-03-12_13h57.07.536,2026A_exp2,2022.2.4,59.83853175817093,
1000,1,4.9,0.0,1,0,48,48,74,,,,,180.34794980008155,180.99878720007837,180.99878720007837,181.49968390003778,315,45,181.49968390003778,181.49968390003778,181.49968390003778,181.49968390003778,181.49968390003778,181.49968390003778,181.49968390003778,181.49968390003778,181.49968390003778,181.8663463999983,181.8663463999983,181.8663463999983,181.8663463999983,181.8663463999983,181.8663463999983,181.8663463999983,181.8663463999983,181.8663463999983,18,1,[0.0012095000129193068],[0.08352670003660023],181.8663463999983,182.0685449000448,1000,182.0685449000448,1000,1000,1000,1000,0,num_3,0.6842574998736382,,31,7,2026-03-12_13h57.07.536,2026A_exp2,2022.2.4,59.83853175817093,
1,0,4.9,6.1,1,0,49,49,36,,,,,182.78392790001817,183.43467080011033,183.43467080011033,183.93565100012347,45,45,183.93565100012347,183.93565100012347,183.93565100012347,183.93565100012347,183.93565100012347,183.93565100012347,183.93565100012347,183.93565100012347,183.93565100012347,184.3020484999288,184.3020484999288,184.3020484999288,184.3020484999288,184.3020484999288,184.3020484999288,184.3020484999288,184.3020484999288,184.3020484999288,12,3,"[0.06687589990906417, 0.11693280003964901, 0.21707209991291165]","[0.10020049987360835, 0.18368469993583858, 0.30050439992919564]",184.3020484999288,184.5021873000078,6.1,184.5021873000078,1,6.1,1,1,1000,num_4,1.538877499755472,,31,7,2026-03-12_13h57.07.536,2026A_exp2,2022.2.4,59.83853175817093,
1000,1,4.9,0.0,0,0,50,50,45,,,,,186.0712333000265,186.72343820007518,186.72343820007518,187.22232259996235,45,315,187.22232259996235,187.22232259996235,187.22232259996235,187.22232259996235,187.22232259996235,187.22232259996235,187.22232259996235,187.22232259996235,187.22232259996235,187.58899740013294,187.58899740013294,187.58899740013294,187.58899740013294,187.58899740013294,187.58899740013294,187.58899740013294,187.58899740013294,187.58899740013294,15,1,[0.249775999924168],[0.36713479994796216],187.58899740013294,187.78907219995745,1000,187.78907219995745,1000,1000,1000,1000,0,num_3,0.5390623998828232,,31,7,2026-03-12_13h57.07.536,2026A_exp2,2022.2.4,59.83853175817093,
0,0,4.9,6.1,1,0,51,51,70,,,,,188.35609419993125,189.0062965999823,189.0062965999823,189.491025299998,315,45,189.491025299998,189.491025299998,189.491025299998,189.491025299998,189.491025299998,189.491025299998,189.491025299998,189.491025299998,189.491025299998,189.85764429997653,189.85764429997653,189.85764429997653,189.85764429997653,189.85764429997653,189.85764429997653,189.85764429997653,189.85764429997653,189.85764429997653,5,1,[0.0007216001395136118],[0.3007305001374334],189.85764429997653,190.05745800002478,4.9,190.05745800002478,1,4.9,1,1,1000,num_4,1.623544099740684,,31,7,2026-03-12_13h57.07.536,2026A_exp2,2022.2.4,59.83853175817093,
1000,1,0.0,0.0,1,0,52,52,34,,,,,191.70918200002052,192.34373819991015,192.34373819991015,192.84464140003547,45,45,192.84464140003547,192.84464140003547,192.84464140003547,192.84464140003547,192.84464140003547,192.84464140003547,192.84464140003547,192.84464140003547,192.84464140003547,193.21059409994632,193.21059409994632,193.21059409994632,193.21059409994632,193.21059409994632,193.21059409994632,193.21059409994632,193.21059409994632,193.21059409994632,0,1,[0.000717999879270792],[0.36732709989883006],193.21059409994632,193.41092459997162,1000,193.41092459997162,1000,1000,1000,1000,0,num_3,0.790252799866721,,31,7,2026-03-12_13h57.07.536,2026A_exp2,2022.2.4,59.83853175817093,
1,0,0.0,0.0,0,0,53,53,6,,,,,194.22854049992748,194.87930790008977,194.87930790008977,195.363468100084,315,315,195.363468100084,195.363468100084,195.363468100084,195.363468100084,195.363468100084,195.363468100084,195.363468100084,195.363468100084,195.363468100084,195.72977040009573,195.72977040009573,195.72977040009573,195.72977040009573,195.72977040009573,195.72977040009573,195.72977040009573,195.72977040009573,195.72977040009573,23,0,,,195.72977040009573,195.92998360004276,0.0,195.92998360004276,1,0.0,0,0,1000,num_4,0.7507122997194529,,31,7,2026-03-12_13h57.07.536,2026A_exp2,2022.2.4,59.83853175817093,
1,0,6.1,0.0,1,0,54,54,17,,,,,196.69751680013724,197.3315286000725,197.3315286000725,197.8328438999597,315,315,197.8328438999597,197.8328438999597,197.8328438999597,197.8328438999597,197.8328438999597,197.8328438999597,197.8328438999597,197.8328438999597,197.8328438999597,198.19921140000224,198.19921140000224,198.19921140000224,198.19921140000224,198.19921140000224,198.19921140000224,198.19921140000224,198.19921140000224,198.19921140000224,21,1,[0.0009113999549299479],[0.033696699887514114],198.19921140000224,198.39921139995568,0.0,198.39921139995568,0,0.0,0,1,1000,num_1,0.9619102999567986,,31,7,2026-03-12_13h57.07.536,2026A_exp2,2022.2.4,59.83853175817093,
0,0,0.0,0.0,1,0,55,55,14,,,,,199.38342540012673,200.01751699997112,200.01751699997112,200.5186596000567,315,315,200.5186596000567,200.5186596000567,200.5186596000567,200.5186596000567,200.5186596000567,200.5186596000567,200.5186596000567,200.5186596000567,200.5186596000567,200.88501049997285,200.88501049997285,200.88501049997285,200.88501049997285,200.88501049997285,200.88501049997285,200.88501049997285,200.88501049997285,200.88501049997285,7,1,[0.0007265000604093075],[0.26745090004988015],200.88501049997285,201.08523700013757,0.0,201.08523700013757,1,0.0,0,0,1000,num_4,1.8594191998708993,,31,7,2026-03-12_13h57.07.536,2026A_exp2,2022.2.4,59.83853175817093,
1,0,0.0,0.0,1,0,56,56,66,,,,,202.9704646000173,203.60458720009774,203.60458720009774,204.10567920003086,45,315,204.10567920003086,204.10567920003086,204.10567920003086,204.10567920003086,204.10567920003086,204.10567920003086,204.10567920003086,204.10567920003086,204.10567920003086,204.47193540004082,204.47193540004082,204.47193540004082,204.47193540004082,204.47193540004082,204.47193540004082,204.47193540004082,204.47193540004082,204.47193540004082,21,1,[0.000658300006762147],[0.03368180012330413],204.47193540004082,204.67229339992628,0.0,204.67229339992628,0,0.0,0,1,1000,num_1,0.8168615996837616,,31,7,2026-03-12_13h57.07.536,2026A_exp2,2022.2.4,59.83853175817093,
1,0,3.7,0.0,0,0,57,57,7,,,,,205.50636889995076,206.14029160002246,206.14029160002246,206.64143550000153,315,45,206.64143550000153,206.64143550000153,206.64143550000153,206.64143550000153,206.64143550000153,206.64143550000153,206.64143550000153,206.64143550000153,206.64143550000153,207.00776850013062,207.00776850013062,207.00776850013062,207.00776850013062,207.00776850013062,207.00776850013062,207.00776850013062,207.00776850013062,207.00776850013062,0,1,[0.0008382000960409641],[0.367126900004223],207.00776850013062,207.20818369998597,3.7,207.20818369998597,1,3.7,1,1,1000,num_4,0.8489750998560339,,31,7,2026-03-12_13h57.07.536,2026A_exp2,2022.2.4,59.83853175817093,
1,0,3.7,0.0,0,0,58,58,10,,,,,208.0755563999992,208.70957570010796,208.70957570010796,209.21066830004565,45,315,209.21066830004565,209.21066830004565,209.21066830004565,209.21066830004565,209.21066830004565,209.21066830004565,209.21066830004565,209.21066830004565,209.21066830004565,209.57702869991772,209.57702869991772,209.57702869991772,209.57702869991772,209.57702869991772,209.57702869991772,209.57702869991772,209.57702869991772,209.57702869991772,18,2,"[0.21763960015960038, 0.31729310005903244]","[0.2505449000746012, 0.36748540005646646]",209.57702869991772,209.7772188000381,3.7,209.7772188000381,1,3.7,1,1,1000,num_4,0.7511587999761105,,31,7,2026-03-12_13h57.07.536,2026A_exp2,2022.2.4,59.83853175817093,
1,0,0.0,0.0,1,0,59,59,59,,,,,210.54586150008254,211.19534719991498,211.19534719991498,211.69657130003907,45,315,211.69657130003907,211.69657130003907,211.69657130003907,211.69657130003907,211.69657130003907,211.69657130003907,211.69657130003907,211.69657130003907,211.69657130003907,212.062822900014,212.062822900014,212.062822900014,212.062822900014,212.062822900014,212.062822900014,212.062822900014,212.062822900014,212.062822900014,5,3,"[0.0007426000665873289, 0.23413989995606244, 0.3170062000863254]","[0.20059450017288327, 0.2670371001586318, 0.36683850013650954]",212.062822900014,212.26348520000465,0.0,212.26348520000465,0,0.0,0,1,1000,num_1,0.9535069998819381,,31,7,2026-03-12_13h57.07.536,2026A_exp2,2022.2.4,59.83853175817093,
1000,1,0.0,0.0,1,0,60,60,88,,,,,213.24746150011197,213.89790860004723,213.89790860004723,214.38249200000428,315,315,214.38249200000428,214.38249200000428,214.38249200000428,214.38249200000428,214.38249200000428,214.38249200000428,214.38249200000428,214.38249200000428,214.38249200000428,214.74908649991266,214.74908649991266,214.74908649991266,214.74908649991266,214.74908649991266,214.74908649991266,214.74908649991266,214.74908649991266,214.74908649991266,14,2,"[0.0007486999966204166, 0.30076659983024]","[0.0672928998246789, 0.36778119998052716]",214.74908649991266,214.94920030003414,1000,214.94920030003414,1000,1000,1000,1000,0,num_3,0.7799137998372316,,31,7,2026-03-12_13h57.07.536,2026A_exp2,2022.2.4,59.83853175817093,
1,0,0.0,3.7,0,0,61,61,76,,,,,215.75005470006727,216.40057389996946,216.40057389996946,216.90153199993074,315,315,216.90153199993074,216.90153199993074,216.90153199993074,216.90153199993074,216.90153199993074,216.90153199993074,216.90153199993074,216.90153199993074,216.90153199993074,217.2517667999491,217.2517667999491,217.2517667999491,217.2517667999491,217.2517667999491,217.2517667999491,217.2517667999491,217.2517667999491,217.2517667999491,0,1,[0.0007152999751269817],[0.3516851000022143],217.2517667999491,217.45173530001193,0.0,217.45173530001193,1,0.0,0,0,1000,num_4,0.9405410999897867,,31,7,2026-03-12_13h57.07.536,2026A_exp2,2022.2.4,59.83853175817093,
1000,1,3.7,4.9,0,0,62,62,25,,,,,218.41910830000415,219.07000840012915,219.07000840012915,219.55428589996882,45,315,219.55428589996882,219.55428589996882,219.55428589996882,219.55428589996882,219.55428589996882,219.55428589996882,219.55428589996882,219.55428589996882,219.55428589996882,219.92072480008937,219.92072480008937,219.92072480008937,219.92072480008937,219.92072480008937,219.92072480008937,219.92072480008937,219.92072480008937,219.92072480008937,0,1,[0.0007404000498354435],[0.36716870008967817],219.92072480008937,220.12112240004353,1000,220.12112240004353,1000,1000,1000,1000,0,num_3,0.7756473000627011,,31,7,2026-03-12_13h57.07.536,2026A_exp2,2022.2.4,59.83853175817093,
1,0,6.1,0.0,0,0,63,63,51,,,,,220.92209629993886,221.57247149990872,221.57247149990872,222.05680330004543,315,45,222.05680330004543,222.05680330004543,222.05680330004543,222.05680330004543,222.05680330004543,222.05680330004543,222.05680330004543,222.05680330004543,222.05680330004543,222.42323120008223,222.42323120008223,222.42323120008223,222.42323120008223,222.42323120008223,222.42323120008223,222.42323120008223,222.42323120008223,222.42323120008223,0,1,[0.0007240001577883959],[0.3672220001462847],222.42323120008223,222.6236684001051,6.1,222.6236684001051,1,6.1,1,1,1000,num_4,0.5933912999462336,,31,7,2026-03-12_13h57.07.536,2026A_exp2,2022.2.4,59.83853175817093,
1,0,0.0,0.0,1,0,64,64,58,,,,,223.24081630003639,223.8912343000993,223.8912343000993,224.37571520009078,45,315,224.37571520009078,224.37571520009078,224.37571520009078,224.37571520009078,224.37571520009078,224.37571520009078,224.37571520009078,224.37571520009078,224.37571520009078,224.74229219998233,224.74229219998233,224.74229219998233,224.74229219998233,224.74229219998233,224.74229219998233,224.74229219998233,224.74229219998233,224.74229219998233,8,7,"[0.0007863000500947237, 0.06647310010157526, 0.14990550000220537, 0.21668529999442399, 0.2501274000387639, 0.2835041000507772, 0.3508343000430614]","[0.04983810009434819, 0.11642020009458065, 0.18340249988250434, 0.23333760001696646, 0.26657989993691444, 0.33357269992120564, 0.3675295999273658]",224.74229219998233,224.94261329993606,0.0,224.94261329993606,0,0.0,0,1,1000,num_1,0.826143000042066,,31,7,2026-03-12_13h57.07.536,2026A_exp2,2022.2.4,59.83853175817093,
1000,1,0.0,4.9,1,0,65,65,72,,,,,225.79337009997107,226.42746779997833,226.42746779997833,226.92864529998042,315,315,226.92864529998042,226.92864529998042,226.92864529998042,226.92864529998042,226.92864529998042,226.92864529998042,226.92864529998042,226.92864529998042,226.92864529998042,227.29491730011068,227.29491730011068,227.29491730011068,227.29491730011068,227.29491730011068,227.29491730011068,227.29491730011068,227.29491730011068,227.29491730011068,0,1,[0.0007662000134587288],[0.3682784999255091],227.29491730011068,227.49526340002194,1000,227.49526340002194,1000,1000,1000,1000,1,num_2,0.9131763998884708,,31,7,2026-03-12_13h57.07.536,2026A_exp2,2022.2.4,59.83853175817093,
1,0,0.0,0.0,0,0,66,66,85,,,,,228.4297772999853,229.0802396000363,229.0802396000363,229.58135450002737,315,315,229.58135450002737,229.58135450002737,229.58135450002737,229.58135450002737,229.58135450002737,229.58135450002737,229.58135450002737,229.58135450002737,229.58135450002737,229.9477510000579,229.9477510000579,229.9477510000579,229.9477510000579,229.9477510000579,229.9477510000579,229.9477510000579,229.9477510000579,229.9477510000579,0,1,[0.0011492001358419657],[0.3668620001990348],229.9477510000579,230.14785160007887,0.0,230.14785160007887,1,0.0,0,0,1000,num_4,0.8205822999589145,,31,7,2026-03-12_13h57.07.536,2026A_exp2,2022.2.4,59.83853175817093,
1,0,4.9,0.0,0,0,67,67,47,,,,,230.9991806000471,231.64931080001406,231.64931080001406,232.13358130003326,315,315,232.13358130003326,232.13358130003326,232.13358130003326,232.13358130003326,232.13358130003326,232.13358130003326,232.13358130003326,232.13358130003326,232.13358130003326,232.50006560003385,232.50006560003385,232.50006560003385,232.50006560003385,232.50006560003385,232.50006560003385,232.50006560003385,232.50006560003385,232.50006560003385,1,2,"[0.0007655001245439053, 0.03352089994587004]","[0.017357900040224195, 0.36738599999807775]",232.50006560003385,232.700259400066,4.9,232.700259400066,1,4.9,1,1,1000,num_4,0.5401675999164581,,31,7,2026-03-12_13h57.07.536,2026A_exp2,2022.2.4,59.83853175817093,
1,0,3.7,0.0,0,0,68,68,3,,,,,233.26735029998235,233.90140810003504,233.90140810003504,234.40250850003213,315,45,234.40250850003213,234.40250850003213,234.40250850003213,234.40250850003213,234.40250850003213,234.40250850003213,234.40250850003213,234.40250850003213,234.40250850003213,234.76869329996407,234.76869329996407,234.76869329996407,234.76869329996407,234.76869329996407,234.76869329996407,234.76869329996407,234.76869329996407,234.76869329996407,0,1,[0.0007245999295264482],[0.36673000012524426],234.76869329996407,234.96914679999463,3.7,234.96914679999463,1,3.7,1,1,1000,num_4,0.9528345998842269,,31,7,2026-03-12_13h57.07.536,2026A_exp2,2022.2.4,59.83853175817093,
1000,1,4.9,0.0,1,0,69,69,84,,,,,235.9535123000387,236.58747539995238,236.58747539995238,237.08861980005167,315,45,237.08861980005167,237.08861980005167,237.08861980005167,237.08861980005167,237.08861980005167,237.08861980005167,237.08861980005167,237.08861980005167,237.08861980005167,237.4547075999435,237.4547075999435,237.4547075999435,237.4547075999435,237.4547075999435,237.4547075999435,237.4547075999435,237.4547075999435,237.4547075999435,7,2,"[0.0009670997969806194, 0.18440169980749488]","[0.1673069999087602, 0.2834719999227673]",237.4547075999435,237.6555115999654,1000,237.6555115999654,1000,1000,1000,1000,0,num_3,0.9296541998628527,,31,7,2026-03-12_13h57.07.536,2026A_exp2,2022.2.4,59.83853175817093,
1000,1,4.9,3.7,0,0,70,70,40,,,,,238.60613119998015,239.25658760010265,239.25658760010265,239.7414192999713,45,315,239.7414192999713,239.7414192999713,239.7414192999713,239.7414192999713,239.7414192999713,239.7414192999713,239.7414192999713,239.7414192999713,239.7414192999713,240.10753270005807,240.10753270005807,240.10753270005807,240.10753270005807,240.10753270005807,240.10753270005807,240.10753270005807,240.10753270005807,240.10753270005807,22,1,[0.2836474000941962],[0.30028790002688766],240.10753270005807,240.30784139991738,1000,240.30784139991738,1000,1000,1000,1000,0,num_3,0.6210961998440325,,31,7,2026-03-12_13h57.07.536,2026A_exp2,2022.2.4,59.83853175817093,
0,0,4.9,0.0,1,0,71,71,26,,,,,240.9586787999142,241.60906699998304,241.60906699998304,242.09410759992898,315,315,242.09410759992898,242.09410759992898,242.09410759992898,242.09410759992898,242.09410759992898,242.09410759992898,242.09410759992898,242.09410759992898,242.09410759992898,242.46007740008645,242.46007740008645,242.46007740008645,242.46007740008645,242.46007740008645,242.46007740008645,242.46007740008645,242.46007740008645,242.46007740008645,0,1,[0.0008958000689744949],[0.36720139998942614],242.46007740008645,242.66013360000215,4.9,242.66013360000215,0,4.9,1,0,1000,num_1,1.4607585999183357,,31,7,2026-03-12_13h57.07.536,2026A_exp2,2022.2.4,59.83853175817093,
1000,1,0.0,4.9,0,0,72,72,23,,,,,244.1450899001211,244.7790423000697,244.7790423000697,245.28024440002628,315,315,245.28024440002628,245.28024440002628,245.28024440002628,245.28024440002628,245.28024440002628,245.28024440002628,245.28024440002628,245.28024440002628,245.28024440002628,245.64639670006,245.64639670006,245.64639670006,245.64639670006,245.64639670006,245.64639670006,245.64639670006,245.64639670006,245.64639670006,13,3,"[0.16737139993347228, 0.21872260002419353, 0.31713029998354614]","[0.20053349994122982, 0.28393789986148477, 0.3671860999893397]",245.64639670006,245.84780280012637,1000,245.84780280012637,1000,1000,1000,1000,1,num_2,0.7924736000131816,,31,7,2026-03-12_13h57.07.536,2026A_exp2,2022.2.4,59.83853175817093,
1,0,0.0,0.0,1,0,73,73,4,,,,,246.66423880006187,247.3152024000883,247.3152024000883,247.79938240000047,315,315,247.79938240000047,247.79938240000047,247.79938240000047,247.79938240000047,247.79938240000047,247.79938240000047,247.79938240000047,247.79938240000047,247.79938240000047,248.16570080001839,248.16570080001839,248.16570080001839,248.16570080001839,248.16570080001839,248.16570080001839,248.16570080001839,248.16570080001839,248.16570080001839,13,4,"[0.0166208001319319, 0.1496240000706166, 0.21654270007275045, 0.3000438001472503]","[0.034538500010967255, 0.18321850011125207, 0.23356700013391674, 0.3677058999892324]",248.16570080001839,248.36615790007636,0.0,248.36615790007636,0,0.0,0,1,1000,num_1,0.6830218997783959,,31,7,2026-03-12_13h57.07.536,2026A_exp2,2022.2.4,59.83853175817093,
1000,1,4.9,0.0,1,0,74,74,56,,,,,249.06666229991242,249.7006993999239,249.7006993999239,250.20165630010888,45,315,250.20165630010888,250.20165630010888,250.20165630010888,250.20165630010888,250.20165630010888,250.20165630010888,250.20165630010888,250.20165630010888,250.20165630010888,250.56787290005013,250.56787290005013,250.56787290005013,250.56787290005013,250.56787290005013,250.56787290005013,250.56787290005013,250.56787290005013,250.56787290005013,11,4,"[0.033767599845305085, 0.15140129998326302, 0.2836421998217702, 0.35026659979484975]","[0.06712269992567599, 0.25020529981702566, 0.3336218998301774, 0.3670411999337375]",250.56787290005013,250.76823749998584,1000,250.76823749998584,1000,1000,1000,1000,0,num_3,0.7441289997659624,,31,7,2026-03-12_13h57.07.536,2026A_exp2,2022.2.4,59.83853175817093,
1000,1,0.0,0.0,0,0,75,75,24,,,,,251.5357023999095,252.1699787999969,252.1699787999969,252.67071700002998,45,315,252.67071700002998,252.67071700002998,252.67071700002998,252.67071700002998,252.67071700002998,252.67071700002998,252.67071700002998,252.67071700002998,252.67071700002998,253.0371711999178,253.0371711999178,253.0371711999178,253.0371711999178,253.0371711999178,253.0371711999178,253.0371711999178,253.0371711999178,253.0371711999178,23,0,,,253.0371711999178,253.2373389999848,1000,253.2373389999848,1000,1000,1000,1000,0,num_3,0.6355149999726564,,31,7,2026-03-12_13h57.07.536,2026A_exp2,2022.2.4,59.83853175817093,
0,0,0.0,4.9,1,0,76,76,33,,,,,253.90476850001141,254.55516480002552,254.55516480002552,255.03976740012877,315,315,255.03976740012877,255.03976740012877,255.03976740012877,255.03976740012877,255.03976740012877,255.03976740012877,255.03976740012877,255.03976740012877,255.03976740012877,255.40649459999986,255.40649459999986,255.40649459999986,255.40649459999986,255.40649459999986,255.40649459999986,255.40649459999986,255.40649459999986,255.40649459999986,13,5,"[0.017507199896499515, 0.050506999948993325, 0.25057959998957813, 0.28405939997173846, 0.3341632999945432]","[0.033917499938979745, 0.10059960000216961, 0.26723669981583953, 0.3173469000030309, 0.367381899850443]",255.40649459999986,255.6062457000371,0.0,255.6062457000371,0,0.0,0,1,1000,num_1,0.8187254997901618,,31,7,2026-03-12_13h57.07.536,2026A_exp2,2022.2.4,59.83853175817093,
1000,1,0.0,0.0,0,0,77,77,13,,,,,256.45725290011615,257.1079349000938,257.1079349000938,257.59246239997447,45,45,257.59246239997447,257.59246239997447,257.59246239997447,257.59246239997447,257.59246239997447,257.59246239997447,257.59246239997447,257.59246239997447,257.59246239997447,257.95866689994,257.95866689994,257.95866689994,257.95866689994,257.95866689994,257.95866689994,257.95866689994,257.95866689994,257.95866689994,7,4,"[0.06662889989092946, 0.10001649986952543, 0.18366759992204607, 0.26819189987145364]","[0.08389750006608665, 0.16679339995607734, 0.23667380004189909, 0.3668955999892205]",257.95866689994,258.1597995001357,1000,258.1597995001357,1000,1000,1000,1000,0,num_3,0.5369910998269916,,31,7,2026-03-12_13h57.07.536,2026A_exp2,2022.2.4,59.83853175817093,
1,0,0.0,0.0,0,0,78,78,11,,,,,258.72636989993043,259.3766985000111,259.3766985000111,259.8614916000515,315,315,259.8614916000515,259.8614916000515,259.8614916000515,259.8614916000515,259.8614916000515,259.8614916000515,259.8614916000515,259.8614916000515,259.8614916000515,260.22762649995275,260.22762649995275,260.22762649995275,260.22762649995275,260.22762649995275,260.22762649995275,260.22762649995275,260.22762649995275,260.22762649995275,0,1,[0.0007809000089764595],[0.366615500068292],260.22762649995275,260.42795599997044,0.0,260.42795599997044,1,0.0,0,0,1000,num_4,0.8129371998365968,,31,7,2026-03-12_13h57.07.536,2026A_exp2,2022.2.4,59.83853175817093,
1,0,0.0,4.9,1,0,79,79,41,,,,,261.2621373999864,261.8959544999525,261.8959544999525,262.3970311000012,45,315,262.3970311000012,262.3970311000012,262.3970311000012,262.3970311000012,262.3970311000012,262.3970311000012,262.3970311000012,262.3970311000012,262.3970311000012,262.76370960008353,262.76370960008353,262.76370960008353,262.76370960008353,262.76370960008353,262.76370960008353,262.76370960008353,262.76370960008353,262.76370960008353,2,2,"[0.0007362000178545713, 0.3510469999164343]","[0.30058529996313155, 0.3678089000750333]",262.76370960008353,262.9636612001341,4.9,262.9636612001341,1,4.9,1,1,1000,num_4,0.5014805998653173,,31,7,2026-03-12_13h57.07.536,2026A_exp2,2022.2.4,59.83853175817093,
1000,1,0.0,3.7,0,0,80,80,50,,,,,263.48110480001196,264.1317950000521,264.1317950000521,264.6161356999073,45,315,264.6161356999073,264.6161356999073,264.6161356999073,264.6161356999073,264.6161356999073,264.6161356999073,264.6161356999073,264.6161356999073,264.6161356999073,264.98241790011525,264.98241790011525,264.98241790011525,264.98241790011525,264.98241790011525,264.98241790011525,264.98241790011525,264.98241790011525,264.98241790011525,9,4,"[0.0008586000185459852, 0.08380730007775128, 0.2170077001210302, 0.300814300077036]","[0.017387199914082885, 0.1670299000106752, 0.2844809000380337, 0.3508455001283437]",264.98241790011525,265.18328060000204,1000,265.18328060000204,1000,1000,1000,1000,1,num_2,0.6254690999630839,,31,7,2026-03-12_13h57.07.536,2026A_exp2,2022.2.4,59.83853175817093,
1,0,0.0,3.7,0,0,81,81,31,,,,,265.83341820002533,266.48392240004614,266.48392240004614,266.9684727001004,315,315,266.9684727001004,266.9684727001004,266.9684727001004,266.9684727001004,266.9684727001004,266.9684727001004,266.9684727001004,266.9684727001004,266.9684727001004,267.33476200001314,267.33476200001314,267.33476200001314,267.33476200001314,267.33476200001314,267.33476200001314,267.33476200001314,267.33476200001314,267.33476200001314,3,1,[0.03248149994760752],[0.3663274000864476],267.33476200001314,267.53505289996974,0.0,267.53505289996974,0,0.0,0,1,1000,num_1,1.0500554000027478,,31,7,2026-03-12_13h57.07.536,2026A_exp2,2022.2.4,59.83853175817093,
1000,1,0.0,3.7,1,0,82,82,67,,,,,268.6025984999724,269.23654430010356,269.23654430010356,269.7376912001055,45,45,269.7376912001055,269.7376912001055,269.7376912001055,269.7376912001055,269.7376912001055,269.7376912001055,269.7376912001055,269.7376912001055,269.7376912001055,270.1041683999356,270.1041683999356,270.1041683999356,270.1041683999356,270.1041683999356,270.1041683999356,270.1041683999356,270.1041683999356,270.1041683999356,17,5,"[0.0007448000833392143, 0.13375800009816885, 0.23398430016823113, 0.28380450000986457, 0.3174654000904411]","[0.03356270003132522, 0.15111560001969337, 0.2506395000964403, 0.3008147000800818, 0.3340335001703352]",270.1041683999356,270.30440969998017,1000,270.30440969998017,1000,1000,1000,1000,1,num_2,0.8960200997535139,,31,7,2026-03-12_13h57.07.536,2026A_exp2,2022.2.4,59.83853175817093,
1000,1,0.0,3.7,1,0,83,83,82,,,,,271.22226210008375,271.87261550012045,271.87261550012045,272.35717470012605,315,45,272.35717470012605,272.35717470012605,272.35717470012605,272.35717470012605,272.35717470012605,272.35717470012605,272.35717470012605,272.35717470012605,272.35717470012605,272.72354539996013,272.72354539996013,272.72354539996013,272.72354539996013,272.72354539996013,272.72354539996013,272.72354539996013,272.72354539996013,272.72354539996013,21,2,"[0.20090689999051392, 0.3337107999250293]","[0.21711470000445843, 0.350594500079751]",272.72354539996013,272.92381560010836,1000,272.92381560010836,1000,1000,1000,1000,1,num_2,0.5728563999291509,,31,7,2026-03-12_13h57.07.536,2026A_exp2,2022.2.4,59.83853175817093,
0,0,0.0,4.9,0,0,84,84,65,,,,,273.52436799998395,274.1749674999155,274.1749674999155,274.6594932000153,45,45,274.6594932000153,274.6594932000153,274.6594932000153,274.6594932000153,274.6594932000153,274.6594932000153,274.6594932000153,274.6594932000153,274.6594932000153,275.0259303001221,275.0259303001221,275.0259303001221,275.0259303001221,275.0259303001221,275.0259303001221,275.0259303001221,275.0259303001221,275.0259303001221,12,5,"[0.000919099897146225, 0.11664130003191531, 0.23412650008685887, 0.2668828999157995, 0.3006559999193996]","[0.10018499987199903, 0.15011529996991158, 0.2502254999708384, 0.28374630003236234, 0.3171441999729723]",275.0259303001221,275.2261765000876,4.9,275.2261765000876,1,4.9,1,1,1000,num_4,1.110104399966076,,31,7,2026-03-12_13h57.07.536,2026A_exp2,2022.2.4,59.83853175817093,
0,0,6.1,4.9,1,0,85,85,42,,,,,276.3606304000132,276.99445100012235,276.99445100012235,277.4957721000537,315,315,277.4957721000537,277.4957721000537,277.4957721000537,277.4957721000537,277.4957721000537,277.4957721000537,277.4957721000537,277.4957721000537,277.4957721000537,277.8622671000194,277.8622671000194,277.8622671000194,277.8622671000194,277.8622671000194,277.8622671000194,277.8622671000194,277.8622671000194,277.8622671000194,13,3,"[0.0008539999835193157, 0.2501596000511199, 0.317029400030151]","[0.05047749984078109, 0.30020900000818074, 0.367856299970299]",277.8622671000194,278.06319870008156,6.1,278.06319870008156,1,6.1,1,1,1000,num_4,1.3859068998135626,,31,7,2026-03-12_13h57.07.536,2026A_exp2,2022.2.4,59.83853175817093,
1,0,6.1,3.7,1,0,86,86,16,,,,,279.4809971000068,280.11431859992445,280.11431859992445,280.6154765000101,45,45,280.6154765000101,280.6154765000101,280.6154765000101,280.6154765000101,280.6154765000101,280.6154765000101,280.6154765000101,280.6154765000101,280.6154765000101,280.9820225001313,280.9820225001313,280.9820225001313,280.9820225001313,280.9820225001313,280.9820225001313,280.9820225001313,280.9820225001313,280.9820225001313,20,1,[0.0007451002020388842],[0.05017910012975335],280.9820225001313,281.18209709995426,3.7,281.18209709995426,1,3.7,1,1,1000,num_4,0.8990585999563336,,31,7,2026-03-12_13h57.07.536,2026A_exp2,2022.2.4,59.83853175817093,
1000,1,6.1,6.1,1,0,87,87,53,,,,,282.0996262000408,282.75032000010833,282.75032000010833,283.2346403999254,45,315,283.2346403999254,283.2346403999254,283.2346403999254,283.2346403999254,283.2346403999254,283.2346403999254,283.2346403999254,283.2346403999254,283.2346403999254,283.60114299994893,283.60114299994893,283.60114299994893,283.60114299994893,283.60114299994893,283.60114299994893,283.60114299994893,283.60114299994893,283.60114299994893,11,3,"[0.0670547999907285, 0.18412379990331829, 0.2337291999720037]","[0.10066769993864, 0.20040649990551174, 0.36771330004557967]",283.60114299994893,283.8014058000408,1000,283.8014058000408,1000,1000,1000,1000,1,num_2,0.7828398998826742,,31,7,2026-03-12_13h57.07.536,2026A_exp2,2022.2.4,59.83853175817093,
1000,1,0.0,0.0,1,0,88,88,35,,,,,284.6023407999892,285.2526615001261,285.2526615001261,285.73737380001694,315,315,285.73737380001694,285.73737380001694,285.73737380001694,285.73737380001694,285.73737380001694,285.73737380001694,285.73737380001694,285.73737380001694,285.73737380001694,286.1034121999983,286.1034121999983,286.1034121999983,286.1034121999983,286.1034121999983,286.1034121999983,286.1034121999983,286.1034121999983,286.1034121999983,4,5,"[0.0008824001997709274, 0.03402230003848672, 0.10051750019192696, 0.1670065000653267, 0.23459050012752414]","[0.01768320007249713, 0.08345670020207763, 0.1503088001627475, 0.21736350003629923, 0.3669963001739234]",286.1034121999983,286.3038536000531,1000,286.3038536000531,1000,1000,1000,1000,0,num_3,0.64090760005638,,31,7,2026-03-12_13h57.07.536,2026A_exp2,2022.2.4,59.83853175817093,
0,0,0.0,4.9,1,0,89,89,0,,,,,286.9712179999333,287.62181179993786,287.62181179993786,288.106253700098,45,315,288.106253700098,288.106253700098,288.106253700098,288.106253700098,288.106253700098,288.106253700098,288.106253700098,288.106253700098,288.106253700098,288.4725856001023,288.4725856001023,288.4725856001023,288.4725856001023,288.4725856001023,288.4725856001023,288.4725856001023,288.4725856001023,288.4725856001023,14,3,"[0.0009995000436902046, 0.050563700031489134, 0.0839360998943448]","[0.03399219992570579, 0.06734919990412891, 0.18389420001767576]",288.4725856001023,288.672794500133,0.0,288.672794500133,0,0.0,0,1,1000,num_1,0.7274517000187188,,31,7,2026-03-12_13h57.07.536,2026A_exp2,2022.2.4,59.83853175817093,
,,,,,,,,,,,,,,,,,,,,,,,,,,,,,,,,,,,,,,,,,,,,,,,,,,,,289.4264186001383,,,,,,,
