validity,detectorcomp,contrastCW,contrastCCW,precueCWorCCW,block_80trials.thisRepN,block_80trials.thisTrialN,block_80trials.thisN,block_80trials.thisIndex,etRecord.started,etRecord.stopped,text.started,text.stopped,text_4.started,text_4.stopped,text_6.started,text_6.stopped,oriCW,oriCCW,roi_2.started,grating_UR.started,grating_UL.started,grating_LR.started,grating_LL.started,noise_UR.started,noise_UL.started,noise_LR.started,noise_LL.started,roi_2.stopped,grating_UR.stopped,grating_UL.stopped,grating_LR.stopped,grating_LL.stopped,noise_UR.stopped,noise_UL.stopped,noise_LR.stopped,noise_LL.stopped,outframe,roi_2.numLooks,roi_2.timesOn,roi_2.timesOff,text_2.started,text_2.stopped,probedcontrast,key_resp.started,respdetect,relevantContrast,correctDetect,TorFdetect,respCWorCCW,key_resp.keys,key_resp.rt,feedback_display_.started,participantNo,blockNo,date,expName,psychopyVersion,frameRate,
1000,1,4.9,0.0,1,0,0,0,48,3.739999374374747e-05,3.739999374374747e-05,48.895374200015794,50.897952800034545,50.897952800034545,51.53214950003894,51.53214950003894,52.053133900044486,45,45,52.053133900044486,52.053133900044486,52.053133900044486,52.053133900044486,52.053133900044486,52.053133900044486,52.053133900044486,52.053133900044486,52.053133900044486,52.3992675000336,52.3992675000336,52.3992675000336,52.3992675000336,52.3992675000336,52.3992675000336,52.3992675000336,52.3992675000336,52.3992675000336,0,1,[0.0010627000010572374],[0.3660317999892868],52.3992675000336,52.607219099998474,1000,52.607219099998474,1000,1000,1000,1000,0,num_3,0.5200279999990016,,27,13,2026-03-05_14h09.40.348,2026A_exp2,2022.2.4,59.897670820961345,
1000,1,0.0,0.0,0,0,1,1,57,,,,,53.150444700033404,53.80108870001277,53.80108870001277,54.285522199992556,315,45,54.285522199992556,54.285522199992556,54.285522199992556,54.285522199992556,54.285522199992556,54.285522199992556,54.285522199992556,54.285522199992556,54.285522199992556,54.65189740003552,54.65189740003552,54.65189740003552,54.65189740003552,54.65189740003552,54.65189740003552,54.65189740003552,54.65189740003552,54.65189740003552,0,1,[0.0012112000258639455],[0.36674530000891536],54.65189740003552,54.8537930000457,1000,54.8537930000457,1000,1000,1000,1000,1,num_2,0.5707034000079148,,27,13,2026-03-05_14h09.40.348,2026A_exp2,2022.2.4,59.897670820961345,
0,0,6.1,0.0,1,0,2,2,52,,,,,55.45281030004844,56.10320730000967,56.10320730000967,56.60447730001761,45,315,56.60447730001761,56.60447730001761,56.60447730001761,56.60447730001761,56.60447730001761,56.60447730001761,56.60447730001761,56.60447730001761,56.60447730001761,56.97080010001082,56.97080010001082,56.97080010001082,56.97080010001082,56.97080010001082,56.97080010001082,56.97080010001082,56.97080010001082,56.97080010001082,23,0,,,56.97080010001082,57.17107570002554,6.1,57.17107570002554,1,6.1,1,1,1000,num_4,0.6051096000010148,,27,13,2026-03-05_14h09.40.348,2026A_exp2,2022.2.4,59.897670820961345,
1000,1,0.0,4.9,0,0,3,3,8,,,,,57.8051087000058,58.455775600043125,58.455775600043125,58.94020310003543,315,45,58.94020310003543,58.94020310003543,58.94020310003543,58.94020310003543,58.94020310003543,58.94020310003543,58.94020310003543,58.94020310003543,58.94020310003543,59.30655780003872,59.30655780003872,59.30655780003872,59.30655780003872,59.30655780003872,59.30655780003872,59.30655780003872,59.30655780003872,59.30655780003872,23,0,,,59.30655780003872,59.50874970003497,1000,59.50874970003497,1000,1000,1000,1000,1,num_2,0.4192100000218488,,27,13,2026-03-05_14h09.40.348,2026A_exp2,2022.2.4,59.897670820961345,
1000,1,0.0,0.0,1,0,4,4,55,,,,,59.95722260000184,60.60771080001723,60.60771080001723,61.10905349999666,45,315,61.10905349999666,61.10905349999666,61.10905349999666,61.10905349999666,61.10905349999666,61.10905349999666,61.10905349999666,61.10905349999666,61.10905349999666,61.4754624000052,61.4754624000052,61.4754624000052,61.4754624000052,61.4754624000052,61.4754624000052,61.4754624000052,61.4754624000052,61.4754624000052,23,0,,,61.4754624000052,61.677655400009826,1000,61.677655400009826,1000,1000,1000,1000,1,num_2,0.4334297000314109,,27,13,2026-03-05_14h09.40.348,2026A_exp2,2022.2.4,59.897670820961345,
1,0,0.0,0.0,1,0,5,5,33,,,,,62.125986800005194,62.776673900021706,62.776673900021706,63.27783410000848,315,45,63.27783410000848,63.27783410000848,63.27783410000848,63.27783410000848,63.27783410000848,63.27783410000848,63.27783410000848,63.27783410000848,63.27783410000848,63.64429500000551,63.64429500000551,63.64429500000551,63.64429500000551,63.64429500000551,63.64429500000551,63.64429500000551,63.64429500000551,63.64429500000551,23,0,,,63.64429500000551,63.84443450003164,0.0,63.84443450003164,1,0.0,0,0,1000,num_4,0.5949622999760322,,27,13,2026-03-05_14h09.40.348,2026A_exp2,2022.2.4,59.897670820961345,
1,0,0.0,0.0,1,0,6,6,31,,,,,64.46158770000329,65.11234400002286,65.11234400002286,65.59683470003074,45,45,65.59683470003074,65.59683470003074,65.59683470003074,65.59683470003074,65.59683470003074,65.59683470003074,65.59683470003074,65.59683470003074,65.59683470003074,65.96326570003293,65.96326570003293,65.96326570003293,65.96326570003293,65.96326570003293,65.96326570003293,65.96326570003293,65.96326570003293,65.96326570003293,23,0,,,65.96326570003293,66.16348700004164,0.0,66.16348700004164,1,0.0,0,0,1000,num_4,0.4598816999932751,,27,13,2026-03-05_14h09.40.348,2026A_exp2,2022.2.4,59.897670820961345,
1,0,0.0,6.1,1,0,7,7,19,,,,,66.6476973000099,67.2979619000107,67.2979619000107,67.78235860000132,315,45,67.78235860000132,67.78235860000132,67.78235860000132,67.78235860000132,67.78235860000132,67.78235860000132,67.78235860000132,67.78235860000132,67.78235860000132,68.1486675000051,68.1486675000051,68.1486675000051,68.1486675000051,68.1486675000051,68.1486675000051,68.1486675000051,68.1486675000051,68.1486675000051,23,0,,,68.1486675000051,68.34896510001272,6.1,68.34896510001272,1,6.1,1,1,1000,num_4,0.39455759996781126,,27,13,2026-03-05_14h09.40.348,2026A_exp2,2022.2.4,59.897670820961345,
1000,1,0.0,3.7,0,0,8,8,43,,,,,68.76582329999655,69.41671260003932,69.41671260003932,69.90101760003017,45,45,69.90101760003017,69.90101760003017,69.90101760003017,69.90101760003017,69.90101760003017,69.90101760003017,69.90101760003017,69.90101760003017,69.90101760003017,70.2675889999955,70.2675889999955,70.2675889999955,70.2675889999955,70.2675889999955,70.2675889999955,70.2675889999955,70.2675889999955,70.2675889999955,23,0,,,70.2675889999955,70.46980550000444,1000,70.46980550000444,1000,1000,1000,1000,1,num_2,0.5141521000186913,,27,13,2026-03-05_14h09.40.348,2026A_exp2,2022.2.4,59.897670820961345,
1000,1,0.0,4.9,1,0,9,9,37,,,,,71.00169110001298,71.65229050000198,71.65229050000198,72.1532855000114,45,45,72.1532855000114,72.1532855000114,72.1532855000114,72.1532855000114,72.1532855000114,72.1532855000114,72.1532855000114,72.1532855000114,72.1532855000114,72.51972810004372,72.51972810004372,72.51972810004372,72.51972810004372,72.51972810004372,72.51972810004372,72.51972810004372,72.51972810004372,72.51972810004372,23,0,,,72.51972810004372,72.7219934000168,1000,72.7219934000168,1000,1000,1000,1000,1,num_2,0.42239819996757433,,27,13,2026-03-05_14h09.40.348,2026A_exp2,2022.2.4,59.897670820961345,
1,0,0.0,0.0,0,0,10,10,80,,,,,73.17035570001462,73.82073150004726,73.82073150004726,74.32222230004845,315,45,74.32222230004845,74.32222230004845,74.32222230004845,74.32222230004845,74.32222230004845,74.32222230004845,74.32222230004845,74.32222230004845,74.32222230004845,74.67193310003495,74.67193310003495,74.67193310003495,74.67193310003495,74.67193310003495,74.67193310003495,74.67193310003495,74.67193310003495,74.67193310003495,1,2,"[0.0012324999552220106, 0.2504133999464102]","[0.23383569996804, 0.3506721999729052]",74.67193310003495,74.87209880002774,0.0,74.87209880002774,1,0.0,0,0,1000,num_4,0.6793060999480076,,27,13,2026-03-05_14h09.40.348,2026A_exp2,2022.2.4,59.897670820961345,
1000,1,0.0,3.7,0,0,11,11,23,,,,,75.57266960002016,76.22355110000353,76.22355110000353,76.70781930000521,315,315,76.70781930000521,76.70781930000521,76.70781930000521,76.70781930000521,76.70781930000521,76.70781930000521,76.70781930000521,76.70781930000521,76.70781930000521,77.07416760001797,77.07416760001797,77.07416760001797,77.07416760001797,77.07416760001797,77.07416760001797,77.07416760001797,77.07416760001797,77.07416760001797,23,0,,,77.07416760001797,77.27669830003288,1000,77.27669830003288,1000,1000,1000,1000,1,num_2,0.402744899969548,,27,13,2026-03-05_14h09.40.348,2026A_exp2,2022.2.4,59.897670820961345,
0,0,3.7,4.9,0,0,12,12,77,,,,,77.70824440004071,78.35892720002448,78.35892720002448,78.86024990002625,315,315,78.86024990002625,78.86024990002625,78.86024990002625,78.86024990002625,78.86024990002625,78.86024990002625,78.86024990002625,78.86024990002625,78.86024990002625,79.21073160000378,79.21073160000378,79.21073160000378,79.21073160000378,79.21073160000378,79.21073160000378,79.21073160000378,79.21073160000378,79.21073160000378,5,4,"[0.0011929000029340386, 0.13356350001413375, 0.167160100012552, 0.21737580001354218]","[0.10030150000238791, 0.15045210003154352, 0.1836967000272125, 0.35561900003813207]",79.21073160000378,79.42333429999417,4.9,79.42333429999417,1,4.9,1,1,1000,num_4,0.5772393000079319,,27,13,2026-03-05_14h09.40.348,2026A_exp2,2022.2.4,59.897670820961345,
1000,1,0.0,3.7,1,0,13,13,4,,,,,80.02755090000574,80.67781389999436,80.67781389999436,81.16237740003271,45,45,81.16237740003271,81.16237740003271,81.16237740003271,81.16237740003271,81.16237740003271,81.16237740003271,81.16237740003271,81.16237740003271,81.16237740003271,81.52884370001266,81.52884370001266,81.52884370001266,81.52884370001266,81.52884370001266,81.52884370001266,81.52884370001266,81.52884370001266,81.52884370001266,23,0,,,81.52884370001266,81.73096970003098,1000,81.73096970003098,1000,1000,1000,1000,1,num_2,0.4923168999957852,,27,13,2026-03-05_14h09.40.348,2026A_exp2,2022.2.4,59.897670820961345,
1,0,6.1,0.0,0,0,14,14,85,,,,,82.24660460004816,82.89678970002569,82.89678970002569,83.39795400004368,315,315,83.39795400004368,83.39795400004368,83.39795400004368,83.39795400004368,83.39795400004368,83.39795400004368,83.39795400004368,83.39795400004368,83.39795400004368,83.76437650003936,83.76437650003936,83.76437650003936,83.76437650003936,83.76437650003936,83.76437650003936,83.76437650003936,83.76437650003936,83.76437650003936,23,0,,,83.76437650003936,83.96441479999339,6.1,83.96441479999339,1,6.1,1,1,1000,num_4,0.5315823000273667,,27,13,2026-03-05_14h09.40.348,2026A_exp2,2022.2.4,59.897670820961345,
1000,1,3.7,0.0,0,0,15,15,39,,,,,84.51486840000143,85.16577330004657,85.16577330004657,85.65009280003142,315,315,85.65009280003142,85.65009280003142,85.65009280003142,85.65009280003142,85.65009280003142,85.65009280003142,85.65009280003142,85.65009280003142,85.65009280003142,86.0165338999941,86.0165338999941,86.0165338999941,86.0165338999941,86.0165338999941,86.0165338999941,86.0165338999941,86.0165338999941,86.0165338999941,23,0,,,86.0165338999941,86.21873700001743,1000,86.21873700001743,1000,1000,1000,1000,0,num_3,0.4849396999925375,,27,13,2026-03-05_14h09.40.348,2026A_exp2,2022.2.4,59.897670820961345,
0,0,0.0,0.0,0,0,16,16,15,,,,,86.73398850002559,87.38474370003678,87.38474370003678,87.88555090001319,315,45,87.88555090001319,87.88555090001319,87.88555090001319,87.88555090001319,87.88555090001319,87.88555090001319,87.88555090001319,87.88555090001319,87.88555090001319,88.25218480004696,88.25218480004696,88.25218480004696,88.25218480004696,88.25218480004696,88.25218480004696,88.25218480004696,88.25218480004696,88.25218480004696,23,0,,,88.25218480004696,88.45235330000287,0.0,88.45235330000287,1,0.0,0,0,1000,num_4,0.5476858000038192,,27,13,2026-03-05_14h09.40.348,2026A_exp2,2022.2.4,59.897670820961345,
1000,1,3.7,6.1,1,0,17,17,75,,,,,89.01956680003786,89.67027699999744,89.67027699999744,90.15460240002722,45,315,90.15460240002722,90.15460240002722,90.15460240002722,90.15460240002722,90.15460240002722,90.15460240002722,90.15460240002722,90.15460240002722,90.15460240002722,90.52105760003906,90.52105760003906,90.52105760003906,90.52105760003906,90.52105760003906,90.52105760003906,90.52105760003906,90.52105760003906,90.52105760003906,23,0,,,90.52105760003906,90.72317960002692,1000,90.72317960002692,1000,1000,1000,1000,1,num_2,0.42841389996465296,,27,13,2026-03-05_14h09.40.348,2026A_exp2,2022.2.4,59.897670820961345,
1,0,0.0,0.0,1,0,18,18,38,,,,,91.17163779999828,91.82243890000973,91.82243890000973,92.32357930002036,45,45,92.32357930002036,92.32357930002036,92.32357930002036,92.32357930002036,92.32357930002036,92.32357930002036,92.32357930002036,92.32357930002036,92.32357930002036,92.68992520001484,92.68992520001484,92.68992520001484,92.68992520001484,92.68992520001484,92.68992520001484,92.68992520001484,92.68992520001484,92.68992520001484,1,2,"[0.0012116000289097428, 0.30022750003263354]","[0.2835823000059463, 0.36733110004570335]",92.68992520001484,92.89014540001517,0.0,92.89014540001517,1,0.0,0,0,1000,num_4,0.49351979995844886,,27,13,2026-03-05_14h09.40.348,2026A_exp2,2022.2.4,59.897670820961345,
1000,1,3.7,6.1,0,0,19,19,60,,,,,93.40734950004844,94.05800680001266,94.05800680001266,94.54231560003245,45,45,94.54231560003245,94.54231560003245,94.54231560003245,94.54231560003245,94.54231560003245,94.54231560003245,94.54231560003245,94.54231560003245,94.54231560003245,94.90874139999505,94.90874139999505,94.90874139999505,94.90874139999505,94.90874139999505,94.90874139999505,94.90874139999505,94.90874139999505,94.90874139999505,4,3,"[0.0012465000036172569, 0.10020590003114194, 0.28381069999886677]","[0.08348149998346344, 0.23368720000144094, 0.3669588000047952]",94.90874139999505,95.11075720004737,1000,95.11075720004737,1000,1000,1000,1000,1,num_2,0.44930530001875013,,27,13,2026-03-05_14h09.40.348,2026A_exp2,2022.2.4,59.897670820961345,
0,0,3.7,0.0,1,0,20,20,1,,,,,95.5760728000314,96.22884580004029,96.22884580004029,96.73283220001031,315,45,96.73283220001031,96.73283220001031,96.73283220001031,96.73283220001031,96.73283220001031,96.73283220001031,96.73283220001031,96.73283220001031,96.73283220001031,97.09452760004206,97.09452760004206,97.09452760004206,97.09452760004206,97.09452760004206,97.09452760004206,97.09452760004206,97.09452760004206,97.09452760004206,0,1,[0.0027151000103913248],[0.3652178000193089],97.09452760004206,97.294265500037,3.7,97.294265500037,1,3.7,1,1,1000,num_4,0.81690219999291,,27,13,2026-03-05_14h09.40.348,2026A_exp2,2022.2.4,59.897670820961345,
1000,1,6.1,6.1,1,0,21,21,22,,,,,98.12977870000759,98.77913919999264,98.77913919999264,99.28069250000408,45,315,99.28069250000408,99.28069250000408,99.28069250000408,99.28069250000408,99.28069250000408,99.28069250000408,99.28069250000408,99.28069250000408,99.28069250000408,99.63037880003685,99.63037880003685,99.63037880003685,99.63037880003685,99.63037880003685,99.63037880003685,99.63037880003685,99.63037880003685,99.63037880003685,22,0,,,99.63037880003685,99.8301855000318,1000,99.8301855000318,1000,1000,1000,1000,0,num_3,0.7374327999423258,,27,13,2026-03-05_14h09.40.348,2026A_exp2,2022.2.4,59.897670820961345,
1000,1,0.0,0.0,1,0,22,22,29,,,,,100.5976115000085,101.24810960004106,101.24810960004106,101.73254570004065,315,45,101.73254570004065,101.73254570004065,101.73254570004065,101.73254570004065,101.73254570004065,101.73254570004065,101.73254570004065,101.73254570004065,101.73254570004065,102.09991500002798,102.09991500002798,102.09991500002798,102.09991500002798,102.09991500002798,102.09991500002798,102.09991500002798,102.09991500002798,102.09991500002798,23,0,,,102.09991500002798,102.29935770004522,1000,102.29935770004522,1000,1000,1000,1000,1,num_2,0.5081110000028275,,27,13,2026-03-05_14h09.40.348,2026A_exp2,2022.2.4,59.897670820961345,
1,0,3.7,6.1,1,0,23,23,68,,,,,102.83347940002568,103.47768260003068,103.47768260003068,103.96830510004656,45,315,103.96830510004656,103.96830510004656,103.96830510004656,103.96830510004656,103.96830510004656,103.96830510004656,103.96830510004656,103.96830510004656,103.96830510004656,104.335006600013,104.335006600013,104.335006600013,104.335006600013,104.335006600013,104.335006600013,104.335006600013,104.335006600013,104.335006600013,23,0,,,104.335006600013,104.5349572999985,6.1,104.5349572999985,1,6.1,1,1,1000,num_4,0.48861469997791573,,27,13,2026-03-05_14h09.40.348,2026A_exp2,2022.2.4,59.897670820961345,
1000,1,0.0,3.7,0,0,24,24,21,,,,,105.0523525000317,105.6862245000084,105.6862245000084,106.18739480001386,315,315,106.18739480001386,106.18739480001386,106.18739480001386,106.18739480001386,106.18739480001386,106.18739480001386,106.18739480001386,106.18739480001386,106.18739480001386,106.5538663000334,106.5538663000334,106.5538663000334,106.5538663000334,106.5538663000334,106.5538663000334,106.5538663000334,106.5538663000334,106.5538663000334,23,0,,,106.5538663000334,106.7556951000006,1000,106.7556951000006,1000,1000,1000,1000,1,num_2,0.435837899975013,,27,13,2026-03-05_14h09.40.348,2026A_exp2,2022.2.4,59.897670820961345,
1,0,0.0,0.0,1,0,25,25,6,,,,,107.2210206000018,107.87190220004413,107.87190220004413,108.3728632000275,315,315,108.3728632000275,108.3728632000275,108.3728632000275,108.3728632000275,108.3728632000275,108.3728632000275,108.3728632000275,108.3728632000275,108.3728632000275,108.73937750002369,108.73937750002369,108.73937750002369,108.73937750002369,108.73937750002369,108.73937750002369,108.73937750002369,108.73937750002369,108.73937750002369,22,1,[0.0012314999476075172],[0.017473399988375604],108.73937750002369,108.93950239999685,0.0,108.93950239999685,1,0.0,0,0,1000,num_4,0.8038190000224859,,27,13,2026-03-05_14h09.40.348,2026A_exp2,2022.2.4,59.897670820961345,
0,0,6.1,0.0,1,0,26,26,25,,,,,109.77356530004181,110.42428320000181,110.42428320000181,110.9086748000118,315,45,110.9086748000118,110.9086748000118,110.9086748000118,110.9086748000118,110.9086748000118,110.9086748000118,110.9086748000118,110.9086748000118,110.9086748000118,111.27524280000944,111.27524280000944,111.27524280000944,111.27524280000944,111.27524280000944,111.27524280000944,111.27524280000944,111.27524280000944,111.27524280000944,23,0,,,111.27524280000944,111.47544629999902,6.1,111.47544629999902,1,6.1,1,1,1000,num_4,1.028287300025113,,27,13,2026-03-05_14h09.40.348,2026A_exp2,2022.2.4,59.897670820961345,
1000,1,0.0,0.0,0,0,27,27,72,,,,,112.52625440002885,113.17722250003135,113.17722250003135,113.6615795000107,45,315,113.6615795000107,113.6615795000107,113.6615795000107,113.6615795000107,113.6615795000107,113.6615795000107,113.6615795000107,113.6615795000107,113.6615795000107,114.02802950004116,114.02802950004116,114.02802950004116,114.02802950004116,114.02802950004116,114.02802950004116,114.02802950004116,114.02802950004116,114.02802950004116,23,0,,,114.02802950004116,114.22989519999828,1000,114.22989519999828,1000,1000,1000,1000,1,num_2,0.4974110000184737,,27,13,2026-03-05_14h09.40.348,2026A_exp2,2022.2.4,59.897670820961345,
1000,1,0.0,3.7,0,0,28,28,63,,,,,114.74519250000594,115.39604210003745,115.39604210003745,115.89708570000948,315,315,115.89708570000948,115.89708570000948,115.89708570000948,115.89708570000948,115.89708570000948,115.89708570000948,115.89708570000948,115.89708570000948,115.89708570000948,116.26360990002286,116.26360990002286,116.26360990002286,116.26360990002286,116.26360990002286,116.26360990002286,116.26360990002286,116.26360990002286,116.26360990002286,23,0,,,116.26360990002286,116.46566330001224,1000,116.46566330001224,1000,1000,1000,1000,1,num_2,0.4696307000122033,,27,13,2026-03-05_14h09.40.348,2026A_exp2,2022.2.4,59.897670820961345,
1000,1,0.0,0.0,1,0,29,29,2,,,,,116.96403900004225,117.61485130002256,117.61485130002256,118.11605160002364,45,315,118.11605160002364,118.11605160002364,118.11605160002364,118.11605160002364,118.11605160002364,118.11605160002364,118.11605160002364,118.11605160002364,118.11605160002364,118.48222880001413,118.48222880001413,118.48222880001413,118.48222880001413,118.48222880001413,118.48222880001413,118.48222880001413,118.48222880001413,118.48222880001413,0,1,[0.0012617000029422343],[0.36701410001842305],118.48222880001413,118.6844817000092,1000,118.6844817000092,1000,1000,1000,1000,0,num_3,0.4437638000235893,,27,13,2026-03-05_14h09.40.348,2026A_exp2,2022.2.4,59.897670820961345,
1,0,4.9,4.9,1,0,30,30,9,,,,,119.14958430000115,119.80040130001726,119.80040130001726,120.30148180003744,45,45,120.30148180003744,120.30148180003744,120.30148180003744,120.30148180003744,120.30148180003744,120.30148180003744,120.30148180003744,120.30148180003744,120.30148180003744,120.66792180004995,120.66792180004995,120.66792180004995,120.66792180004995,120.66792180004995,120.66792180004995,120.66792180004995,120.66792180004995,120.66792180004995,20,2,"[0.2999747999710962, 0.3670165999792516]","[0.3334753999952227, 0.3670208999537863]",120.66792180004995,120.86809510004241,4.9,120.86809510004241,1,4.9,1,1,1000,num_4,0.8040220999973826,,27,13,2026-03-05_14h09.40.348,2026A_exp2,2022.2.4,59.897670820961345,
1000,1,4.9,0.0,0,0,31,31,50,,,,,121.70217050000792,122.35297920001904,122.35297920001904,122.83727190003265,45,315,122.83727190003265,122.83727190003265,122.83727190003265,122.83727190003265,122.83727190003265,122.83727190003265,122.83727190003265,122.83727190003265,122.83727190003265,123.20383090001997,123.20383090001997,123.20383090001997,123.20383090001997,123.20383090001997,123.20383090001997,123.20383090001997,123.20383090001997,123.20383090001997,23,0,,,123.20383090001997,123.40624740003841,1000,123.40624740003841,1000,1000,1000,1000,0,num_3,0.4580864000017755,,27,13,2026-03-05_14h09.40.348,2026A_exp2,2022.2.4,59.897670820961345,
1000,1,4.9,0.0,1,0,32,32,67,,,,,123.88767600001302,124.53834700002335,124.53834700002335,125.03960519999964,315,45,125.03960519999964,125.03960519999964,125.03960519999964,125.03960519999964,125.03960519999964,125.03960519999964,125.03960519999964,125.03960519999964,125.03960519999964,125.38929170003394,125.38929170003394,125.38929170003394,125.38929170003394,125.38929170003394,125.38929170003394,125.38929170003394,125.38929170003394,125.38929170003394,22,0,,,125.38929170003394,125.591502700001,1000,125.591502700001,1000,1000,1000,1000,0,num_3,0.4398329999530688,,27,13,2026-03-05_14h09.40.348,2026A_exp2,2022.2.4,59.897670820961345,
1000,1,0.0,0.0,0,0,33,33,89,,,,,126.05659530003322,126.70731710002292,126.70731710002292,127.20847750001121,45,45,127.20847750001121,127.20847750001121,127.20847750001121,127.20847750001121,127.20847750001121,127.20847750001121,127.20847750001121,127.20847750001121,127.20847750001121,127.57481130002998,127.57481130002998,127.57481130002998,127.57481130002998,127.57481130002998,127.57481130002998,127.57481130002998,127.57481130002998,127.57481130002998,23,0,,,127.57481130002998,127.77702330000466,1000,127.77702330000466,1000,1000,1000,1000,1,num_2,0.43868070002645254,,27,13,2026-03-05_14h09.40.348,2026A_exp2,2022.2.4,59.897670820961345,
1,0,3.7,0.0,0,0,34,34,26,,,,,128.2420654000016,128.89278940000804,128.89278940000804,129.39395410002908,45,45,129.39395410002908,129.39395410002908,129.39395410002908,129.39395410002908,129.39395410002908,129.39395410002908,129.39395410002908,129.39395410002908,129.39395410002908,129.76028630003566,129.76028630003566,129.76028630003566,129.76028630003566,129.76028630003566,129.76028630003566,129.76028630003566,129.76028630003566,129.76028630003566,5,2,"[0.0011971999774686992, 0.30086239997763187]","[0.283920300018508, 0.3173602999886498]",129.76028630003566,129.96062230004463,3.7,129.96062230004463,1,3.7,1,1,1000,num_4,0.5993514999863692,,27,13,2026-03-05_14h09.40.348,2026A_exp2,2022.2.4,59.897670820961345,
1000,1,3.7,4.9,1,0,35,35,71,,,,,130.5779297000263,131.22853830002714,131.22853830002714,131.71298440004466,45,45,131.71298440004466,131.71298440004466,131.71298440004466,131.71298440004466,131.71298440004466,131.71298440004466,131.71298440004466,131.71298440004466,131.71298440004466,132.079356000002,132.079356000002,132.079356000002,132.079356000002,132.079356000002,132.079356000002,132.079356000002,132.079356000002,132.079356000002,1,2,"[0.0012401999556459486, 0.1502352999523282]","[0.13359219999983907, 0.3671908999676816]",132.079356000002,132.28153870004462,1000,132.28153870004462,1000,1000,1000,1000,0,num_3,0.8145992999779992,,27,13,2026-03-05_14h09.40.348,2026A_exp2,2022.2.4,59.897670820961345,
1000,1,4.9,3.7,0,0,36,36,28,,,,,133.1167521000025,133.7644002000452,133.7644002000452,134.26535250002053,45,45,134.26535250002053,134.26535250002053,134.26535250002053,134.26535250002053,134.26535250002053,134.26535250002053,134.26535250002053,134.26535250002053,134.26535250002053,134.6319414000027,134.6319414000027,134.6319414000027,134.6319414000027,134.6319414000027,134.6319414000027,134.6319414000027,134.6319414000027,134.6319414000027,0,1,[0.0014266000362113118],[0.3665220999973826],134.6319414000027,134.83402030001162,1000,134.83402030001162,1000,1000,1000,1000,0,num_3,0.39806059998227283,,27,13,2026-03-05_14h09.40.348,2026A_exp2,2022.2.4,59.897670820961345,
1000,1,0.0,6.1,1,0,37,37,42,,,,,135.24898030003533,135.8999133000034,135.8999133000034,136.39935399999376,45,45,136.39935399999376,136.39935399999376,136.39935399999376,136.39935399999376,136.39935399999376,136.39935399999376,136.39935399999376,136.39935399999376,136.39935399999376,136.76733140001306,136.76733140001306,136.76733140001306,136.76733140001306,136.76733140001306,136.76733140001306,136.76733140001306,136.76733140001306,136.76733140001306,0,1,[0.00424480001674965],[0.3808185000088997],136.76733140001306,136.97026740002912,1000,136.97026740002912,1000,1000,1000,1000,1,num_2,0.41320299997460097,,27,13,2026-03-05_14h09.40.348,2026A_exp2,2022.2.4,59.897670820961345,
1000,1,0.0,6.1,0,0,38,38,16,,,,,137.40110449999338,138.05203130003065,138.05203130003065,138.55301100004,45,315,138.55301100004,138.55301100004,138.55301100004,138.55301100004,138.55301100004,138.55301100004,138.55301100004,138.55301100004,138.55301100004,138.91946400003508,138.91946400003508,138.91946400003508,138.91946400003508,138.91946400003508,138.91946400003508,138.91946400003508,138.91946400003508,138.91946400003508,0,1,[0.0012450999929569662],[0.3671426000073552],138.91946400003508,139.1217719000415,1000,139.1217719000415,1000,1000,1000,1000,1,num_2,0.3818633999908343,,27,13,2026-03-05_14h09.40.348,2026A_exp2,2022.2.4,59.897670820961345,
1000,1,6.1,3.7,1,0,39,39,11,,,,,139.52006300003268,140.17076810001163,140.17076810001163,140.6719110000413,315,315,140.6719110000413,140.6719110000413,140.6719110000413,140.6719110000413,140.6719110000413,140.6719110000413,140.6719110000413,140.6719110000413,140.6719110000413,141.03818500001216,141.03818500001216,141.03818500001216,141.03818500001216,141.03818500001216,141.03818500001216,141.03818500001216,141.03818500001216,141.03818500001216,0,1,[0.0012363999849185348],[0.3671172999893315],141.03818500001216,141.24054600001546,1000,141.24054600001546,1000,1000,1000,1000,0,num_3,0.4238312999950722,,27,13,2026-03-05_14h09.40.348,2026A_exp2,2022.2.4,59.897670820961345,
1000,1,6.1,0.0,0,0,40,40,27,,,,,141.68884600000456,142.33977350004716,142.33977350004716,142.84061670000665,315,45,142.84061670000665,142.84061670000665,142.84061670000665,142.84061670000665,142.84061670000665,142.84061670000665,142.84061670000665,142.84061670000665,142.84061670000665,143.207107299997,143.207107299997,143.207107299997,143.207107299997,143.207107299997,143.207107299997,143.207107299997,143.207107299997,143.207107299997,0,1,[0.001199199992697686],[0.3671009999816306],143.207107299997,143.40739370003575,1000,143.40739370003575,1000,1000,1000,1000,0,num_3,0.3921060999855399,,27,13,2026-03-05_14h09.40.348,2026A_exp2,2022.2.4,59.897670820961345,
0,0,3.7,0.0,0,0,41,41,18,,,,,143.8243911000318,144.47497360000852,144.47497360000852,144.97608990001027,45,315,144.97608990001027,144.97608990001027,144.97608990001027,144.97608990001027,144.97608990001027,144.97608990001027,144.97608990001027,144.97608990001027,144.97608990001027,145.34243780001998,145.34243780001998,145.34243780001998,145.34243780001998,145.34243780001998,145.34243780001998,145.34243780001998,145.34243780001998,145.34243780001998,0,1,[0.0012018000124953687],[0.3672558999969624],145.34243780001998,145.54286610003328,0.0,145.54286610003328,0,0.0,0,1,1000,num_1,0.6737388000474311,,27,13,2026-03-05_14h09.40.348,2026A_exp2,2022.2.4,59.897670820961345,
1000,1,0.0,0.0,0,0,42,42,7,,,,,146.2432941000443,146.8941874000011,146.8941874000011,147.37847850000253,45,45,147.37847850000253,147.37847850000253,147.37847850000253,147.37847850000253,147.37847850000253,147.37847850000253,147.37847850000253,147.37847850000253,147.37847850000253,147.74502880004002,147.74502880004002,147.74502880004002,147.74502880004002,147.74502880004002,147.74502880004002,147.74502880004002,147.74502880004002,147.74502880004002,3,3,"[0.0012711999588645995, 0.2502564999740571, 0.3670786999864504]","[0.21697609999682754, 0.35037759999977425, 0.3670843999716453]",147.74502880004002,147.9473610999994,1000,147.9473610999994,1000,1000,1000,1000,0,num_3,0.4447188999620266,,27,13,2026-03-05_14h09.40.348,2026A_exp2,2022.2.4,59.897670820961345,
1000,1,0.0,0.0,1,0,43,43,73,,,,,148.41220860002795,149.06301300000632,149.06301300000632,149.56401480000932,45,45,149.56401480000932,149.56401480000932,149.56401480000932,149.56401480000932,149.56401480000932,149.56401480000932,149.56401480000932,149.56401480000932,149.56401480000932,149.93042600003537,149.93042600003537,149.93042600003537,149.93042600003537,149.93042600003537,149.93042600003537,149.93042600003537,149.93042600003537,149.93042600003537,23,0,,,149.93042600003537,150.13214490003884,1000,150.13214490003884,1000,1000,1000,1000,1,num_2,0.3639295999892056,,27,13,2026-03-05_14h09.40.348,2026A_exp2,2022.2.4,59.897670820961345,
1000,1,0.0,6.1,0,0,44,44,20,,,,,150.51427790004527,151.16499459999613,151.16499459999613,151.6664257000084,45,45,151.6664257000084,151.6664257000084,151.6664257000084,151.6664257000084,151.6664257000084,151.6664257000084,151.6664257000084,151.6664257000084,151.6664257000084,152.0326408999972,152.0326408999972,152.0326408999972,152.0326408999972,152.0326408999972,152.0326408999972,152.0326408999972,152.0326408999972,152.0326408999972,23,0,,,152.0326408999972,152.23454330000095,1000,152.23454330000095,1000,1000,1000,1000,1,num_2,0.3889241000288166,,27,13,2026-03-05_14h09.40.348,2026A_exp2,2022.2.4,59.897670820961345,
1,0,6.1,6.1,1,0,45,45,47,,,,,152.6498703000252,153.30057010002201,153.30057010002201,153.80174510000506,315,315,153.80174510000506,153.80174510000506,153.80174510000506,153.80174510000506,153.80174510000506,153.80174510000506,153.80174510000506,153.80174510000506,153.80174510000506,154.16772750002565,154.16772750002565,154.16772750002565,154.16772750002565,154.16772750002565,154.16772750002565,154.16772750002565,154.16772750002565,154.16772750002565,14,2,"[0.0008338000043295324, 0.08348679996561259]","[0.017204599978867918, 0.2004235999775119]",154.16772750002565,154.3682417999953,6.1,154.3682417999953,1,6.1,1,1,1000,num_4,0.5993955000303686,,27,13,2026-03-05_14h09.40.348,2026A_exp2,2022.2.4,59.897670820961345,
1000,1,0.0,0.0,1,0,46,46,3,,,,,154.98544810002204,155.63624880003044,155.63624880003044,156.12051360000623,315,45,156.12051360000623,156.12051360000623,156.12051360000623,156.12051360000623,156.12051360000623,156.12051360000623,156.12051360000623,156.12051360000623,156.12051360000623,156.4871250000433,156.4871250000433,156.4871250000433,156.4871250000433,156.4871250000433,156.4871250000433,156.4871250000433,156.4871250000433,156.4871250000433,5,3,"[0.0011901000398211181, 0.10021710000000894, 0.23384870000882074]","[0.08369600004516542, 0.16712290002033114, 0.3672313000424765]",156.4871250000433,156.68929850001587,1000,156.68929850001587,1000,1000,1000,1000,1,num_2,0.5028735999949276,,27,13,2026-03-05_14h09.40.348,2026A_exp2,2022.2.4,59.897670820961345,
1000,1,3.7,3.7,0,0,47,47,59,,,,,157.22134310001275,157.87219150003511,157.87219150003511,158.37296910001896,45,315,158.37296910001896,158.37296910001896,158.37296910001896,158.37296910001896,158.37296910001896,158.37296910001896,158.37296910001896,158.37296910001896,158.37296910001896,158.73915930005023,158.73915930005023,158.73915930005023,158.73915930005023,158.73915930005023,158.73915930005023,158.73915930005023,158.73915930005023,158.73915930005023,23,0,,,158.73915930005023,158.94132080004783,1000,158.94132080004783,1000,1000,1000,1000,1,num_2,0.38595929997973144,,27,13,2026-03-05_14h09.40.348,2026A_exp2,2022.2.4,59.897670820961345,
1000,1,0.0,0.0,1,0,48,48,56,,,,,159.3565042000264,160.00727170001483,160.00727170001483,160.50840770005016,315,45,160.50840770005016,160.50840770005016,160.50840770005016,160.50840770005016,160.50840770005016,160.50840770005016,160.50840770005016,160.50840770005016,160.50840770005016,160.87484260002384,160.87484260002384,160.87484260002384,160.87484260002384,160.87484260002384,160.87484260002384,160.87484260002384,160.87484260002384,160.87484260002384,23,0,,,160.87484260002384,161.07694640004775,1000,161.07694640004775,1000,1000,1000,1000,1,num_2,0.3946224999963306,,27,13,2026-03-05_14h09.40.348,2026A_exp2,2022.2.4,59.897670820961345,
1000,1,0.0,0.0,0,0,49,49,45,,,,,161.49200830003247,162.1427000000258,162.1427000000258,162.64371220004978,45,45,162.64371220004978,162.64371220004978,162.64371220004978,162.64371220004978,162.64371220004978,162.64371220004978,162.64371220004978,162.64371220004978,162.64371220004978,163.01030180003727,163.01030180003727,163.01030180003727,163.01030180003727,163.01030180003727,163.01030180003727,163.01030180003727,163.01030180003727,163.01030180003727,19,4,"[0.01721760001964867, 0.05027130001690239, 0.15032189997145906, 0.2670562000130303]","[0.0335392999695614, 0.0669122000108473, 0.16702399996574968, 0.28372180002043024]",163.01030180003727,163.2121178000234,1000,163.2121178000234,1000,1000,1000,1000,1,num_2,0.619811899960041,,27,13,2026-03-05_14h09.40.348,2026A_exp2,2022.2.4,59.897670820961345,
1000,1,6.1,0.0,1,0,50,50,79,,,,,163.8610588000156,164.5116911000223,164.5116911000223,165.0130385000375,45,315,165.0130385000375,165.0130385000375,165.0130385000375,165.0130385000375,165.0130385000375,165.0130385000375,165.0130385000375,165.0130385000375,165.0130385000375,165.37927970004966,165.37927970004966,165.37927970004966,165.37927970004966,165.37927970004966,165.37927970004966,165.37927970004966,165.37927970004966,165.37927970004966,1,2,"[0.0012531999964267015, 0.2003029999905266]","[0.18365449999691918, 0.36720430001150817]",165.37927970004966,165.57966990000568,1000,165.57966990000568,1000,1000,1000,1000,0,num_3,0.3965001000324264,,27,13,2026-03-05_14h09.40.348,2026A_exp2,2022.2.4,59.897670820961345,
0,0,0.0,3.7,1,0,51,51,53,,,,,165.99659009999596,166.64726290002,166.64726290002,167.1483889000374,315,45,167.1483889000374,167.1483889000374,167.1483889000374,167.1483889000374,167.1483889000374,167.1483889000374,167.1483889000374,167.1483889000374,167.1483889000374,167.5145994000486,167.5145994000486,167.5145994000486,167.5145994000486,167.5145994000486,167.5145994000486,167.5145994000486,167.5145994000486,167.5145994000486,8,3,"[0.001200700004119426, 0.18337959999917075, 0.3503751000389457]","[0.1668255000258796, 0.23389270005282015, 0.3671506000100635]",167.5145994000486,167.71491209999658,0.0,167.71491209999658,0,0.0,0,1,1000,num_1,0.7413591999793425,,27,13,2026-03-05_14h09.40.348,2026A_exp2,2022.2.4,59.897670820961345,
0,0,6.1,3.7,0,0,52,52,49,,,,,168.48227820004104,169.13298729999224,169.13298729999224,169.61733900004765,315,45,169.61733900004765,169.61733900004765,169.61733900004765,169.61733900004765,169.61733900004765,169.61733900004765,169.61733900004765,169.61733900004765,169.61733900004765,169.98394380003447,169.98394380003447,169.98394380003447,169.98394380003447,169.98394380003447,169.98394380003447,169.98394380003447,169.98394380003447,169.98394380003447,0,1,[0.0012890000361949205],[0.36700119997840375],169.98394380003447,170.18406200001482,3.7,170.18406200001482,0,3.7,1,0,1000,num_1,0.6398141999961808,,27,13,2026-03-05_14h09.40.348,2026A_exp2,2022.2.4,59.897670820961345,
1,0,4.9,0.0,1,0,53,53,34,,,,,170.85128870001063,171.5019922000356,171.5019922000356,171.98644540004898,315,315,171.98644540004898,171.98644540004898,171.98644540004898,171.98644540004898,171.98644540004898,171.98644540004898,171.98644540004898,171.98644540004898,171.98644540004898,172.35289770003874,172.35289770003874,172.35289770003874,172.35289770003874,172.35289770003874,172.35289770003874,172.35289770003874,172.35289770003874,172.35289770003874,0,1,[0.0012217999901622534],[0.36713939998298883],172.35289770003874,172.55312759999651,0.0,172.55312759999651,0,0.0,0,1,1000,num_1,0.4621717000263743,,27,13,2026-03-05_14h09.40.348,2026A_exp2,2022.2.4,59.897670820961345,
1,0,0.0,4.9,0,0,54,54,32,,,,,173.0368157000048,173.68749700003536,173.68749700003536,174.17201040004147,315,315,174.17201040004147,174.17201040004147,174.17201040004147,174.17201040004147,174.17201040004147,174.17201040004147,174.17201040004147,174.17201040004147,174.17201040004147,174.53846670000348,174.53846670000348,174.53846670000348,174.53846670000348,174.53846670000348,174.53846670000348,174.53846670000348,174.53846670000348,174.53846670000348,23,0,,,174.53846670000348,174.7386864,0.0,174.7386864,0,0.0,0,1,1000,num_1,0.7006209999672137,,27,13,2026-03-05_14h09.40.348,2026A_exp2,2022.2.4,59.897670820961345,
0,0,4.9,0.0,0,0,55,55,40,,,,,175.45590980001725,176.10673640004825,176.10673640004825,176.59113499999512,45,315,176.59113499999512,176.59113499999512,176.59113499999512,176.59113499999512,176.59113499999512,176.59113499999512,176.59113499999512,176.59113499999512,176.59113499999512,176.95759689999977,176.95759689999977,176.95759689999977,176.95759689999977,176.95759689999977,176.95759689999977,176.95759689999977,176.95759689999977,176.95759689999977,23,0,,,176.95759689999977,177.15784340002574,0.0,177.15784340002574,0,0.0,0,1,1000,num_1,0.48138959996867925,,27,13,2026-03-05_14h09.40.348,2026A_exp2,2022.2.4,59.897670820961345,
1,0,0.0,0.0,1,0,56,56,83,,,,,177.6580655000289,178.30880210001487,178.30880210001487,178.79323220002698,315,45,178.79323220002698,178.79323220002698,178.79323220002698,178.79323220002698,178.79323220002698,178.79323220002698,178.79323220002698,178.79323220002698,178.79323220002698,179.15977640001802,179.15977640001802,179.15977640001802,179.15977640001802,179.15977640001802,179.15977640001802,179.15977640001802,179.15977640001802,179.15977640001802,23,0,,,179.15977640001802,179.35985060001258,0.0,179.35985060001258,1,0.0,0,0,1000,num_4,0.6004286999814212,,27,13,2026-03-05_14h09.40.348,2026A_exp2,2022.2.4,59.897670820961345,
1000,1,3.7,0.0,0,0,57,57,35,,,,,179.97709770000074,180.6278072000132,180.6278072000132,181.11235980002675,45,45,181.11235980002675,181.11235980002675,181.11235980002675,181.11235980002675,181.11235980002675,181.11235980002675,181.11235980002675,181.11235980002675,181.11235980002675,181.47861690004356,181.47861690004356,181.47861690004356,181.47861690004356,181.47861690004356,181.47861690004356,181.47861690004356,181.47861690004356,181.47861690004356,17,1,[0.11728230002336204],[0.21769030002178624],181.47861690004356,181.6810564000043,1000,181.6810564000043,1000,1000,1000,1000,0,num_3,0.6069472000235692,,27,13,2026-03-05_14h09.40.348,2026A_exp2,2022.2.4,59.897670820961345,
1000,1,6.1,0.0,0,0,58,58,58,,,,,182.31300960003864,182.96354170003906,182.96354170003906,183.44803930004127,45,315,183.44803930004127,183.44803930004127,183.44803930004127,183.44803930004127,183.44803930004127,183.44803930004127,183.44803930004127,183.44803930004127,183.44803930004127,183.8143962000031,183.8143962000031,183.8143962000031,183.8143962000031,183.8143962000031,183.8143962000031,183.8143962000031,183.8143962000031,183.8143962000031,23,0,,,183.8143962000031,184.01553970004898,1000,184.01553970004898,1000,1000,1000,1000,0,num_3,0.3682251999853179,,27,13,2026-03-05_14h09.40.348,2026A_exp2,2022.2.4,59.897670820961345,
1,0,0.0,4.9,0,0,59,59,70,,,,,184.41486860002624,185.06558260001475,185.06558260001475,185.56673340004636,315,315,185.56673340004636,185.56673340004636,185.56673340004636,185.56673340004636,185.56673340004636,185.56673340004636,185.56673340004636,185.56673340004636,185.56673340004636,185.9331622000318,185.9331622000318,185.9331622000318,185.9331622000318,185.9331622000318,185.9331622000318,185.9331622000318,185.9331622000318,185.9331622000318,0,1,[0.0012091999524272978],[0.3670628999825567],185.9331622000318,186.13324530003592,0.0,186.13324530003592,0,0.0,0,1,1000,num_1,0.698096199950669,,27,13,2026-03-05_14h09.40.348,2026A_exp2,2022.2.4,59.897670820961345,
0,0,0.0,0.0,1,0,60,60,44,,,,,186.85058850003406,187.50131310004508,187.50131310004508,187.98575590003747,315,315,187.98575590003747,187.98575590003747,187.98575590003747,187.98575590003747,187.98575590003747,187.98575590003747,187.98575590003747,187.98575590003747,187.98575590003747,188.35222220001742,188.35222220001742,188.35222220001742,188.35222220001742,188.35222220001742,188.35222220001742,188.35222220001742,188.35222220001742,188.35222220001742,23,0,,,188.35222220001742,188.55243300000438,0.0,188.55243300000438,0,0.0,0,1,1000,num_1,0.5834902999922633,,27,13,2026-03-05_14h09.40.348,2026A_exp2,2022.2.4,59.897670820961345,
1,0,6.1,0.0,1,0,61,61,17,,,,,189.15298370004166,189.80360080004903,189.80360080004903,190.28813900001114,45,315,190.28813900001114,190.28813900001114,190.28813900001114,190.28813900001114,190.28813900001114,190.28813900001114,190.28813900001114,190.28813900001114,190.28813900001114,190.6546203000471,190.6546203000471,190.6546203000471,190.6546203000471,190.6546203000471,190.6546203000471,190.6546203000471,190.6546203000471,190.6546203000471,23,0,,,190.6546203000471,190.854645000014,0.0,190.854645000014,0,0.0,0,1,1000,num_1,0.5127745000063442,,27,13,2026-03-05_14h09.40.348,2026A_exp2,2022.2.4,59.897670820961345,
1,0,0.0,6.1,1,0,62,62,46,,,,,191.38851370004704,192.0393797000288,192.0393797000288,192.54040360002546,45,45,192.54040360002546,192.54040360002546,192.54040360002546,192.54040360002546,192.54040360002546,192.54040360002546,192.54040360002546,192.54040360002546,192.54040360002546,192.9068155999994,192.9068155999994,192.9068155999994,192.9068155999994,192.9068155999994,192.9068155999994,192.9068155999994,192.9068155999994,192.9068155999994,1,2,"[0.001241199963260442, 0.11711809999542311]","[0.10025989997666329, 0.3672935999929905]",192.9068155999994,193.1072594000143,6.1,193.1072594000143,1,6.1,1,1,1000,num_4,0.7642866999958642,,27,13,2026-03-05_14h09.40.348,2026A_exp2,2022.2.4,59.897670820961345,
1000,1,3.7,0.0,0,0,63,63,86,,,,,193.89097540004877,194.5418562000268,194.5418562000268,195.02629000000888,315,45,195.02629000000888,195.02629000000888,195.02629000000888,195.02629000000888,195.02629000000888,195.02629000000888,195.02629000000888,195.02629000000888,195.02629000000888,195.3926793000428,195.3926793000428,195.3926793000428,195.3926793000428,195.3926793000428,195.3926793000428,195.3926793000428,195.3926793000428,195.3926793000428,23,0,,,195.3926793000428,195.594631200016,1000,195.594631200016,1000,1000,1000,1000,0,num_3,0.5169775999966078,,27,13,2026-03-05_14h09.40.348,2026A_exp2,2022.2.4,59.897670820961345,
1,0,4.9,6.1,0,0,64,64,82,,,,,196.12664440000663,196.77725169999758,196.77725169999758,197.2784057999961,315,45,197.2784057999961,197.2784057999961,197.2784057999961,197.2784057999961,197.2784057999961,197.2784057999961,197.2784057999961,197.2784057999961,197.2784057999961,197.6448883000412,197.6448883000412,197.6448883000412,197.6448883000412,197.6448883000412,197.6448883000412,197.6448883000412,197.6448883000412,197.6448883000412,0,1,[0.0011528999893926084],[0.3674008999951184],197.6448883000412,197.84516349999467,4.9,197.84516349999467,0,4.9,1,0,1000,num_1,1.1954245999804698,,27,13,2026-03-05_14h09.40.348,2026A_exp2,2022.2.4,59.897670820961345,
1000,1,4.9,6.1,0,0,65,65,36,,,,,199.06293850002112,199.70733430003747,199.70733430003747,200.19795510004042,315,45,200.19795510004042,200.19795510004042,200.19795510004042,200.19795510004042,200.19795510004042,200.19795510004042,200.19795510004042,200.19795510004042,200.19795510004042,200.56444680003915,200.56444680003915,200.56444680003915,200.56444680003915,200.56444680003915,200.56444680003915,200.56444680003915,200.56444680003915,200.56444680003915,0,1,[0.0015619999612681568],[0.3667348999879323],200.56444680003915,200.76669630000833,1000,200.76669630000833,1000,1000,1000,1000,1,num_2,0.7534983999794349,,27,13,2026-03-05_14h09.40.348,2026A_exp2,2022.2.4,59.897670820961345,
1000,1,6.1,4.9,0,0,66,66,81,,,,,201.548645700037,202.19938240002375,202.19938240002375,202.70046860002913,315,45,202.70046860002913,202.70046860002913,202.70046860002913,202.70046860002913,202.70046860002913,202.70046860002913,202.70046860002913,202.70046860002913,202.70046860002913,203.0503797000274,203.0503797000274,203.0503797000274,203.0503797000274,203.0503797000274,203.0503797000274,203.0503797000274,203.0503797000274,203.0503797000274,0,1,[0.0012432000366970897],[0.3502997999894433],203.0503797000274,203.25217880000127,1000,203.25217880000127,1000,1000,1000,1000,0,num_3,0.5715425999951549,,27,13,2026-03-05_14h09.40.348,2026A_exp2,2022.2.4,59.897670820961345,
1000,1,0.0,0.0,0,0,67,67,65,,,,,203.85106380004436,204.50176390004344,204.50176390004344,205.00296509999316,45,45,205.00296509999316,205.00296509999316,205.00296509999316,205.00296509999316,205.00296509999316,205.00296509999316,205.00296509999316,205.00296509999316,205.00296509999316,205.36930630001007,205.36930630001007,205.36930630001007,205.36930630001007,205.36930630001007,205.36930630001007,205.36930630001007,205.36930630001007,205.36930630001007,23,0,,,205.36930630001007,205.57070670003304,1000,205.57070670003304,1000,1000,1000,1000,1,num_2,0.5415139999822713,,27,13,2026-03-05_14h09.40.348,2026A_exp2,2022.2.4,59.897670820961345,
1000,1,0.0,0.0,0,0,68,68,62,,,,,206.13655739999376,206.7873888000031,206.7873888000031,207.28837449999992,45,315,207.28837449999992,207.28837449999992,207.28837449999992,207.28837449999992,207.28837449999992,207.28837449999992,207.28837449999992,207.28837449999992,207.28837449999992,207.65494020003825,207.65494020003825,207.65494020003825,207.65494020003825,207.65494020003825,207.65494020003825,207.65494020003825,207.65494020003825,207.65494020003825,0,1,[0.0012342000263743103],[0.3669662000029348],207.65494020003825,207.85693140001968,1000,207.85693140001968,1000,1000,1000,1000,0,num_3,0.47844169999007136,,27,13,2026-03-05_14h09.40.348,2026A_exp2,2022.2.4,59.897670820961345,
1,0,0.0,0.0,0,0,69,69,87,,,,,208.35551850002958,209.00623820000328,209.00623820000328,209.50739760004217,45,315,209.50739760004217,209.50739760004217,209.50739760004217,209.50739760004217,209.50739760004217,209.50739760004217,209.50739760004217,209.50739760004217,209.50739760004217,209.8736052000313,209.8736052000313,209.8736052000313,209.8736052000313,209.8736052000313,209.8736052000313,209.8736052000313,209.8736052000313,209.8736052000313,23,0,,,209.8736052000313,210.07398470002227,0.0,210.07398470002227,0,0.0,0,1,1000,num_1,0.8778353999950923,,27,13,2026-03-05_14h09.40.348,2026A_exp2,2022.2.4,59.897670820961345,
0,0,4.9,0.0,0,0,70,70,84,,,,,210.97467290004715,211.62547470000573,211.62547470000573,212.10995450004702,45,315,212.10995450004702,212.10995450004702,212.10995450004702,212.10995450004702,212.10995450004702,212.10995450004702,212.10995450004702,212.10995450004702,212.10995450004702,212.4764161000494,212.4764161000494,212.4764161000494,212.4764161000494,212.4764161000494,212.4764161000494,212.4764161000494,212.4764161000494,212.4764161000494,23,0,,,212.4764161000494,212.67650140001206,0.0,212.67650140001206,0,0.0,0,1,1000,num_1,0.5310396999702789,,27,13,2026-03-05_14h09.40.348,2026A_exp2,2022.2.4,59.897670820961345,
1,0,3.7,0.0,1,0,71,71,30,,,,,213.2271796000423,213.87784260004992,213.87784260004992,214.36228350002784,315,315,214.36228350002784,214.36228350002784,214.36228350002784,214.36228350002784,214.36228350002784,214.36228350002784,214.36228350002784,214.36228350002784,214.36228350002784,214.7285842000274,214.7285842000274,214.7285842000274,214.7285842000274,214.7285842000274,214.7285842000274,214.7285842000274,214.7285842000274,214.7285842000274,7,1,[0.001190899987705052],[0.2669647000147961],214.7285842000274,214.92890840000473,0.0,214.92890840000473,0,0.0,0,1,1000,num_1,0.5988783999928273,,27,13,2026-03-05_14h09.40.348,2026A_exp2,2022.2.4,59.897670820961345,
1000,1,0.0,6.1,1,0,72,72,74,,,,,215.5460137000191,216.19673040002817,216.19673040002817,216.68109020002885,45,315,216.68109020002885,216.68109020002885,216.68109020002885,216.68109020002885,216.68109020002885,216.68109020002885,216.68109020002885,216.68109020002885,216.68109020002885,217.04765080002835,217.04765080002835,217.04765080002835,217.04765080002835,217.04765080002835,217.04765080002835,217.04765080002835,217.04765080002835,217.04765080002835,23,0,,,217.04765080002835,217.2490359999938,1000,217.2490359999938,1000,1000,1000,1000,1,num_2,0.4789865000057034,,27,13,2026-03-05_14h09.40.348,2026A_exp2,2022.2.4,59.897670820961345,
1,0,0.0,6.1,0,0,73,73,24,,,,,217.74815210001543,218.39903329999652,218.39903329999652,218.90018270001747,315,315,218.90018270001747,218.90018270001747,218.90018270001747,218.90018270001747,218.90018270001747,218.90018270001747,218.90018270001747,218.90018270001747,218.90018270001747,219.26653190003708,219.26653190003708,219.26653190003708,219.26653190003708,219.26653190003708,219.26653190003708,219.26653190003708,219.26653190003708,219.26653190003708,23,0,,,219.26653190003708,219.46678330004215,0.0,219.46678330004215,0,0.0,0,1,1000,num_1,0.5578895999933593,,27,13,2026-03-05_14h09.40.348,2026A_exp2,2022.2.4,59.897670820961345,
1000,1,0.0,6.1,1,0,74,74,13,,,,,220.05074880004395,220.68457030004356,220.68457030004356,221.18562180001754,315,315,221.18562180001754,221.18562180001754,221.18562180001754,221.18562180001754,221.18562180001754,221.18562180001754,221.18562180001754,221.18562180001754,221.18562180001754,221.55212720000418,221.55212720000418,221.55212720000418,221.55212720000418,221.55212720000418,221.55212720000418,221.55212720000418,221.55212720000418,221.55212720000418,23,0,,,221.55212720000418,221.7542056000093,1000,221.7542056000093,1000,1000,1000,1000,1,num_2,0.5178493999992497,,27,13,2026-03-05_14h09.40.348,2026A_exp2,2022.2.4,59.897670820961345,
1000,1,6.1,4.9,0,0,75,75,51,,,,,222.30285050004022,222.95360050001182,222.95360050001182,223.45468760002404,45,315,223.45468760002404,223.45468760002404,223.45468760002404,223.45468760002404,223.45468760002404,223.45468760002404,223.45468760002404,223.45468760002404,223.45468760002404,223.8209681000444,223.8209681000444,223.8209681000444,223.8209681000444,223.8209681000444,223.8209681000444,223.8209681000444,223.8209681000444,223.8209681000444,22,1,[0.06840009998995811],[0.08341959997778758],223.8209681000444,224.02291240001796,1000,224.02291240001796,1000,1000,1000,1000,1,num_2,0.5129618999781087,,27,13,2026-03-05_14h09.40.348,2026A_exp2,2022.2.4,59.897670820961345,
1000,1,0.0,6.1,0,0,76,76,61,,,,,224.5550735000288,225.20590540004196,225.20590540004196,225.70685680001043,315,315,225.70685680001043,225.70685680001043,225.70685680001043,225.70685680001043,225.70685680001043,225.70685680001043,225.70685680001043,225.70685680001043,225.70685680001043,226.07314380002208,226.07314380002208,226.07314380002208,226.07314380002208,226.07314380002208,226.07314380002208,226.07314380002208,226.07314380002208,226.07314380002208,23,0,,,226.07314380002208,226.27348350000102,1000,226.27348350000102,1000,1000,1000,1000,1,num_2,0.38257969997357577,,27,13,2026-03-05_14h09.40.348,2026A_exp2,2022.2.4,59.897670820961345,
1000,1,4.9,3.7,1,0,77,77,78,,,,,226.6739836000488,227.32449150003958,227.32449150003958,227.80923220003024,45,315,227.80923220003024,227.80923220003024,227.80923220003024,227.80923220003024,227.80923220003024,227.80923220003024,227.80923220003024,227.80923220003024,227.80923220003024,228.1753823000472,228.1753823000472,228.1753823000472,228.1753823000472,228.1753823000472,228.1753823000472,228.1753823000472,228.1753823000472,228.1753823000472,23,0,,,228.1753823000472,228.3757511000149,1000,228.3757511000149,1000,1000,1000,1000,0,num_3,0.9516914000269026,,27,13,2026-03-05_14h09.40.348,2026A_exp2,2022.2.4,59.897670820961345,
0,0,6.1,0.0,0,0,78,78,41,,,,,229.3431844000006,229.99388130003354,229.99388130003354,230.4950283000362,45,315,230.4950283000362,230.4950283000362,230.4950283000362,230.4950283000362,230.4950283000362,230.4950283000362,230.4950283000362,230.4950283000362,230.4950283000362,230.86140850000083,230.86140850000083,230.86140850000083,230.86140850000083,230.86140850000083,230.86140850000083,230.86140850000083,230.86140850000083,230.86140850000083,23,0,,,230.86140850000083,231.06170680001378,0.0,231.06170680001378,0,0.0,0,1,1000,num_1,0.4902908999938518,,27,13,2026-03-05_14h09.40.348,2026A_exp2,2022.2.4,59.897670820961345,
1000,1,0.0,0.0,0,0,79,79,64,,,,,231.57890760002192,232.21278649999294,232.21278649999294,232.7138606000226,45,45,232.7138606000226,232.7138606000226,232.7138606000226,232.7138606000226,232.7138606000226,232.7138606000226,232.7138606000226,232.7138606000226,232.7138606000226,233.08027750003384,233.08027750003384,233.08027750003384,233.08027750003384,233.08027750003384,233.08027750003384,233.08027750003384,233.08027750003384,233.08027750003384,18,2,"[0.001208400004543364, 0.16703990002861246]","[0.06685330002801493, 0.20018320000963286]",233.08027750003384,233.2802927000448,1000,233.2802927000448,1000,1000,1000,1000,1,num_2,0.4310276000178419,,27,13,2026-03-05_14h09.40.348,2026A_exp2,2022.2.4,59.897670820961345,
1000,1,3.7,0.0,0,0,80,80,69,,,,,233.73087450000457,234.38166080001974,234.38166080001974,234.88278400001582,45,315,234.88278400001582,234.88278400001582,234.88278400001582,234.88278400001582,234.88278400001582,234.88278400001582,234.88278400001582,234.88278400001582,234.88278400001582,235.24919140001293,235.24919140001293,235.24919140001293,235.24919140001293,235.24919140001293,235.24919140001293,235.24919140001293,235.24919140001293,235.24919140001293,0,1,[0.00120449997484684],[0.3667492999811657],235.24919140001293,235.45100900001125,1000,235.45100900001125,1000,1000,1000,1000,0,num_3,0.4367305000196211,,27,13,2026-03-05_14h09.40.348,2026A_exp2,2022.2.4,59.897670820961345,
1000,1,0.0,4.9,0,0,81,81,0,,,,,235.9164635000052,236.56674060004298,236.56674060004298,237.06820920004975,315,45,237.06820920004975,237.06820920004975,237.06820920004975,237.06820920004975,237.06820920004975,237.06820920004975,237.06820920004975,237.06820920004975,237.06820920004975,237.43469820002792,237.43469820002792,237.43469820002792,237.43469820002792,237.43469820002792,237.43469820002792,237.43469820002792,237.43469820002792,237.43469820002792,2,2,"[0.0012302999966777861, 0.21706029999768361]","[0.20037970005068928, 0.3670908000203781]",237.43469820002792,237.63674010004615,1000,237.63674010004615,1000,1000,1000,1000,1,num_2,0.3468200000352226,,27,13,2026-03-05_14h09.40.348,2026A_exp2,2022.2.4,59.897670820961345,
1000,1,0.0,3.7,0,0,82,82,76,,,,,238.0017446000129,238.65263780002715,238.65263780002715,239.1535849000211,45,45,239.1535849000211,239.1535849000211,239.1535849000211,239.1535849000211,239.1535849000211,239.1535849000211,239.1535849000211,239.1535849000211,239.1535849000211,239.5034413000103,239.5034413000103,239.5034413000103,239.5034413000103,239.5034413000103,239.5034413000103,239.5034413000103,239.5034413000103,239.5034413000103,22,0,,,239.5034413000103,239.70379090000642,1000,239.72034030000214,1000,1000,1000,1000,1,num_2,0.39970599999651313,,27,13,2026-03-05_14h09.40.348,2026A_exp2,2022.2.4,59.897670820961345,
1,0,0.0,4.9,1,0,83,83,54,,,,,240.1374147000024,240.7881073000026,240.7881073000026,241.28914000000805,45,315,241.28914000000805,241.28914000000805,241.28914000000805,241.28914000000805,241.28914000000805,241.28914000000805,241.28914000000805,241.28914000000805,241.28914000000805,241.65560260001803,241.65560260001803,241.65560260001803,241.65560260001803,241.65560260001803,241.65560260001803,241.65560260001803,241.65560260001803,241.65560260001803,1,2,"[0.0012120000319555402, 0.08359540003584698]","[0.06685800000559539, 0.36724260001210496]",241.65560260001803,241.85585079999873,4.9,241.85585079999873,1,4.9,1,1,1000,num_4,0.6075971000245772,,27,13,2026-03-05_14h09.40.348,2026A_exp2,2022.2.4,59.897670820961345,
1000,1,0.0,3.7,1,0,84,84,88,,,,,242.48951210000087,243.14041110000107,243.14041110000107,243.6248973000329,315,45,243.6248973000329,243.6248973000329,243.6248973000329,243.6248973000329,243.6248973000329,243.6248973000329,243.6248973000329,243.6248973000329,243.6248973000329,243.99127440003213,243.99127440003213,243.99127440003213,243.99127440003213,243.99127440003213,243.99127440003213,243.99127440003213,243.99127440003213,243.99127440003213,4,2,"[0.050221199984662235, 0.08350760000757873]","[0.06677939998917282, 0.3670752000180073]",243.99127440003213,244.19310600002063,1000,244.19310600002063,1000,1000,1000,1000,1,num_2,0.5666867999825627,,27,13,2026-03-05_14h09.40.348,2026A_exp2,2022.2.4,59.897670820961345,
1,0,0.0,4.9,0,0,85,85,14,,,,,244.7752747000195,245.42589350003982,245.42589350003982,245.9271059000166,45,45,245.9271059000166,245.9271059000166,245.9271059000166,245.9271059000166,245.9271059000166,245.9271059000166,245.9271059000166,245.9271059000166,245.9271059000166,246.293453100021,246.293453100021,246.293453100021,246.293453100021,246.293453100021,246.293453100021,246.293453100021,246.293453100021,246.293453100021,1,2,"[0.001213699986692518, 0.0832628000061959]","[0.06676910002715886, 0.36690060002729297]",246.293453100021,246.4937717000139,0.0,246.4937717000139,0,0.0,0,1,1000,num_1,0.5619028999935836,,27,13,2026-03-05_14h09.40.348,2026A_exp2,2022.2.4,59.897670820961345,
1,0,4.9,0.0,0,0,86,86,66,,,,,247.07893190003233,247.7386245999951,247.7386245999951,248.2345517000067,45,315,248.2345517000067,248.2345517000067,248.2345517000067,248.2345517000067,248.2345517000067,248.2345517000067,248.2345517000067,248.2345517000067,248.2345517000067,248.59594240004662,248.59594240004662,248.59594240004662,248.59594240004662,248.59594240004662,248.59594240004662,248.59594240004662,248.59594240004662,248.59594240004662,19,2,"[0.10024830000475049, 0.14993240003241226]","[0.11671810003463179, 0.2003270999994129]",248.59594240004662,248.7998434000183,4.9,248.7998434000183,1,4.9,1,1,1000,num_4,0.7117959000170231,,27,13,2026-03-05_14h09.40.348,2026A_exp2,2022.2.4,59.897670820961345,
1000,1,4.9,0.0,1,0,87,87,12,,,,,249.5299683000194,250.18074690003414,250.18074690003414,250.66526939999312,315,315,250.66526939999312,250.66526939999312,250.66526939999312,250.66526939999312,250.66526939999312,250.66526939999312,250.66526939999312,250.66526939999312,250.66526939999312,251.0315038000117,251.0315038000117,251.0315038000117,251.0315038000117,251.0315038000117,251.0315038000117,251.0315038000117,251.0315038000117,251.0315038000117,22,1,[0.18378700001630932],[0.20043760002590716],251.0315038000117,251.23411980003584,1000,251.23411980003584,1000,1000,1000,1000,0,num_3,0.5333803999819793,,27,13,2026-03-05_14h09.40.348,2026A_exp2,2022.2.4,59.897670820961345,
1000,1,4.9,6.1,1,0,88,88,5,,,,,251.78225160000147,252.43304930004524,252.43304930004524,252.93402330001118,45,45,252.93402330001118,252.93402330001118,252.93402330001118,252.93402330001118,252.93402330001118,252.93402330001118,252.93402330001118,252.93402330001118,252.93402330001118,253.30062720004935,253.30062720004935,253.30062720004935,253.30062720004935,253.30062720004935,253.30062720004935,253.30062720004935,253.30062720004935,253.30062720004935,23,0,,,253.30062720004935,253.50260649999836,1000,253.50260649999836,1000,1000,1000,1000,1,num_2,0.4895329999853857,,27,13,2026-03-05_14h09.40.348,2026A_exp2,2022.2.4,59.897670820961345,
1,0,3.7,0.0,0,0,89,89,10,,,,,254.01782940002158,254.66856730001746,254.66856730001746,255.1697211000137,315,45,255.1697211000137,255.1697211000137,255.1697211000137,255.1697211000137,255.1697211000137,255.1697211000137,255.1697211000137,255.1697211000137,255.1697211000137,255.51928140001837,255.51928140001837,255.51928140001837,255.51928140001837,255.51928140001837,255.51928140001837,255.51928140001837,255.51928140001837,255.51928140001837,22,0,,,255.51928140001837,255.71968110004673,3.7,255.71968110004673,0,3.7,1,0,1000,num_1,0.4398237999994308,,27,13,2026-03-05_14h09.40.348,2026A_exp2,2022.2.4,59.897670820961345,
,,,,,,,,,,,,,,,,,,,,,,,,,,,,,,,,,,,,,,,,,,,,,,,,,,,,256.1958251000033,,,,,,,
