validity,detectorcomp,contrastCW,contrastCCW,precueCWorCCW,block_80trials.thisRepN,block_80trials.thisTrialN,block_80trials.thisN,block_80trials.thisIndex,etRecord.started,etRecord.stopped,text.started,text.stopped,text_4.started,text_4.stopped,text_6.started,text_6.stopped,oriCW,oriCCW,roi_2.started,grating_UR.started,grating_UL.started,grating_LR.started,grating_LL.started,noise_UR.started,noise_UL.started,noise_LR.started,noise_LL.started,roi_2.stopped,grating_UR.stopped,grating_UL.stopped,grating_LR.stopped,grating_LL.stopped,noise_UR.stopped,noise_UL.stopped,noise_LR.stopped,noise_LL.stopped,outframe,roi_2.numLooks,roi_2.timesOn,roi_2.timesOff,text_2.started,text_2.stopped,probedcontrast,key_resp.started,respdetect,relevantContrast,correctDetect,TorFdetect,respCWorCCW,key_resp.keys,key_resp.rt,feedback_display_.started,participantNo,blockNo,date,expName,psychopyVersion,frameRate,
1,0,0.0,6.1,0,0,0,0,34,3.6400044336915016e-05,3.6400044336915016e-05,118.95934190019034,120.961391299963,120.961391299963,121.59592670015991,121.59592670015991,122.11808479996398,45,315,122.11808479996398,122.11808479996398,122.11808479996398,122.11808479996398,122.11808479996398,122.11808479996398,122.11808479996398,122.11808479996398,122.11808479996398,122.46327390009537,122.46327390009537,122.46327390009537,122.46327390009537,122.46327390009537,122.46327390009537,122.46327390009537,122.46327390009537,122.46327390009537,23,0,,,122.46327390009537,122.66330390004441,0.0,122.66330390004441,0,0.0,0,1,1000,num_1,0.5525694997049868,,30,10,2026-03-12_11h04.23.491,2026A_exp2,2022.2.4,59.805786699370806,
1,0,4.9,0.0,1,0,1,1,8,,,,,123.24728060001507,123.89795460016467,123.89795460016467,124.38392390008084,315,315,124.38392390008084,124.38392390008084,124.38392390008084,124.38392390008084,124.38392390008084,124.38392390008084,124.38392390008084,124.38392390008084,124.38392390008084,124.74861200014129,124.74861200014129,124.74861200014129,124.74861200014129,124.74861200014129,124.74861200014129,124.74861200014129,124.74861200014129,124.74861200014129,0,1,[0.00266369991004467],[0.3656667999457568],124.74861200014129,124.94907690002583,0.0,124.94907690002583,0,0.0,0,1,1000,num_1,0.5856129999738187,,30,10,2026-03-12_11h04.23.491,2026A_exp2,2022.2.4,59.805786699370806,
1,0,0.0,3.7,1,0,2,2,66,,,,,125.56606930005364,126.21695260005072,126.21695260005072,126.70120100001805,315,45,126.70120100001805,126.70120100001805,126.70120100001805,126.70120100001805,126.70120100001805,126.70120100001805,126.70120100001805,126.70120100001805,126.70120100001805,127.06782660004683,127.06782660004683,127.06782660004683,127.06782660004683,127.06782660004683,127.06782660004683,127.06782660004683,127.06782660004683,127.06782660004683,0,1,[0.001276700058951974],[0.3672021001111716],127.06782660004683,127.26801690016873,3.7,127.26801690016873,1,3.7,1,1,1000,num_4,0.6828943998552859,,30,10,2026-03-12_11h04.23.491,2026A_exp2,2022.2.4,59.805786699370806,
1,0,3.7,0.0,1,0,3,3,19,,,,,127.96867640013807,128.6192560000345,128.6192560000345,129.10383630008437,315,45,129.10383630008437,129.10383630008437,129.10383630008437,129.10383630008437,129.10383630008437,129.10383630008437,129.10383630008437,129.10383630008437,129.10383630008437,129.4701968000736,129.4701968000736,129.4701968000736,129.4701968000736,129.4701968000736,129.4701968000736,129.4701968000736,129.4701968000736,129.4701968000736,0,1,[0.001317499903962016],[0.36707379994913936],129.4701968000736,129.67048790003173,0.0,129.67048790003173,0,0.0,0,1,1000,num_1,0.40108779980801046,,30,10,2026-03-12_11h04.23.491,2026A_exp2,2022.2.4,59.805786699370806,
1000,1,0.0,0.0,1,0,4,4,27,,,,,130.08743720012717,130.74511130014434,130.74511130014434,131.22249160008505,315,45,131.22249160008505,131.22249160008505,131.22249160008505,131.22249160008505,131.22249160008505,131.22249160008505,131.22249160008505,131.22249160008505,131.22249160008505,131.58902980014682,131.58902980014682,131.58902980014682,131.58902980014682,131.58902980014682,131.58902980014682,131.58902980014682,131.58902980014682,131.58902980014682,0,1,[0.0012709000147879124],[0.3672956000082195],131.58902980014682,131.79458460002206,1000,131.79458460002206,1000,1000,1000,1000,1,num_2,0.6126163997687399,,30,10,2026-03-12_11h04.23.491,2026A_exp2,2022.2.4,59.805786699370806,
1000,1,0.0,6.1,0,0,5,5,37,,,,,132.42323610000312,133.0738172000274,133.0738172000274,133.59097610018216,315,315,133.59097610018216,133.59097610018216,133.59097610018216,133.59097610018216,133.59097610018216,133.59097610018216,133.59097610018216,133.59097610018216,133.59097610018216,133.9413848000113,133.9413848000113,133.9413848000113,133.9413848000113,133.9413848000113,133.9413848000113,133.9413848000113,133.9413848000113,133.9413848000113,0,1,[0.004350600065663457],[0.36406280007213354],133.9413848000113,134.14346000016667,1000,134.14346000016667,1000,1000,1000,1000,0,num_3,0.7201894999016076,,30,10,2026-03-12_11h04.23.491,2026A_exp2,2022.2.4,59.805786699370806,
1000,1,3.7,4.9,1,0,6,6,46,,,,,134.89255290012807,135.5262538001407,135.5262538001407,136.04405460017733,315,315,136.04405460017733,136.04405460017733,136.04405460017733,136.04405460017733,136.04405460017733,136.04405460017733,136.04405460017733,136.04405460017733,136.04405460017733,136.39380019996315,136.39380019996315,136.39380019996315,136.39380019996315,136.39380019996315,136.39380019996315,136.39380019996315,136.39380019996315,136.39380019996315,0,1,[0.004129899898543954],[0.3638746999204159],136.39380019996315,136.61143480008468,1000,136.61143480008468,1000,1000,1000,1000,1,num_2,0.5151639999821782,,30,10,2026-03-12_11h04.23.491,2026A_exp2,2022.2.4,59.805786699370806,
1,0,0.0,4.9,0,0,7,7,4,,,,,137.14434380014427,137.79530310002156,137.79530310002156,138.2962988000363,45,315,138.2962988000363,138.2962988000363,138.2962988000363,138.2962988000363,138.2962988000363,138.2962988000363,138.2962988000363,138.2962988000363,138.2962988000363,138.64611740014516,138.64611740014516,138.64611740014516,138.64611740014516,138.64611740014516,138.64611740014516,138.64611740014516,138.64611740014516,138.64611740014516,0,1,[0.0015597001183778048],[0.35225980007089674],138.64611740014516,138.85052060009912,0.0,138.86314040003344,0,0.0,0,1,1000,num_1,0.5204441000241786,,30,10,2026-03-12_11h04.23.491,2026A_exp2,2022.2.4,59.805786699370806,
1,0,0.0,6.1,1,0,8,8,40,,,,,139.41342250001617,140.06481830007397,140.06481830007397,140.56529780011624,315,315,140.56529780011624,140.56529780011624,140.56529780011624,140.56529780011624,140.56529780011624,140.56529780011624,140.56529780011624,140.56529780011624,140.56529780011624,140.91517030005343,140.91517030005343,140.91517030005343,140.91517030005343,140.91517030005343,140.91517030005343,140.91517030005343,140.91517030005343,140.91517030005343,0,1,[0.0012281001545488834],[0.35062340018339455],140.91517030005343,141.1154410999734,6.1,141.1154410999734,1,6.1,1,1,1000,num_4,0.5800242000259459,,30,10,2026-03-12_11h04.23.491,2026A_exp2,2022.2.4,59.805786699370806,
1000,1,6.1,0.0,1,0,9,9,30,,,,,141.71585909998976,142.36650510015897,142.36650510015897,142.86448690015823,315,315,142.86448690015823,142.86448690015823,142.86448690015823,142.86448690015823,142.86448690015823,142.86448690015823,142.86448690015823,142.86448690015823,142.86448690015823,143.21734159998596,143.21734159998596,143.21734159998596,143.21734159998596,143.21734159998596,143.21734159998596,143.21734159998596,143.21734159998596,143.21734159998596,18,1,[0.004249899880960584],[0.08146020001731813],143.21734159998596,143.42019960004836,1000,143.42019960004836,1000,1000,1000,1000,0,num_3,0.41163039999082685,,30,10,2026-03-12_11h04.23.491,2026A_exp2,2022.2.4,59.805786699370806,
1000,1,0.0,0.0,0,0,10,10,74,,,,,143.85120180016384,144.5018683001399,144.5018683001399,145.00317270006053,315,45,145.00317270006053,145.00317270006053,145.00317270006053,145.00317270006053,145.00317270006053,145.00317270006053,145.00317270006053,145.00317270006053,145.00317270006053,145.352710200008,145.352710200008,145.352710200008,145.352710200008,145.352710200008,145.352710200008,145.352710200008,145.352710200008,145.352710200008,0,1,[0.0007646000012755394],[0.3510229999665171],145.352710200008,145.55534050008282,1000,145.55534050008282,1000,1000,1000,1000,1,num_2,0.6514881998300552,,30,10,2026-03-12_11h04.23.491,2026A_exp2,2022.2.4,59.805786699370806,
1000,1,6.1,0.0,0,0,11,11,82,,,,,146.23686720011756,146.887536900118,146.887536900118,147.38869690010324,45,315,147.38869690010324,147.38869690010324,147.38869690010324,147.38869690010324,147.38869690010324,147.38869690010324,147.38869690010324,147.38869690010324,147.38869690010324,147.7550483001396,147.7550483001396,147.7550483001396,147.7550483001396,147.7550483001396,147.7550483001396,147.7550483001396,147.7550483001396,147.7550483001396,0,1,[0.0012483999598771334],[0.3672031001187861],147.7550483001396,147.95729420008138,1000,147.95729420008138,1000,1000,1000,1000,0,num_3,0.44150889990851283,,30,10,2026-03-12_11h04.23.491,2026A_exp2,2022.2.4,59.805786699370806,
1000,1,0.0,6.1,1,0,12,12,88,,,,,148.42241150001064,149.07334000011906,149.07334000011906,149.57431769999675,315,315,149.57431769999675,149.57431769999675,149.57431769999675,149.57431769999675,149.57431769999675,149.57431769999675,149.57431769999675,149.57431769999675,149.57431769999675,149.94071460003033,149.94071460003033,149.94071460003033,149.94071460003033,149.94071460003033,149.94071460003033,149.94071460003033,149.94071460003033,149.94071460003033,18,3,"[0.001226699911057949, 0.0836217999458313, 0.16717269993387163]","[0.05021139979362488, 0.10030539985746145, 0.18354190001264215]",149.94071460003033,150.14094840013422,1000,150.14094840013422,1000,1000,1000,1000,1,num_2,0.5783947997260839,,30,10,2026-03-12_11h04.23.491,2026A_exp2,2022.2.4,59.805786699370806,
1000,1,4.9,0.0,1,0,13,13,72,,,,,150.74136860016733,151.40179160004482,151.40179160004482,151.8949548001401,45,315,151.8949548001401,151.8949548001401,151.8949548001401,151.8949548001401,151.8949548001401,151.8949548001401,151.8949548001401,151.8949548001401,151.8949548001401,152.25968959997408,152.25968959997408,152.25968959997408,152.25968959997408,152.25968959997408,152.25968959997408,152.25968959997408,152.25968959997408,152.25968959997408,21,1,[0.002016299869865179],[0.0334069998934865],152.25968959997408,152.46236820006743,1000,152.46236820006743,1000,1000,1000,1000,0,num_3,0.36896939971484244,,30,10,2026-03-12_11h04.23.491,2026A_exp2,2022.2.4,59.805786699370806,
1,0,0.0,4.9,1,0,14,14,53,,,,,152.84724989999086,153.50727579998784,153.50727579998784,154.00133140012622,45,45,154.00133140012622,154.00133140012622,154.00133140012622,154.00133140012622,154.00133140012622,154.00133140012622,154.00133140012622,154.00133140012622,154.00133140012622,154.36184340016916,154.36184340016916,154.36184340016916,154.36184340016916,154.36184340016916,154.36184340016916,154.36184340016916,154.36184340016916,154.36184340016916,0,1,[0.00278270011767745],[0.36583560006693006],154.36184340016916,154.56207320000976,4.9,154.56207320000976,1,4.9,1,1,1000,num_4,0.5728172999806702,,30,10,2026-03-12_11h04.23.491,2026A_exp2,2022.2.4,59.805786699370806,
1000,1,4.9,6.1,1,0,15,15,28,,,,,155.16252850019373,155.81310959998518,155.81310959998518,156.29774340009317,45,315,156.29774340009317,156.29774340009317,156.29774340009317,156.29774340009317,156.29774340009317,156.29774340009317,156.29774340009317,156.29774340009317,156.29774340009317,156.6640739000868,156.6640739000868,156.6640739000868,156.6640739000868,156.6640739000868,156.6640739000868,156.6640739000868,156.6640739000868,156.6640739000868,0,1,[0.0010798999574035406],[0.36748740007169545],156.6640739000868,156.8670196000021,1000,156.8670196000021,1000,1000,1000,1000,1,num_2,0.5084607999306172,,30,10,2026-03-12_11h04.23.491,2026A_exp2,2022.2.4,59.805786699370806,
1000,1,0.0,4.9,1,0,16,16,76,,,,,157.40043999999762,158.05846860003658,158.05846860003658,158.5498491001781,45,45,158.5498491001781,158.5498491001781,158.5498491001781,158.5498491001781,158.5498491001781,158.5498491001781,158.5498491001781,158.5498491001781,158.5498491001781,158.9163975000847,158.9163975000847,158.9163975000847,158.9163975000847,158.9163975000847,158.9163975000847,158.9163975000847,158.9163975000847,158.9163975000847,8,1,[0.0012634999584406614],[0.2503618998453021],158.9163975000847,159.11845219996758,1000,159.11845219996758,1000,1000,1000,1000,1,num_2,0.40952129987999797,,30,10,2026-03-12_11h04.23.491,2026A_exp2,2022.2.4,59.805786699370806,
1000,1,0.0,0.0,1,0,17,17,67,,,,,159.55014140019193,160.20091520017013,160.20091520017013,160.702023900114,45,315,160.702023900114,160.702023900114,160.702023900114,160.702023900114,160.702023900114,160.702023900114,160.702023900114,160.702023900114,160.702023900114,161.06840740004554,161.06840740004554,161.06840740004554,161.06840740004554,161.06840740004554,161.06840740004554,161.06840740004554,161.06840740004554,161.06840740004554,15,1,[0.0012447999324649572],[0.13364119990728796],161.06840740004554,161.29002090007998,1000,161.29002090007998,1000,1000,1000,1000,1,num_2,0.4455728998873383,,30,10,2026-03-12_11h04.23.491,2026A_exp2,2022.2.4,59.805786699370806,
1,0,0.0,0.0,0,0,18,18,63,,,,,161.75247830012813,162.4030087001156,162.4030087001156,162.90430789999664,315,315,162.90430789999664,162.90430789999664,162.90430789999664,162.90430789999664,162.90430789999664,162.90430789999664,162.90430789999664,162.90430789999664,162.90430789999664,163.2703895000741,163.2703895000741,163.2703895000741,163.2703895000741,163.2703895000741,163.2703895000741,163.2703895000741,163.2703895000741,163.2703895000741,18,1,[0.0013049000408500433],[0.08358939993195236],163.2703895000741,163.47099800012074,0.0,163.47099800012074,0,0.0,0,1,1000,num_1,0.3368233998771757,,30,10,2026-03-12_11h04.23.491,2026A_exp2,2022.2.4,59.805786699370806,
1000,1,0.0,0.0,0,0,19,19,86,,,,,163.8379305000417,164.48861260013655,164.48861260013655,164.972969800001,315,315,164.972969800001,164.972969800001,164.972969800001,164.972969800001,164.972969800001,164.972969800001,164.972969800001,164.972969800001,164.972969800001,165.33913840004243,165.33913840004243,165.33913840004243,165.33913840004243,165.33913840004243,165.33913840004243,165.33913840004243,165.33913840004243,165.33913840004243,1,1,[0.001228800043463707],[0.366941099986434],165.33913840004243,165.5565229000058,1000,165.5565229000058,1000,1000,1000,1000,1,num_2,0.41116009978577495,,30,10,2026-03-12_11h04.23.491,2026A_exp2,2022.2.4,59.805786699370806,
1000,1,3.7,0.0,0,0,20,20,2,,,,,165.9903665999882,166.62544149998575,166.62544149998575,167.12521690013818,45,315,167.12521690013818,167.12521690013818,167.12521690013818,167.12521690013818,167.12521690013818,167.12521690013818,167.12521690013818,167.12521690013818,167.12521690013818,167.49154220009223,167.49154220009223,167.49154220009223,167.49154220009223,167.49154220009223,167.49154220009223,167.49154220009223,167.49154220009223,167.49154220009223,23,0,,,167.49154220009223,167.7159937999677,1000,167.7159937999677,1000,1000,1000,1000,0,num_3,0.5557522997260094,,30,10,2026-03-12_11h04.23.491,2026A_exp2,2022.2.4,59.805786699370806,
0,0,0.0,0.0,1,0,21,21,89,,,,,168.2922451000195,168.94313490018249,168.94313490018249,169.4437320001889,315,315,169.4437320001889,169.4437320001889,169.4437320001889,169.4437320001889,169.4437320001889,169.4437320001889,169.4437320001889,169.4437320001889,169.4437320001889,169.81057400000282,169.81057400000282,169.81057400000282,169.81057400000282,169.81057400000282,169.81057400000282,169.81057400000282,169.81057400000282,169.81057400000282,11,2,"[0.0013876000884920359, 0.21804830012843013]","[0.17067270004190505, 0.2514355001039803]",169.81057400000282,170.01064670016058,0.0,170.01064670016058,0,0.0,0,1,1000,num_1,0.3561483998782933,,30,10,2026-03-12_11h04.23.491,2026A_exp2,2022.2.4,59.805786699370806,
1000,1,0.0,0.0,0,0,22,22,81,,,,,170.3943455000408,171.0451785000041,171.0451785000041,171.52944060019217,45,315,171.52944060019217,171.52944060019217,171.52944060019217,171.52944060019217,171.52944060019217,171.52944060019217,171.52944060019217,171.52944060019217,171.52944060019217,171.89595210016705,171.89595210016705,171.89595210016705,171.89595210016705,171.89595210016705,171.89595210016705,171.89595210016705,171.89595210016705,171.89595210016705,0,1,[0.0012437999248504639],[0.36713899997994304],171.89595210016705,172.09812720003538,1000,172.09812720003538,1000,1000,1000,1000,1,num_2,0.5247485998552293,,30,10,2026-03-12_11h04.23.491,2026A_exp2,2022.2.4,59.805786699370806,
1000,1,3.7,4.9,1,0,23,23,43,,,,,172.64693749998696,173.29746050015092,173.29746050015092,173.79866020008922,45,45,173.79866020008922,173.79866020008922,173.79866020008922,173.79866020008922,173.79866020008922,173.79866020008922,173.79866020008922,173.79866020008922,173.79866020008922,174.14837380009703,174.14837380009703,174.14837380009703,174.14837380009703,174.14837380009703,174.14837380009703,174.14837380009703,174.14837380009703,174.14837380009703,0,1,[0.0013127001002430916],[0.3502394000533968],174.14837380009703,174.35102130007,1000,174.35102130007,1000,1000,1000,1000,0,num_3,0.39970599999651313,,30,10,2026-03-12_11h04.23.491,2026A_exp2,2022.2.4,59.805786699370806,
1000,1,4.9,0.0,0,0,24,24,54,,,,,174.78224220010452,175.43279810016975,175.43279810016975,175.93404730013572,45,45,175.93404730013572,175.93404730013572,175.93404730013572,175.93404730013572,175.93404730013572,175.93404730013572,175.93404730013572,175.93404730013572,175.93404730013572,176.28371410002,176.28371410002,176.28371410002,176.28371410002,176.28371410002,176.28371410002,176.28371410002,176.28371410002,176.28371410002,17,1,[0.00126069993712008],[0.08283410011790693],176.28371410002,176.4862712000031,1000,176.50069919996895,1000,1000,1000,1000,0,num_3,0.45801759976893663,,30,10,2026-03-12_11h04.23.491,2026A_exp2,2022.2.4,59.805786699370806,
1000,1,0.0,0.0,0,0,25,25,83,,,,,176.98428570013493,177.6351142001804,177.6351142001804,178.14151450013742,45,45,178.14151450013742,178.14151450013742,178.14151450013742,178.14151450013742,178.14151450013742,178.14151450013742,178.14151450013742,178.14151450013742,178.14151450013742,178.50232640001923,178.50232640001923,178.50232640001923,178.50232640001923,178.50232640001923,178.50232640001923,178.50232640001923,178.50232640001923,178.50232640001923,0,1,[0.002650100039318204],[0.36723980004899204],178.50232640001923,178.7028195001185,1000,178.7028195001185,1000,1000,1000,1000,1,num_2,0.5679665999487042,,30,10,2026-03-12_11h04.23.491,2026A_exp2,2022.2.4,59.805786699370806,
1,0,3.7,0.0,0,0,26,26,65,,,,,179.2866246001795,179.93745950004086,179.93745950004086,180.44395490013994,315,45,180.44395490013994,180.44395490013994,180.44395490013994,180.44395490013994,180.44395490013994,180.44395490013994,180.44395490013994,180.44395490013994,180.44395490013994,180.8057525001932,180.8057525001932,180.8057525001932,180.8057525001932,180.8057525001932,180.8057525001932,180.8057525001932,180.8057525001932,180.8057525001932,0,1,[0.0027600000612437725],[0.3653543000109494],180.8057525001932,181.00505929999053,3.7,181.00505929999053,0,3.7,1,0,1000,num_1,0.6494101998396218,,30,10,2026-03-12_11h04.23.491,2026A_exp2,2022.2.4,59.805786699370806,
1000,1,0.0,0.0,0,0,27,27,17,,,,,181.67229770007543,182.3231224999763,182.3231224999763,182.80745250009932,45,45,182.80745250009932,182.80745250009932,182.80745250009932,182.80745250009932,182.80745250009932,182.80745250009932,182.80745250009932,182.80745250009932,182.80745250009932,183.1739151000511,183.1739151000511,183.1739151000511,183.1739151000511,183.1739151000511,183.1739151000511,183.1739151000511,183.1739151000511,183.1739151000511,0,1,[0.0013119000941514969],[0.36713450006209314],183.1739151000511,183.37638550018892,1000,183.37638550018892,1000,1000,1000,1000,1,num_2,0.59876269986853,,30,10,2026-03-12_11h04.23.491,2026A_exp2,2022.2.4,59.805786699370806,
1,0,3.7,0.0,1,0,28,28,50,,,,,183.99123250017874,184.6515875000041,184.6515875000041,185.1485493001528,45,45,185.1485493001528,185.1485493001528,185.1485493001528,185.1485493001528,185.1485493001528,185.1485493001528,185.1485493001528,185.1485493001528,185.1485493001528,185.4928470000159,185.4928470000159,185.4928470000159,185.4928470000159,185.4928470000159,185.4928470000159,185.4928470000159,185.4928470000159,185.4928470000159,0,1,[0.002656599972397089],[0.34905660012736917],185.4928470000159,185.69315659999847,0.0,185.7097815000452,1,0.0,0,0,1000,num_4,0.9457785997074097,,30,10,2026-03-12_11h04.23.491,2026A_exp2,2022.2.4,59.805786699370806,
1000,1,6.1,0.0,1,0,29,29,68,,,,,186.67718310002238,187.3279399999883,187.3279399999883,187.8292557001114,315,45,187.8292557001114,187.8292557001114,187.8292557001114,187.8292557001114,187.8292557001114,187.8292557001114,187.8292557001114,187.8292557001114,187.8292557001114,188.19560680002905,188.19560680002905,188.19560680002905,188.19560680002905,188.19560680002905,188.19560680002905,188.19560680002905,188.19560680002905,188.19560680002905,1,2,"[0.0012413000222295523, 0.06697519985027611]","[0.05037999991327524, 0.36740839993581176]",188.19560680002905,188.39840140007436,1000,188.39840140007436,1000,1000,1000,1000,0,num_3,0.9608732997439802,,30,10,2026-03-12_11h04.23.491,2026A_exp2,2022.2.4,59.805786699370806,
1000,1,3.7,0.0,0,0,30,30,57,,,,,189.3801588001661,190.0306568001397,190.0306568001397,190.53206900018267,45,315,190.53206900018267,190.53206900018267,190.53206900018267,190.53206900018267,190.53206900018267,190.53206900018267,190.53206900018267,190.53206900018267,190.53206900018267,190.898223800119,190.898223800119,190.898223800119,190.898223800119,190.898223800119,190.898223800119,190.898223800119,190.898223800119,190.898223800119,2,2,"[0.0012229999992996454, 0.16672929981723428]","[0.13333869981579483, 0.3665041998028755]",190.898223800119,191.1008411999792,1000,191.1008411999792,1000,1000,1000,1000,0,num_3,1.0738759997766465,,30,10,2026-03-12_11h04.23.491,2026A_exp2,2022.2.4,59.805786699370806,
1,0,6.1,4.9,0,0,31,31,24,,,,,192.19958190014586,192.85036529996432,192.85036529996432,193.35144390002824,315,315,193.35144390002824,193.35144390002824,193.35144390002824,193.35144390002824,193.35144390002824,193.35144390002824,193.35144390002824,193.35144390002824,193.35144390002824,193.7176427000668,193.7176427000668,193.7176427000668,193.7176427000668,193.7176427000668,193.7176427000668,193.7176427000668,193.7176427000668,193.7176427000668,23,0,,,193.7176427000668,193.91783690010197,6.1,193.91783690010197,1,6.1,1,1,1000,num_4,0.7781559997238219,,30,10,2026-03-12_11h04.23.491,2026A_exp2,2022.2.4,59.805786699370806,
0,0,0.0,3.7,1,0,32,32,10,,,,,194.7186724001076,195.36968470015563,195.36968470015563,195.8538569000084,45,315,195.8538569000084,195.8538569000084,195.8538569000084,195.8538569000084,195.8538569000084,195.8538569000084,195.8538569000084,195.8538569000084,195.8538569000084,196.22024450008757,196.22024450008757,196.22024450008757,196.22024450008757,196.22024450008757,196.22024450008757,196.22024450008757,196.22024450008757,196.22024450008757,0,1,[0.001235899981111288],[0.3670403999276459],196.22024450008757,196.42035390017554,0.0,196.42035390017554,0,0.0,0,1,1000,num_1,0.6589485998265445,,30,10,2026-03-12_11h04.23.491,2026A_exp2,2022.2.4,59.805786699370806,
1,0,0.0,0.0,0,0,33,33,1,,,,,197.1044256000314,197.7550113000907,197.7550113000907,198.23946189996786,315,45,198.23946189996786,198.23946189996786,198.23946189996786,198.23946189996786,198.23946189996786,198.23946189996786,198.23946189996786,198.23946189996786,198.23946189996786,198.60589480004273,198.60589480004273,198.60589480004273,198.60589480004273,198.60589480004273,198.60589480004273,198.60589480004273,198.60589480004273,198.60589480004273,23,0,,,198.60589480004273,198.80617530015297,0.0,198.80617530015297,0,0.0,0,1,1000,num_1,0.8734724998939782,,30,10,2026-03-12_11h04.23.491,2026A_exp2,2022.2.4,59.805786699370806,
1000,1,3.7,6.1,0,0,34,34,0,,,,,199.70699730003253,200.3577348999679,200.3577348999679,200.84227250004187,315,45,200.84227250004187,200.84227250004187,200.84227250004187,200.84227250004187,200.84227250004187,200.84227250004187,200.84227250004187,200.84227250004187,200.84227250004187,201.20864349999465,201.20864349999465,201.20864349999465,201.20864349999465,201.20864349999465,201.20864349999465,201.20864349999465,201.20864349999465,201.20864349999465,23,0,,,201.20864349999465,201.4110051000025,1000,201.4110051000025,1000,1000,1000,1000,1,num_2,0.5005536999087781,,30,10,2026-03-12_11h04.23.491,2026A_exp2,2022.2.4,59.805786699370806,
1000,1,0.0,0.0,1,0,35,35,33,,,,,201.94281540019438,202.5933481999673,202.5933481999673,203.09426480019465,315,45,203.09426480019465,203.09426480019465,203.09426480019465,203.09426480019465,203.09426480019465,203.09426480019465,203.09426480019465,203.09426480019465,203.09426480019465,203.4608845000621,203.4608845000621,203.4608845000621,203.4608845000621,203.4608845000621,203.4608845000621,203.4608845000621,203.4608845000621,203.4608845000621,23,0,,,203.4608845000621,203.66304540005513,1000,203.66304540005513,1000,1000,1000,1000,1,num_2,0.5121722996700555,,30,10,2026-03-12_11h04.23.491,2026A_exp2,2022.2.4,59.805786699370806,
1,0,6.1,0.0,0,0,36,36,70,,,,,204.1946911001578,204.85742310015485,204.85742310015485,205.3466545001138,45,45,205.3466545001138,205.3466545001138,205.3466545001138,205.3466545001138,205.3466545001138,205.3466545001138,205.3466545001138,205.3466545001138,205.3466545001138,205.71319120004773,205.71319120004773,205.71319120004773,205.71319120004773,205.71319120004773,205.71319120004773,205.71319120004773,205.71319120004773,205.71319120004773,18,2,"[0.0012423999141901731, 0.16681100009009242]","[0.06656290008686483, 0.18371180002577603]",205.71319120004773,205.91342800017446,6.1,205.91342800017446,1,6.1,1,1,1000,num_4,0.6375659999903291,,30,10,2026-03-12_11h04.23.491,2026A_exp2,2022.2.4,59.805786699370806,
1000,1,0.0,6.1,1,0,37,37,62,,,,,206.58048320002854,207.23123370017856,207.23123370017856,207.71577070001513,315,45,207.71577070001513,207.71577070001513,207.71577070001513,207.71577070001513,207.71577070001513,207.71577070001513,207.71577070001513,207.71577070001513,207.71577070001513,208.0821550001856,208.0821550001856,208.0821550001856,208.0821550001856,208.0821550001856,208.0821550001856,208.0821550001856,208.0821550001856,208.0821550001856,15,1,[0.0011807999107986689],[0.13360299984924495],208.0821550001856,208.28438850003295,1000,208.28438850003295,1000,1000,1000,1000,1,num_2,0.4505446997936815,,30,10,2026-03-12_11h04.23.491,2026A_exp2,2022.2.4,59.805786699370806,
1000,1,6.1,0.0,0,0,38,38,14,,,,,208.76627949997783,209.41691350005567,209.41691350005567,209.91786230006255,315,45,209.91786230006255,209.91786230006255,209.91786230006255,209.91786230006255,209.91786230006255,209.91786230006255,209.91786230006255,209.91786230006255,209.91786230006255,210.26772240013815,210.26772240013815,210.26772240013815,210.26772240013815,210.26772240013815,210.26772240013815,210.26772240013815,210.26772240013815,210.26772240013815,0,1,[0.0013015000149607658],[0.350388300139457],210.26772240013815,210.47014220012352,1000,210.47014220012352,1000,1000,1000,1000,0,num_3,0.544828999787569,,30,10,2026-03-12_11h04.23.491,2026A_exp2,2022.2.4,59.805786699370806,
1000,1,0.0,6.1,0,0,39,39,9,,,,,211.0352070000954,211.68576820008457,211.68576820008457,212.17022319999523,45,315,212.17022319999523,212.17022319999523,212.17022319999523,212.17022319999523,212.17022319999523,212.17022319999523,212.17022319999523,212.17022319999523,212.17022319999523,212.53662850009277,212.53662850009277,212.53662850009277,212.53662850009277,212.53662850009277,212.53662850009277,212.53662850009277,212.53662850009277,212.53662850009277,0,1,[0.001295299967750907],[0.366969799855724],212.53662850009277,212.73895999998786,1000,212.73895999998786,1000,1000,1000,1000,1,num_2,0.45213619992136955,,30,10,2026-03-12_11h04.23.491,2026A_exp2,2022.2.4,59.805786699370806,
1,0,4.9,0.0,1,0,40,40,38,,,,,213.2206335000228,213.87134509999305,213.87134509999305,214.3723556001205,315,315,214.3723556001205,214.3723556001205,214.3723556001205,214.3723556001205,214.3723556001205,214.3723556001205,214.3723556001205,214.3723556001205,214.3723556001205,214.7387586000841,214.7387586000841,214.7387586000841,214.7387586000841,214.7387586000841,214.7387586000841,214.7387586000841,214.7387586000841,214.7387586000841,1,1,[0.0012855001259595156],[0.36716780019924045],214.7387586000841,214.93903710017912,0.0,214.93903710017912,0,0.0,0,1,1000,num_1,0.6277066997718066,,30,10,2026-03-12_11h04.23.491,2026A_exp2,2022.2.4,59.805786699370806,
1,0,0.0,0.0,1,0,41,41,6,,,,,215.58959320001304,216.24028350017034,216.24028350017034,216.7247552999761,315,315,216.7247552999761,216.7247552999761,216.7247552999761,216.7247552999761,216.7247552999761,216.7247552999761,216.7247552999761,216.7247552999761,216.7247552999761,217.0910223000683,217.0910223000683,217.0910223000683,217.0910223000683,217.0910223000683,217.0910223000683,217.0910223000683,217.0910223000683,217.0910223000683,18,1,[0.0014448000583797693],[0.0831385999917984],217.0910223000683,217.2913820000831,0.0,217.2913820000831,0,0.0,0,1,1000,num_1,0.32312479987740517,,30,10,2026-03-12_11h04.23.491,2026A_exp2,2022.2.4,59.805786699370806,
1,0,0.0,3.7,0,0,42,42,35,,,,,217.64161460008472,218.2923634001054,218.2923634001054,218.77683490002528,315,45,218.77683490002528,218.77683490002528,218.77683490002528,218.77683490002528,218.77683490002528,218.77683490002528,218.77683490002528,218.77683490002528,218.77683490002528,219.14326030015945,219.14326030015945,219.14326030015945,219.14326030015945,219.14326030015945,219.14326030015945,219.14326030015945,219.14326030015945,219.14326030015945,8,1,[0.03348410013131797],[0.28363830014131963],219.14326030015945,219.34345060004853,0.0,219.34345060004853,0,0.0,0,1,1000,num_1,0.7838882997166365,,30,10,2026-03-12_11h04.23.491,2026A_exp2,2022.2.4,59.805786699370806,
1000,1,0.0,3.7,0,0,43,43,51,,,,,220.14403049997054,220.794883799972,220.794883799972,221.29600169998594,315,45,221.29600169998594,221.29600169998594,221.29600169998594,221.29600169998594,221.29600169998594,221.29600169998594,221.29600169998594,221.29600169998594,221.29600169998594,221.64578190003522,221.64578190003522,221.64578190003522,221.64578190003522,221.64578190003522,221.64578190003522,221.64578190003522,221.64578190003522,221.64578190003522,4,2,"[0.0009743000846356153, 0.20064419996924698]","[0.1337745999917388, 0.35104560013860464]",221.64578190003522,221.84836399997585,1000,221.84836399997585,1000,1000,1000,1000,1,num_2,0.4392624997999519,,30,10,2026-03-12_11h04.23.491,2026A_exp2,2022.2.4,59.805786699370806,
1000,1,0.0,0.0,0,0,44,44,64,,,,,222.31303100008518,222.96378340013325,222.96378340013325,223.4650038999971,315,315,223.4650038999971,223.4650038999971,223.4650038999971,223.4650038999971,223.4650038999971,223.4650038999971,223.4650038999971,223.4650038999971,223.4650038999971,223.83122920012102,223.83122920012102,223.83122920012102,223.83122920012102,223.83122920012102,223.83122920012102,223.83122920012102,223.83122920012102,223.83122920012102,23,0,,,223.83122920012102,224.03380460012704,1000,224.03380460012704,1000,1000,1000,1000,1,num_2,0.5331278999801725,,30,10,2026-03-12_11h04.23.491,2026A_exp2,2022.2.4,59.805786699370806,
1000,1,4.9,6.1,0,0,45,45,20,,,,,224.58166939998046,225.2327003001701,225.2327003001701,225.73384730005637,315,315,225.73384730005637,225.73384730005637,225.73384730005637,225.73384730005637,225.73384730005637,225.73384730005637,225.73384730005637,225.73384730005637,225.73384730005637,226.10016450006515,226.10016450006515,226.10016450006515,226.10016450006515,226.10016450006515,226.10016450006515,226.10016450006515,226.10016450006515,226.10016450006515,0,1,[0.0011460001114755869],[0.3672667001374066],226.10016450006515,226.3024612001609,1000,226.3024612001609,1000,1000,1000,1000,1,num_2,0.49608989991247654,,30,10,2026-03-12_11h04.23.491,2026A_exp2,2022.2.4,59.805786699370806,
1,0,3.7,3.7,0,0,46,46,13,,,,,226.81746540009044,227.46803990006447,227.46803990006447,227.96927280002274,315,45,227.96927280002274,227.96927280002274,227.96927280002274,227.96927280002274,227.96927280002274,227.96927280002274,227.96927280002274,227.96927280002274,227.96927280002274,228.33575500012375,228.33575500012375,228.33575500012375,228.33575500012375,228.33575500012375,228.33575500012375,228.33575500012375,228.33575500012375,228.33575500012375,0,1,[0.0012636000756174326],[0.36719060014002025],228.33575500012375,228.53600160009228,3.7,228.53600160009228,0,3.7,1,0,1000,num_1,0.5757885999046266,,30,10,2026-03-12_11h04.23.491,2026A_exp2,2022.2.4,59.805786699370806,
1,0,6.1,0.0,0,0,47,47,56,,,,,229.13655280019157,229.78736219997518,229.78736219997518,230.27177120000124,315,315,230.27177120000124,230.27177120000124,230.27177120000124,230.27177120000124,230.27177120000124,230.27177120000124,230.27177120000124,230.27177120000124,230.27177120000124,230.63806980010122,230.63806980010122,230.63806980010122,230.63806980010122,230.63806980010122,230.63806980010122,230.63806980010122,230.63806980010122,230.63806980010122,23,0,,,230.63806980010122,230.83830370008945,6.1,230.83830370008945,1,6.1,1,1,1000,num_4,0.8572925999760628,,30,10,2026-03-12_11h04.23.491,2026A_exp2,2022.2.4,59.805786699370806,
0,0,0.0,0.0,1,0,48,48,71,,,,,231.72220670012757,232.38089879998006,232.38089879998006,232.8614699000027,45,315,232.8614699000027,232.8614699000027,232.8614699000027,232.8614699000027,232.8614699000027,232.8614699000027,232.8614699000027,232.8614699000027,232.8614699000027,233.22411620011553,233.22411620011553,233.22411620011553,233.22411620011553,233.22411620011553,233.22411620011553,233.22411620011553,233.22411620011553,233.22411620011553,23,0,,,233.22411620011553,233.42745750001632,0.0,233.42745750001632,0,0.0,0,1,1000,num_1,0.3476779998745769,,30,10,2026-03-12_11h04.23.491,2026A_exp2,2022.2.4,59.805786699370806,
0,0,0.0,6.1,0,0,49,49,7,,,,,233.79112339997664,234.44192350003868,234.44192350003868,234.92621120018885,45,45,234.92621120018885,234.92621120018885,234.92621120018885,234.92621120018885,234.92621120018885,234.92621120018885,234.92621120018885,234.92621120018885,234.92621120018885,235.29273460013792,235.29273460013792,235.29273460013792,235.29273460013792,235.29273460013792,235.29273460013792,235.29273460013792,235.29273460013792,235.29273460013792,0,1,[0.001258899923413992],[0.36708869994618],235.29273460013792,235.49289060011506,6.1,235.49289060011506,1,6.1,1,1,1000,num_4,0.33078540000133216,,30,10,2026-03-12_11h04.23.491,2026A_exp2,2022.2.4,59.805786699370806,
1000,1,0.0,4.9,1,0,50,50,59,,,,,235.84324770001695,236.49379990017042,236.49379990017042,236.9782110999804,315,315,236.9782110999804,236.9782110999804,236.9782110999804,236.9782110999804,236.9782110999804,236.9782110999804,236.9782110999804,236.9782110999804,236.9782110999804,237.34476330014877,237.34476330014877,237.34476330014877,237.34476330014877,237.34476330014877,237.34476330014877,237.34476330014877,237.34476330014877,237.34476330014877,23,0,,,237.34476330014877,237.54694580007344,1000,237.54694580007344,1000,1000,1000,1000,1,num_2,1.396076199831441,,30,10,2026-03-12_11h04.23.491,2026A_exp2,2022.2.4,59.805786699370806,
1,0,3.7,0.0,0,0,51,51,42,,,,,238.9629993000999,239.61368730012327,239.61368730012327,240.11483740014955,315,45,240.11483740014955,240.11483740014955,240.11483740014955,240.11483740014955,240.11483740014955,240.11483740014955,240.11483740014955,240.11483740014955,240.11483740014955,240.48090630001388,240.48090630001388,240.48090630001388,240.48090630001388,240.48090630001388,240.48090630001388,240.48090630001388,240.48090630001388,240.48090630001388,2,2,"[0.0010381999891251326, 0.3671420000027865]","[0.3339370000176132, 0.3671472000423819]",240.48090630001388,240.68111580004916,3.7,240.68111580004916,0,3.7,1,0,1000,num_1,0.36603569984436035,,30,10,2026-03-12_11h04.23.491,2026A_exp2,2022.2.4,59.805786699370806,
1000,1,0.0,4.9,1,0,52,52,31,,,,,241.06529090018012,241.7180864000693,241.7180864000693,242.21668010018766,45,45,242.21668010018766,242.21668010018766,242.21668010018766,242.21668010018766,242.21668010018766,242.21668010018766,242.21668010018766,242.21668010018766,242.21668010018766,242.566684700083,242.566684700083,242.566684700083,242.566684700083,242.566684700083,242.566684700083,242.566684700083,242.566684700083,242.566684700083,23,0,,,242.566684700083,242.77118810010143,1000,242.77118810010143,1000,1000,1000,1000,1,num_2,0.6833778000436723,,30,10,2026-03-12_11h04.23.491,2026A_exp2,2022.2.4,59.805786699370806,
1,0,4.9,0.0,0,0,53,53,58,,,,,243.48408249998465,244.1348650001455,244.1348650001455,244.63621170003898,45,315,244.63621170003898,244.63621170003898,244.63621170003898,244.63621170003898,244.63621170003898,244.63621170003898,244.63621170003898,244.63621170003898,244.63621170003898,245.00247199996375,245.00247199996375,245.00247199996375,245.00247199996375,245.00247199996375,245.00247199996375,245.00247199996375,245.00247199996375,245.00247199996375,23,0,,,245.00247199996375,245.20268400013447,4.9,245.20268400013447,1,4.9,1,1,1000,num_4,0.9479678999632597,,30,10,2026-03-12_11h04.23.491,2026A_exp2,2022.2.4,59.805786699370806,
1000,1,0.0,0.0,0,0,54,54,15,,,,,246.17025660001673,246.81190300011076,246.81190300011076,247.31158630014397,45,45,247.31158630014397,247.31158630014397,247.31158630014397,247.31158630014397,247.31158630014397,247.31158630014397,247.31158630014397,247.31158630014397,247.31158630014397,247.67178640002385,247.67178640002385,247.67178640002385,247.67178640002385,247.67178640002385,247.67178640002385,247.67178640002385,247.67178640002385,247.67178640002385,17,1,[0.0025753998197615147],[0.10033019981347024],247.67178640002385,247.88894350011833,1000,247.88894350011833,1000,1000,1000,1000,1,num_2,0.5021214997395873,,30,10,2026-03-12_11h04.23.491,2026A_exp2,2022.2.4,59.805786699370806,
1000,1,0.0,0.0,1,0,55,55,12,,,,,248.42265080008656,249.07323450013064,249.07323450013064,249.57436500000767,45,45,249.57436500000767,249.57436500000767,249.57436500000767,249.57436500000767,249.57436500000767,249.57436500000767,249.57436500000767,249.57436500000767,249.57436500000767,249.9405929001514,249.9405929001514,249.9405929001514,249.9405929001514,249.9405929001514,249.9405929001514,249.9405929001514,249.9405929001514,249.9405929001514,23,0,,,249.9405929001514,250.14292929996736,1000,250.14292929996736,1000,1000,1000,1000,1,num_2,0.5204364999663085,,30,10,2026-03-12_11h04.23.491,2026A_exp2,2022.2.4,59.805786699370806,
1,0,0.0,6.1,0,0,56,56,60,,,,,250.6912883000914,251.34224130003713,251.34224130003713,251.8433244000189,315,45,251.8433244000189,251.8433244000189,251.8433244000189,251.8433244000189,251.8433244000189,251.8433244000189,251.8433244000189,251.8433244000189,251.8433244000189,252.20965930004604,252.20965930004604,252.20965930004604,252.20965930004604,252.20965930004604,252.20965930004604,252.20965930004604,252.20965930004604,252.20965930004604,23,0,,,252.20965930004604,252.40983500005677,0.0,252.40983500005677,0,0.0,0,1,1000,num_1,0.6625407999381423,,30,10,2026-03-12_11h04.23.491,2026A_exp2,2022.2.4,59.805786699370806,
1000,1,4.9,0.0,1,0,57,57,5,,,,,253.09405270009302,253.74468210013583,253.74468210013583,254.257149200188,45,315,254.257149200188,254.257149200188,254.257149200188,254.257149200188,254.257149200188,254.257149200188,254.257149200188,254.257149200188,254.257149200188,254.6120619000867,254.6120619000867,254.6120619000867,254.6120619000867,254.6120619000867,254.6120619000867,254.6120619000867,254.6120619000867,254.6120619000867,23,0,,,254.6120619000867,254.8148718001321,1000,254.8148718001321,1000,1000,1000,1000,0,num_3,0.6966200999449939,,30,10,2026-03-12_11h04.23.491,2026A_exp2,2022.2.4,59.805786699370806,
1000,1,4.9,3.7,0,0,58,58,32,,,,,255.52961480012164,256.18033630005084,256.18033630005084,256.6812707001809,315,45,256.6812707001809,256.6812707001809,256.6812707001809,256.6812707001809,256.6812707001809,256.6812707001809,256.6812707001809,256.6812707001809,256.6812707001809,257.04781999997795,257.04781999997795,257.04781999997795,257.04781999997795,257.04781999997795,257.04781999997795,257.04781999997795,257.04781999997795,257.04781999997795,23,0,,,257.04781999997795,257.2500789000187,1000,257.2500789000187,1000,1000,1000,1000,1,num_2,0.3886275999248028,,30,10,2026-03-12_11h04.23.491,2026A_exp2,2022.2.4,59.805786699370806,
1000,1,6.1,0.0,1,0,59,59,75,,,,,257.66496150009334,258.3156118001789,258.3156118001789,258.8168629000429,315,315,258.8168629000429,258.8168629000429,258.8168629000429,258.8168629000429,258.8168629000429,258.8168629000429,258.8168629000429,258.8168629000429,258.8168629000429,259.1832590000704,259.1832590000704,259.1832590000704,259.1832590000704,259.1832590000704,259.1832590000704,259.1832590000704,259.1832590000704,259.1832590000704,23,0,,,259.1832590000704,259.38580230018124,1000,259.38580230018124,1000,1000,1000,1000,0,num_3,0.6459105000831187,,30,10,2026-03-12_11h04.23.491,2026A_exp2,2022.2.4,59.805786699370806,
1000,1,4.9,0.0,0,0,60,60,26,,,,,260.05067400005646,260.70144450012594,260.70144450012594,261.202655200148,45,45,261.202655200148,261.202655200148,261.202655200148,261.202655200148,261.202655200148,261.202655200148,261.202655200148,261.202655200148,261.202655200148,261.5690240999684,261.5690240999684,261.5690240999684,261.5690240999684,261.5690240999684,261.5690240999684,261.5690240999684,261.5690240999684,261.5690240999684,23,0,,,261.5690240999684,261.77096890006214,1000,261.77096890006214,1000,1000,1000,1000,0,num_3,0.46014299988746643,,30,10,2026-03-12_11h04.23.491,2026A_exp2,2022.2.4,59.805786699370806,
1,0,6.1,4.9,0,0,61,61,39,,,,,262.25280370004475,262.9037204000633,262.9037204000633,263.4048284001183,45,45,263.4048284001183,263.4048284001183,263.4048284001183,263.4048284001183,263.4048284001183,263.4048284001183,263.4048284001183,263.4048284001183,263.4048284001183,263.7545011001639,263.7545011001639,263.7545011001639,263.7545011001639,263.7545011001639,263.7545011001639,263.7545011001639,263.7545011001639,263.7545011001639,22,0,,,263.7545011001639,263.95475800009444,6.1,263.95475800009444,1,6.1,1,1,1000,num_4,0.6130925000179559,,30,10,2026-03-12_11h04.23.491,2026A_exp2,2022.2.4,59.805786699370806,
1000,1,6.1,0.0,1,0,62,62,16,,,,,264.58857770008035,265.2394249001518,265.2394249001518,265.72367340000346,45,45,265.72367340000346,265.72367340000346,265.72367340000346,265.72367340000346,265.72367340000346,265.72367340000346,265.72367340000346,265.72367340000346,265.72367340000346,266.0901626001578,266.0901626001578,266.0901626001578,266.0901626001578,266.0901626001578,266.0901626001578,266.0901626001578,266.0901626001578,266.0901626001578,23,0,,,266.0901626001578,266.2927062001545,1000,266.2927062001545,1000,1000,1000,1000,0,num_3,0.5303429998457432,,30,10,2026-03-12_11h04.23.491,2026A_exp2,2022.2.4,59.805786699370806,
1000,1,4.9,0.0,1,0,63,63,22,,,,,266.8409858001396,267.49153650016524,267.49153650016524,267.97593650012277,315,315,267.97593650012277,267.97593650012277,267.97593650012277,267.97593650012277,267.97593650012277,267.97593650012277,267.97593650012277,267.97593650012277,267.97593650012277,268.3423165001441,268.3423165001441,268.3423165001441,268.3423165001441,268.3423165001441,268.3423165001441,268.3423165001441,268.3423165001441,268.3423165001441,6,5,"[0.0012292000465095043, 0.11685200012288988, 0.15027620014734566, 0.31703540007583797, 0.3670992001425475]","[0.10026720003224909, 0.1334743001498282, 0.2670556001830846, 0.35048540006391704, 0.3671047000680119]",268.3423165001441,268.5450689001009,1000,268.5450689001009,1000,1000,1000,1000,0,num_3,0.469863299978897,,30,10,2026-03-12_11h04.23.491,2026A_exp2,2022.2.4,59.805786699370806,
0,0,6.1,3.7,1,0,64,64,49,,,,,269.0437185000628,269.6938608000055,269.6938608000055,270.1949265000876,45,315,270.1949265000876,270.1949265000876,270.1949265000876,270.1949265000876,270.1949265000876,270.1949265000876,270.1949265000876,270.1949265000876,270.1949265000876,270.5613381001167,270.5613381001167,270.5613381001167,270.5613381001167,270.5613381001167,270.5613381001167,270.5613381001167,270.5613381001167,270.5613381001167,23,0,,,270.5613381001167,270.7615519000683,6.1,270.7615519000683,1,6.1,1,1,1000,num_4,0.6932000000961125,,30,10,2026-03-12_11h04.23.491,2026A_exp2,2022.2.4,59.805786699370806,
1,0,0.0,6.1,1,0,65,65,52,,,,,271.4788824999705,272.12959800008684,272.12959800008684,272.63070890004747,315,315,272.63070890004747,272.63070890004747,272.63070890004747,272.63070890004747,272.63070890004747,272.63070890004747,272.63070890004747,272.63070890004747,272.63070890004747,272.9805362999905,272.9805362999905,272.9805362999905,272.9805362999905,272.9805362999905,272.9805362999905,272.9805362999905,272.9805362999905,272.9805362999905,20,1,[0.0007189998868852854],[0.03348499978892505],272.9805362999905,273.1808272001799,6.1,273.1808272001799,1,6.1,1,1,1000,num_4,0.4182902998290956,,30,10,2026-03-12_11h04.23.491,2026A_exp2,2022.2.4,59.805786699370806,
1,0,0.0,3.7,1,0,66,66,41,,,,,273.61517220013775,274.2690471999813,274.2690471999813,274.77292440016754,45,45,274.77292440016754,274.77292440016754,274.77292440016754,274.77292440016754,274.77292440016754,274.77292440016754,274.77292440016754,274.77292440016754,274.77292440016754,275.13247680012137,275.13247680012137,275.13247680012137,275.13247680012137,275.13247680012137,275.13247680012137,275.13247680012137,275.13247680012137,275.13247680012137,23,0,,,275.13247680012137,275.33271910017356,3.7,275.33271910017356,1,3.7,1,1,1000,num_4,0.49803779972717166,,30,10,2026-03-12_11h04.23.491,2026A_exp2,2022.2.4,59.805786699370806,
1,0,3.7,6.1,0,0,67,67,55,,,,,275.8496386001352,276.48387630004436,276.48387630004436,276.9849529999774,45,315,276.9849529999774,276.9849529999774,276.9849529999774,276.9849529999774,276.9849529999774,276.9849529999774,276.9849529999774,276.9849529999774,276.9849529999774,277.3513061001431,277.3513061001431,277.3513061001431,277.3513061001431,277.3513061001431,277.3513061001431,277.3513061001431,277.3513061001431,277.3513061001431,23,0,,,277.3513061001431,277.55161600001156,3.7,277.55161600001156,0,3.7,1,0,1000,num_1,0.6156393997371197,,30,10,2026-03-12_11h04.23.491,2026A_exp2,2022.2.4,59.805786699370806,
1,0,0.0,0.0,1,0,68,68,87,,,,,278.1854434001725,278.83633710001595,278.83633710001595,279.32059979997575,45,45,279.32059979997575,279.32059979997575,279.32059979997575,279.32059979997575,279.32059979997575,279.32059979997575,279.32059979997575,279.32059979997575,279.32059979997575,279.6871235000435,279.6871235000435,279.6871235000435,279.6871235000435,279.6871235000435,279.6871235000435,279.6871235000435,279.6871235000435,279.6871235000435,23,0,,,279.6871235000435,279.88723140000366,0.0,279.88723140000366,0,0.0,0,1,1000,num_1,0.32802579971030354,,30,10,2026-03-12_11h04.23.491,2026A_exp2,2022.2.4,59.805786699370806,
1,0,0.0,3.7,0,0,69,69,61,,,,,280.23756909999065,280.8882236999925,280.8882236999925,281.372678300133,45,45,281.372678300133,281.372678300133,281.372678300133,281.372678300133,281.372678300133,281.372678300133,281.372678300133,281.372678300133,281.372678300133,281.7391636001412,281.7391636001412,281.7391636001412,281.7391636001412,281.7391636001412,281.7391636001412,281.7391636001412,281.7391636001412,281.7391636001412,23,0,,,281.7391636001412,281.9393085001502,0.0,281.9393085001502,0,0.0,0,1,1000,num_1,0.48378989985212684,,30,10,2026-03-12_11h04.23.491,2026A_exp2,2022.2.4,59.805786699370806,
1000,1,3.7,4.9,1,0,70,70,44,,,,,282.4397385001648,283.0905623000581,283.0905623000581,283.59153570001945,45,315,283.59153570001945,283.59153570001945,283.59153570001945,283.59153570001945,283.59153570001945,283.59153570001945,283.59153570001945,283.59153570001945,283.59153570001945,283.94129470014013,283.94129470014013,283.94129470014013,283.94129470014013,283.94129470014013,283.94129470014013,283.94129470014013,283.94129470014013,283.94129470014013,21,1,[0.0007698999252170324],[0.017228499986231327],283.94129470014013,284.14382200012915,1000,284.14382200012915,1000,1000,1000,1000,1,num_2,0.5762013997882605,,30,10,2026-03-12_11h04.23.491,2026A_exp2,2022.2.4,59.805786699370806,
1000,1,0.0,3.7,1,0,71,71,47,,,,,284.74191680015065,285.3928261999972,285.3928261999972,285.89386259997264,315,45,285.89386259997264,285.89386259997264,285.89386259997264,285.89386259997264,285.89386259997264,285.89386259997264,285.89386259997264,285.89386259997264,285.89386259997264,286.26036450010724,286.26036450010724,286.26036450010724,286.26036450010724,286.26036450010724,286.26036450010724,286.26036450010724,286.26036450010724,286.26036450010724,23,0,,,286.26036450010724,286.4627755000256,1000,286.4627755000256,1000,1000,1000,1000,1,num_2,0.607974800048396,,30,10,2026-03-12_11h04.23.491,2026A_exp2,2022.2.4,59.805786699370806,
1000,1,3.7,6.1,0,0,72,72,84,,,,,287.09467969997786,287.7453143000603,287.7453143000603,288.22960630012676,315,45,288.22960630012676,288.22960630012676,288.22960630012676,288.22960630012676,288.22960630012676,288.22960630012676,288.22960630012676,288.22960630012676,288.22960630012676,288.59605200006627,288.59605200006627,288.59605200006627,288.59605200006627,288.59605200006627,288.59605200006627,288.59605200006627,288.59605200006627,288.59605200006627,23,0,,,288.59605200006627,288.7986879001837,1000,288.7986879001837,1000,1000,1000,1000,1,num_2,0.5205869998317212,,30,10,2026-03-12_11h04.23.491,2026A_exp2,2022.2.4,59.805786699370806,
1,0,0.0,6.1,0,0,73,73,11,,,,,289.34671650012024,289.9973649000749,289.9973649000749,290.498514899984,315,45,290.498514899984,290.498514899984,290.498514899984,290.498514899984,290.498514899984,290.498514899984,290.498514899984,290.498514899984,290.498514899984,290.8649188000709,290.8649188000709,290.8649188000709,290.8649188000709,290.8649188000709,290.8649188000709,290.8649188000709,290.8649188000709,290.8649188000709,3,1,[0.0012817000970244408],[0.33383310004137456],290.8649188000709,291.06497410009615,0.0,291.06497410009615,0,0.0,0,1,1000,num_1,0.5267640000674874,,30,10,2026-03-12_11h04.23.491,2026A_exp2,2022.2.4,59.805786699370806,
1,0,0.0,4.9,1,0,74,74,21,,,,,291.61547409999184,292.2664082001429,292.2664082001429,292.7674324000254,45,315,292.7674324000254,292.7674324000254,292.7674324000254,292.7674324000254,292.7674324000254,292.7674324000254,292.7674324000254,292.7674324000254,292.7674324000254,293.1171373000834,293.1171373000834,293.1171373000834,293.1171373000834,293.1171373000834,293.1171373000834,293.1171373000834,293.1171373000834,293.1171373000834,22,0,,,293.1171373000834,293.31741180014797,4.9,293.31741180014797,1,4.9,1,1,1000,num_4,1.0982871998567134,,30,10,2026-03-12_11h04.23.491,2026A_exp2,2022.2.4,59.805786699370806,
1000,1,0.0,0.0,1,0,75,75,23,,,,,294.43505600001663,295.08582659997046,295.08582659997046,295.5701689000707,315,45,295.5701689000707,295.5701689000707,295.5701689000707,295.5701689000707,295.5701689000707,295.5701689000707,295.5701689000707,295.5701689000707,295.5701689000707,295.93660600017756,295.93660600017756,295.93660600017756,295.93660600017756,295.93660600017756,295.93660600017756,295.93660600017756,295.93660600017756,295.93660600017756,23,0,,,295.93660600017756,296.1387130001094,1000,296.1387130001094,1000,1000,1000,1000,1,num_2,0.5240108000580221,,30,10,2026-03-12_11h04.23.491,2026A_exp2,2022.2.4,59.805786699370806,
1,0,0.0,0.0,1,0,76,76,73,,,,,296.68731470010243,297.33806259999983,297.33806259999983,297.83911560010165,45,45,297.83911560010165,297.83911560010165,297.83911560010165,297.83911560010165,297.83911560010165,297.83911560010165,297.83911560010165,297.83911560010165,297.83911560010165,298.2055266001262,298.2055266001262,298.2055266001262,298.2055266001262,298.2055266001262,298.2055266001262,298.2055266001262,298.2055266001262,298.2055266001262,23,0,,,298.2055266001262,298.40584470005706,0.0,298.40584470005706,0,0.0,0,1,1000,num_1,0.3448412998113781,,30,10,2026-03-12_11h04.23.491,2026A_exp2,2022.2.4,59.805786699370806,
1000,1,3.7,0.0,0,0,77,77,45,,,,,298.77271790010855,299.42337730014697,299.42337730014697,299.90793860005215,315,315,299.90793860005215,299.90793860005215,299.90793860005215,299.90793860005215,299.90793860005215,299.90793860005215,299.90793860005215,299.90793860005215,299.90793860005215,300.2743635000661,300.2743635000661,300.2743635000661,300.2743635000661,300.2743635000661,300.2743635000661,300.2743635000661,300.2743635000661,300.2743635000661,10,3,"[0.0012755999341607094, 0.08370519988238811, 0.16711339983157814]","[0.06694459985010326, 0.13376529980450869, 0.26702469983138144]",300.2743635000661,300.47675590007566,1000,300.47675590007566,1000,1000,1000,1000,1,num_2,0.258334799669683,,30,10,2026-03-12_11h04.23.491,2026A_exp2,2022.2.4,59.805786699370806,
1,0,0.0,6.1,1,0,78,78,36,,,,,300.75814769999124,301.3920649001375,301.3920649001375,301.89318630006164,45,45,301.89318630006164,301.89318630006164,301.89318630006164,301.89318630006164,301.89318630006164,301.89318630006164,301.89318630006164,301.89318630006164,301.89318630006164,302.2596984000411,302.2596984000411,302.2596984000411,302.2596984000411,302.2596984000411,302.2596984000411,302.2596984000411,302.2596984000411,302.2596984000411,23,0,,,302.2596984000411,302.4598244000226,6.1,302.4598244000226,1,6.1,1,1,1000,num_4,0.8827576998155564,,30,10,2026-03-12_11h04.23.491,2026A_exp2,2022.2.4,59.805786699370806,
1000,1,0.0,3.7,0,0,79,79,78,,,,,303.36111180018634,304.0114081001375,304.0114081001375,304.4958627000451,45,45,304.4958627000451,304.4958627000451,304.4958627000451,304.4958627000451,304.4958627000451,304.4958627000451,304.4958627000451,304.4958627000451,304.4958627000451,304.86235080007464,304.86235080007464,304.86235080007464,304.86235080007464,304.86235080007464,304.86235080007464,304.86235080007464,304.86235080007464,304.86235080007464,21,1,[0.0012489999644458294],[0.03332349983975291],304.86235080007464,305.06507909996435,1000,305.06507909996435,1000,1000,1000,1000,1,num_2,0.550148299895227,,30,10,2026-03-12_11h04.23.491,2026A_exp2,2022.2.4,59.805786699370806,
1000,1,6.1,6.1,1,0,80,80,77,,,,,305.64629429997876,306.2970690000802,306.2970690000802,306.7980608001817,315,45,306.7980608001817,306.7980608001817,306.7980608001817,306.7980608001817,306.7980608001817,306.7980608001817,306.7980608001817,306.7980608001817,306.7980608001817,307.1644323000219,307.1644323000219,307.1644323000219,307.1644323000219,307.1644323000219,307.1644323000219,307.1644323000219,307.1644323000219,307.1644323000219,23,0,,,307.1644323000219,307.36692430009134,1000,307.36692430009134,1000,1000,1000,1000,1,num_2,0.46454060007818043,,30,10,2026-03-12_11h04.23.491,2026A_exp2,2022.2.4,59.805786699370806,
1,0,3.7,0.0,0,0,81,81,3,,,,,307.84852780005895,308.4992671001237,308.4992671001237,309.0002370001748,315,45,309.0002370001748,309.0002370001748,309.0002370001748,309.0002370001748,309.0002370001748,309.0002370001748,309.0002370001748,309.0002370001748,309.0002370001748,309.36682310001925,309.36682310001925,309.36682310001925,309.36682310001925,309.36682310001925,309.36682310001925,309.36682310001925,309.36682310001925,309.36682310001925,23,0,,,309.36682310001925,309.5670471000485,3.7,309.5670471000485,1,3.7,1,1,1000,num_4,0.6245404998771846,,30,10,2026-03-12_11h04.23.491,2026A_exp2,2022.2.4,59.805786699370806,
1,0,0.0,0.0,0,0,82,82,29,,,,,310.2175597001333,310.8681582000572,310.8681582000572,311.35264670010656,315,45,311.35264670010656,311.35264670010656,311.35264670010656,311.35264670010656,311.35264670010656,311.35264670010656,311.35264670010656,311.35264670010656,311.35264670010656,311.71909530018456,311.71909530018456,311.71909530018456,311.71909530018456,311.71909530018456,311.71909530018456,311.71909530018456,311.71909530018456,311.71909530018456,23,0,,,311.71909530018456,311.9193436000496,0.0,311.9193436000496,0,0.0,0,1,1000,num_1,0.3043486997485161,,30,10,2026-03-12_11h04.23.491,2026A_exp2,2022.2.4,59.805786699370806,
1000,1,0.0,4.9,1,0,83,83,79,,,,,312.2528760000132,312.9035797000397,312.9035797000397,313.3880908000283,315,315,313.3880908000283,313.3880908000283,313.3880908000283,313.3880908000283,313.3880908000283,313.3880908000283,313.3880908000283,313.3880908000283,313.3880908000283,313.75443880003877,313.75443880003877,313.75443880003877,313.75443880003877,313.75443880003877,313.75443880003877,313.75443880003877,313.75443880003877,313.75443880003877,0,1,[0.001249600201845169],[0.3671173001639545],313.75443880003877,313.9562554000877,1000,313.9562554000877,1000,1000,1000,1000,1,num_2,0.4585093997884542,,30,10,2026-03-12_11h04.23.491,2026A_exp2,2022.2.4,59.805786699370806,
1000,1,6.1,0.0,1,0,84,84,69,,,,,314.43854390014894,315.0891509000212,315.0891509000212,315.5901736000087,45,315,315.5901736000087,315.5901736000087,315.5901736000087,315.5901736000087,315.5901736000087,315.5901736000087,315.5901736000087,315.5901736000087,315.5901736000087,315.95670019998215,315.95670019998215,315.95670019998215,315.95670019998215,315.95670019998215,315.95670019998215,315.95670019998215,315.95670019998215,315.95670019998215,4,1,[0.001245599938556552],[0.31694899988360703],315.95670019998215,316.15706150000915,1000,316.15706150000915,1000,1000,1000,1000,0,num_3,0.7780692998785526,,30,10,2026-03-12_11h04.23.491,2026A_exp2,2022.2.4,59.805786699370806,
1000,1,3.7,0.0,1,0,85,85,48,,,,,316.95759060001,317.6083780999761,317.6083780999761,318.1094492999837,45,45,318.1094492999837,318.1094492999837,318.1094492999837,318.1094492999837,318.1094492999837,318.1094492999837,318.1094492999837,318.1094492999837,318.1094492999837,318.47592980018817,318.47592980018817,318.47592980018817,318.47592980018817,318.47592980018817,318.47592980018817,318.47592980018817,318.47592980018817,318.47592980018817,0,1,[0.001293000066652894],[0.36715420009568334],318.47592980018817,318.6782633000985,1000,318.6782633000985,1000,1000,1000,1000,1,num_2,0.6326237998437136,,30,10,2026-03-12_11h04.23.491,2026A_exp2,2022.2.4,59.805786699370806,
1000,1,0.0,0.0,0,0,86,86,85,,,,,319.3264542000834,319.9774607999716,319.9774607999716,320.47848840011284,45,45,320.47848840011284,320.47848840011284,320.47848840011284,320.47848840011284,320.47848840011284,320.47848840011284,320.47848840011284,320.47848840011284,320.47848840011284,320.84477520012297,320.84477520012297,320.84477520012297,320.84477520012297,320.84477520012297,320.84477520012297,320.84477520012297,320.84477520012297,320.84477520012297,22,0,,,320.84477520012297,321.0471499999985,1000,321.0471499999985,1000,1000,1000,1000,1,num_2,0.6237689000554383,,30,10,2026-03-12_11h04.23.491,2026A_exp2,2022.2.4,59.805786699370806,
1000,1,0.0,0.0,0,0,87,87,80,,,,,321.695784999989,322.3464734000154,322.3464734000154,322.84739900007844,45,45,322.84739900007844,322.84739900007844,322.84739900007844,322.84739900007844,322.84739900007844,322.84739900007844,322.84739900007844,322.84739900007844,322.84739900007844,323.2139797999989,323.2139797999989,323.2139797999989,323.2139797999989,323.2139797999989,323.2139797999989,323.2139797999989,323.2139797999989,323.2139797999989,21,1,[0.04996209987439215],[0.08338269987143576],323.2139797999989,323.41611850005575,1000,323.41611850005575,1000,1000,1000,1000,1,num_2,0.45503979991190135,,30,10,2026-03-12_11h04.23.491,2026A_exp2,2022.2.4,59.805786699370806,
1000,1,0.0,0.0,0,0,88,88,18,,,,,323.89794940012507,324.54865130013786,324.54865130013786,325.0500478001777,315,45,325.0500478001777,325.0500478001777,325.0500478001777,325.0500478001777,325.0500478001777,325.0500478001777,325.0500478001777,325.0500478001777,325.0500478001777,325.41597730014473,325.41597730014473,325.41597730014473,325.41597730014473,325.41597730014473,325.41597730014473,325.41597730014473,325.41597730014473,325.41597730014473,16,2,"[0.0008018000517040491, 0.28443589992821217]","[0.10092279990203679, 0.3010114999487996]",325.41597730014473,325.61884220014326,1000,325.61884220014326,1000,1000,1000,1000,1,num_2,0.4678578998427838,,30,10,2026-03-12_11h04.23.491,2026A_exp2,2022.2.4,59.805786699370806,
0,0,4.9,0.0,1,0,89,89,25,,,,,326.11674270010553,326.76754620019346,326.76754620019346,327.26857950002886,45,45,327.26857950002886,327.26857950002886,327.26857950002886,327.26857950002886,327.26857950002886,327.26857950002886,327.26857950002886,327.26857950002886,327.26857950002886,327.63505679997616,327.63505679997616,327.63505679997616,327.63505679997616,327.63505679997616,327.63505679997616,327.63505679997616,327.63505679997616,327.63505679997616,22,1,[0.0012564000207930803],[0.01735560013912618],327.63505679997616,327.83519540005364,4.9,327.83519540005364,1,4.9,1,1,1000,num_4,1.3564798997249454,,30,10,2026-03-12_11h04.23.491,2026A_exp2,2022.2.4,59.805786699370806,
,,,,,,,,,,,,,,,,,,,,,,,,,,,,,,,,,,,,,,,,,,,,,,,,,,,,329.2216796001885,,,,,,,
