validity,detectorcomp,contrastCW,contrastCCW,precueCWorCCW,block_80trials.thisRepN,block_80trials.thisTrialN,block_80trials.thisN,block_80trials.thisIndex,etRecord.started,etRecord.stopped,text.started,text.stopped,text_4.started,text_4.stopped,text_6.started,text_6.stopped,oriCW,oriCCW,roi_2.started,grating_UR.started,grating_UL.started,grating_LR.started,grating_LL.started,noise_UR.started,noise_UL.started,noise_LR.started,noise_LL.started,roi_2.stopped,grating_UR.stopped,grating_UL.stopped,grating_LR.stopped,grating_LL.stopped,noise_UR.stopped,noise_UL.stopped,noise_LR.stopped,noise_LL.stopped,outframe,roi_2.numLooks,roi_2.timesOn,roi_2.timesOff,text_2.started,text_2.stopped,probedcontrast,key_resp.started,respdetect,relevantContrast,correctDetect,TorFdetect,respCWorCCW,key_resp.keys,key_resp.rt,feedback_display_.started,participantNo,blockNo,date,expName,psychopyVersion,frameRate,
1,0,0.0,3.7,1,0,0,0,41,3.9800070226192474e-05,3.9800070226192474e-05,51.96272459998727,53.96627410012297,53.96627410012297,54.59961050003767,54.59961050003767,55.11851679999381,315,45,55.11851679999381,55.11851679999381,55.11851679999381,55.11851679999381,55.11851679999381,55.11851679999381,55.11851679999381,55.11851679999381,55.11851679999381,55.466817300068215,55.466817300068215,55.466817300068215,55.466817300068215,55.466817300068215,55.466817300068215,55.466817300068215,55.466817300068215,55.466817300068215,0,1,[0.0009699000511318445],[0.36753539997152984],55.466817300068215,55.66704390011728,3.7,55.66704390011728,0,3.7,1,0,1000,num_1,0.5950740999542177,,34,2,2026-03-13_10h17.20.451,2026A_exp2,2022.2.4,59.99566834960571,
0,0,0.0,0.0,1,0,1,1,89,,,,,56.28435650002211,56.934881299966946,56.934881299966946,57.436157800024375,315,315,57.436157800024375,57.436157800024375,57.436157800024375,57.436157800024375,57.436157800024375,57.436157800024375,57.436157800024375,57.436157800024375,57.436157800024375,57.78581920010038,57.78581920010038,57.78581920010038,57.78581920010038,57.78581920010038,57.78581920010038,57.78581920010038,57.78581920010038,57.78581920010038,0,1,[0.0007867999374866486],[0.35073950001969934],57.78581920010038,57.98592339991592,0.0,57.98592339991592,0,0.0,0,1,1000,num_1,0.643802999984473,,34,2,2026-03-13_10h17.20.451,2026A_exp2,2022.2.4,59.99566834960571,
1000,1,0.0,0.0,0,0,2,2,18,,,,,58.65326860011555,59.30389149999246,59.30389149999246,59.78830639994703,45,315,59.78830639994703,59.78830639994703,59.78830639994703,59.78830639994703,59.78830639994703,59.78830639994703,59.78830639994703,59.78830639994703,59.78830639994703,60.15482800011523,60.15482800011523,60.15482800011523,60.15482800011523,60.15482800011523,60.15482800011523,60.15482800011523,60.15482800011523,60.15482800011523,0,1,[0.0012095000129193068],[0.3671641999389976],60.15482800011523,60.359911900013685,1000,60.359911900013685,1000,1000,1000,1000,1,num_2,0.5820166999474168,,34,2,2026-03-13_10h17.20.451,2026A_exp2,2022.2.4,59.99566834960571,
1000,1,0.0,3.7,0,0,3,3,78,,,,,60.9724701999221,61.62298270012252,61.62298270012252,62.12414370011538,45,45,62.12414370011538,62.12414370011538,62.12414370011538,62.12414370011538,62.12414370011538,62.12414370011538,62.12414370011538,62.12414370011538,62.12414370011538,62.490443400107324,62.490443400107324,62.490443400107324,62.490443400107324,62.490443400107324,62.490443400107324,62.490443400107324,62.490443400107324,62.490443400107324,0,1,[0.0007355001289397478],[0.36774130002595484],62.490443400107324,62.69257399998605,1000,62.69257399998605,1000,1000,1000,1000,0,num_3,0.7220364999957383,,34,2,2026-03-13_10h17.20.451,2026A_exp2,2022.2.4,59.99566834960571,
1,0,0.0,0.0,0,0,4,4,63,,,,,63.44135110010393,64.09202779992484,64.09202779992484,64.59316510008648,45,315,64.59316510008648,64.59316510008648,64.59316510008648,64.59316510008648,64.59316510008648,64.59316510008648,64.59316510008648,64.59316510008648,64.59316510008648,64.959567300044,64.959567300044,64.959567300044,64.959567300044,64.959567300044,64.959567300044,64.959567300044,64.959567300044,64.959567300044,0,1,[0.0009657999034970999],[0.367589799920097],64.959567300044,65.15975770005025,0.0,65.15975770005025,0,0.0,0,1,1000,num_1,0.5264857998117805,,34,2,2026-03-13_10h17.20.451,2026A_exp2,2022.2.4,59.99566834960571,
1,0,0.0,6.1,1,0,5,5,40,,,,,65.71031349990517,66.36099399998784,66.36099399998784,66.84541069995612,315,45,66.84541069995612,66.84541069995612,66.84541069995612,66.84541069995612,66.84541069995612,66.84541069995612,66.84541069995612,66.84541069995612,66.84541069995612,67.21190080000088,67.21190080000088,67.21190080000088,67.21190080000088,67.21190080000088,67.21190080000088,67.21190080000088,67.21190080000088,67.21190080000088,22,1,[0.1503173999954015],[0.1668859999626875],67.21190080000088,67.41213409998454,6.1,67.41213409998454,1,6.1,1,1,1000,num_4,0.7855534998234361,,34,2,2026-03-13_10h17.20.451,2026A_exp2,2022.2.4,59.99566834960571,
1,0,3.7,0.0,0,0,6,6,3,,,,,68.22957809991203,68.86350500001572,68.86350500001572,69.36465710005723,45,315,69.36465710005723,69.36465710005723,69.36465710005723,69.36465710005723,69.36465710005723,69.36465710005723,69.36465710005723,69.36465710005723,69.36465710005723,69.73092269990593,69.73092269990593,69.73092269990593,69.73092269990593,69.73092269990593,69.73092269990593,69.73092269990593,69.73092269990593,69.73092269990593,23,0,,,69.73092269990593,69.93133769999258,3.7,69.93133769999258,0,3.7,1,0,1000,num_1,0.5231061996892095,,34,2,2026-03-13_10h17.20.451,2026A_exp2,2022.2.4,59.99566834960571,
1,0,3.7,0.0,1,0,7,7,50,,,,,70.48173170001246,71.13246180000715,71.13246180000715,71.6169420001097,315,45,71.6169420001097,71.6169420001097,71.6169420001097,71.6169420001097,71.6169420001097,71.6169420001097,71.6169420001097,71.6169420001097,71.6169420001097,71.98332490003668,71.98332490003668,71.98332490003668,71.98332490003668,71.98332490003668,71.98332490003668,71.98332490003668,71.98332490003668,71.98332490003668,23,0,,,71.98332490003668,72.18347340007313,0.0,72.18347340007313,1,0.0,0,0,1000,num_4,0.6390922998543829,,34,2,2026-03-13_10h17.20.451,2026A_exp2,2022.2.4,59.99566834960571,
0,0,0.0,0.0,1,0,8,8,71,,,,,72.85055690002628,73.50146820000373,73.50146820000373,73.98591580009088,315,315,73.98591580009088,73.98591580009088,73.98591580009088,73.98591580009088,73.98591580009088,73.98591580009088,73.98591580009088,73.98591580009088,73.98591580009088,74.35228489991277,74.35228489991277,74.35228489991277,74.35228489991277,74.35228489991277,74.35228489991277,74.35228489991277,74.35228489991277,74.35228489991277,23,0,,,74.35228489991277,74.5524613999296,0.0,74.5524613999296,0,0.0,0,1,1000,num_1,0.5736085998360068,,34,2,2026-03-13_10h17.20.451,2026A_exp2,2022.2.4,59.99566834960571,
1000,1,6.1,0.0,0,0,9,9,14,,,,,75.15304220002145,75.80383470002562,75.80383470002562,76.28818079992197,45,45,76.28818079992197,76.28818079992197,76.28818079992197,76.28818079992197,76.28818079992197,76.28818079992197,76.28818079992197,76.28818079992197,76.28818079992197,76.65469880006276,76.65469880006276,76.65469880006276,76.65469880006276,76.65469880006276,76.65469880006276,76.65469880006276,76.65469880006276,76.65469880006276,23,0,,,76.65469880006276,76.85686270007864,1000,76.85686270007864,1000,1000,1000,1000,0,num_3,0.6217885999940336,,34,2,2026-03-13_10h17.20.451,2026A_exp2,2022.2.4,59.99566834960571,
1,0,0.0,3.7,1,0,10,10,66,,,,,77.50548100005835,78.15586529998109,78.15586529998109,78.65713039995171,315,45,78.65713039995171,78.65713039995171,78.65713039995171,78.65713039995171,78.65713039995171,78.65713039995171,78.65713039995171,78.65713039995171,78.65713039995171,79.02370440005325,79.02370440005325,79.02370440005325,79.02370440005325,79.02370440005325,79.02370440005325,79.02370440005325,79.02370440005325,79.02370440005325,23,0,,,79.02370440005325,79.22392860008404,3.7,79.22392860008404,1,3.7,1,1,1000,num_4,0.8539543999359012,,34,2,2026-03-13_10h17.20.451,2026A_exp2,2022.2.4,59.99566834960571,
1000,1,3.7,4.9,1,0,11,11,44,,,,,80.10798530001193,80.74204679997638,80.74204679997638,81.2430946000386,45,315,81.2430946000386,81.2430946000386,81.2430946000386,81.2430946000386,81.2430946000386,81.2430946000386,81.2430946000386,81.2430946000386,81.2430946000386,81.60962509992532,81.60962509992532,81.60962509992532,81.60962509992532,81.60962509992532,81.60962509992532,81.60962509992532,81.60962509992532,81.60962509992532,0,1,[0.0010238001123070717],[0.36725770006887615],81.60962509992532,81.81170709989965,1000,81.81170709989965,1000,1000,1000,1000,0,num_3,0.6016786999534816,,34,2,2026-03-13_10h17.20.451,2026A_exp2,2022.2.4,59.99566834960571,
1,0,0.0,6.1,1,0,12,12,52,,,,,82.44369830004871,83.09434950002469,83.09434950002469,83.59555820003152,315,45,83.59555820003152,83.59555820003152,83.59555820003152,83.59555820003152,83.59555820003152,83.59555820003152,83.59555820003152,83.59555820003152,83.59555820003152,83.96200769999996,83.96200769999996,83.96200769999996,83.96200769999996,83.96200769999996,83.96200769999996,83.96200769999996,83.96200769999996,83.96200769999996,0,1,[0.001206899993121624],[0.3672943999990821],83.96200769999996,84.16214490006678,6.1,84.16214490006678,1,6.1,1,1,1000,num_4,0.6836035999003798,,34,2,2026-03-13_10h17.20.451,2026A_exp2,2022.2.4,59.99566834960571,
1000,1,0.0,0.0,0,0,13,13,17,,,,,84.86273010005243,85.51346460008062,85.51346460008062,85.99798640003428,45,45,85.99798640003428,85.99798640003428,85.99798640003428,85.99798640003428,85.99798640003428,85.99798640003428,85.99798640003428,85.99798640003428,85.99798640003428,86.36444839998148,86.36444839998148,86.36444839998148,86.36444839998148,86.36444839998148,86.36444839998148,86.36444839998148,86.36444839998148,86.36444839998148,0,1,[0.0012391998898237944],[0.36679979995824397],86.36444839998148,86.56676939991303,1000,86.56676939991303,1000,1000,1000,1000,0,num_3,0.759461399866268,,34,2,2026-03-13_10h17.20.451,2026A_exp2,2022.2.4,59.99566834960571,
1000,1,4.9,6.1,1,0,14,14,28,,,,,87.34876649989747,87.99932659999467,87.99932659999467,88.50039419997483,45,315,88.50039419997483,88.50039419997483,88.50039419997483,88.50039419997483,88.50039419997483,88.50039419997483,88.50039419997483,88.50039419997483,88.50039419997483,88.85020969994366,88.85020969994366,88.85020969994366,88.85020969994366,88.85020969994366,88.85020969994366,88.85020969994366,88.85020969994366,88.85020969994366,0,1,[0.0012170998379588127],[0.35066259978339076],88.85020969994366,89.0522656000685,1000,89.06705579999834,1000,1000,1000,1000,1,num_2,1.3786136999260634,,34,2,2026-03-13_10h17.20.451,2026A_exp2,2022.2.4,59.99566834960571,
1000,1,0.0,6.1,0,0,15,15,9,,,,,90.46832110011019,91.11913409992121,91.11913409992121,91.62034870008938,315,315,91.62034870008938,91.62034870008938,91.62034870008938,91.62034870008938,91.62034870008938,91.62034870008938,91.62034870008938,91.62034870008938,91.62034870008938,91.98668249999173,91.98668249999173,91.98668249999173,91.98668249999173,91.98668249999173,91.98668249999173,91.98668249999173,91.98668249999173,91.98668249999173,7,5,"[0.0012018000707030296, 0.13348820013925433, 0.2168867001309991, 0.30034780013374984, 0.3337471999693662]","[0.11671840003691614, 0.200280100107193, 0.25029440014623106, 0.31720779999159276, 0.35045880009420216]",91.98668249999173,92.18931669997983,1000,92.18931669997983,1000,1000,1000,1000,1,num_2,0.5119902999140322,,34,2,2026-03-13_10h17.20.451,2026A_exp2,2022.2.4,59.99566834960571,
1,0,0.0,0.0,1,0,16,16,6,,,,,92.72058849991299,93.3714181999676,93.3714181999676,93.87248310004361,45,315,93.87248310004361,93.87248310004361,93.87248310004361,93.87248310004361,93.87248310004361,93.87248310004361,93.87248310004361,93.87248310004361,93.87248310004361,94.238923399942,94.238923399942,94.238923399942,94.238923399942,94.238923399942,94.238923399942,94.238923399942,94.238923399942,94.238923399942,0,1,[0.0013037000317126513],[0.3671484000515193],94.238923399942,94.4390507999342,0.0,94.4390507999342,1,0.0,0,0,1000,num_4,0.9826873999554664,,34,2,2026-03-13_10h17.20.451,2026A_exp2,2022.2.4,59.99566834960571,
1000,1,6.1,0.0,1,0,17,17,30,,,,,95.43992109992541,96.09060050011612,96.09060050011612,96.59195589995943,45,45,96.59195589995943,96.59195589995943,96.59195589995943,96.59195589995943,96.59195589995943,96.59195589995943,96.59195589995943,96.59195589995943,96.59195589995943,96.95827669999562,96.95827669999562,96.95827669999562,96.95827669999562,96.95827669999562,96.95827669999562,96.95827669999562,96.95827669999562,96.95827669999562,23,0,,,96.95827669999562,97.1607530999463,1000,97.1607530999463,1000,1000,1000,1000,0,num_3,0.3966421999502927,,34,2,2026-03-13_10h17.20.451,2026A_exp2,2022.2.4,59.99566834960571,
1000,1,3.7,0.0,0,0,18,18,57,,,,,97.57543310010806,98.22613939992152,98.22613939992152,98.72729839989915,315,45,98.72729839989915,98.72729839989915,98.72729839989915,98.72729839989915,98.72729839989915,98.72729839989915,98.72729839989915,98.72729839989915,98.72729839989915,99.0938122998923,99.0938122998923,99.0938122998923,99.0938122998923,99.0938122998923,99.0938122998923,99.0938122998923,99.0938122998923,99.0938122998923,23,0,,,99.0938122998923,99.29418110009283,1000,99.29418110009283,1000,1000,1000,1000,0,num_3,0.6474878997541964,,34,2,2026-03-13_10h17.20.451,2026A_exp2,2022.2.4,59.99566834960571,
1000,1,0.0,6.1,1,0,19,19,62,,,,,99.9611343999859,100.61183020006865,100.61183020006865,101.11308860010467,315,315,101.11308860010467,101.11308860010467,101.11308860010467,101.11308860010467,101.11308860010467,101.11308860010467,101.11308860010467,101.11308860010467,101.11308860010467,101.47938310005702,101.47938310005702,101.47938310005702,101.47938310005702,101.47938310005702,101.47938310005702,101.47938310005702,101.47938310005702,101.47938310005702,23,0,,,101.47938310005702,101.68191829998977,1000,101.68191829998977,1000,1000,1000,1000,1,num_2,0.5799899999983609,,34,2,2026-03-13_10h17.20.451,2026A_exp2,2022.2.4,59.99566834960571,
1000,1,0.0,0.0,0,0,20,20,83,,,,,102.28012589993887,102.930603899993,102.930603899993,103.4152269999031,315,45,103.4152269999031,103.4152269999031,103.4152269999031,103.4152269999031,103.4152269999031,103.4152269999031,103.4152269999031,103.4152269999031,103.4152269999031,103.78179219993763,103.78179219993763,103.78179219993763,103.78179219993763,103.78179219993763,103.78179219993763,103.78179219993763,103.78179219993763,103.78179219993763,22,1,[0.20015190006233752],[0.21688449988141656],103.78179219993763,103.9840724999085,1000,103.9840724999085,1000,1000,1000,1000,1,num_2,0.5492449998855591,,34,2,2026-03-13_10h17.20.451,2026A_exp2,2022.2.4,59.99566834960571,
1000,1,0.0,4.9,1,0,21,21,79,,,,,104.54919960000552,105.19971830002032,105.19971830002032,105.70097819995135,45,45,105.70097819995135,105.70097819995135,105.70097819995135,105.70097819995135,105.70097819995135,105.70097819995135,105.70097819995135,105.70097819995135,105.70097819995135,106.06727940007113,106.06727940007113,106.06727940007113,106.06727940007113,106.06727940007113,106.06727940007113,106.06727940007113,106.06727940007113,106.06727940007113,23,0,,,106.06727940007113,106.26980639994144,1000,106.26980639994144,1000,1000,1000,1000,1,num_2,0.5682195997796953,,34,2,2026-03-13_10h17.20.451,2026A_exp2,2022.2.4,59.99566834960571,
1000,1,3.7,4.9,1,0,22,22,46,,,,,106.86811599996872,107.51883820001967,107.51883820001967,108.02004340011626,45,315,108.02004340011626,108.02004340011626,108.02004340011626,108.02004340011626,108.02004340011626,108.02004340011626,108.02004340011626,108.02004340011626,108.02004340011626,108.3862193999812,108.3862193999812,108.3862193999812,108.3862193999812,108.3862193999812,108.3862193999812,108.3862193999812,108.3862193999812,108.3862193999812,23,0,,,108.3862193999812,108.58638629992492,1000,108.58638629992492,1000,1000,1000,1000,1,num_2,0.4599593998864293,,34,2,2026-03-13_10h17.20.451,2026A_exp2,2022.2.4,59.99566834960571,
1000,1,0.0,4.9,1,0,23,23,59,,,,,109.07026559999213,109.72113629989326,109.72113629989326,110.22206269996241,315,315,110.22206269996241,110.22206269996241,110.22206269996241,110.22206269996241,110.22206269996241,110.22206269996241,110.22206269996241,110.22206269996241,110.22206269996241,110.57186229992658,110.57186229992658,110.57186229992658,110.57186229992658,110.57186229992658,110.57186229992658,110.57186229992658,110.57186229992658,110.57186229992658,22,0,,,110.57186229992658,110.77373860008083,1000,110.78888910007663,1000,1000,1000,1000,1,num_2,0.42429819982498884,,34,2,2026-03-13_10h17.20.451,2026A_exp2,2022.2.4,59.99566834960571,
1,0,0.0,0.0,1,0,24,24,87,,,,,111.23909760010429,111.88986340002157,111.88986340002157,112.39123920002021,315,45,112.39123920002021,112.39123920002021,112.39123920002021,112.39123920002021,112.39123920002021,112.39123920002021,112.39123920002021,112.39123920002021,112.39123920002021,112.75745150004514,112.75745150004514,112.75745150004514,112.75745150004514,112.75745150004514,112.75745150004514,112.75745150004514,112.75745150004514,112.75745150004514,23,0,,,112.75745150004514,112.95772890001535,0.0,112.95772890001535,0,0.0,0,1,1000,num_1,0.6481983996927738,,34,2,2026-03-13_10h17.20.451,2026A_exp2,2022.2.4,59.99566834960571,
1,0,4.9,0.0,1,0,25,25,38,,,,,113.62486670003273,114.27554289996624,114.27554289996624,114.760029300116,315,45,114.760029300116,114.760029300116,114.760029300116,114.760029300116,114.760029300116,114.760029300116,114.760029300116,114.760029300116,114.760029300116,115.12629740010016,115.12629740010016,115.12629740010016,115.12629740010016,115.12629740010016,115.12629740010016,115.12629740010016,115.12629740010016,115.12629740010016,23,0,,,115.12629740010016,115.32660900009796,0.0,115.32660900009796,0,0.0,0,1,1000,num_1,0.6237652997951955,,34,2,2026-03-13_10h17.20.451,2026A_exp2,2022.2.4,59.99566834960571,
1000,1,0.0,0.0,1,0,26,26,67,,,,,115.97756869997829,116.6278292001225,116.6278292001225,117.1124082999304,45,45,117.1124082999304,117.1124082999304,117.1124082999304,117.1124082999304,117.1124082999304,117.1124082999304,117.1124082999304,117.1124082999304,117.1124082999304,117.47905900003389,117.47905900003389,117.47905900003389,117.47905900003389,117.47905900003389,117.47905900003389,117.47905900003389,117.47905900003389,117.47905900003389,23,0,,,117.47905900003389,117.68107770010829,1000,117.68107770010829,1000,1000,1000,1000,0,num_3,0.48441219981759787,,34,2,2026-03-13_10h17.20.451,2026A_exp2,2022.2.4,59.99566834960571,
0,0,6.1,3.7,1,0,27,27,49,,,,,118.19612420001067,118.85755160008557,118.85755160008557,119.35295540001243,45,45,119.35295540001243,119.35295540001243,119.35295540001243,119.35295540001243,119.35295540001243,119.35295540001243,119.35295540001243,119.35295540001243,119.35295540001243,119.71425030007958,119.71425030007958,119.71425030007958,119.71425030007958,119.71425030007958,119.71425030007958,119.71425030007958,119.71425030007958,119.71425030007958,23,0,,,119.71425030007958,119.91454429994337,6.1,119.91454429994337,1,6.1,1,1,1000,num_4,0.9558436998631805,,34,2,2026-03-13_10h17.20.451,2026A_exp2,2022.2.4,59.99566834960571,
1000,1,0.0,0.0,1,0,28,28,23,,,,,120.89885050011799,121.54960049991496,121.54960049991496,122.03400429990143,315,315,122.03400429990143,122.03400429990143,122.03400429990143,122.03400429990143,122.03400429990143,122.03400429990143,122.03400429990143,122.03400429990143,122.03400429990143,122.40029269992374,122.40029269992374,122.40029269992374,122.40029269992374,122.40029269992374,122.40029269992374,122.40029269992374,122.40029269992374,122.40029269992374,23,0,,,122.40029269992374,122.6020273999311,1000,122.6020273999311,1000,1000,1000,1000,1,num_2,0.6511384998448193,,34,2,2026-03-13_10h17.20.451,2026A_exp2,2022.2.4,59.99566834960571,
1000,1,4.9,6.1,0,0,29,29,20,,,,,123.28474240005016,123.93515089992434,123.93515089992434,124.43620100012049,45,45,124.43620100012049,124.43620100012049,124.43620100012049,124.43620100012049,124.43620100012049,124.43620100012049,124.43620100012049,124.43620100012049,124.43620100012049,124.78612950001843,124.78612950001843,124.78612950001843,124.78612950001843,124.78612950001843,124.78612950001843,124.78612950001843,124.78612950001843,124.78612950001843,22,0,,,124.78612950001843,124.98838180000894,1000,124.98838180000894,1000,1000,1000,1000,0,num_3,0.7050844999030232,,34,2,2026-03-13_10h17.20.451,2026A_exp2,2022.2.4,59.99566834960571,
1000,1,0.0,4.9,1,0,30,30,76,,,,,125.7202836999204,126.37107319990173,126.37107319990173,126.87215640000068,45,315,126.87215640000068,126.87215640000068,126.87215640000068,126.87215640000068,126.87215640000068,126.87215640000068,126.87215640000068,126.87215640000068,126.87215640000068,127.23857189994305,127.23857189994305,127.23857189994305,127.23857189994305,127.23857189994305,127.23857189994305,127.23857189994305,127.23857189994305,127.23857189994305,23,0,,,127.23857189994305,127.44036810006946,1000,127.44036810006946,1000,1000,1000,1000,1,num_2,0.5174474997911602,,34,2,2026-03-13_10h17.20.451,2026A_exp2,2022.2.4,59.99566834960571,
1,0,0.0,4.9,1,0,31,31,21,,,,,127.98945260001346,128.63984489999712,128.63984489999712,129.12445560004562,45,45,129.12445560004562,129.12445560004562,129.12445560004562,129.12445560004562,129.12445560004562,129.12445560004562,129.12445560004562,129.12445560004562,129.12445560004562,129.49084870005026,129.49084870005026,129.49084870005026,129.49084870005026,129.49084870005026,129.49084870005026,129.49084870005026,129.49084870005026,129.49084870005026,23,0,,,129.49084870005026,129.69106049998663,4.9,129.69106049998663,1,4.9,1,1,1000,num_4,0.7552598998881876,,34,2,2026-03-13_10h17.20.451,2026A_exp2,2022.2.4,59.99566834960571,
1000,1,0.0,0.0,0,0,32,32,85,,,,,130.47499049990438,131.1257402000483,131.1257402000483,131.61012289999053,315,45,131.61012289999053,131.61012289999053,131.61012289999053,131.61012289999053,131.61012289999053,131.61012289999053,131.61012289999053,131.61012289999053,131.61012289999053,131.97650970006362,131.97650970006362,131.97650970006362,131.97650970006362,131.97650970006362,131.97650970006362,131.97650970006362,131.97650970006362,131.97650970006362,23,0,,,131.97650970006362,132.17916369996965,1000,132.17916369996965,1000,1000,1000,1000,0,num_3,0.5788449998944998,,34,2,2026-03-13_10h17.20.451,2026A_exp2,2022.2.4,59.99566834960571,
1,0,0.0,6.1,0,0,33,33,34,,,,,132.7774000999052,133.4281063999515,133.4281063999515,133.9290283001028,315,315,133.9290283001028,133.9290283001028,133.9290283001028,133.9290283001028,133.9290283001028,133.9290283001028,133.9290283001028,133.9290283001028,133.9290283001028,134.2956471000798,134.2956471000798,134.2956471000798,134.2956471000798,134.2956471000798,134.2956471000798,134.2956471000798,134.2956471000798,134.2956471000798,23,0,,,134.2956471000798,134.4959158001002,0.0,134.4959158001002,0,0.0,0,1,1000,num_1,0.6384607998188585,,34,2,2026-03-13_10h17.20.451,2026A_exp2,2022.2.4,59.99566834960571,
1,0,0.0,6.1,1,0,34,34,36,,,,,135.1629902999848,135.81383750005625,135.81383750005625,136.2982433999423,315,45,136.2982433999423,136.2982433999423,136.2982433999423,136.2982433999423,136.2982433999423,136.2982433999423,136.2982433999423,136.2982433999423,136.2982433999423,136.66452719992958,136.66452719992958,136.66452719992958,136.66452719992958,136.66452719992958,136.66452719992958,136.66452719992958,136.66452719992958,136.66452719992958,23,0,,,136.66452719992958,136.86445540003479,6.1,136.86445540003479,1,6.1,1,1,1000,num_4,0.6770698998589069,,34,2,2026-03-13_10h17.20.451,2026A_exp2,2022.2.4,59.99566834960571,
1000,1,0.0,0.0,0,0,35,35,86,,,,,137.56551350001246,138.19965100008994,138.19965100008994,138.7173731001094,315,315,138.7173731001094,138.7173731001094,138.7173731001094,138.7173731001094,138.7173731001094,138.7173731001094,138.7173731001094,138.7173731001094,138.7173731001094,139.0671232000459,139.0671232000459,139.0671232000459,139.0671232000459,139.0671232000459,139.0671232000459,139.0671232000459,139.0671232000459,139.0671232000459,22,0,,,139.0671232000459,139.26936269993894,1000,139.26936269993894,1000,1000,1000,1000,0,num_3,0.5605924997944385,,34,2,2026-03-13_10h17.20.451,2026A_exp2,2022.2.4,59.99566834960571,
1000,1,6.1,0.0,1,0,36,36,16,,,,,139.8510735000018,140.50185499992222,140.50185499992222,141.0029631999787,315,315,141.0029631999787,141.0029631999787,141.0029631999787,141.0029631999787,141.0029631999787,141.0029631999787,141.0029631999787,141.0029631999787,141.0029631999787,141.3694098999258,141.3694098999258,141.3694098999258,141.3694098999258,141.3694098999258,141.3694098999258,141.3694098999258,141.3694098999258,141.3694098999258,23,0,,,141.3694098999258,141.57158469990827,1000,141.57158469990827,1000,1000,1000,1000,0,num_3,0.5705277998931706,,34,2,2026-03-13_10h17.20.451,2026A_exp2,2022.2.4,59.99566834960571,
1,0,3.7,0.0,1,0,37,37,19,,,,,142.1700498999562,142.8208486000076,142.8208486000076,143.3219266999513,45,45,143.3219266999513,143.3219266999513,143.3219266999513,143.3219266999513,143.3219266999513,143.3219266999513,143.3219266999513,143.3219266999513,143.3219266999513,143.68838319997303,143.68838319997303,143.68838319997303,143.68838319997303,143.68838319997303,143.68838319997303,143.68838319997303,143.68838319997303,143.68838319997303,23,0,,,143.68838319997303,143.88854139996693,0.0,143.88854139996693,1,0.0,0,0,1000,num_4,0.7171686997171491,,34,2,2026-03-13_10h17.20.451,2026A_exp2,2022.2.4,59.99566834960571,
0,0,0.0,6.1,0,0,38,38,7,,,,,144.62248890008777,145.27316370001063,145.27316370001063,145.77434680005535,45,315,145.77434680005535,145.77434680005535,145.77434680005535,145.77434680005535,145.77434680005535,145.77434680005535,145.77434680005535,145.77434680005535,145.77434680005535,146.14080110006034,146.14080110006034,146.14080110006034,146.14080110006034,146.14080110006034,146.14080110006034,146.14080110006034,146.14080110006034,146.14080110006034,23,0,,,146.14080110006034,146.34108010004275,6.1,146.34108010004275,1,6.1,1,1,1000,num_4,0.6320705998223275,,34,2,2026-03-13_10h17.20.451,2026A_exp2,2022.2.4,59.99566834960571,
1000,1,0.0,0.0,0,0,39,39,81,,,,,146.9914963999763,147.64236419997178,147.64236419997178,148.1265948000364,315,315,148.1265948000364,148.1265948000364,148.1265948000364,148.1265948000364,148.1265948000364,148.1265948000364,148.1265948000364,148.1265948000364,148.1265948000364,148.49316799989901,148.49316799989901,148.49316799989901,148.49316799989901,148.49316799989901,148.49316799989901,148.49316799989901,148.49316799989901,148.49316799989901,23,0,,,148.49316799989901,148.6957718001213,1000,148.6957718001213,1000,1000,1000,1000,1,num_2,0.7983931999187917,,34,2,2026-03-13_10h17.20.451,2026A_exp2,2022.2.4,59.99566834960571,
1,0,6.1,0.0,0,0,40,40,70,,,,,149.51080220006406,150.16139829996973,150.16139829996973,150.66253650002182,315,45,150.66253650002182,150.66253650002182,150.66253650002182,150.66253650002182,150.66253650002182,150.66253650002182,150.66253650002182,150.66253650002182,150.66253650002182,151.0290004000999,151.0290004000999,151.0290004000999,151.0290004000999,151.0290004000999,151.0290004000999,151.0290004000999,151.0290004000999,151.0290004000999,23,0,,,151.0290004000999,151.22922999993898,6.1,151.22922999993898,1,6.1,1,1,1000,num_4,0.6811075999867171,,34,2,2026-03-13_10h17.20.451,2026A_exp2,2022.2.4,59.99566834960571,
1000,1,3.7,0.0,1,0,41,41,48,,,,,151.92983409995213,152.56390820001252,152.56390820001252,153.0647362000309,45,45,153.0647362000309,153.0647362000309,153.0647362000309,153.0647362000309,153.0647362000309,153.0647362000309,153.0647362000309,153.0647362000309,153.0647362000309,153.43139469996095,153.43139469996095,153.43139469996095,153.43139469996095,153.43139469996095,153.43139469996095,153.43139469996095,153.43139469996095,153.43139469996095,23,0,,,153.43139469996095,153.63343030004762,1000,153.63343030004762,1000,1000,1000,1000,1,num_2,0.7086385998409241,,34,2,2026-03-13_10h17.20.451,2026A_exp2,2022.2.4,59.99566834960571,
1000,1,0.0,0.0,1,0,42,42,12,,,,,154.36558620003052,155.01631519990042,155.01631519990042,155.5173001999501,315,45,155.5173001999501,155.5173001999501,155.5173001999501,155.5173001999501,155.5173001999501,155.5173001999501,155.5173001999501,155.5173001999501,155.5173001999501,155.88388859992847,155.88388859992847,155.88388859992847,155.88388859992847,155.88388859992847,155.88388859992847,155.88388859992847,155.88388859992847,155.88388859992847,23,0,,,155.88388859992847,156.085854700068,1000,156.085854700068,1000,1000,1000,1000,0,num_3,0.5042849997989833,,34,2,2026-03-13_10h17.20.451,2026A_exp2,2022.2.4,59.99566834960571,
1,0,6.1,4.9,0,0,43,43,24,,,,,156.61780650005676,157.26855979999527,157.26855979999527,157.7697062001098,315,45,157.7697062001098,157.7697062001098,157.7697062001098,157.7697062001098,157.7697062001098,157.7697062001098,157.7697062001098,157.7697062001098,157.7697062001098,158.1361638000235,158.1361638000235,158.1361638000235,158.1361638000235,158.1361638000235,158.1361638000235,158.1361638000235,158.1361638000235,158.1361638000235,23,0,,,158.1361638000235,158.3363000000827,6.1,158.3363000000827,0,6.1,1,0,1000,num_1,0.7742685996927321,,34,2,2026-03-13_10h17.20.451,2026A_exp2,2022.2.4,59.99566834960571,
1,0,0.0,0.0,0,0,44,44,29,,,,,159.13690909999423,159.78761689993553,159.78761689993553,160.27249379991554,45,315,160.27249379991554,160.27249379991554,160.27249379991554,160.27249379991554,160.27249379991554,160.27249379991554,160.27249379991554,160.27249379991554,160.27249379991554,160.63888019998558,160.63888019998558,160.63888019998558,160.63888019998558,160.63888019998558,160.63888019998558,160.63888019998558,160.63888019998558,160.63888019998558,23,0,,,160.63888019998558,160.8387972000055,0.0,160.8387972000055,1,0.0,0,0,1000,num_4,0.6792840000707656,,34,2,2026-03-13_10h17.20.451,2026A_exp2,2022.2.4,59.99566834960571,
1000,1,6.1,0.0,1,0,45,45,69,,,,,161.53940390003845,162.1901539999526,162.1901539999526,162.67442870000377,315,45,162.67442870000377,162.67442870000377,162.67442870000377,162.67442870000377,162.67442870000377,162.67442870000377,162.67442870000377,162.67442870000377,162.67442870000377,163.04158829990774,163.04158829990774,163.04158829990774,163.04158829990774,163.04158829990774,163.04158829990774,163.04158829990774,163.04158829990774,163.04158829990774,23,0,,,163.04158829990774,163.24098920007236,1000,163.24098920007236,1000,1000,1000,1000,0,num_3,0.6526854999829084,,34,2,2026-03-13_10h17.20.451,2026A_exp2,2022.2.4,59.99566834960571,
1000,1,3.7,0.0,0,0,46,46,45,,,,,163.92525930004194,164.57590289996006,164.57590289996006,165.0765857999213,315,315,165.0765857999213,165.0765857999213,165.0765857999213,165.0765857999213,165.0765857999213,165.0765857999213,165.0765857999213,165.0765857999213,165.0765857999213,165.4433885999024,165.4433885999024,165.4433885999024,165.4433885999024,165.4433885999024,165.4433885999024,165.4433885999024,165.4433885999024,165.4433885999024,23,0,,,165.4433885999024,165.6453849999234,1000,165.6453849999234,1000,1000,1000,1000,0,num_3,0.5210283999331295,,34,2,2026-03-13_10h17.20.451,2026A_exp2,2022.2.4,59.99566834960571,
1000,1,4.9,0.0,0,0,47,47,26,,,,,166.1940413999837,166.8448131000623,166.8448131000623,167.3460307000205,45,315,167.3460307000205,167.3460307000205,167.3460307000205,167.3460307000205,167.3460307000205,167.3460307000205,167.3460307000205,167.3460307000205,167.3460307000205,167.71231690002605,167.71231690002605,167.71231690002605,167.71231690002605,167.71231690002605,167.71231690002605,167.71231690002605,167.71231690002605,167.71231690002605,23,0,,,167.71231690002605,167.9146245000884,1000,167.9146245000884,1000,1000,1000,1000,0,num_3,0.6191095998510718,,34,2,2026-03-13_10h17.20.451,2026A_exp2,2022.2.4,59.99566834960571,
1,0,0.0,6.1,0,0,48,48,11,,,,,168.5631846000906,169.1971301001031,169.1971301001031,169.698298699921,315,45,169.698298699921,169.698298699921,169.698298699921,169.698298699921,169.698298699921,169.698298699921,169.698298699921,169.698298699921,169.698298699921,170.06455440004356,170.06455440004356,170.06455440004356,170.06455440004356,170.06455440004356,170.06455440004356,170.06455440004356,170.06455440004356,170.06455440004356,23,0,,,170.06455440004356,170.26492260000668,0.0,170.26492260000668,0,0.0,0,1,1000,num_1,0.5576500999741256,,34,2,2026-03-13_10h17.20.451,2026A_exp2,2022.2.4,59.99566834960571,
1,0,0.0,3.7,0,0,49,49,61,,,,,170.84874440007843,171.49925650004297,171.49925650004297,171.98382729990408,45,45,171.98382729990408,171.98382729990408,171.98382729990408,171.98382729990408,171.98382729990408,171.98382729990408,171.98382729990408,171.98382729990408,171.98382729990408,172.35014289990067,172.35014289990067,172.35014289990067,172.35014289990067,172.35014289990067,172.35014289990067,172.35014289990067,172.35014289990067,172.35014289990067,23,0,,,172.35014289990067,172.55054179998115,0.0,172.55054179998115,0,0.0,0,1,1000,num_1,0.5592928999103606,,34,2,2026-03-13_10h17.20.451,2026A_exp2,2022.2.4,59.99566834960571,
1000,1,6.1,6.1,1,0,50,50,77,,,,,173.13441370008513,173.77626250009052,173.77626250009052,174.273329900112,45,315,174.273329900112,174.273329900112,174.273329900112,174.273329900112,174.273329900112,174.273329900112,174.273329900112,174.273329900112,174.273329900112,174.6359220999293,174.6359220999293,174.6359220999293,174.6359220999293,174.6359220999293,174.6359220999293,174.6359220999293,174.6359220999293,174.6359220999293,23,0,,,174.6359220999293,174.84027289994992,1000,174.84027289994992,1000,1000,1000,1000,1,num_2,0.6049918998032808,,34,2,2026-03-13_10h17.20.451,2026A_exp2,2022.2.4,59.99566834960571,
1,0,0.0,3.7,0,0,51,51,35,,,,,175.47009709989652,176.1207475999836,176.1207475999836,176.62188540003262,45,45,176.62188540003262,176.62188540003262,176.62188540003262,176.62188540003262,176.62188540003262,176.62188540003262,176.62188540003262,176.62188540003262,176.62188540003262,176.9882968000602,176.9882968000602,176.9882968000602,176.9882968000602,176.9882968000602,176.9882968000602,176.9882968000602,176.9882968000602,176.9882968000602,23,0,,,176.9882968000602,177.188401899999,0.0,177.188401899999,0,0.0,0,1,1000,num_1,0.5216837998013943,,34,2,2026-03-13_10h17.20.451,2026A_exp2,2022.2.4,59.99566834960571,
1000,1,4.9,0.0,0,0,52,52,54,,,,,177.7388981000986,178.38968209992163,178.38968209992163,178.87397970003076,45,315,178.87397970003076,178.87397970003076,178.87397970003076,178.87397970003076,178.87397970003076,178.87397970003076,178.87397970003076,178.87397970003076,178.87397970003076,179.24053160008043,179.24053160008043,179.24053160008043,179.24053160008043,179.24053160008043,179.24053160008043,179.24053160008043,179.24053160008043,179.24053160008043,23,0,,,179.24053160008043,179.44241470005363,1000,179.44241470005363,1000,1000,1000,1000,1,num_2,0.6277880999259651,,34,2,2026-03-13_10h17.20.451,2026A_exp2,2022.2.4,59.99566834960571,
1000,1,0.0,0.0,1,0,53,53,33,,,,,180.091380600119,180.7420600000769,180.7420600000769,181.243074900005,45,315,181.243074900005,181.243074900005,181.243074900005,181.243074900005,181.243074900005,181.243074900005,181.243074900005,181.243074900005,181.243074900005,181.59291499992833,181.59291499992833,181.59291499992833,181.59291499992833,181.59291499992833,181.59291499992833,181.59291499992833,181.59291499992833,181.59291499992833,22,0,,,181.59291499992833,181.7954047000967,1000,181.7954047000967,1000,1000,1000,1000,0,num_3,0.5943006998859346,,34,2,2026-03-13_10h17.20.451,2026A_exp2,2022.2.4,59.99566834960571,
1,0,0.0,4.9,1,0,54,54,53,,,,,182.4102592000272,183.06102699995972,183.06102699995972,183.56226500007324,315,45,183.56226500007324,183.56226500007324,183.56226500007324,183.56226500007324,183.56226500007324,183.56226500007324,183.56226500007324,183.56226500007324,183.56226500007324,183.92862679995596,183.92862679995596,183.92862679995596,183.92862679995596,183.92862679995596,183.92862679995596,183.92862679995596,183.92862679995596,183.92862679995596,23,0,,,183.92862679995596,184.1288395000156,4.9,184.1288395000156,1,4.9,1,1,1000,num_4,0.6686765998601913,,34,2,2026-03-13_10h17.20.451,2026A_exp2,2022.2.4,59.99566834960571,
1,0,3.7,6.1,0,0,55,55,55,,,,,184.8295404999517,185.48007720010355,185.48007720010355,185.96450209990144,45,45,185.96450209990144,185.96450209990144,185.96450209990144,185.96450209990144,185.96450209990144,185.96450209990144,185.96450209990144,185.96450209990144,185.96450209990144,186.33090179995634,186.33090179995634,186.33090179995634,186.33090179995634,186.33090179995634,186.33090179995634,186.33090179995634,186.33090179995634,186.33090179995634,22,1,[0.216650300193578],[0.23348010005429387],186.33090179995634,186.53105120011605,3.7,186.53105120011605,0,3.7,1,0,1000,num_1,0.6906355998944491,,34,2,2026-03-13_10h17.20.451,2026A_exp2,2022.2.4,59.99566834960571,
1,0,0.0,0.0,1,0,56,56,73,,,,,187.24871840002015,187.88242870010436,187.88242870010436,188.39749350002967,45,45,188.39749350002967,188.39749350002967,188.39749350002967,188.39749350002967,188.39749350002967,188.39749350002967,188.39749350002967,188.39749350002967,188.39749350002967,188.75007060007192,188.75007060007192,188.75007060007192,188.75007060007192,188.75007060007192,188.75007060007192,188.75007060007192,188.75007060007192,188.75007060007192,8,3,"[0.004187899874523282, 0.16483549983240664, 0.2982405999209732]","[0.14814289985224605, 0.2484213998541236, 0.3150249000173062]",188.75007060007192,188.95030299993232,0.0,188.95030299993232,0,0.0,0,1,1000,num_1,0.8080527998972684,,34,2,2026-03-13_10h17.20.451,2026A_exp2,2022.2.4,59.99566834960571,
1,0,3.7,0.0,0,0,57,57,65,,,,,189.78439859999344,190.43503990001045,190.43503990001045,190.936192400055,315,315,190.936192400055,190.936192400055,190.936192400055,190.936192400055,190.936192400055,190.936192400055,190.936192400055,190.936192400055,190.936192400055,191.28592319996096,191.28592319996096,191.28592319996096,191.28592319996096,191.28592319996096,191.28592319996096,191.28592319996096,191.28592319996096,191.28592319996096,0,1,[0.001201000064611435],[0.35016870009712875],191.28592319996096,191.48623379995115,3.7,191.48623379995115,1,3.7,1,1,1000,num_4,0.8157416998874396,,34,2,2026-03-13_10h17.20.451,2026A_exp2,2022.2.4,59.99566834960571,
1,0,3.7,3.7,0,0,58,58,13,,,,,192.32012800010853,192.97062880010344,192.97062880010344,193.45570380007848,315,315,193.45570380007848,193.45570380007848,193.45570380007848,193.45570380007848,193.45570380007848,193.45570380007848,193.45570380007848,193.45570380007848,193.45570380007848,193.82183560007252,193.82183560007252,193.82183560007252,193.82183560007252,193.82183560007252,193.82183560007252,193.82183560007252,193.82183560007252,193.82183560007252,4,4,"[0.0007511998992413282, 0.1003334999550134, 0.16662999987602234, 0.36739269993267953]","[0.08357269992120564, 0.13351269997656345, 0.350582999875769, 0.367397699970752]",193.82183560007252,194.02192709990777,3.7,194.02192709990777,0,3.7,1,0,1000,num_1,0.6967258998192847,,34,2,2026-03-13_10h17.20.451,2026A_exp2,2022.2.4,59.99566834960571,
1000,1,3.7,4.9,1,0,59,59,43,,,,,194.73921489994973,195.39003630005755,195.39003630005755,195.87434370000847,45,45,195.87434370000847,195.87434370000847,195.87434370000847,195.87434370000847,195.87434370000847,195.87434370000847,195.87434370000847,195.87434370000847,195.87434370000847,196.24081819993444,196.24081819993444,196.24081819993444,196.24081819993444,196.24081819993444,196.24081819993444,196.24081819993444,196.24081819993444,196.24081819993444,0,1,[0.0011944000143557787],[0.36704919999465346],196.24081819993444,196.44278050004505,1000,196.44278050004505,1000,1000,1000,1000,0,num_3,0.7471316999290138,,34,2,2026-03-13_10h17.20.451,2026A_exp2,2022.2.4,59.99566834960571,
1000,1,4.9,0.0,1,0,60,60,22,,,,,197.2084192999173,197.85905790003017,197.85905790003017,198.36029500002041,45,45,198.36029500002041,198.36029500002041,198.36029500002041,198.36029500002041,198.36029500002041,198.36029500002041,198.36029500002041,198.36029500002041,198.36029500002041,198.72666479996406,198.72666479996406,198.72666479996406,198.72666479996406,198.72666479996406,198.72666479996406,198.72666479996406,198.72666479996406,198.72666479996406,0,1,[0.0007881999481469393],[0.36702250014059246],198.72666479996406,198.92858959990554,1000,198.92858959990554,1000,1000,1000,1000,1,num_2,0.7092855998780578,,34,2,2026-03-13_10h17.20.451,2026A_exp2,2022.2.4,59.99566834960571,
0,0,0.0,3.7,1,0,61,61,10,,,,,199.66091310000047,200.31150320009328,200.31150320009328,200.81276110000908,315,45,200.81276110000908,200.81276110000908,200.81276110000908,200.81276110000908,200.81276110000908,200.81276110000908,200.81276110000908,200.81276110000908,200.81276110000908,201.16253329999745,201.16253329999745,201.16253329999745,201.16253329999745,201.16253329999745,201.16253329999745,201.16253329999745,201.16253329999745,201.16253329999745,0,1,[0.0011903000995516777],[0.35058590001426637],201.16253329999745,201.3625453999266,0.0,201.3625453999266,0,0.0,0,1,1000,num_1,0.7400994999334216,,34,2,2026-03-13_10h17.20.451,2026A_exp2,2022.2.4,59.99566834960571,
1000,1,4.9,0.0,1,0,62,62,5,,,,,202.13000079989433,202.780720599927,202.780720599927,203.26507760002278,45,45,203.26507760002278,203.26507760002278,203.26507760002278,203.26507760002278,203.26507760002278,203.26507760002278,203.26507760002278,203.26507760002278,203.26507760002278,203.63153819995932,203.63153819995932,203.63153819995932,203.63153819995932,203.63153819995932,203.63153819995932,203.63153819995932,203.63153819995932,203.63153819995932,23,0,,,203.63153819995932,203.8336519000586,1000,203.8336519000586,1000,1000,1000,1000,1,num_2,0.5877729998901486,,34,2,2026-03-13_10h17.20.451,2026A_exp2,2022.2.4,59.99566834960571,
1000,1,0.0,0.0,0,0,63,63,80,,,,,204.4489684998989,205.0996518000029,205.0996518000029,205.6008458000142,45,315,205.6008458000142,205.6008458000142,205.6008458000142,205.6008458000142,205.6008458000142,205.6008458000142,205.6008458000142,205.6008458000142,205.6008458000142,205.9671785000246,205.9671785000246,205.9671785000246,205.9671785000246,205.9671785000246,205.9671785000246,205.9671785000246,205.9671785000246,205.9671785000246,17,3,"[0.0012827001046389341, 0.11678909999318421, 0.15022310009226203]","[0.06681099999696016, 0.13346819998696446, 0.16693209996446967]",205.9671785000246,206.16966010001488,1000,206.16966010001488,1000,1000,1000,1000,1,num_2,0.5479473997838795,,34,2,2026-03-13_10h17.20.451,2026A_exp2,2022.2.4,59.99566834960571,
1,0,4.9,0.0,1,0,64,64,8,,,,,206.73462729994208,207.38521880004555,207.38521880004555,207.88657400012016,45,315,207.88657400012016,207.88657400012016,207.88657400012016,207.88657400012016,207.88657400012016,207.88657400012016,207.88657400012016,207.88657400012016,207.88657400012016,208.25287800002843,208.25287800002843,208.25287800002843,208.25287800002843,208.25287800002843,208.25287800002843,208.25287800002843,208.25287800002843,208.25287800002843,0,1,[0.0011203999165445566],[0.36721789999864995],208.25287800002843,208.4532135000918,0.0,208.4532135000918,0,0.0,0,1,1000,num_1,0.6490210997872055,,34,2,2026-03-13_10h17.20.451,2026A_exp2,2022.2.4,59.99566834960571,
1000,1,3.7,6.1,0,0,65,65,84,,,,,209.12222189991735,209.77115030004643,209.77115030004643,210.27218570001423,315,45,210.27218570001423,210.27218570001423,210.27218570001423,210.27218570001423,210.27218570001423,210.27218570001423,210.27218570001423,210.27218570001423,210.27218570001423,210.63865240011364,210.63865240011364,210.63865240011364,210.63865240011364,210.63865240011364,210.63865240011364,210.63865240011364,210.63865240011364,210.63865240011364,17,2,"[0.0012443000450730324, 0.10017629992216825]","[0.08336760010570288, 0.1167284999974072]",210.63865240011364,210.84070780011825,1000,210.84070780011825,1000,1000,1000,1000,1,num_2,0.6446191999129951,,34,2,2026-03-13_10h17.20.451,2026A_exp2,2022.2.4,59.99566834960571,
1000,1,6.1,0.0,0,0,66,66,82,,,,,211.506042300025,212.1565261001233,212.1565261001233,212.65794859989546,315,45,212.65794859989546,212.65794859989546,212.65794859989546,212.65794859989546,212.65794859989546,212.65794859989546,212.65794859989546,212.65794859989546,212.65794859989546,213.024253499927,213.024253499927,213.024253499927,213.024253499927,213.024253499927,213.024253499927,213.024253499927,213.024253499927,213.024253499927,21,1,[0.001238199882209301],[0.0334498998709023],213.024253499927,213.2261844999157,1000,213.2261844999157,1000,1000,1000,1000,0,num_3,0.5238786998670548,,34,2,2026-03-13_10h17.20.451,2026A_exp2,2022.2.4,59.99566834960571,
1000,1,3.7,6.1,0,0,67,67,0,,,,,213.7749507999979,214.40901930001564,214.40901930001564,214.909953400027,45,315,214.909953400027,214.909953400027,214.909953400027,214.909953400027,214.909953400027,214.909953400027,214.909953400027,214.909953400027,214.909953400027,215.2765536000952,215.2765536000952,215.2765536000952,215.2765536000952,215.2765536000952,215.2765536000952,215.2765536000952,215.2765536000952,215.2765536000952,22,1,[0.11707529984414577],[0.13365099998191],215.2765536000952,215.47867739992216,1000,215.47867739992216,1000,1000,1000,1000,1,num_2,0.8466010000556707,,34,2,2026-03-13_10h17.20.451,2026A_exp2,2022.2.4,59.99566834960571,
1000,1,0.0,6.1,0,0,68,68,37,,,,,216.3442875999026,216.99502189992927,216.99502189992927,217.49596829991788,315,45,217.49596829991788,217.49596829991788,217.49596829991788,217.49596829991788,217.49596829991788,217.49596829991788,217.49596829991788,217.49596829991788,217.49596829991788,217.86255479999818,217.86255479999818,217.86255479999818,217.86255479999818,217.86255479999818,217.86255479999818,217.86255479999818,217.86255479999818,217.86255479999818,0,1,[0.0012489999644458294],[0.3671136999037117],217.86255479999818,218.06485909991898,1000,218.06485909991898,1000,1000,1000,1000,1,num_2,0.6449221998918802,,34,2,2026-03-13_10h17.20.451,2026A_exp2,2022.2.4,59.99566834960571,
1000,1,0.0,0.0,1,0,69,69,27,,,,,218.72994869994,219.38056279998273,219.38056279998273,219.88166490010917,315,45,219.88166490010917,219.88166490010917,219.88166490010917,219.88166490010917,219.88166490010917,219.88166490010917,219.88166490010917,219.88166490010917,219.88166490010917,220.24806790007278,220.24806790007278,220.24806790007278,220.24806790007278,220.24806790007278,220.24806790007278,220.24806790007278,220.24806790007278,220.24806790007278,0,1,[0.0012111999094486237],[0.3672275999560952],220.24806790007278,220.45063510001637,1000,220.45063510001637,1000,1000,1000,1000,1,num_2,0.5399390999227762,,34,2,2026-03-13_10h17.20.451,2026A_exp2,2022.2.4,59.99566834960571,
1,0,6.1,4.9,0,0,70,70,39,,,,,221.01553310011514,221.6662359999027,221.6662359999027,222.16730910004117,45,315,222.16730910004117,222.16730910004117,222.16730910004117,222.16730910004117,222.16730910004117,222.16730910004117,222.16730910004117,222.16730910004117,222.16730910004117,222.53385269991122,222.53385269991122,222.53385269991122,222.53385269991122,222.53385269991122,222.53385269991122,222.53385269991122,222.53385269991122,222.53385269991122,1,1,[0.0013899998739361763],[0.36726059997454286],222.53385269991122,222.73409099993296,6.1,222.73409099993296,1,6.1,1,1,1000,num_4,0.7278318998869509,,34,2,2026-03-13_10h17.20.451,2026A_exp2,2022.2.4,59.99566834960571,
1000,1,0.0,0.0,0,0,71,71,64,,,,,223.48469360009767,224.13541410001926,224.13541410001926,224.63645830005407,315,45,224.63645830005407,224.63645830005407,224.63645830005407,224.63645830005407,224.63645830005407,224.63645830005407,224.63645830005407,224.63645830005407,224.63645830005407,225.00354030006565,225.00354030006565,225.00354030006565,225.00354030006565,225.00354030006565,225.00354030006565,225.00354030006565,225.00354030006565,225.00354030006565,0,1,[0.0012378999963402748],[0.3671663999557495],225.00354030006565,225.20527869998477,1000,225.20527869998477,1000,1000,1000,1000,0,num_3,0.5925636996980757,,34,2,2026-03-13_10h17.20.451,2026A_exp2,2022.2.4,59.99566834960571,
1000,1,6.1,0.0,1,0,72,72,68,,,,,225.82030600006692,226.4711196999997,226.4711196999997,226.97226290008985,45,45,226.97226290008985,226.97226290008985,226.97226290008985,226.97226290008985,226.97226290008985,226.97226290008985,226.97226290008985,226.97226290008985,226.97226290008985,227.3386649999302,227.3386649999302,227.3386649999302,227.3386649999302,227.3386649999302,227.3386649999302,227.3386649999302,227.3386649999302,227.3386649999302,23,0,,,227.3386649999302,227.54079449991696,1000,227.54079449991696,1000,1000,1000,1000,0,num_3,0.5049371998757124,,34,2,2026-03-13_10h17.20.451,2026A_exp2,2022.2.4,59.99566834960571,
1,0,4.9,0.0,0,0,73,73,58,,,,,228.07256929995492,228.72339190007187,228.72339190007187,229.20782219991088,315,45,229.20782219991088,229.20782219991088,229.20782219991088,229.20782219991088,229.20782219991088,229.20782219991088,229.20782219991088,229.20782219991088,229.20782219991088,229.57415070012212,229.57415070012212,229.57415070012212,229.57415070012212,229.57415070012212,229.57415070012212,229.57415070012212,229.57415070012212,229.57415070012212,23,0,,,229.57415070012212,229.77438220009208,4.9,229.77438220009208,1,4.9,1,1,1000,num_4,0.6153442997019738,,34,2,2026-03-13_10h17.20.451,2026A_exp2,2022.2.4,59.99566834960571,
1000,1,0.0,0.0,0,0,74,74,15,,,,,230.40841490007006,231.04239160008729,231.04239160008729,231.54346999991685,315,45,231.54346999991685,231.54346999991685,231.54346999991685,231.54346999991685,231.54346999991685,231.54346999991685,231.54346999991685,231.54346999991685,231.54346999991685,231.90989840007387,231.90989840007387,231.90989840007387,231.90989840007387,231.90989840007387,231.90989840007387,231.90989840007387,231.90989840007387,231.90989840007387,23,0,,,231.90989840007387,232.11186009994708,1000,232.11186009994708,1000,1000,1000,1000,0,num_3,0.605374600039795,,34,2,2026-03-13_10h17.20.451,2026A_exp2,2022.2.4,59.99566834960571,
1000,1,0.0,3.7,1,0,75,75,47,,,,,232.74402670003474,233.39469119999558,233.39469119999558,233.89545780001208,315,315,233.89545780001208,233.89545780001208,233.89545780001208,233.89545780001208,233.89545780001208,233.89545780001208,233.89545780001208,233.89545780001208,233.89545780001208,234.26225630007684,234.26225630007684,234.26225630007684,234.26225630007684,234.26225630007684,234.26225630007684,234.26225630007684,234.26225630007684,234.26225630007684,23,0,,,234.26225630007684,234.46409319993109,1000,234.46409319993109,1000,1000,1000,1000,1,num_2,0.5975687999743968,,34,2,2026-03-13_10h17.20.451,2026A_exp2,2022.2.4,59.99566834960571,
1000,1,0.0,0.0,0,0,76,76,74,,,,,235.0796066999901,235.73062169994228,235.73062169994228,236.23153580003418,45,45,236.23153580003418,236.23153580003418,236.23153580003418,236.23153580003418,236.23153580003418,236.23153580003418,236.23153580003418,236.23153580003418,236.23153580003418,236.5977864000015,236.5977864000015,236.5977864000015,236.5977864000015,236.5977864000015,236.5977864000015,236.5977864000015,236.5977864000015,236.5977864000015,23,0,,,236.5977864000015,236.79952950007282,1000,236.79952950007282,1000,1000,1000,1000,1,num_2,0.7336692998651415,,34,2,2026-03-13_10h17.20.451,2026A_exp2,2022.2.4,59.99566834960571,
1000,1,0.0,6.1,1,0,77,77,88,,,,,237.54888679995202,238.199420100078,238.199420100078,238.70070870011114,45,45,238.70070870011114,238.70070870011114,238.70070870011114,238.70070870011114,238.70070870011114,238.70070870011114,238.70070870011114,238.70070870011114,238.70070870011114,239.06699210009538,239.06699210009538,239.06699210009538,239.06699210009538,239.06699210009538,239.06699210009538,239.06699210009538,239.06699210009538,239.06699210009538,21,2,"[0.001172799849882722, 0.033578299917280674]","[0.017455399967730045, 0.050269699888303876]",239.06699210009538,239.26912830001675,1000,239.26912830001675,1000,1000,1000,1000,1,num_2,0.512366599868983,,34,2,2026-03-13_10h17.20.451,2026A_exp2,2022.2.4,59.99566834960571,
1000,1,4.9,3.7,0,0,78,78,32,,,,,239.80109689990059,240.45165150007233,240.45165150007233,240.93624319997616,315,315,240.93624319997616,240.93624319997616,240.93624319997616,240.93624319997616,240.93624319997616,240.93624319997616,240.93624319997616,240.93624319997616,240.93624319997616,241.3026374001056,241.3026374001056,241.3026374001056,241.3026374001056,241.3026374001056,241.3026374001056,241.3026374001056,241.3026374001056,241.3026374001056,18,1,[0.017225899966433644],[0.10016239993274212],241.3026374001056,241.50478320010006,1000,241.50478320010006,1000,1000,1000,1000,0,num_3,0.46045719971880317,,34,2,2026-03-13_10h17.20.451,2026A_exp2,2022.2.4,59.99566834960571,
0,0,4.9,0.0,1,0,79,79,25,,,,,241.9866059999913,242.63731759996153,242.63731759996153,243.12160820001736,45,315,243.12160820001736,243.12160820001736,243.12160820001736,243.12160820001736,243.12160820001736,243.12160820001736,243.12160820001736,243.12160820001736,243.12160820001736,243.48817920009606,243.48817920009606,243.48817920009606,243.48817920009606,243.48817920009606,243.48817920009606,243.48817920009606,243.48817920009606,243.48817920009606,23,0,,,243.48817920009606,243.68820849992335,4.9,243.68820849992335,0,4.9,1,0,1000,num_1,0.6209871000610292,,34,2,2026-03-13_10h17.20.451,2026A_exp2,2022.2.4,59.99566834960571,
1,0,0.0,0.0,0,0,80,80,1,,,,,244.33886100002564,244.9904469999019,244.9904469999019,245.49082099995576,315,45,245.49082099995576,245.49082099995576,245.49082099995576,245.49082099995576,245.49082099995576,245.49082099995576,245.49082099995576,245.49082099995576,245.49082099995576,245.85720940004103,245.85720940004103,245.85720940004103,245.85720940004103,245.85720940004103,245.85720940004103,245.85720940004103,245.85720940004103,245.85720940004103,20,2,"[0.0014229998923838139, 0.06709169992245734]","[0.033949799835681915, 0.08378369989804924]",245.85720940004103,246.0575276000891,0.0,246.0575276000891,0,0.0,0,1,1000,num_1,0.5642029999289662,,34,2,2026-03-13_10h17.20.451,2026A_exp2,2022.2.4,59.99566834960571,
1000,1,6.1,0.0,1,0,81,81,75,,,,,246.6412214001175,247.29194759996608,247.29194759996608,247.77633929997683,45,45,247.77633929997683,247.77633929997683,247.77633929997683,247.77633929997683,247.77633929997683,247.77633929997683,247.77633929997683,247.77633929997683,247.77633929997683,248.14302349998616,248.14302349998616,248.14302349998616,248.14302349998616,248.14302349998616,248.14302349998616,248.14302349998616,248.14302349998616,248.14302349998616,1,2,"[0.0011992999352514744, 0.2838465999811888]","[0.26708199991844594, 0.36720289988443255]",248.14302349998616,248.34506809990853,1000,248.34506809990853,1000,1000,1000,1000,1,num_2,0.6853399998508394,,34,2,2026-03-13_10h17.20.451,2026A_exp2,2022.2.4,59.99566834960571,
1,0,0.0,4.9,0,0,82,82,4,,,,,249.06043810001574,249.71101420000196,249.71101420000196,250.19605619995855,45,315,250.19605619995855,250.19605619995855,250.19605619995855,250.19605619995855,250.19605619995855,250.19605619995855,250.19605619995855,250.19605619995855,250.19605619995855,250.56191539997235,250.56191539997235,250.56191539997235,250.56191539997235,250.56191539997235,250.56191539997235,250.56191539997235,250.56191539997235,250.56191539997235,20,2,"[0.0012100997846573591, 0.049749699886888266]","[0.03288739989511669, 0.08302839985117316]",250.56191539997235,250.76191279990599,0.0,250.76191279990599,0,0.0,0,1,1000,num_1,0.556608899962157,,34,2,2026-03-13_10h17.20.451,2026A_exp2,2022.2.4,59.99566834960571,
1,0,6.1,0.0,0,0,83,83,56,,,,,251.3458779999055,251.99651310010813,251.99651310010813,252.48092429991812,315,315,252.48092429991812,252.48092429991812,252.48092429991812,252.48092429991812,252.48092429991812,252.48092429991812,252.48092429991812,252.48092429991812,252.48092429991812,252.84752449998632,252.84752449998632,252.84752449998632,252.84752449998632,252.84752449998632,252.84752449998632,252.84752449998632,252.84752449998632,252.84752449998632,5,4,"[0.0011831000447273254, 0.26709860004484653, 0.30052060005255044, 0.3338963999412954]","[0.2171831000596285, 0.28390919999219477, 0.31725249998271465, 0.3672629001084715]",252.84752449998632,253.0477229000535,6.1,253.0477229000535,1,6.1,1,1,1000,num_4,0.6384003998246044,,34,2,2026-03-13_10h17.20.451,2026A_exp2,2022.2.4,59.99566834960571,
1000,1,0.0,3.7,0,0,84,84,51,,,,,253.71497180010192,254.36571000004187,254.36571000004187,254.84999380004592,45,315,254.84999380004592,254.84999380004592,254.84999380004592,254.84999380004592,254.84999380004592,254.84999380004592,254.84999380004592,254.84999380004592,254.84999380004592,255.21658460004255,255.21658460004255,255.21658460004255,255.21658460004255,255.21658460004255,255.21658460004255,255.21658460004255,255.21658460004255,255.21658460004255,16,2,"[0.0012985998764634132, 0.2170660998672247]","[0.10009839991107583, 0.23365169996395707]",255.21658460004255,255.41918640001677,1000,255.41918640001677,1000,1000,1000,1000,1,num_2,0.603259899886325,,34,2,2026-03-13_10h17.20.451,2026A_exp2,2022.2.4,59.99566834960571,
1,0,3.7,0.0,0,0,85,85,42,,,,,256.05068450002,256.70135940006,256.70135940006,257.20236829994246,45,45,257.20236829994246,257.20236829994246,257.20236829994246,257.20236829994246,257.20236829994246,257.20236829994246,257.20236829994246,257.20236829994246,257.20236829994246,257.56889200001024,257.56889200001024,257.56889200001024,257.56889200001024,257.56889200001024,257.56889200001024,257.56889200001024,257.56889200001024,257.56889200001024,0,1,[0.0012187999673187733],[0.36738889990374446],257.56889200001024,257.76898239995353,3.7,257.76898239995353,0,3.7,1,0,1000,num_1,0.6365193999372423,,34,2,2026-03-13_10h17.20.451,2026A_exp2,2022.2.4,59.99566834960571,
1000,1,0.0,4.9,1,0,86,86,31,,,,,258.4370601999108,259.08701619994827,259.08701619994827,259.58819300006144,315,45,259.58819300006144,259.58819300006144,259.58819300006144,259.58819300006144,259.58819300006144,259.58819300006144,259.58819300006144,259.58819300006144,259.58819300006144,259.93782770005055,259.93782770005055,259.93782770005055,259.93782770005055,259.93782770005055,259.93782770005055,259.93782770005055,259.93782770005055,259.93782770005055,0,1,[0.001238600118085742],[0.3503121000248939],259.93782770005055,260.1397311000619,1000,260.1397311000619,1000,1000,1000,1000,1,num_2,0.6338692998979241,,34,2,2026-03-13_10h17.20.451,2026A_exp2,2022.2.4,59.99566834960571,
1000,1,3.7,0.0,0,0,87,87,2,,,,,260.788773200009,261.4394859999884,261.4394859999884,261.9406216000207,315,45,261.9406216000207,261.9406216000207,261.9406216000207,261.9406216000207,261.9406216000207,261.9406216000207,261.9406216000207,261.9406216000207,261.9406216000207,262.30698310001753,262.30698310001753,262.30698310001753,262.30698310001753,262.30698310001753,262.30698310001753,262.30698310001753,262.30698310001753,262.30698310001753,0,1,[0.00120419985614717],[0.3673151999246329],262.30698310001753,262.5088480999693,1000,262.5088480999693,1000,1000,1000,1000,0,num_3,0.5052426997572184,,34,2,2026-03-13_10h17.20.451,2026A_exp2,2022.2.4,59.99566834960571,
1,0,0.0,6.1,0,0,88,88,60,,,,,263.04102870007046,263.6916938999202,263.6916938999202,264.1925252999645,45,315,264.1925252999645,264.1925252999645,264.1925252999645,264.1925252999645,264.1925252999645,264.1925252999645,264.1925252999645,264.1925252999645,264.1925252999645,264.5423977000173,264.5423977000173,264.5423977000173,264.5423977000173,264.5423977000173,264.5423977000173,264.5423977000173,264.5423977000173,264.5423977000173,3,3,"[0.0012813000939786434, 0.250622000079602, 0.30064170015975833]","[0.21728550014086068, 0.2839506999589503, 0.3507855001371354]",264.5423977000173,264.742637099931,0.0,264.742637099931,0,0.0,0,1,1000,num_1,0.6079780997242779,,34,2,2026-03-13_10h17.20.451,2026A_exp2,2022.2.4,59.99566834960571,
1000,1,4.9,0.0,1,0,89,89,72,,,,,265.3765885999892,266.02739770011976,266.02739770011976,266.51175280008465,315,45,266.51175280008465,266.51175280008465,266.51175280008465,266.51175280008465,266.51175280008465,266.51175280008465,266.51175280008465,266.51175280008465,266.51175280008465,266.8781391000375,266.8781391000375,266.8781391000375,266.8781391000375,266.8781391000375,266.8781391000375,266.8781391000375,266.8781391000375,266.8781391000375,0,1,[0.001271299785003066],[0.3671972998417914],266.8781391000375,267.080072700046,1000,267.080072700046,1000,1000,1000,1000,1,num_2,0.7425009999424219,,34,2,2026-03-13_10h17.20.451,2026A_exp2,2022.2.4,59.99566834960571,
,,,,,,,,,,,,,,,,,,,,,,,,,,,,,,,,,,,,,,,,,,,,,,,,,,,,267.8550422999542,,,,,,,
