validity,detectorcomp,contrastCW,contrastCCW,precueCWorCCW,block_80trials.thisRepN,block_80trials.thisTrialN,block_80trials.thisN,block_80trials.thisIndex,etRecord.started,etRecord.stopped,text.started,text.stopped,text_4.started,text_4.stopped,text_6.started,text_6.stopped,oriCW,oriCCW,roi_2.started,grating_UR.started,grating_UL.started,grating_LR.started,grating_LL.started,noise_UR.started,noise_UL.started,noise_LR.started,noise_LL.started,roi_2.stopped,grating_UR.stopped,grating_UL.stopped,grating_LR.stopped,grating_LL.stopped,noise_UR.stopped,noise_UL.stopped,noise_LR.stopped,noise_LL.stopped,outframe,roi_2.numLooks,roi_2.timesOn,roi_2.timesOff,text_2.started,text_2.stopped,probedcontrast,key_resp.started,respdetect,relevantContrast,correctDetect,TorFdetect,respCWorCCW,key_resp.keys,key_resp.rt,feedback_display_.started,participantNo,blockNo,date,expName,psychopyVersion,frameRate,
1,0,6.1,0.0,1,0,0,0,13,4.9900030717253685e-05,4.9900030717253685e-05,45.740619600052014,47.74842060008086,47.74842060008086,48.37852430017665,48.37852430017665,48.90060680010356,45,45,48.90060680010356,48.90060680010356,48.90060680010356,48.90060680010356,48.90060680010356,48.90060680010356,48.90060680010356,48.90060680010356,48.90060680010356,49.2459472999908,49.2459472999908,49.2459472999908,49.2459472999908,49.2459472999908,49.2459472999908,49.2459472999908,49.2459472999908,49.2459472999908,0,1,[0.001152500044554472],[0.3674808000214398],49.2459472999908,49.446125800022855,0.0,49.446125800022855,0,0.0,0,1,1000,num_1,0.5645395999308676,,33,11,2026-03-12_18h11.03.126,2026A_exp2,2022.2.4,59.94032340620004,
1,0,0.0,0.0,1,0,1,1,70,,,,,50.030108800157905,50.6806391000282,50.6806391000282,51.165080700069666,315,45,51.165080700069666,51.165080700069666,51.165080700069666,51.165080700069666,51.165080700069666,51.165080700069666,51.165080700069666,51.165080700069666,51.165080700069666,51.53148960019462,51.53148960019462,51.53148960019462,51.53148960019462,51.53148960019462,51.53148960019462,51.53148960019462,51.53148960019462,51.53148960019462,0,1,[0.0012147000525146723],[0.3671320001594722],51.53148960019462,51.73174150008708,0.0,51.73174150008708,1,0.0,0,0,1000,num_4,0.6466842999216169,,33,11,2026-03-12_18h11.03.126,2026A_exp2,2022.2.4,59.94032340620004,
1000,1,4.9,3.7,1,0,2,2,32,,,,,52.399129200028256,53.049715999979526,53.049715999979526,53.533814100082964,315,45,53.533814100082964,53.533814100082964,53.533814100082964,53.533814100082964,53.533814100082964,53.533814100082964,53.533814100082964,53.533814100082964,53.533814100082964,53.900744599988684,53.900744599988684,53.900744599988684,53.900744599988684,53.900744599988684,53.900744599988684,53.900744599988684,53.900744599988684,53.900744599988684,0,1,[0.001273800153285265],[0.36706730001606047],53.900744599988684,54.10622650012374,1000,54.10622650012374,1000,1000,1000,1000,0,num_3,0.4314889998640865,,33,11,2026-03-12_18h11.03.126,2026A_exp2,2022.2.4,59.94032340620004,
1000,1,3.7,0.0,1,0,3,3,79,,,,,54.56788070010953,55.21850790013559,55.21850790013559,55.719747400144115,315,45,55.719747400144115,55.719747400144115,55.719747400144115,55.719747400144115,55.719747400144115,55.719747400144115,55.719747400144115,55.719747400144115,55.719747400144115,56.069338500034064,56.069338500034064,56.069338500034064,56.069338500034064,56.069338500034064,56.069338500034064,56.069338500034064,56.069338500034064,56.069338500034064,0,1,[0.0012471999507397413],[0.35048979986459017],56.069338500034064,56.271470200037584,1000,56.271470200037584,1000,1000,1000,1000,0,num_3,0.42646979982964694,,33,11,2026-03-12_18h11.03.126,2026A_exp2,2022.2.4,59.94032340620004,
1,0,6.1,4.9,1,0,4,4,35,,,,,56.72002700017765,57.370807900093496,57.370807900093496,57.855124399997294,315,45,57.855124399997294,57.855124399997294,57.855124399997294,57.855124399997294,57.855124399997294,57.855124399997294,57.855124399997294,57.855124399997294,57.855124399997294,58.22160780010745,58.22160780010745,58.22160780010745,58.22160780010745,58.22160780010745,58.22160780010745,58.22160780010745,58.22160780010745,58.22160780010745,0,1,[0.001245700055733323],[0.36736409994773567],58.22160780010745,58.42178430012427,4.9,58.42178430012427,1,4.9,1,1,1000,num_4,0.8450407998170704,,33,11,2026-03-12_18h11.03.126,2026A_exp2,2022.2.4,59.94032340620004,
1000,1,0.0,4.9,0,0,5,5,11,,,,,59.289219100028276,59.93993029999547,59.93993029999547,60.4243891001679,45,45,60.4243891001679,60.4243891001679,60.4243891001679,60.4243891001679,60.4243891001679,60.4243891001679,60.4243891001679,60.4243891001679,60.4243891001679,60.790391199989244,60.790391199989244,60.790391199989244,60.790391199989244,60.790391199989244,60.790391199989244,60.790391199989244,60.790391199989244,60.790391199989244,0,1,[0.0012359002139419317],[0.3672431001905352],60.790391199989244,60.992732900194824,1000,60.992732900194824,1000,1000,1000,1000,1,num_2,0.3530970998108387,,33,11,2026-03-12_18h11.03.126,2026A_exp2,2022.2.4,59.94032340620004,
1000,1,4.9,4.9,0,0,6,6,31,,,,,61.37464290019125,62.02543180016801,62.02543180016801,62.52659610006958,45,45,62.52659610006958,62.52659610006958,62.52659610006958,62.52659610006958,62.52659610006958,62.52659610006958,62.52659610006958,62.52659610006958,62.52659610006958,62.876079000066966,62.876079000066966,62.876079000066966,62.876079000066966,62.876079000066966,62.876079000066966,62.876079000066966,62.876079000066966,62.876079000066966,0,1,[0.0012322000693529844],[0.35041960002854466],62.876079000066966,63.07845150004141,1000,63.093330500181764,1000,1000,1000,1000,0,num_3,0.40459669986739755,,33,11,2026-03-12_18h11.03.126,2026A_exp2,2022.2.4,59.94032340620004,
1000,1,6.1,3.7,1,0,7,7,24,,,,,63.52699540019967,64.17758290003985,64.17758290003985,64.66193379997276,45,315,64.66193379997276,64.66193379997276,64.66193379997276,64.66193379997276,64.66193379997276,64.66193379997276,64.66193379997276,64.66193379997276,64.66193379997276,65.02851770003326,65.02851770003326,65.02851770003326,65.02851770003326,65.02851770003326,65.02851770003326,65.02851770003326,65.02851770003326,65.02851770003326,23,0,,,65.02851770003326,65.23058310011402,1000,65.23058310011402,1000,1000,1000,1000,0,num_3,0.36380779976025224,,33,11,2026-03-12_18h11.03.126,2026A_exp2,2022.2.4,59.94032340620004,
1000,1,6.1,4.9,1,0,8,8,16,,,,,65.6121535000857,66.26292280014604,66.26292280014604,66.76403110008687,45,315,66.76403110008687,66.76403110008687,66.76403110008687,66.76403110008687,66.76403110008687,66.76403110008687,66.76403110008687,66.76403110008687,66.76403110008687,67.13032410014421,67.13032410014421,67.13032410014421,67.13032410014421,67.13032410014421,67.13032410014421,67.13032410014421,67.13032410014421,67.13032410014421,0,1,[0.0012394001241773367],[0.3665255999658257],67.13032410014421,67.3306554001756,1000,67.3306554001756,1000,1000,1000,1000,0,num_3,0.5117909000255167,,33,11,2026-03-12_18h11.03.126,2026A_exp2,2022.2.4,59.94032340620004,
1000,1,0.0,4.9,1,0,9,9,27,,,,,67.86438210005872,68.51524089998566,68.51524089998566,69.01623519998975,45,45,69.01623519998975,69.01623519998975,69.01623519998975,69.01623519998975,69.01623519998975,69.01623519998975,69.01623519998975,69.01623519998975,69.01623519998975,69.36591060017236,69.36591060017236,69.36591060017236,69.36591060017236,69.36591060017236,69.36591060017236,69.36591060017236,69.36591060017236,69.36591060017236,0,1,[0.0014291999395936728],[0.35048220003955066],69.36591060017236,69.56868150015362,1000,69.58300640014932,1000,1000,1000,1000,1,num_2,0.23508169990964234,,33,11,2026-03-12_18h11.03.126,2026A_exp2,2022.2.4,59.94032340620004,
1000,1,4.9,0.0,1,0,10,10,72,,,,,69.8330447000917,70.4839753000997,70.4839753000997,70.98494280013256,315,45,70.98494280013256,70.98494280013256,70.98494280013256,70.98494280013256,70.98494280013256,70.98494280013256,70.98494280013256,70.98494280013256,70.98494280013256,71.35151399997994,71.35151399997994,71.35151399997994,71.35151399997994,71.35151399997994,71.35151399997994,71.35151399997994,71.35151399997994,71.35151399997994,0,1,[0.0012540998868644238],[0.3666890000458807],71.35151399997994,71.55793180014007,1000,71.55793180014007,1000,1000,1000,1000,0,num_3,1.8045017998665571,,33,11,2026-03-12_18h11.03.126,2026A_exp2,2022.2.4,59.94032340620004,
0,0,0.0,0.0,1,0,11,11,62,,,,,73.38650060002692,74.03745499998331,74.03745499998331,74.53837399999611,45,45,74.53837399999611,74.53837399999611,74.53837399999611,74.53837399999611,74.53837399999611,74.53837399999611,74.53837399999611,74.53837399999611,74.53837399999611,74.9049427001737,74.9049427001737,74.9049427001737,74.9049427001737,74.9049427001737,74.9049427001737,74.9049427001737,74.9049427001737,74.9049427001737,0,1,[0.0012284000404179096],[0.3670675999019295],74.9049427001737,75.10514640016481,0.0,75.10514640016481,1,0.0,0,0,1000,num_4,0.8254247999284416,,33,11,2026-03-12_18h11.03.126,2026A_exp2,2022.2.4,59.94032340620004,
1,0,6.1,0.0,0,0,12,12,50,,,,,75.95577600016259,76.58996780007146,76.58996780007146,77.09111250005662,315,45,77.09111250005662,77.09111250005662,77.09111250005662,77.09111250005662,77.09111250005662,77.09111250005662,77.09111250005662,77.09111250005662,77.09111250005662,77.45731420000084,77.45731420000084,77.45731420000084,77.45731420000084,77.45731420000084,77.45731420000084,77.45731420000084,77.45731420000084,77.45731420000084,3,3,"[0.033674699952825904, 0.10027180006727576, 0.2506291000172496]","[0.08379069995135069, 0.2338816998526454, 0.3670389000326395]",77.45731420000084,77.65775800007395,6.1,77.65775800007395,1,6.1,1,1,1000,num_4,0.8887086999602616,,33,11,2026-03-12_18h11.03.126,2026A_exp2,2022.2.4,59.94032340620004,
1000,1,6.1,3.7,1,0,13,13,0,,,,,78.57512750010937,79.22589640016668,79.22589640016668,79.71026149997488,315,45,79.71026149997488,79.71026149997488,79.71026149997488,79.71026149997488,79.71026149997488,79.71026149997488,79.71026149997488,79.71026149997488,79.71026149997488,80.0766803000588,80.0766803000588,80.0766803000588,80.0766803000588,80.0766803000588,80.0766803000588,80.0766803000588,80.0766803000588,80.0766803000588,0,1,[0.0012672999873757362],[0.3671911000274122],80.0766803000588,80.27891260012984,1000,80.27891260012984,1000,1000,1000,1000,0,num_3,0.27579299989156425,,33,11,2026-03-12_18h11.03.126,2026A_exp2,2022.2.4,59.94032340620004,
1000,1,6.1,0.0,1,0,14,14,60,,,,,80.57711090007797,81.22786510013975,81.22786510013975,81.72907300014049,45,315,81.72907300014049,81.72907300014049,81.72907300014049,81.72907300014049,81.72907300014049,81.72907300014049,81.72907300014049,81.72907300014049,81.72907300014049,82.07863330002874,82.07863330002874,82.07863330002874,82.07863330002874,82.07863330002874,82.07863330002874,82.07863330002874,82.07863330002874,82.07863330002874,0,1,[0.0012353998608887196],[0.3505205998662859],82.07863330002874,82.28101580007933,1000,82.29574780003168,1000,1000,1000,1000,0,num_3,0.386911999899894,,33,11,2026-03-12_18h11.03.126,2026A_exp2,2022.2.4,59.94032340620004,
1,0,4.9,0.0,1,0,15,15,4,,,,,82.71261130017228,83.36336960014887,83.36336960014887,83.86445470014587,45,45,83.86445470014587,83.86445470014587,83.86445470014587,83.86445470014587,83.86445470014587,83.86445470014587,83.86445470014587,83.86445470014587,83.86445470014587,84.2139147000853,84.2139147000853,84.2139147000853,84.2139147000853,84.2139147000853,84.2139147000853,84.2139147000853,84.2139147000853,84.2139147000853,0,1,[0.001277900068089366],[0.3503064000979066],84.2139147000853,84.41441379999742,0.0,84.43103269999847,0,0.0,0,1,1000,num_1,1.4436714998446405,,33,11,2026-03-12_18h11.03.126,2026A_exp2,2022.2.4,59.94032340620004,
1000,1,0.0,4.9,0,0,16,16,77,,,,,85.89912090008147,86.54985540010966,86.54985540010966,87.05091390013695,315,315,87.05091390013695,87.05091390013695,87.05091390013695,87.05091390013695,87.05091390013695,87.05091390013695,87.05091390013695,87.05091390013695,87.05091390013695,87.41748529998586,87.41748529998586,87.41748529998586,87.41748529998586,87.41748529998586,87.41748529998586,87.41748529998586,87.41748529998586,87.41748529998586,0,1,[0.0012163999490439892],[0.3670975000131875],87.41748529998586,87.61971660004929,1000,87.61971660004929,1000,1000,1000,1000,1,num_2,0.28746020002290606,,33,11,2026-03-12_18h11.03.126,2026A_exp2,2022.2.4,59.94032340620004,
1,0,0.0,0.0,0,0,17,17,2,,,,,87.93445729999803,88.58515280019492,88.58515280019492,89.08629280002788,45,45,89.08629280002788,89.08629280002788,89.08629280002788,89.08629280002788,89.08629280002788,89.08629280002788,89.08629280002788,89.08629280002788,89.08629280002788,89.43614570004866,89.43614570004866,89.43614570004866,89.43614570004866,89.43614570004866,89.43614570004866,89.43614570004866,89.43614570004866,89.43614570004866,0,1,[0.0012117000296711922],[0.3504229001700878],89.43614570004866,89.63636830006726,0.0,89.63636830006726,1,0.0,0,0,1000,num_4,0.8695831999648362,,33,11,2026-03-12_18h11.03.126,2026A_exp2,2022.2.4,59.94032340620004,
1000,1,6.1,0.0,0,0,18,18,33,,,,,90.5374094999861,91.18792730011046,91.18792730011046,91.67219440010376,315,315,91.67219440010376,91.67219440010376,91.67219440010376,91.67219440010376,91.67219440010376,91.67219440010376,91.67219440010376,91.67219440010376,91.67219440010376,92.03871039999649,92.03871039999649,92.03871039999649,92.03871039999649,92.03871039999649,92.03871039999649,92.03871039999649,92.03871039999649,92.03871039999649,0,1,[0.0012488001957535744],[0.3671582001261413],92.03871039999649,92.24114629998803,1000,92.24114629998803,1000,1000,1000,1000,0,num_3,0.24203799990937114,,33,11,2026-03-12_18h11.03.126,2026A_exp2,2022.2.4,59.94032340620004,
1000,1,3.7,3.7,1,0,19,19,40,,,,,92.50577539997175,93.1564705001656,93.1564705001656,93.65780870011076,315,315,93.65780870011076,93.65780870011076,93.65780870011076,93.65780870011076,93.65780870011076,93.65780870011076,93.65780870011076,93.65780870011076,93.65780870011076,94.0239617000334,94.0239617000334,94.0239617000334,94.0239617000334,94.0239617000334,94.0239617000334,94.0239617000334,94.0239617000334,94.0239617000334,0,1,[0.0007715001702308655],[0.36752440012060106],94.0239617000334,94.22580830007792,1000,94.22580830007792,1000,1000,1000,1000,1,num_2,0.2328278999775648,,33,11,2026-03-12_18h11.03.126,2026A_exp2,2022.2.4,59.94032340620004,
1000,1,3.7,6.1,0,0,20,20,28,,,,,94.47439380013384,95.12514880020171,95.12514880020171,95.62631860002875,45,45,95.62631860002875,95.62631860002875,95.62631860002875,95.62631860002875,95.62631860002875,95.62631860002875,95.62631860002875,95.62631860002875,95.62631860002875,95.99264940014109,95.99264940014109,95.99264940014109,95.99264940014109,95.99264940014109,95.99264940014109,95.99264940014109,95.99264940014109,95.99264940014109,0,1,[0.0012443000450730324],[0.3671061999630183],95.99264940014109,96.19446500018239,1000,96.19446500018239,1000,1000,1000,1000,1,num_2,0.30404069973155856,,33,11,2026-03-12_18h11.03.126,2026A_exp2,2022.2.4,59.94032340620004,
1,0,3.7,0.0,1,0,21,21,74,,,,,96.52650819998235,97.17705220007338,97.17705220007338,97.67824240005575,45,315,97.67824240005575,97.67824240005575,97.67824240005575,97.67824240005575,97.67824240005575,97.67824240005575,97.67824240005575,97.67824240005575,97.67824240005575,98.02789880009368,98.02789880009368,98.02789880009368,98.02789880009368,98.02789880009368,98.02789880009368,98.02789880009368,98.02789880009368,98.02789880009368,0,1,[0.0012604999355971813],[0.35063999984413385],98.02789880009368,98.22822490008548,0.0,98.24496200005524,1,0.0,0,0,1000,num_4,0.8379453998059034,,33,11,2026-03-12_18h11.03.126,2026A_exp2,2022.2.4,59.94032340620004,
1,0,0.0,0.0,1,0,22,22,66,,,,,99.1121086999774,99.76318740006536,99.76318740006536,100.24756370019168,315,45,100.24756370019168,100.24756370019168,100.24756370019168,100.24756370019168,100.24756370019168,100.24756370019168,100.24756370019168,100.24756370019168,100.24756370019168,100.61400569998659,100.61400569998659,100.61400569998659,100.61400569998659,100.61400569998659,100.61400569998659,100.61400569998659,100.61400569998659,100.61400569998659,0,1,[0.00071310019120574],[0.3674058001488447],100.61400569998659,100.81424520001747,0.0,100.81424520001747,0,0.0,0,1,1000,num_1,0.7400937997736037,,33,11,2026-03-12_18h11.03.126,2026A_exp2,2022.2.4,59.94032340620004,
1000,1,4.9,4.9,0,0,23,23,42,,,,,101.58167620003223,102.21522999997251,102.21522999997251,102.71674960013479,315,45,102.71674960013479,102.71674960013479,102.71674960013479,102.71674960013479,102.71674960013479,102.71674960013479,102.71674960013479,102.71674960013479,102.71674960013479,103.08305130014196,103.08305130014196,103.08305130014196,103.08305130014196,103.08305130014196,103.08305130014196,103.08305130014196,103.08305130014196,103.08305130014196,0,1,[0.0012096997816115618],[0.3673749999143183],103.08305130014196,103.28524380014278,1000,103.28524380014278,1000,1000,1000,1000,1,num_2,0.3644632997456938,,33,11,2026-03-12_18h11.03.126,2026A_exp2,2022.2.4,59.94032340620004,
1000,1,0.0,3.7,0,0,24,24,44,,,,,103.6669781000819,104.31758680008352,104.31758680008352,104.81879900000058,45,315,104.81879900000058,104.81879900000058,104.81879900000058,104.81879900000058,104.81879900000058,104.81879900000058,104.81879900000058,104.81879900000058,104.81879900000058,105.18524900008924,105.18524900008924,105.18524900008924,105.18524900008924,105.18524900008924,105.18524900008924,105.18524900008924,105.18524900008924,105.18524900008924,19,3,"[0.18374650017358363, 0.23387240013107657, 0.2670829000417143]","[0.21706430008634925, 0.25041900016367435, 0.28394510014913976]",105.18524900008924,105.38707230007276,1000,105.38707230007276,1000,1000,1000,1000,1,num_2,0.39167389972135425,,33,11,2026-03-12_18h11.03.126,2026A_exp2,2022.2.4,59.94032340620004,
1000,1,4.9,0.0,0,0,25,25,36,,,,,105.8023794000037,106.45322940009646,106.45322940009646,106.9539602000732,315,45,106.9539602000732,106.9539602000732,106.9539602000732,106.9539602000732,106.9539602000732,106.9539602000732,106.9539602000732,106.9539602000732,106.9539602000732,107.3205601000227,107.3205601000227,107.3205601000227,107.3205601000227,107.3205601000227,107.3205601000227,107.3205601000227,107.3205601000227,107.3205601000227,9,3,"[0.0012634999584406614, 0.09991459990851581, 0.25030210008844733]","[0.06628770008683205, 0.2164964999537915, 0.283682000124827]",107.3205601000227,107.52305570011958,1000,107.52305570011958,1000,1000,1000,1000,0,num_3,0.3514562000054866,,33,11,2026-03-12_18h11.03.126,2026A_exp2,2022.2.4,59.94032340620004,
1,0,0.0,3.7,1,0,26,26,57,,,,,107.90452650003135,108.55569800012745,108.55569800012745,109.05619580019265,315,45,109.05619580019265,109.05619580019265,109.05619580019265,109.05619580019265,109.05619580019265,109.05619580019265,109.05619580019265,109.05619580019265,109.05619580019265,109.42273360001855,109.42273360001855,109.42273360001855,109.42273360001855,109.42273360001855,109.42273360001855,109.42273360001855,109.42273360001855,109.42273360001855,17,1,[0.28395589999854565],[0.367375599918887],109.42273360001855,109.62294670008123,3.7,109.62294670008123,1,3.7,1,1,1000,num_4,0.7148044998757541,,33,11,2026-03-12_18h11.03.126,2026A_exp2,2022.2.4,59.94032340620004,
1,0,4.9,6.1,1,0,27,27,86,,,,,110.35709200007841,111.00773090007715,111.00773090007715,111.49199100001715,45,315,111.49199100001715,111.49199100001715,111.49199100001715,111.49199100001715,111.49199100001715,111.49199100001715,111.49199100001715,111.49199100001715,111.49199100001715,111.85858210013248,111.85858210013248,111.85858210013248,111.85858210013248,111.85858210013248,111.85858210013248,111.85858210013248,111.85858210013248,111.85858210013248,0,1,[0.0012432001531124115],[0.3670816000085324],111.85858210013248,112.05876180017367,6.1,112.05876180017367,0,6.1,1,0,1000,num_1,0.8231749997939914,,33,11,2026-03-12_18h11.03.126,2026A_exp2,2022.2.4,59.94032340620004,
1000,1,0.0,0.0,0,0,28,28,61,,,,,112.90934190014377,113.56027280003764,113.56027280003764,114.04473870014772,315,45,114.04473870014772,114.04473870014772,114.04473870014772,114.04473870014772,114.04473870014772,114.04473870014772,114.04473870014772,114.04473870014772,114.04473870014772,114.41092510009184,114.41092510009184,114.41092510009184,114.41092510009184,114.41092510009184,114.41092510009184,114.41092510009184,114.41092510009184,114.41092510009184,0,1,[0.0012085000053048134],[0.3672507000155747],114.41092510009184,114.61319800000638,1000,114.61319800000638,1000,1000,1000,1000,1,num_2,0.388828800059855,,33,11,2026-03-12_18h11.03.126,2026A_exp2,2022.2.4,59.94032340620004,
1000,1,0.0,6.1,0,0,29,29,34,,,,,115.02829370019026,115.67906570015475,115.67906570015475,116.17996270000003,315,315,116.17996270000003,116.17996270000003,116.17996270000003,116.17996270000003,116.17996270000003,116.17996270000003,116.17996270000003,116.17996270000003,116.17996270000003,116.54661910003051,116.54661910003051,116.54661910003051,116.54661910003051,116.54661910003051,116.54661910003051,116.54661910003051,116.54661910003051,116.54661910003051,0,1,[0.0012566999066621065],[0.36714169988408685],116.54661910003051,116.74850720004179,1000,116.74850720004179,1000,1000,1000,1000,1,num_2,0.3173198997974396,,33,11,2026-03-12_18h11.03.126,2026A_exp2,2022.2.4,59.94032340620004,
1,0,0.0,0.0,1,0,30,30,18,,,,,117.09721020003781,117.7477990000043,117.7477990000043,118.24874660000205,315,45,118.24874660000205,118.24874660000205,118.24874660000205,118.24874660000205,118.24874660000205,118.24874660000205,118.24874660000205,118.24874660000205,118.24874660000205,118.59862449998036,118.59862449998036,118.59862449998036,118.59862449998036,118.59862449998036,118.59862449998036,118.59862449998036,118.59862449998036,118.59862449998036,0,1,[0.0013135999906808138],[0.3504141999874264],118.59862449998036,118.79874540003948,0.0,118.79874540003948,1,0.0,0,0,1000,num_4,0.8510083998553455,,33,11,2026-03-12_18h11.03.126,2026A_exp2,2022.2.4,59.94032340620004,
1000,1,6.1,3.7,0,0,31,31,87,,,,,119.66604460007511,120.31691880011931,120.31691880011931,120.80134370015003,45,45,120.80134370015003,120.80134370015003,120.80134370015003,120.80134370015003,120.80134370015003,120.80134370015003,120.80134370015003,120.80134370015003,120.80134370015003,121.16781580005772,121.16781580005772,121.16781580005772,121.16781580005772,121.16781580005772,121.16781580005772,121.16781580005772,121.16781580005772,121.16781580005772,0,1,[0.0012122998014092445],[0.3673995998688042],121.16781580005772,121.36915320018306,1000,121.36915320018306,1000,1000,1000,1000,0,num_3,0.3608721997588873,,33,11,2026-03-12_18h11.03.126,2026A_exp2,2022.2.4,59.94032340620004,
1,0,0.0,4.9,0,0,32,32,71,,,,,121.75196790019982,122.40241630002856,122.40241630002856,122.90360090020113,45,315,122.90360090020113,122.90360090020113,122.90360090020113,122.90360090020113,122.90360090020113,122.90360090020113,122.90360090020113,122.90360090020113,122.90360090020113,123.26986310002394,123.26986310002394,123.26986310002394,123.26986310002394,123.26986310002394,123.26986310002394,123.26986310002394,123.26986310002394,123.26986310002394,0,1,[0.0013238000683486462],[0.3672513999044895],123.26986310002394,123.47015610011294,0.0,123.47015610011294,0,0.0,0,1,1000,num_1,1.108619000064209,,33,11,2026-03-12_18h11.03.126,2026A_exp2,2022.2.4,59.94032340620004,
1,0,0.0,0.0,0,0,33,33,38,,,,,124.60468990006484,125.25516350008547,125.25516350008547,125.73955230019055,45,45,125.73955230019055,125.73955230019055,125.73955230019055,125.73955230019055,125.73955230019055,125.73955230019055,125.73955230019055,125.73955230019055,125.73955230019055,126.10601930017583,126.10601930017583,126.10601930017583,126.10601930017583,126.10601930017583,126.10601930017583,126.10601930017583,126.10601930017583,126.10601930017583,4,1,[0.06697869999334216],[0.3672962998971343],126.10601930017583,126.30619899998419,0.0,126.30619899998419,1,0.0,0,0,1000,num_4,0.5916545998770744,,33,11,2026-03-12_18h11.03.126,2026A_exp2,2022.2.4,59.94032340620004,
0,0,4.9,0.0,0,0,34,34,30,,,,,126.92343170009553,127.55765220010653,127.55765220010653,128.05859350017272,45,315,128.05859350017272,128.05859350017272,128.05859350017272,128.05859350017272,128.05859350017272,128.05859350017272,128.05859350017272,128.05859350017272,128.05859350017272,128.42512450017966,128.42512450017966,128.42512450017966,128.42512450017966,128.42512450017966,128.42512450017966,128.42512450017966,128.42512450017966,128.42512450017966,23,0,,,128.42512450017966,128.6253770000767,0.0,128.6253770000767,0,0.0,0,1,1000,num_1,1.1137250999454409,,33,11,2026-03-12_18h11.03.126,2026A_exp2,2022.2.4,59.94032340620004,
1,0,0.0,4.9,1,0,35,35,45,,,,,129.75965500017628,130.410453800112,130.410453800112,130.89487840002403,45,315,130.89487840002403,130.89487840002403,130.89487840002403,130.89487840002403,130.89487840002403,130.89487840002403,130.89487840002403,130.89487840002403,130.89487840002403,131.2611271000933,131.2611271000933,131.2611271000933,131.2611271000933,131.2611271000933,131.2611271000933,131.2611271000933,131.2611271000933,131.2611271000933,0,1,[0.0012083000037819147],[0.3671218999661505],131.2611271000933,131.46137500018813,4.9,131.46137500018813,1,4.9,1,1,1000,num_4,0.5647965997923166,,33,11,2026-03-12_18h11.03.126,2026A_exp2,2022.2.4,59.94032340620004,
1000,1,4.9,6.1,1,0,36,36,1,,,,,132.04525370011106,132.69594780006446,132.69594780006446,133.19719660002738,45,45,133.19719660002738,133.19719660002738,133.19719660002738,133.19719660002738,133.19719660002738,133.19719660002738,133.19719660002738,133.19719660002738,133.19719660002738,133.5468709000852,133.5468709000852,133.5468709000852,133.5468709000852,133.5468709000852,133.5468709000852,133.5468709000852,133.5468709000852,133.5468709000852,10,2,"[0.001231800066307187, 0.3337734001688659]","[0.16728870011866093, 0.3505591000430286]",133.5468709000852,133.748784000054,1000,133.748784000054,1000,1000,1000,1000,1,num_2,0.40584279992617667,,33,11,2026-03-12_18h11.03.126,2026A_exp2,2022.2.4,59.94032340620004,
1000,1,6.1,3.7,1,0,37,37,10,,,,,134.18092310009524,134.8314613001421,134.8314613001421,135.33269300009124,45,315,135.33269300009124,135.33269300009124,135.33269300009124,135.33269300009124,135.33269300009124,135.33269300009124,135.33269300009124,135.33269300009124,135.33269300009124,135.6990400000941,135.6990400000941,135.6990400000941,135.6990400000941,135.6990400000941,135.6990400000941,135.6990400000941,135.6990400000941,135.6990400000941,0,1,[0.001301600132137537],[0.36712760012596846],135.6990400000941,135.90089770010673,1000,135.90089770010673,1000,1000,1000,1000,0,num_3,0.3419154000002891,,33,11,2026-03-12_18h11.03.126,2026A_exp2,2022.2.4,59.94032340620004,
1,0,0.0,0.0,1,0,38,38,43,,,,,136.2661829001736,136.91686440003105,136.91686440003105,137.41806930000894,45,45,137.41806930000894,137.41806930000894,137.41806930000894,137.41806930000894,137.41806930000894,137.41806930000894,137.41806930000894,137.41806930000894,137.41806930000894,137.78434250014834,137.78434250014834,137.78434250014834,137.78434250014834,137.78434250014834,137.78434250014834,137.78434250014834,137.78434250014834,137.78434250014834,4,1,[0.06680379994213581],[0.36708860006183386],137.78434250014834,137.98465500003658,0.0,137.98465500003658,0,0.0,0,1,1000,num_1,0.6659334998112172,,33,11,2026-03-12_18h11.03.126,2026A_exp2,2022.2.4,59.94032340620004,
1,0,6.1,3.7,0,0,39,39,26,,,,,138.66850710008293,139.31930320011452,139.31930320011452,139.803708499996,45,45,139.803708499996,139.803708499996,139.803708499996,139.803708499996,139.803708499996,139.803708499996,139.803708499996,139.803708499996,139.803708499996,140.1702497000806,140.1702497000806,140.1702497000806,140.1702497000806,140.1702497000806,140.1702497000806,140.1702497000806,140.1702497000806,140.1702497000806,0,1,[0.001242100028321147],[0.3669924000278115],140.1702497000806,140.3705005000811,6.1,140.3705005000811,1,6.1,1,1,1000,num_4,0.8156276999507099,,33,11,2026-03-12_18h11.03.126,2026A_exp2,2022.2.4,59.94032340620004,
1,0,4.9,4.9,0,0,40,40,63,,,,,141.20442560012452,141.85507689998485,141.85507689998485,142.33940000017174,45,315,142.33940000017174,142.33940000017174,142.33940000017174,142.33940000017174,142.33940000017174,142.33940000017174,142.33940000017174,142.33940000017174,142.33940000017174,142.70595490001142,142.70595490001142,142.70595490001142,142.70595490001142,142.70595490001142,142.70595490001142,142.70595490001142,142.70595490001142,142.70595490001142,23,0,,,142.70595490001142,142.90628670016304,4.9,142.90628670016304,0,4.9,1,0,1000,num_1,0.648309099720791,,33,11,2026-03-12_18h11.03.126,2026A_exp2,2022.2.4,59.94032340620004,
0,0,0.0,3.7,1,0,41,41,21,,,,,143.57335990015417,144.2240746000316,144.2240746000316,144.70869010011666,315,315,144.70869010011666,144.70869010011666,144.70869010011666,144.70869010011666,144.70869010011666,144.70869010011666,144.70869010011666,144.70869010011666,144.70869010011666,145.0749194000382,145.0749194000382,145.0749194000382,145.0749194000382,145.0749194000382,145.0749194000382,145.0749194000382,145.0749194000382,145.0749194000382,0,1,[0.0012074001133441925],[0.3672586001921445],145.0749194000382,145.27527720015496,0.0,145.27527720015496,0,0.0,0,1,1000,num_1,0.5664203998167068,,33,11,2026-03-12_18h11.03.126,2026A_exp2,2022.2.4,59.94032340620004,
1,0,0.0,6.1,0,0,42,42,68,,,,,145.85981700010598,146.4932548000943,146.4932548000943,146.9942052999977,315,45,146.9942052999977,146.9942052999977,146.9942052999977,146.9942052999977,146.9942052999977,146.9942052999977,146.9942052999977,146.9942052999977,146.9942052999977,147.36070489999838,147.36070489999838,147.36070489999838,147.36070489999838,147.36070489999838,147.36070489999838,147.36070489999838,147.36070489999838,147.36070489999838,0,1,[0.0012534998822957277],[0.36718239984475076],147.36070489999838,147.56090000015683,0.0,147.56090000015683,0,0.0,0,1,1000,num_1,0.9451251998543739,,33,11,2026-03-12_18h11.03.126,2026A_exp2,2022.2.4,59.94032340620004,
1,0,0.0,0.0,0,0,43,43,64,,,,,148.52847660006955,149.17917540017515,149.17917540017515,149.66366320010275,315,315,149.66366320010275,149.66366320010275,149.66366320010275,149.66366320010275,149.66366320010275,149.66366320010275,149.66366320010275,149.66366320010275,149.66366320010275,150.0300273001194,150.0300273001194,150.0300273001194,150.0300273001194,150.0300273001194,150.0300273001194,150.0300273001194,150.0300273001194,150.0300273001194,23,0,,,150.0300273001194,150.23017750005238,0.0,150.23017750005238,0,0.0,0,1,1000,num_1,0.7316647998522967,,33,11,2026-03-12_18h11.03.126,2026A_exp2,2022.2.4,59.94032340620004,
1000,1,4.9,3.7,1,0,44,44,67,,,,,150.9809658001177,151.6315860999748,151.6315860999748,152.11607210012153,45,315,152.11607210012153,152.11607210012153,152.11607210012153,152.11607210012153,152.11607210012153,152.11607210012153,152.11607210012153,152.11607210012153,152.11607210012153,152.4825057000853,152.4825057000853,152.4825057000853,152.4825057000853,152.4825057000853,152.4825057000853,152.4825057000853,152.4825057000853,152.4825057000853,3,2,"[0.017627099994570017, 0.2342071000020951]","[0.21772970003075898, 0.36744940001517534]",152.4825057000853,152.6843562000431,1000,152.6843562000431,1000,1000,1000,1000,0,num_3,0.4463402000255883,,33,11,2026-03-12_18h11.03.126,2026A_exp2,2022.2.4,59.94032340620004,
1,0,0.0,0.0,0,0,45,45,59,,,,,153.14992330013774,153.8005192000419,153.8005192000419,154.30156720010564,45,45,154.30156720010564,154.30156720010564,154.30156720010564,154.30156720010564,154.30156720010564,154.30156720010564,154.30156720010564,154.30156720010564,154.30156720010564,154.65138170006685,154.65138170006685,154.65138170006685,154.65138170006685,154.65138170006685,154.65138170006685,154.65138170006685,154.65138170006685,154.65138170006685,10,5,"[0.0012444001622498035, 0.050148600013926625, 0.10021400009281933, 0.2336244999896735, 0.2836112000513822]","[0.033488300163298845, 0.0668643000535667, 0.21693999995477498, 0.2501130001619458, 0.30041040014475584]",154.65138170006685,154.85141990007833,0.0,154.85141990007833,0,0.0,0,1,1000,num_1,1.030696599977091,,33,11,2026-03-12_18h11.03.126,2026A_exp2,2022.2.4,59.94032340620004,
1,0,4.9,6.1,1,0,46,46,46,,,,,155.90277829999104,156.53654250013642,156.53654250013642,157.0376452000346,45,315,157.0376452000346,157.0376452000346,157.0376452000346,157.0376452000346,157.0376452000346,157.0376452000346,157.0376452000346,157.0376452000346,157.0376452000346,157.4040229001548,157.4040229001548,157.4040229001548,157.4040229001548,157.4040229001548,157.4040229001548,157.4040229001548,157.4040229001548,157.4040229001548,23,0,,,157.4040229001548,157.60414940002374,6.1,157.60414940002374,1,6.1,1,1,1000,num_4,0.5661432000342757,,33,11,2026-03-12_18h11.03.126,2026A_exp2,2022.2.4,59.94032340620004,
1,0,4.9,0.0,0,0,47,47,48,,,,,158.18808770016767,158.83877969998866,158.83877969998866,159.32332470011897,315,315,159.32332470011897,159.32332470011897,159.32332470011897,159.32332470011897,159.32332470011897,159.32332470011897,159.32332470011897,159.32332470011897,159.32332470011897,159.68958370015025,159.68958370015025,159.68958370015025,159.68958370015025,159.68958370015025,159.68958370015025,159.68958370015025,159.68958370015025,159.68958370015025,7,1,[0.10038119996897876],[0.3670836000237614],159.68958370015025,159.8898856001906,4.9,159.8898856001906,1,4.9,1,1,1000,num_4,0.6407186998985708,,33,11,2026-03-12_18h11.03.126,2026A_exp2,2022.2.4,59.94032340620004,
1000,1,0.0,3.7,0,0,48,48,52,,,,,160.55710080009885,161.20799720007926,161.20799720007926,161.69234090019017,315,315,161.69234090019017,161.69234090019017,161.69234090019017,161.69234090019017,161.69234090019017,161.69234090019017,161.69234090019017,161.69234090019017,161.69234090019017,162.05858510010876,162.05858510010876,162.05858510010876,162.05858510010876,162.05858510010876,162.05858510010876,162.05858510010876,162.05858510010876,162.05858510010876,0,1,[0.0012423000298440456],[0.36717310012318194],162.05858510010876,162.26064670016058,1000,162.26064670016058,1000,1000,1000,1000,1,num_2,0.3337368997745216,,33,11,2026-03-12_18h11.03.126,2026A_exp2,2022.2.4,59.94032340620004,
1000,1,4.9,0.0,0,0,49,49,58,,,,,162.6259669000283,163.2766103001777,163.2766103001777,163.76095949998125,315,315,163.76095949998125,163.76095949998125,163.76095949998125,163.76095949998125,163.76095949998125,163.76095949998125,163.76095949998125,163.76095949998125,163.76095949998125,164.12723520002328,164.12723520002328,164.12723520002328,164.12723520002328,164.12723520002328,164.12723520002328,164.12723520002328,164.12723520002328,164.12723520002328,0,1,[0.0012493000831454992],[0.3671472000423819],164.12723520002328,164.32979000010528,1000,164.32979000010528,1000,1000,1000,1000,0,num_3,0.43224700004793704,,33,11,2026-03-12_18h11.03.126,2026A_exp2,2022.2.4,59.94032340620004,
1000,1,0.0,0.0,1,0,50,50,7,,,,,164.77806600020267,165.42886320012622,165.42886320012622,165.9299455001019,45,45,165.9299455001019,165.9299455001019,165.9299455001019,165.9299455001019,165.9299455001019,165.9299455001019,165.9299455001019,165.9299455001019,165.9299455001019,166.29622810008004,166.29622810008004,166.29622810008004,166.29622810008004,166.29622810008004,166.29622810008004,166.29622810008004,166.29622810008004,166.29622810008004,0,1,[0.001254300121217966],[0.3670636999886483],166.29622810008004,166.49830760015175,1000,166.49830760015175,1000,1000,1000,1000,1,num_2,0.44013109989464283,,33,11,2026-03-12_18h11.03.126,2026A_exp2,2022.2.4,59.94032340620004,
1000,1,0.0,0.0,0,0,51,51,65,,,,,166.96354870009236,167.61426610010676,167.61426610010676,168.09859870001674,45,45,168.09859870001674,168.09859870001674,168.09859870001674,168.09859870001674,168.09859870001674,168.09859870001674,168.09859870001674,168.09859870001674,168.09859870001674,168.4651897000149,168.4651897000149,168.4651897000149,168.4651897000149,168.4651897000149,168.4651897000149,168.4651897000149,168.4651897000149,168.4651897000149,0,1,[0.0012773999478667974],[0.3672235000412911],168.4651897000149,168.66530970018357,1000,168.66530970018357,1000,1000,1000,1000,0,num_3,0.4968958997633308,,33,11,2026-03-12_18h11.03.126,2026A_exp2,2022.2.4,59.94032340620004,
1000,1,0.0,0.0,1,0,52,52,14,,,,,169.18239550013095,169.83327810000628,169.83327810000628,170.3343378000427,315,315,170.3343378000427,170.3343378000427,170.3343378000427,170.3343378000427,170.3343378000427,170.3343378000427,170.3343378000427,170.3343378000427,170.3343378000427,170.70060570002533,170.70060570002533,170.70060570002533,170.70060570002533,170.70060570002533,170.70060570002533,170.70060570002533,170.70060570002533,170.70060570002533,0,1,[0.0012908000499010086],[0.3666089999023825],170.70060570002533,170.9030198000837,1000,170.9030198000837,1000,1000,1000,1000,1,num_2,0.3799132998101413,,33,11,2026-03-12_18h11.03.126,2026A_exp2,2022.2.4,59.94032340620004,
1,0,4.9,6.1,0,0,53,53,15,,,,,171.30114240013063,171.95208370010369,171.95208370010369,172.45313840010203,45,45,172.45313840010203,172.45313840010203,172.45313840010203,172.45313840010203,172.45313840010203,172.45313840010203,172.45313840010203,172.45313840010203,172.45313840010203,172.81961280014366,172.81961280014366,172.81961280014366,172.81961280014366,172.81961280014366,172.81961280014366,172.81961280014366,172.81961280014366,172.81961280014366,18,3,"[0.15033289999701083, 0.20033240015618503, 0.36679500015452504]","[0.18362350016832352, 0.21713690017350018, 0.36679790006019175]",172.81961280014366,173.02697680005804,4.9,173.02697680005804,1,4.9,1,1,1000,num_4,0.8952052998356521,,33,11,2026-03-12_18h11.03.126,2026A_exp2,2022.2.4,59.94032340620004,
0,0,0.0,4.9,1,0,54,54,56,,,,,173.95398630015552,174.60460860002786,174.60460860002786,175.10583140002564,315,45,175.10583140002564,175.10583140002564,175.10583140002564,175.10583140002564,175.10583140002564,175.10583140002564,175.10583140002564,175.10583140002564,175.10583140002564,175.472095400095,175.472095400095,175.472095400095,175.472095400095,175.472095400095,175.472095400095,175.472095400095,175.472095400095,175.472095400095,0,1,[0.0014341999776661396],[0.36724409996531904],175.472095400095,175.67237400007434,0.0,175.67237400007434,0,0.0,0,1,1000,num_1,0.6109092000406235,,33,11,2026-03-12_18h11.03.126,2026A_exp2,2022.2.4,59.94032340620004,
1,0,4.9,0.0,1,0,55,55,6,,,,,176.30614670016803,176.9570556001272,176.9570556001272,177.44146150001325,315,315,177.44146150001325,177.44146150001325,177.44146150001325,177.44146150001325,177.44146150001325,177.44146150001325,177.44146150001325,177.44146150001325,177.44146150001325,177.8078652000986,177.8078652000986,177.8078652000986,177.8078652000986,177.8078652000986,177.8078652000986,177.8078652000986,177.8078652000986,177.8078652000986,0,1,[0.0012464998289942741],[0.3671728998888284],177.8078652000986,178.00797020015307,0.0,178.00797020015307,0,0.0,0,1,1000,num_1,0.5459398997481912,,33,11,2026-03-12_18h11.03.126,2026A_exp2,2022.2.4,59.94032340620004,
1000,1,0.0,3.7,1,0,56,56,80,,,,,178.57509800000116,179.2259597000666,179.2259597000666,179.71033630007878,315,315,179.71033630007878,179.71033630007878,179.71033630007878,179.71033630007878,179.71033630007878,179.71033630007878,179.71033630007878,179.71033630007878,179.71033630007878,180.07678960007615,180.07678960007615,180.07678960007615,180.07678960007615,180.07678960007615,180.07678960007615,180.07678960007615,180.07678960007615,180.07678960007615,8,5,"[0.0011997998226433992, 0.06669649994000793, 0.0996016999706626, 0.2504075998440385, 0.35039239982143044]","[0.05005920003168285, 0.08348059980198741, 0.200270899804309, 0.3004316999576986, 0.36709759989753366]",180.07678960007615,180.27860730001703,1000,180.27860730001703,1000,1000,1000,1000,1,num_2,0.3635108999442309,,33,11,2026-03-12_18h11.03.126,2026A_exp2,2022.2.4,59.94032340620004,
1,0,0.0,0.0,1,0,57,57,41,,,,,180.66053030011244,181.31141120009124,181.31141120009124,181.81200550007634,45,45,181.81200550007634,181.81200550007634,181.81200550007634,181.81200550007634,181.81200550007634,181.81200550007634,181.81200550007634,181.81200550007634,181.81200550007634,182.17889069998637,182.17889069998637,182.17889069998637,182.17889069998637,182.17889069998637,182.17889069998637,182.17889069998637,182.17889069998637,182.17889069998637,9,3,"[0.10011540004052222, 0.1670244000852108, 0.21700800000689924]","[0.133499399991706, 0.2002640999853611, 0.36729149986058474]",182.17889069998637,182.39215210010298,0.0,182.39215210010298,1,0.0,0,0,1000,num_4,0.9616737000178546,,33,11,2026-03-12_18h11.03.126,2026A_exp2,2022.2.4,59.94032340620004,
1000,1,0.0,0.0,1,0,58,58,23,,,,,183.3799751000479,184.03066670009866,184.03066670009866,184.51519910013303,315,45,184.51519910013303,184.51519910013303,184.51519910013303,184.51519910013303,184.51519910013303,184.51519910013303,184.51519910013303,184.51519910013303,184.51519910013303,184.88160800002515,184.88160800002515,184.88160800002515,184.88160800002515,184.88160800002515,184.88160800002515,184.88160800002515,184.88160800002515,184.88160800002515,3,4,"[0.0013091000728309155, 0.26719500008039176, 0.3170952000655234, 0.350600500125438]","[0.25032020010985434, 0.30047060013748705, 0.33384059998206794, 0.3672430000733584]",184.88160800002515,185.08368320018053,1000,185.08368320018053,1000,1000,1000,1000,1,num_2,0.5672741997987032,,33,11,2026-03-12_18h11.03.126,2026A_exp2,2022.2.4,59.94032340620004,
1,0,0.0,6.1,0,0,59,59,5,,,,,185.6825182000175,186.33312169997953,186.33312169997953,186.83404290000908,45,315,186.83404290000908,186.83404290000908,186.83404290000908,186.83404290000908,186.83404290000908,186.83404290000908,186.83404290000908,186.83404290000908,186.83404290000908,187.2011181002017,187.2011181002017,187.2011181002017,187.2011181002017,187.2011181002017,187.2011181002017,187.2011181002017,187.2011181002017,187.2011181002017,0,1,[0.0012082001194357872],[0.3669408999849111],187.2011181002017,187.40047140000388,0.0,187.40047140000388,0,0.0,0,1,1000,num_1,0.6183792997617275,,33,11,2026-03-12_18h11.03.126,2026A_exp2,2022.2.4,59.94032340620004,
1000,1,3.7,0.0,1,0,60,60,55,,,,,188.03459890000522,188.68536670017056,188.68536670017056,189.1699020001106,315,45,189.1699020001106,189.1699020001106,189.1699020001106,189.1699020001106,189.1699020001106,189.1699020001106,189.1699020001106,189.1699020001106,189.1699020001106,189.53624490019865,189.53624490019865,189.53624490019865,189.53624490019865,189.53624490019865,189.53624490019865,189.53624490019865,189.53624490019865,189.53624490019865,0,1,[0.001221399987116456],[0.3672269999515265],189.53624490019865,189.73864490003325,1000,189.73864490003325,1000,1000,1000,1000,0,num_3,0.4395807997789234,,33,11,2026-03-12_18h11.03.126,2026A_exp2,2022.2.4,59.94032340620004,
0,0,3.7,0.0,1,0,61,61,83,,,,,190.2035279001575,190.8541226000525,190.8541226000525,191.35502959997393,315,315,191.35502959997393,191.35502959997393,191.35502959997393,191.35502959997393,191.35502959997393,191.35502959997393,191.35502959997393,191.35502959997393,191.35502959997393,191.72161100013182,191.72161100013182,191.72161100013182,191.72161100013182,191.72161100013182,191.72161100013182,191.72161100013182,191.72161100013182,191.72161100013182,22,2,"[0.017496899934485555, 0.1838193000294268]","[0.033682400127872825, 0.20049730013124645]",191.72161100013182,191.92181690013967,3.7,191.92181690013967,1,3.7,1,1,1000,num_4,0.8329376997426152,,33,11,2026-03-12_18h11.03.126,2026A_exp2,2022.2.4,59.94032340620004,
1,0,4.9,4.9,1,0,62,62,89,,,,,192.7726559001021,193.4233355000615,193.4233355000615,193.9245627000928,315,45,193.9245627000928,193.9245627000928,193.9245627000928,193.9245627000928,193.9245627000928,193.9245627000928,193.9245627000928,193.9245627000928,193.9245627000928,194.2742657000199,194.2742657000199,194.2742657000199,194.2742657000199,194.2742657000199,194.2742657000199,194.2742657000199,194.2742657000199,194.2742657000199,22,0,,,194.2742657000199,194.47450530016795,4.9,194.47450530016795,0,4.9,1,0,1000,num_1,1.2472697999328375,,33,11,2026-03-12_18h11.03.126,2026A_exp2,2022.2.4,59.94032340620004,
1000,1,6.1,4.9,1,0,63,63,53,,,,,195.7422701001633,196.39290770003572,196.39290770003572,196.87755800015293,45,315,196.87755800015293,196.87755800015293,196.87755800015293,196.87755800015293,196.87755800015293,196.87755800015293,196.87755800015293,196.87755800015293,196.87755800015293,197.24392320006154,197.24392320006154,197.24392320006154,197.24392320006154,197.24392320006154,197.24392320006154,197.24392320006154,197.24392320006154,197.24392320006154,23,0,,,197.24392320006154,197.44591500004753,1000,197.44591500004753,1000,1000,1000,1000,0,num_3,0.7093309999909252,,33,11,2026-03-12_18h11.03.126,2026A_exp2,2022.2.4,59.94032340620004,
1000,1,0.0,0.0,1,0,64,64,47,,,,,198.18162710010074,198.83890009997413,198.83890009997413,199.3379890001379,315,315,199.3379890001379,199.3379890001379,199.3379890001379,199.3379890001379,199.3379890001379,199.3379890001379,199.3379890001379,199.3379890001379,199.3379890001379,199.69610150018707,199.69610150018707,199.69610150018707,199.69610150018707,199.69610150018707,199.69610150018707,199.69610150018707,199.69610150018707,199.69610150018707,3,4,"[0.00317799998447299, 0.0821929001249373, 0.14902520016767085, 0.21573120006360114]","[0.06549159996211529, 0.13227150007151067, 0.19900000002235174, 0.365679900161922]",199.69610150018707,199.89832050004043,1000,199.89832050004043,1000,1000,1000,1000,1,num_2,1.2245095998514444,,33,11,2026-03-12_18h11.03.126,2026A_exp2,2022.2.4,59.94032340620004,
0,0,0.0,6.1,1,0,65,65,76,,,,,201.1477312000934,201.79826300009154,201.79826300009154,202.2996623001527,45,315,202.2996623001527,202.2996623001527,202.2996623001527,202.2996623001527,202.2996623001527,202.2996623001527,202.2996623001527,202.2996623001527,202.2996623001527,202.66601370018907,202.66601370018907,202.66601370018907,202.66601370018907,202.66601370018907,202.66601370018907,202.66601370018907,202.66601370018907,202.66601370018907,23,0,,,202.66601370018907,202.86607800005004,0.0,202.86607800005004,0,0.0,0,1,1000,num_1,0.6566588999703526,,33,11,2026-03-12_18h11.03.126,2026A_exp2,2022.2.4,59.94032340620004,
1000,1,0.0,4.9,1,0,66,66,51,,,,,203.55001990008168,204.2008250001818,204.2008250001818,204.68532610009424,45,315,204.68532610009424,204.68532610009424,204.68532610009424,204.68532610009424,204.68532610009424,204.68532610009424,204.68532610009424,204.68532610009424,204.68532610009424,205.05173450009897,205.05173450009897,205.05173450009897,205.05173450009897,205.05173450009897,205.05173450009897,205.05173450009897,205.05173450009897,205.05173450009897,23,0,,,205.05173450009897,205.25381820020266,1000,205.25381820020266,1000,1000,1000,1000,1,num_2,0.3649520000908524,,33,11,2026-03-12_18h11.03.126,2026A_exp2,2022.2.4,59.94032340620004,
1000,1,0.0,6.1,1,0,67,67,88,,,,,205.6355661000125,206.28642340004444,206.28642340004444,206.78731270018034,315,45,206.78731270018034,206.78731270018034,206.78731270018034,206.78731270018034,206.78731270018034,206.78731270018034,206.78731270018034,206.78731270018034,206.78731270018034,207.15382330003195,207.15382330003195,207.15382330003195,207.15382330003195,207.15382330003195,207.15382330003195,207.15382330003195,207.15382330003195,207.15382330003195,23,0,,,207.15382330003195,207.35412250016816,1000,207.35412250016816,1000,1000,1000,1000,1,num_2,0.3115281998179853,,33,11,2026-03-12_18h11.03.126,2026A_exp2,2022.2.4,59.94032340620004,
1000,1,0.0,0.0,0,0,68,68,69,,,,,207.6873994001653,208.33832510001957,208.33832510001957,208.83949850010686,45,45,208.83949850010686,208.83949850010686,208.83949850010686,208.83949850010686,208.83949850010686,208.83949850010686,208.83949850010686,208.83949850010686,208.83949850010686,209.20590000017546,209.20590000017546,209.20590000017546,209.20590000017546,209.20590000017546,209.20590000017546,209.20590000017546,209.20590000017546,209.20590000017546,23,0,,,209.20590000017546,209.40742720011622,1000,209.40742720011622,1000,1000,1000,1000,0,num_3,0.4422316998243332,,33,11,2026-03-12_18h11.03.126,2026A_exp2,2022.2.4,59.94032340620004,
0,0,0.0,4.9,0,0,69,69,54,,,,,209.87312060012482,210.523943600012,210.523943600012,211.02503510005772,315,45,211.02503510005772,211.02503510005772,211.02503510005772,211.02503510005772,211.02503510005772,211.02503510005772,211.02503510005772,211.02503510005772,211.02503510005772,211.39135579997674,211.39135579997674,211.39135579997674,211.39135579997674,211.39135579997674,211.39135579997674,211.39135579997674,211.39135579997674,211.39135579997674,3,3,"[0.001190100098028779, 0.2671507999766618, 0.31718909996561706]","[0.2338725000154227, 0.300563600147143, 0.3672490001190454]",211.39135579997674,211.5915690001566,4.9,211.5915690001566,1,4.9,1,1,1000,num_4,0.6503130998462439,,33,11,2026-03-12_18h11.03.126,2026A_exp2,2022.2.4,59.94032340620004,
1,0,0.0,4.9,0,0,70,70,85,,,,,212.25872080004774,212.9095242000185,212.9095242000185,213.3940547001548,45,45,213.3940547001548,213.3940547001548,213.3940547001548,213.3940547001548,213.3940547001548,213.3940547001548,213.3940547001548,213.3940547001548,213.3940547001548,213.76035470003262,213.76035470003262,213.76035470003262,213.76035470003262,213.76035470003262,213.76035470003262,213.76035470003262,213.76035470003262,213.76035470003262,13,3,"[0.0012078001163899899, 0.2173020001500845, 0.35056679998524487]","[0.11703409999608994, 0.2505968001205474, 0.36727960011921823]",213.76035470003262,213.96064599999227,0.0,213.96064599999227,0,0.0,0,1,1000,num_1,0.6014697998762131,,33,11,2026-03-12_18h11.03.126,2026A_exp2,2022.2.4,59.94032340620004,
1,0,0.0,0.0,0,0,71,71,9,,,,,214.59470290015452,215.22857430018485,215.22857430018485,215.729608300142,315,315,215.729608300142,215.729608300142,215.729608300142,215.729608300142,215.729608300142,215.729608300142,215.729608300142,215.729608300142,215.729608300142,216.0961202001199,216.0961202001199,216.0961202001199,216.0961202001199,216.0961202001199,216.0961202001199,216.0961202001199,216.0961202001199,216.0961202001199,19,2,"[0.0012026000767946243, 0.10014930018223822]","[0.05021290015429258, 0.11687780008651316]",216.0961202001199,216.29604310006835,0.0,216.29604310006835,1,0.0,0,0,1000,num_4,0.8657165998592973,,33,11,2026-03-12_18h11.03.126,2026A_exp2,2022.2.4,59.94032340620004,
1,0,0.0,3.7,0,0,72,72,78,,,,,217.18035829998553,217.81445950013585,217.81445950013585,218.31560340011492,45,315,218.31560340011492,218.31560340011492,218.31560340011492,218.31560340011492,218.31560340011492,218.31560340011492,218.31560340011492,218.31560340011492,218.31560340011492,218.68204730004072,218.68204730004072,218.68204730004072,218.68204730004072,218.68204730004072,218.68204730004072,218.68204730004072,218.68204730004072,218.68204730004072,1,2,"[0.0012342999689280987, 0.03368590003810823]","[0.017409600084647536, 0.36741159996017814]",218.68204730004072,218.8822627000045,0.0,218.8822627000045,0,0.0,0,1,1000,num_1,0.5765641997568309,,33,11,2026-03-12_18h11.03.126,2026A_exp2,2022.2.4,59.94032340620004,
1,0,0.0,0.0,0,0,73,73,49,,,,,219.48292160010897,220.13351660012268,220.13351660012268,220.61776050017215,45,315,220.61776050017215,220.61776050017215,220.61776050017215,220.61776050017215,220.61776050017215,220.61776050017215,220.61776050017215,220.61776050017215,220.61776050017215,220.98441610019654,220.98441610019654,220.98441610019654,220.98441610019654,220.98441610019654,220.98441610019654,220.98441610019654,220.98441610019654,220.98441610019654,5,3,"[0.0012978001032024622, 0.2169321000110358, 0.28369500022381544]","[0.18360260012559593, 0.233594800112769, 0.36685950006358325]",220.98441610019654,221.18447660002857,0.0,221.18447660002857,1,0.0,0,0,1000,num_4,0.8492827997542918,,33,11,2026-03-12_18h11.03.126,2026A_exp2,2022.2.4,59.94032340620004,
1000,1,6.1,0.0,0,0,74,74,19,,,,,222.0521647001151,222.7025504000485,222.7025504000485,223.18713230011053,315,315,223.18713230011053,223.18713230011053,223.18713230011053,223.18713230011053,223.18713230011053,223.18713230011053,223.18713230011053,223.18713230011053,223.18713230011053,223.55361700011417,223.55361700011417,223.55361700011417,223.55361700011417,223.55361700011417,223.55361700011417,223.55361700011417,223.55361700011417,223.55361700011417,23,0,,,223.55361700011417,223.7558105001226,1000,223.7558105001226,1000,1000,1000,1000,0,num_3,0.6072547999210656,,33,11,2026-03-12_18h11.03.126,2026A_exp2,2022.2.4,59.94032340620004,
1,0,4.9,0.0,1,0,75,75,82,,,,,224.38785390020348,225.03834970016032,225.03834970016032,225.5395459001884,45,45,225.5395459001884,225.5395459001884,225.5395459001884,225.5395459001884,225.5395459001884,225.5395459001884,225.5395459001884,225.5395459001884,225.5395459001884,225.9059308001306,225.9059308001306,225.9059308001306,225.9059308001306,225.9059308001306,225.9059308001306,225.9059308001306,225.9059308001306,225.9059308001306,23,0,,,225.9059308001306,226.1061860001646,0.0,226.1061860001646,0,0.0,0,1,1000,num_1,0.6003216998651624,,33,11,2026-03-12_18h11.03.126,2026A_exp2,2022.2.4,59.94032340620004,
1,0,3.7,4.9,1,0,76,76,39,,,,,226.72350600012578,227.37407330004498,227.37407330004498,227.85854210006073,315,45,227.85854210006073,227.85854210006073,227.85854210006073,227.85854210006073,227.85854210006073,227.85854210006073,227.85854210006073,227.85854210006073,227.85854210006073,228.22493560006842,228.22493560006842,228.22493560006842,228.22493560006842,228.22493560006842,228.22493560006842,228.22493560006842,228.22493560006842,228.22493560006842,23,0,,,228.22493560006842,228.425168100046,4.9,228.425168100046,0,4.9,1,0,1000,num_1,0.48120039980858564,,33,11,2026-03-12_18h11.03.126,2026A_exp2,2022.2.4,59.94032340620004,
1000,1,0.0,0.0,1,0,77,77,29,,,,,228.92560880002566,229.57634750008583,229.57634750008583,230.06072890013456,315,45,230.06072890013456,230.06072890013456,230.06072890013456,230.06072890013456,230.06072890013456,230.06072890013456,230.06072890013456,230.06072890013456,230.06072890013456,230.4270791001618,230.4270791001618,230.4270791001618,230.4270791001618,230.4270791001618,230.4270791001618,230.4270791001618,230.4270791001618,230.4270791001618,23,0,,,230.4270791001618,230.62908129999414,1000,230.62908129999414,1000,1000,1000,1000,0,num_3,0.6768007997889072,,33,11,2026-03-12_18h11.03.126,2026A_exp2,2022.2.4,59.94032340620004,
1,0,0.0,0.0,1,0,78,78,73,,,,,231.32804620009847,231.97860370017588,231.97860370017588,232.47963450010866,45,45,232.47963450010866,232.47963450010866,232.47963450010866,232.47963450010866,232.47963450010866,232.47963450010866,232.47963450010866,232.47963450010866,232.47963450010866,232.84578710002825,232.84578710002825,232.84578710002825,232.84578710002825,232.84578710002825,232.84578710002825,232.84578710002825,232.84578710002825,232.84578710002825,1,1,[0.017171999905258417],[0.3671263998840004],232.84578710002825,233.04634470003657,0.0,233.04634470003657,1,0.0,0,0,1000,num_4,0.8522015998605639,,33,11,2026-03-12_18h11.03.126,2026A_exp2,2022.2.4,59.94032340620004,
0,0,0.0,0.0,1,0,79,79,8,,,,,233.93063200009055,234.58129360014573,234.58129360014573,235.06563440011814,315,315,235.06563440011814,235.06563440011814,235.06563440011814,235.06563440011814,235.06563440011814,235.06563440011814,235.06563440011814,235.06563440011814,235.06563440011814,235.43212730018422,235.43212730018422,235.43212730018422,235.43212730018422,235.43212730018422,235.43212730018422,235.43212730018422,235.43212730018422,235.43212730018422,23,0,,,235.43212730018422,235.63234650017694,0.0,235.63234650017694,0,0.0,0,1,1000,num_1,1.7213723997119814,,33,11,2026-03-12_18h11.03.126,2026A_exp2,2022.2.4,59.94032340620004,
0,0,3.7,4.9,1,0,80,80,3,,,,,237.38407570007257,238.0347902001813,238.0347902001813,238.51909010019153,45,45,238.51909010019153,238.51909010019153,238.51909010019153,238.51909010019153,238.51909010019153,238.51909010019153,238.51909010019153,238.51909010019153,238.51909010019153,238.88560850010253,238.88560850010253,238.88560850010253,238.88560850010253,238.88560850010253,238.88560850010253,238.88560850010253,238.88560850010253,238.88560850010253,0,1,[0.001249500084668398],[0.366999699966982],238.88560850010253,239.08565800008364,3.7,239.08565800008364,0,3.7,1,0,1000,num_1,0.6774005999322981,,33,11,2026-03-12_18h11.03.126,2026A_exp2,2022.2.4,59.94032340620004,
1000,1,0.0,0.0,0,0,81,81,20,,,,,239.78653210005723,240.4371036000084,240.4371036000084,240.92159819998778,315,45,240.92159819998778,240.92159819998778,240.92159819998778,240.92159819998778,240.92159819998778,240.92159819998778,240.92159819998778,240.92159819998778,240.92159819998778,241.2877979001496,241.2877979001496,241.2877979001496,241.2877979001496,241.2877979001496,241.2877979001496,241.2877979001496,241.2877979001496,241.2877979001496,23,0,,,241.2877979001496,241.49003070010804,1000,241.49003070010804,1000,1000,1000,1000,0,num_3,0.4883276999462396,,33,11,2026-03-12_18h11.03.126,2026A_exp2,2022.2.4,59.94032340620004,
1,0,4.9,0.0,1,0,82,82,84,,,,,242.0054972001817,242.65589910000563,242.65589910000563,243.1404737001285,45,45,243.1404737001285,243.1404737001285,243.1404737001285,243.1404737001285,243.1404737001285,243.1404737001285,243.1404737001285,243.1404737001285,243.1404737001285,243.50692340009846,243.50692340009846,243.50692340009846,243.50692340009846,243.50692340009846,243.50692340009846,243.50692340009846,243.50692340009846,243.50692340009846,3,1,[0.0012358000967651606],[0.3336875999812037],243.50692340009846,243.7070661999751,0.0,243.7070661999751,0,0.0,0,1,1000,num_1,0.5834578997455537,,33,11,2026-03-12_18h11.03.126,2026A_exp2,2022.2.4,59.94032340620004,
1000,1,0.0,0.0,0,0,83,83,75,,,,,244.30749800009653,244.95830220007338,244.95830220007338,245.44280630000867,315,315,245.44280630000867,245.44280630000867,245.44280630000867,245.44280630000867,245.44280630000867,245.44280630000867,245.44280630000867,245.44280630000867,245.44280630000867,245.80921350000426,245.80921350000426,245.80921350000426,245.80921350000426,245.80921350000426,245.80921350000426,245.80921350000426,245.80921350000426,245.80921350000426,0,1,[0.0012445999309420586],[0.36711220000870526],245.80921350000426,246.01136560016312,1000,246.01136560016312,1000,1000,1000,1000,0,num_3,0.4471113998442888,,33,11,2026-03-12_18h11.03.126,2026A_exp2,2022.2.4,59.94032340620004,
1,0,0.0,3.7,0,0,84,84,12,,,,,246.47655300004408,247.1271619000472,247.1271619000472,247.62839390011504,45,45,247.62839390011504,247.62839390011504,247.62839390011504,247.62839390011504,247.62839390011504,247.62839390011504,247.62839390011504,247.62839390011504,247.62839390011504,247.99464610009454,247.99464610009454,247.99464610009454,247.99464610009454,247.99464610009454,247.99464610009454,247.99464610009454,247.99464610009454,247.99464610009454,0,1,[0.0007156999781727791],[0.3675021999515593],247.99464610009454,248.19481210014783,0.0,248.19481210014783,0,0.0,0,1,1000,num_1,0.5596854998730123,,33,11,2026-03-12_18h11.03.126,2026A_exp2,2022.2.4,59.94032340620004,
1000,1,4.9,0.0,1,0,85,85,25,,,,,248.77889570011757,249.42923980019987,249.42923980019987,249.91390430019237,315,315,249.91390430019237,249.91390430019237,249.91390430019237,249.91390430019237,249.91390430019237,249.91390430019237,249.91390430019237,249.91390430019237,249.91390430019237,250.28036770015024,250.28036770015024,250.28036770015024,250.28036770015024,250.28036770015024,250.28036770015024,250.28036770015024,250.28036770015024,250.28036770015024,0,1,[0.001231800066307187],[0.36715489998459816],250.28036770015024,250.48245630017482,1000,250.48245630017482,1000,1000,1000,1000,0,num_3,0.8153997999615967,,33,11,2026-03-12_18h11.03.126,2026A_exp2,2022.2.4,59.94032340620004,
1,0,0.0,0.0,0,0,86,86,81,,,,,251.3146943000611,251.96527520008385,251.96527520008385,252.46624019998126,45,315,252.46624019998126,252.46624019998126,252.46624019998126,252.46624019998126,252.46624019998126,252.46624019998126,252.46624019998126,252.46624019998126,252.46624019998126,252.8325943001546,252.8325943001546,252.8325943001546,252.8325943001546,252.8325943001546,252.8325943001546,252.8325943001546,252.8325943001546,252.8325943001546,13,3,"[0.13359360001049936, 0.21704820008017123, 0.2503740000538528]","[0.15025549987331033, 0.2335572000592947, 0.3668126000557095]",252.8325943001546,253.0362406000495,0.0,253.0362406000495,0,0.0,0,1,1000,num_1,0.5977385998703539,,33,11,2026-03-12_18h11.03.126,2026A_exp2,2022.2.4,59.94032340620004,
1,0,0.0,4.9,0,0,87,87,17,,,,,253.6502952000592,254.30092140007764,254.30092140007764,254.8018867999781,45,45,254.8018867999781,254.8018867999781,254.8018867999781,254.8018867999781,254.8018867999781,254.8018867999781,254.8018867999781,254.8018867999781,254.8018867999781,255.15183670003898,255.15183670003898,255.15183670003898,255.15183670003898,255.15183670003898,255.15183670003898,255.15183670003898,255.15183670003898,255.15183670003898,18,2,"[0.13406930002383888, 0.33454060018993914]","[0.16764250001870096, 0.3512460000347346]",255.15183670003898,255.35206419997849,0.0,255.35206419997849,0,0.0,0,1,1000,num_1,0.8657204997725785,,33,11,2026-03-12_18h11.03.126,2026A_exp2,2022.2.4,59.94032340620004,
1,0,0.0,0.0,1,0,88,88,37,,,,,256.23617020016536,256.8867790000513,256.8867790000513,257.37127110012807,315,315,257.37127110012807,257.37127110012807,257.37127110012807,257.37127110012807,257.37127110012807,257.37127110012807,257.37127110012807,257.37127110012807,257.37127110012807,257.7374578001909,257.7374578001909,257.7374578001909,257.7374578001909,257.7374578001909,257.7374578001909,257.7374578001909,257.7374578001909,257.7374578001909,6,3,"[0.0012401000130921602, 0.11678749998100102, 0.2837320000398904]","[0.0501528000459075, 0.25046360003761947, 0.3669642999302596]",257.7374578001909,257.93793660006486,0.0,257.93793660006486,1,0.0,0,0,1000,num_4,0.6406247999984771,,33,11,2026-03-12_18h11.03.126,2026A_exp2,2022.2.4,59.94032340620004,
1000,1,4.9,0.0,0,0,89,89,22,,,,,258.6053226001095,259.25590850017034,259.25590850017034,259.74039539997466,315,45,259.74039539997466,259.74039539997466,259.74039539997466,259.74039539997466,259.74039539997466,259.74039539997466,259.74039539997466,259.74039539997466,259.74039539997466,260.1067658001557,260.1067658001557,260.1067658001557,260.1067658001557,260.1067658001557,260.1067658001557,260.1067658001557,260.1067658001557,260.1067658001557,2,3,"[0.0012435000389814377, 0.050286500016227365, 0.08359790011309087]","[0.033581400057300925, 0.06653470010496676, 0.367248099995777]",260.1067658001557,260.3088525000494,1000,260.3088525000494,1000,1000,1000,1000,0,num_3,0.3015170998405665,,33,11,2026-03-12_18h11.03.126,2026A_exp2,2022.2.4,59.94032340620004,
,,,,,,,,,,,,,,,,,,,,,,,,,,,,,,,,,,,,,,,,,,,,,,,,,,,,260.64438220020384,,,,,,,
