validity,detectorcomp,contrastCW,contrastCCW,precueCWorCCW,block_80trials.thisRepN,block_80trials.thisTrialN,block_80trials.thisN,block_80trials.thisIndex,etRecord.started,etRecord.stopped,text.started,text.stopped,text_4.started,text_4.stopped,text_6.started,text_6.stopped,oriCW,oriCCW,roi_2.started,grating_UR.started,grating_UL.started,grating_LR.started,grating_LL.started,noise_UR.started,noise_UL.started,noise_LR.started,noise_LL.started,roi_2.stopped,grating_UR.stopped,grating_UL.stopped,grating_LR.stopped,grating_LL.stopped,noise_UR.stopped,noise_UL.stopped,noise_LR.stopped,noise_LL.stopped,outframe,roi_2.numLooks,roi_2.timesOn,roi_2.timesOff,text_2.started,text_2.stopped,probedcontrast,key_resp.started,respdetect,relevantContrast,correctDetect,TorFdetect,respCWorCCW,key_resp.keys,key_resp.rt,feedback_display_.started,participantNo,blockNo,date,expName,psychopyVersion,frameRate,
1,0,3.7,0.0,1,0,0,0,30,7.150002056732774e-05,7.150002056732774e-05,46.7666418000008,48.775044700014405,48.775044700014405,49.403022399987094,49.403022399987094,49.92053559998749,315,45,49.92053559998749,49.92053559998749,49.92053559998749,49.92053559998749,49.92053559998749,49.92053559998749,49.92053559998749,49.92053559998749,49.92053559998749,50.270722099987324,50.270722099987324,50.270722099987324,50.270722099987324,50.270722099987324,50.270722099987324,50.270722099987324,50.270722099987324,50.270722099987324,0,1,[0.0009128000237978995],[0.3678409000276588],50.270722099987324,50.47078299999703,0.0,50.47078299999703,0,0.0,0,1,1000,num_1,0.9981340999947861,,24,13,2026-03-04_16h19.23.174,2026A_exp2,2022.2.4,59.9440961359471,
0,0,3.7,0.0,0,0,1,1,18,,,,,51.48852449998958,52.13915890001226,52.13915890001226,52.62359640002251,315,315,52.62359640002251,52.62359640002251,52.62359640002251,52.62359640002251,52.62359640002251,52.62359640002251,52.62359640002251,52.62359640002251,52.62359640002251,52.99009430001024,52.99009430001024,52.99009430001024,52.99009430001024,52.99009430001024,52.99009430001024,52.99009430001024,52.99009430001024,52.99009430001024,0,1,[0.0012347999727353454],[0.36718040000414476],52.99009430001024,53.19020459998865,0.0,53.19020459998865,1,0.0,0,0,1000,num_4,1.3747414000099525,,24,13,2026-03-04_16h19.23.174,2026A_exp2,2022.2.4,59.9440961359471,
1000,1,0.0,0.0,1,0,2,2,3,,,,,54.59170079999603,55.24228230002336,55.24228230002336,55.72681600000942,45,45,55.72681600000942,55.72681600000942,55.72681600000942,55.72681600000942,55.72681600000942,55.72681600000942,55.72681600000942,55.72681600000942,55.72681600000942,56.093122599995695,56.093122599995695,56.093122599995695,56.093122599995695,56.093122599995695,56.093122599995695,56.093122599995695,56.093122599995695,56.093122599995695,0,1,[0.0013406999642029405],[0.36697749997256324],56.093122599995695,56.29818169999635,1000,56.29818169999635,1000,1000,1000,1000,1,num_2,1.2102924999780953,,24,13,2026-03-04_16h19.23.174,2026A_exp2,2022.2.4,59.9440961359471,
1000,1,0.0,0.0,0,0,3,3,62,,,,,57.528091299987864,58.178653999988455,58.178653999988455,58.679786499997135,315,315,58.679786499997135,58.679786499997135,58.679786499997135,58.679786499997135,58.679786499997135,58.679786499997135,58.679786499997135,58.679786499997135,58.679786499997135,59.04606409999542,59.04606409999542,59.04606409999542,59.04606409999542,59.04606409999542,59.04606409999542,59.04606409999542,59.04606409999542,59.04606409999542,0,1,[0.001240600016899407],[0.36712219996843487],59.04606409999542,59.24829459999455,1000,59.24829459999455,1000,1000,1000,1000,0,num_3,0.7643157999846153,,24,13,2026-03-04_16h19.23.174,2026A_exp2,2022.2.4,59.9440961359471,
1000,1,4.9,6.1,0,0,4,4,36,,,,,60.03040139999939,60.68109580001328,60.68109580001328,61.1826815000386,45,315,61.1826815000386,61.1826815000386,61.1826815000386,61.1826815000386,61.1826815000386,61.1826815000386,61.1826815000386,61.1826815000386,61.1826815000386,61.54861880000681,61.54861880000681,61.54861880000681,61.54861880000681,61.54861880000681,61.54861880000681,61.54861880000681,61.54861880000681,61.54861880000681,1,1,[0.017689200001768768],[0.3666740000480786],61.54861880000681,61.750597700010985,1000,61.750597700010985,1000,1000,1000,1000,1,num_2,0.7099781999713741,,24,13,2026-03-04_16h19.23.174,2026A_exp2,2022.2.4,59.9440961359471,
1,0,0.0,6.1,1,0,5,5,46,,,,,62.482957800035365,63.13359550002497,63.13359550002497,63.634555399999954,315,315,63.634555399999954,63.634555399999954,63.634555399999954,63.634555399999954,63.634555399999954,63.634555399999954,63.634555399999954,63.634555399999954,63.634555399999954,63.984226800035685,63.984226800035685,63.984226800035685,63.984226800035685,63.984226800035685,63.984226800035685,63.984226800035685,63.984226800035685,63.984226800035685,0,1,[0.001209600013680756],[0.35056059999624267],63.984226800035685,64.18566820002161,6.1,64.18566820002161,1,6.1,1,1,1000,num_4,0.6350358999916352,,24,13,2026-03-04_16h19.23.174,2026A_exp2,2022.2.4,59.9440961359471,
0,0,6.1,0.0,1,0,6,6,52,,,,,64.85183669999242,65.50264570000581,65.50264570000581,65.98696860001655,45,315,65.98696860001655,65.98696860001655,65.98696860001655,65.98696860001655,65.98696860001655,65.98696860001655,65.98696860001655,65.98696860001655,65.98696860001655,66.35334299999522,66.35334299999522,66.35334299999522,66.35334299999522,66.35334299999522,66.35334299999522,66.35334299999522,66.35334299999522,66.35334299999522,0,1,[0.0011673999833874404],[0.3670283999526873],66.35334299999522,66.5536500000162,6.1,66.5536500000162,1,6.1,1,1,1000,num_4,0.7638061000034213,,24,13,2026-03-04_16h19.23.174,2026A_exp2,2022.2.4,59.9440961359471,
1000,1,0.0,4.9,1,0,7,7,37,,,,,67.33763399999589,67.98829300003126,67.98829300003126,68.47270919999573,45,315,68.47270919999573,68.47270919999573,68.47270919999573,68.47270919999573,68.47270919999573,68.47270919999573,68.47270919999573,68.47270919999573,68.47270919999573,68.83908420003718,68.83908420003718,68.83908420003718,68.83908420003718,68.83908420003718,68.83908420003718,68.83908420003718,68.83908420003718,68.83908420003718,0,1,[0.0012147999950684607],[0.36724300001515076],68.83908420003718,69.04133410000941,1000,69.04133410000941,1000,1000,1000,1000,1,num_2,0.7240083999931812,,24,13,2026-03-04_16h19.23.174,2026A_exp2,2022.2.4,59.9440961359471,
1,0,0.0,0.0,1,0,8,8,33,,,,,69.79011960001662,70.44077490002383,70.44077490002383,70.94202040001983,315,315,70.94202040001983,70.94202040001983,70.94202040001983,70.94202040001983,70.94202040001983,70.94202040001983,70.94202040001983,70.94202040001983,70.94202040001983,71.30843090004055,71.30843090004055,71.30843090004055,71.30843090004055,71.30843090004055,71.30843090004055,71.30843090004055,71.30843090004055,71.30843090004055,4,3,"[0.001331700012087822, 0.23367440002039075, 0.3503986999858171]","[0.21681880002142861, 0.3169963000109419, 0.36706910002976656]",71.30843090004055,71.50851070001954,0.0,71.50851070001954,1,0.0,0,0,1000,num_4,0.8648061999701895,,24,13,2026-03-04_16h19.23.174,2026A_exp2,2022.2.4,59.9440961359471,
1,0,4.9,6.1,0,0,9,9,82,,,,,72.39285559998825,73.0434306000243,73.0434306000243,73.52797180000925,45,315,73.52797180000925,73.52797180000925,73.52797180000925,73.52797180000925,73.52797180000925,73.52797180000925,73.52797180000925,73.52797180000925,73.52797180000925,73.89427789999172,73.89427789999172,73.89427789999172,73.89427789999172,73.89427789999172,73.89427789999172,73.89427789999172,73.89427789999172,73.89427789999172,11,5,"[0.05029029998695478, 0.13383329997304827, 0.20054609997896478, 0.23387489997548983, 0.33412889996543527]","[0.10043920000316575, 0.16717659996356815, 0.21728240000084043, 0.2841202999697998, 0.367462299996987]",73.89427789999172,74.09456210001372,4.9,74.09456210001372,1,4.9,1,1,1000,num_4,0.8619871999835595,,24,13,2026-03-04_16h19.23.174,2026A_exp2,2022.2.4,59.9440961359471,
1000,1,4.9,0.0,1,0,10,10,67,,,,,74.97854089998873,75.62941789999604,75.62941789999604,76.11364600004163,315,45,76.11364600004163,76.11364600004163,76.11364600004163,76.11364600004163,76.11364600004163,76.11364600004163,76.11364600004163,76.11364600004163,76.11364600004163,76.48012389999349,76.48012389999349,76.48012389999349,76.48012389999349,76.48012389999349,76.48012389999349,76.48012389999349,76.48012389999349,76.48012389999349,0,1,[0.001284400001168251],[0.3671362000168301],76.48012389999349,76.68271950003691,1000,76.68271950003691,1000,1000,1000,1000,0,num_3,0.722276900021825,,24,13,2026-03-04_16h19.23.174,2026A_exp2,2022.2.4,59.9440961359471,
1000,1,4.9,0.0,1,0,11,11,12,,,,,77.43128630000865,78.08182469999883,78.08182469999883,78.58280810003635,45,45,78.58280810003635,78.58280810003635,78.58280810003635,78.58280810003635,78.58280810003635,78.58280810003635,78.58280810003635,78.58280810003635,78.58280810003635,78.93274449999444,78.93274449999444,78.93274449999444,78.93274449999444,78.93274449999444,78.93274449999444,78.93274449999444,78.93274449999444,78.93274449999444,0,1,[0.0012919000000692904],[0.3525826000259258],78.93274449999444,79.15330920001725,1000,79.15330920001725,1000,1000,1000,1000,0,num_3,0.5154885000083596,,24,13,2026-03-04_16h19.23.174,2026A_exp2,2022.2.4,59.9440961359471,
1000,1,0.0,6.1,0,0,12,12,16,,,,,79.70003180002095,80.350800300017,80.350800300017,80.85189049999462,45,45,80.85189049999462,80.85189049999462,80.85189049999462,80.85189049999462,80.85189049999462,80.85189049999462,80.85189049999462,80.85189049999462,80.85189049999462,81.2016350000049,81.2016350000049,81.2016350000049,81.2016350000049,81.2016350000049,81.2016350000049,81.2016350000049,81.2016350000049,81.2016350000049,0,1,[0.0011060000397264957],[0.3506364999921061],81.2016350000049,81.40376810001908,1000,81.40376810001908,1000,1000,1000,1000,1,num_2,0.7296032999875024,,24,13,2026-03-04_16h19.23.174,2026A_exp2,2022.2.4,59.9440961359471,
1000,1,0.0,3.7,0,0,13,13,63,,,,,82.15246190002654,82.80306549998932,82.80306549998932,83.30426270002499,45,45,83.30426270002499,83.30426270002499,83.30426270002499,83.30426270002499,83.30426270002499,83.30426270002499,83.30426270002499,83.30426270002499,83.30426270002499,83.67066679999698,83.67066679999698,83.67066679999698,83.67066679999698,83.67066679999698,83.67066679999698,83.67066679999698,83.67066679999698,83.67066679999698,0,1,[0.001281399978324771],[0.3671178999939002],83.67066679999698,83.8732857000432,1000,83.8732857000432,1000,1000,1000,1000,1,num_2,0.7085006000124849,,24,13,2026-03-04_16h19.23.174,2026A_exp2,2022.2.4,59.9440961359471,
0,0,0.0,0.0,1,0,14,14,44,,,,,84.60496950004017,85.25573550001718,85.25573550001718,85.75671869999496,45,45,85.75671869999496,85.75671869999496,85.75671869999496,85.75671869999496,85.75671869999496,85.75671869999496,85.75671869999496,85.75671869999496,85.75671869999496,86.12320700002601,86.12320700002601,86.12320700002601,86.12320700002601,86.12320700002601,86.12320700002601,86.12320700002601,86.12320700002601,86.12320700002601,0,1,[0.0012827999889850616],[0.3672923999838531],86.12320700002601,86.32328479998978,0.0,86.32328479998978,0,0.0,0,1,1000,num_1,1.066205799987074,,24,13,2026-03-04_16h19.23.174,2026A_exp2,2022.2.4,59.9440961359471,
1000,1,0.0,0.0,1,0,15,15,56,,,,,87.40769580000779,88.0584480999969,88.0584480999969,88.5429116000305,45,45,88.5429116000305,88.5429116000305,88.5429116000305,88.5429116000305,88.5429116000305,88.5429116000305,88.5429116000305,88.5429116000305,88.5429116000305,88.90922600001795,88.90922600001795,88.90922600001795,88.90922600001795,88.90922600001795,88.90922600001795,88.90922600001795,88.90922600001795,88.90922600001795,0,1,[0.0012589999823831022],[0.3670970000093803],88.90922600001795,89.11116239998955,1000,89.11116239998955,1000,1000,1000,1000,0,num_3,1.3106119000003673,,24,13,2026-03-04_16h19.23.174,2026A_exp2,2022.2.4,59.9440961359471,
1000,1,0.0,3.7,0,0,16,16,76,,,,,90.44410910003353,91.09462829999393,91.09462829999393,91.59587290004129,45,45,91.59587290004129,91.59587290004129,91.59587290004129,91.59587290004129,91.59587290004129,91.59587290004129,91.59587290004129,91.59587290004129,91.59587290004129,91.94561920000706,91.94561920000706,91.94561920000706,91.94561920000706,91.94561920000706,91.94561920000706,91.94561920000706,91.94561920000706,91.94561920000706,22,0,,,91.94561920000706,92.14773470000364,1000,92.14773470000364,1000,1000,1000,1000,1,num_2,0.8415982999722473,,24,13,2026-03-04_16h19.23.174,2026A_exp2,2022.2.4,59.9440961359471,
1000,1,3.7,6.1,0,0,17,17,60,,,,,93.01347050000913,93.66411380004138,93.66411380004138,94.164993399987,315,315,94.164993399987,94.164993399987,94.164993399987,94.164993399987,94.164993399987,94.164993399987,94.164993399987,94.164993399987,94.164993399987,94.51488680002512,94.51488680002512,94.51488680002512,94.51488680002512,94.51488680002512,94.51488680002512,94.51488680002512,94.51488680002512,94.51488680002512,0,1,[0.0007202999549917877],[0.35085139999864623],94.51488680002512,94.71670789999189,1000,94.732023700024,1000,1000,1000,1000,1,num_2,0.6410250999615528,,24,13,2026-03-04_16h19.23.174,2026A_exp2,2022.2.4,59.9440961359471,
1000,1,6.1,4.9,0,0,18,18,51,,,,,95.39917580003385,96.04983410000568,96.04983410000568,96.55082400003448,315,45,96.55082400003448,96.55082400003448,96.55082400003448,96.55082400003448,96.55082400003448,96.55082400003448,96.55082400003448,96.55082400003448,96.55082400003448,96.90065100003267,96.90065100003267,96.90065100003267,96.90065100003267,96.90065100003267,96.90065100003267,96.90065100003267,96.90065100003267,96.90065100003267,22,0,,,96.90065100003267,97.10277729999507,1000,97.10277729999507,1000,1000,1000,1000,1,num_2,1.7429972999962047,,24,13,2026-03-04_16h19.23.174,2026A_exp2,2022.2.4,59.9440961359471,
0,0,6.1,0.0,1,0,19,19,25,,,,,98.86931830004323,99.51994640001794,99.51994640001794,100.02101259998744,45,45,100.02101259998744,100.02101259998744,100.02101259998744,100.02101259998744,100.02101259998744,100.02101259998744,100.02101259998744,100.02101259998744,100.02101259998744,100.3874507000437,100.3874507000437,100.3874507000437,100.3874507000437,100.3874507000437,100.3874507000437,100.3874507000437,100.3874507000437,100.3874507000437,23,0,,,100.3874507000437,100.5875297000166,6.1,100.5875297000166,1,6.1,1,1,1000,num_4,0.7623479999601841,,24,13,2026-03-04_16h19.23.174,2026A_exp2,2022.2.4,59.9440961359471,
1,0,3.7,0.0,0,0,20,20,26,,,,,101.37167309998767,102.02239490003558,102.02239490003558,102.50691009999719,315,45,102.50691009999719,102.50691009999719,102.50691009999719,102.50691009999719,102.50691009999719,102.50691009999719,102.50691009999719,102.50691009999719,102.50691009999719,102.87312430003658,102.87312430003658,102.87312430003658,102.87312430003658,102.87312430003658,102.87312430003658,102.87312430003658,102.87312430003658,102.87312430003658,9,4,"[0.0012097000144422054, 0.13346730003831908, 0.21707690000766888, 0.25038889999268577]","[0.11705800000345334, 0.20025570003781468, 0.23375130002386868, 0.28370840003481135]",102.87312430003658,103.07336760003818,3.7,103.07336760003818,1,3.7,1,1,1000,num_4,0.6037157999817282,,24,13,2026-03-04_16h19.23.174,2026A_exp2,2022.2.4,59.9440961359471,
0,0,3.7,0.0,1,0,21,21,1,,,,,103.70732129999669,104.35808840004029,104.35808840004029,104.8425604000222,45,315,104.8425604000222,104.8425604000222,104.8425604000222,104.8425604000222,104.8425604000222,104.8425604000222,104.8425604000222,104.8425604000222,104.8425604000222,105.20895000000019,105.20895000000019,105.20895000000019,105.20895000000019,105.20895000000019,105.20895000000019,105.20895000000019,105.20895000000019,105.20895000000019,0,1,[0.0012175000156275928],[0.3671234000357799],105.20895000000019,105.40923849999672,3.7,105.40923849999672,1,3.7,1,1,1000,num_4,0.8200358999893069,,24,13,2026-03-04_16h19.23.174,2026A_exp2,2022.2.4,59.9440961359471,
1000,1,0.0,3.7,0,0,22,22,23,,,,,106.259799499996,106.9106838000007,106.9106838000007,107.39509360003285,315,45,107.39509360003285,107.39509360003285,107.39509360003285,107.39509360003285,107.39509360003285,107.39509360003285,107.39509360003285,107.39509360003285,107.39509360003285,107.761542799999,107.761542799999,107.761542799999,107.761542799999,107.761542799999,107.761542799999,107.761542799999,107.761542799999,107.761542799999,1,1,[0.0012555000139400363],[0.36682330002076924],107.761542799999,107.96348780003609,1000,107.96348780003609,1000,1000,1000,1000,1,num_2,0.9533786000101827,,24,13,2026-03-04_16h19.23.174,2026A_exp2,2022.2.4,59.9440961359471,
1,0,0.0,4.9,0,0,23,23,14,,,,,108.94610280002235,109.59667230001651,109.59667230001651,110.09762710001087,315,45,110.09762710001087,110.09762710001087,110.09762710001087,110.09762710001087,110.09762710001087,110.09762710001087,110.09762710001087,110.09762710001087,110.09762710001087,110.46416430000681,110.46416430000681,110.46416430000681,110.46416430000681,110.46416430000681,110.46416430000681,110.46416430000681,110.46416430000681,110.46416430000681,0,1,[0.0012036999687552452],[0.3671955000027083],110.46416430000681,110.66452550003305,0.0,110.66452550003305,0,0.0,0,1,1000,num_1,0.9321435999590904,,24,13,2026-03-04_16h19.23.174,2026A_exp2,2022.2.4,59.9440961359471,
1,0,0.0,4.9,1,0,24,24,54,,,,,111.6152310000034,112.26600639999378,112.26600639999378,112.7504841000191,315,315,112.7504841000191,112.7504841000191,112.7504841000191,112.7504841000191,112.7504841000191,112.7504841000191,112.7504841000191,112.7504841000191,112.7504841000191,113.1168333000387,113.1168333000387,113.1168333000387,113.1168333000387,113.1168333000387,113.1168333000387,113.1168333000387,113.1168333000387,113.1168333000387,18,2,"[0.150542100018356, 0.3341058000223711]","[0.23390809999546036, 0.35066729999380186]",113.1168333000387,113.31690100004198,4.9,113.31690100004198,1,4.9,1,1,1000,num_4,0.6483486000215635,,24,13,2026-03-04_16h19.23.174,2026A_exp2,2022.2.4,59.9440961359471,
1000,1,0.0,6.1,0,0,25,25,20,,,,,113.98448839999037,114.61825749999844,114.61825749999844,115.11952050001128,45,45,115.11952050001128,115.11952050001128,115.11952050001128,115.11952050001128,115.11952050001128,115.11952050001128,115.11952050001128,115.11952050001128,115.11952050001128,115.48580960003892,115.48580960003892,115.48580960003892,115.48580960003892,115.48580960003892,115.48580960003892,115.48580960003892,115.48580960003892,115.48580960003892,0,1,[0.001234999974258244],[0.3665008999523707],115.48580960003892,115.68781189998845,1000,115.68781189998845,1000,1000,1000,1000,1,num_2,0.5895636000204831,,24,13,2026-03-04_16h19.23.174,2026A_exp2,2022.2.4,59.9440961359471,
1000,1,0.0,4.9,0,0,26,26,8,,,,,116.3033204000094,116.95387150003808,116.95387150003808,117.45518210000591,45,315,117.45518210000591,117.45518210000591,117.45518210000591,117.45518210000591,117.45518210000591,117.45518210000591,117.45518210000591,117.45518210000591,117.45518210000591,117.82143240002915,117.82143240002915,117.82143240002915,117.82143240002915,117.82143240002915,117.82143240002915,117.82143240002915,117.82143240002915,117.82143240002915,0,1,[0.0011981999850831926],[0.3671386000351049],117.82143240002915,118.02368470001966,1000,118.02368470001966,1000,1000,1000,1000,1,num_2,0.7967404999653809,,24,13,2026-03-04_16h19.23.174,2026A_exp2,2022.2.4,59.9440961359471,
1,0,6.1,6.1,1,0,27,27,47,,,,,118.83908010000596,119.48979389999295,119.48979389999295,119.9909050000133,45,315,119.9909050000133,119.9909050000133,119.9909050000133,119.9909050000133,119.9909050000133,119.9909050000133,119.9909050000133,119.9909050000133,119.9909050000133,120.35743730003014,120.35743730003014,120.35743730003014,120.35743730003014,120.35743730003014,120.35743730003014,120.35743730003014,120.35743730003014,120.35743730003014,0,1,[0.001218099961988628],[0.36717839998891577],120.35743730003014,120.55771379999351,6.1,120.55771379999351,1,6.1,1,1,1000,num_4,0.7432624999783002,,24,13,2026-03-04_16h19.23.174,2026A_exp2,2022.2.4,59.9440961359471,
1000,1,3.7,0.0,0,0,28,28,35,,,,,121.32496370002627,121.97569400002249,121.97569400002249,122.4768101000227,315,45,122.4768101000227,122.4768101000227,122.4768101000227,122.4768101000227,122.4768101000227,122.4768101000227,122.4768101000227,122.4768101000227,122.4768101000227,122.84309550002217,122.84309550002217,122.84309550002217,122.84309550002217,122.84309550002217,122.84309550002217,122.84309550002217,122.84309550002217,122.84309550002217,23,0,,,122.84309550002217,123.04500980000012,1000,123.04500980000012,1000,1000,1000,1000,0,num_3,0.847954299999401,,24,13,2026-03-04_16h19.23.174,2026A_exp2,2022.2.4,59.9440961359471,
1,0,0.0,4.9,0,0,29,29,70,,,,,123.91084510000655,124.56157840002561,124.56157840002561,125.06263830000535,315,315,125.06263830000535,125.06263830000535,125.06263830000535,125.06263830000535,125.06263830000535,125.06263830000535,125.06263830000535,125.06263830000535,125.06263830000535,125.42914920003386,125.42914920003386,125.42914920003386,125.42914920003386,125.42914920003386,125.42914920003386,125.42914920003386,125.42914920003386,125.42914920003386,3,2,"[0.0012011000071652234, 0.3171779999975115]","[0.3004755000001751, 0.35059310001088306]",125.42914920003386,125.62932210002327,0.0,125.62932210002327,0,0.0,0,1,1000,num_1,2.7515844999579713,,24,13,2026-03-04_16h19.23.174,2026A_exp2,2022.2.4,59.9440961359471,
1000,1,3.7,0.0,0,0,30,30,39,,,,,128.3986581999925,129.04942669998854,129.04942669998854,129.53393550001783,315,315,129.53393550001783,129.53393550001783,129.53393550001783,129.53393550001783,129.53393550001783,129.53393550001783,129.53393550001783,129.53393550001783,129.53393550001783,129.90034849999938,129.90034849999938,129.90034849999938,129.90034849999938,129.90034849999938,129.90034849999938,129.90034849999938,129.90034849999938,129.90034849999938,1,2,"[0.001212499977555126, 0.21709679998457432]","[0.2004441000171937, 0.3672031000023708]",129.90034849999938,130.10278170002857,1000,130.10278170002857,1000,1000,1000,1000,0,num_3,0.6862032000208274,,24,13,2026-03-04_16h19.23.174,2026A_exp2,2022.2.4,59.9440961359471,
1000,1,0.0,3.7,0,0,31,31,43,,,,,130.81785320001654,131.4685373000102,131.4685373000102,131.96969830000307,45,45,131.96969830000307,131.96969830000307,131.96969830000307,131.96969830000307,131.96969830000307,131.96969830000307,131.96969830000307,131.96969830000307,131.96969830000307,132.33604870003182,132.33604870003182,132.33604870003182,132.33604870003182,132.33604870003182,132.33604870003182,132.33604870003182,132.33604870003182,132.33604870003182,22,1,[0.05037449998781085],[0.06700559996534139],132.33604870003182,132.53809170000022,1000,132.53809170000022,1000,1000,1000,1000,1,num_2,0.5063756000017747,,24,13,2026-03-04_16h19.23.174,2026A_exp2,2022.2.4,59.9440961359471,
0,0,4.9,0.0,0,0,32,32,84,,,,,133.0700763000059,133.7207219999982,133.7207219999982,134.22186540003167,315,45,134.22186540003167,134.22186540003167,134.22186540003167,134.22186540003167,134.22186540003167,134.22186540003167,134.22186540003167,134.22186540003167,134.22186540003167,134.58821130002616,134.58821130002616,134.58821130002616,134.58821130002616,134.58821130002616,134.58821130002616,134.58821130002616,134.58821130002616,134.58821130002616,0,1,[0.0012966999784111977],[0.3671570000005886],134.58821130002616,134.78852860000916,0.0,134.78852860000916,0,0.0,0,1,1000,num_1,1.1681032999767922,,24,13,2026-03-04_16h19.23.174,2026A_exp2,2022.2.4,59.9440961359471,
1,0,0.0,0.0,1,0,33,33,83,,,,,135.97286630002782,136.62357360002352,136.62357360002352,137.12484370003222,315,45,137.12484370003222,137.12484370003222,137.12484370003222,137.12484370003222,137.12484370003222,137.12484370003222,137.12484370003222,137.12484370003222,137.12484370003222,137.49121920001926,137.49121920001926,137.49121920001926,137.49121920001926,137.49121920001926,137.49121920001926,137.49121920001926,137.49121920001926,137.49121920001926,23,0,,,137.49121920001926,137.69150810001884,0.0,137.69150810001884,1,0.0,0,0,1000,num_4,0.8414619999821298,,24,13,2026-03-04_16h19.23.174,2026A_exp2,2022.2.4,59.9440961359471,
0,0,3.7,4.9,0,0,34,34,77,,,,,138.55893639998976,139.20952610002132,139.20952610002132,139.69411370001035,45,315,139.69411370001035,139.69411370001035,139.69411370001035,139.69411370001035,139.69411370001035,139.69411370001035,139.69411370001035,139.69411370001035,139.69411370001035,140.0605261999881,140.0605261999881,140.0605261999881,140.0605261999881,140.0605261999881,140.0605261999881,140.0605261999881,140.0605261999881,140.0605261999881,4,5,"[0.0012353999773040414, 0.08367889997316524, 0.1669601000030525, 0.2170503999805078, 0.30039659998146817]","[0.06686379999155179, 0.15026680001756176, 0.20035190001362935, 0.28382429998600855, 0.3671498000039719]",140.0605261999881,140.26060949999373,4.9,140.26060949999373,1,4.9,1,1,1000,num_4,1.0243653000216,,24,13,2026-03-04_16h19.23.174,2026A_exp2,2022.2.4,59.9440961359471,
1000,1,0.0,0.0,0,0,35,35,64,,,,,141.3117421999923,141.96242500003427,141.96242500003427,142.44667880004272,315,315,142.44667880004272,142.44667880004272,142.44667880004272,142.44667880004272,142.44667880004272,142.44667880004272,142.44667880004272,142.44667880004272,142.44667880004272,142.81320999999298,142.81320999999298,142.81320999999298,142.81320999999298,142.81320999999298,142.81320999999298,142.81320999999298,142.81320999999298,142.81320999999298,23,0,,,142.81320999999298,143.01346630003536,1000,143.01346630003536,1000,1000,1000,1000,0,num_3,1.2314422999625094,,24,13,2026-03-04_16h19.23.174,2026A_exp2,2022.2.4,59.9440961359471,
1000,1,0.0,4.9,0,0,36,36,0,,,,,144.26471100002527,144.91525920003187,144.91525920003187,145.41646670002956,45,315,145.41646670002956,145.41646670002956,145.41646670002956,145.41646670002956,145.41646670002956,145.41646670002956,145.41646670002956,145.41646670002956,145.41646670002956,145.78288950002752,145.78288950002752,145.78288950002752,145.78288950002752,145.78288950002752,145.78288950002752,145.78288950002752,145.78288950002752,145.78288950002752,11,4,"[0.0009601000347174704, 0.06708060001255944, 0.2839951000059955, 0.3503010999993421]","[0.03365200001280755, 0.1674073000322096, 0.31705360003979877, 0.36721009999746457]",145.78288950002752,145.98527190001914,1000,145.98527190001914,1000,1000,1000,1000,1,num_2,0.4992907999549061,,24,13,2026-03-04_16h19.23.174,2026A_exp2,2022.2.4,59.9440961359471,
1000,1,0.0,6.1,0,0,37,37,61,,,,,146.50020860001678,147.15090360003524,147.15090360003524,147.65204409998842,315,315,147.65204409998842,147.65204409998842,147.65204409998842,147.65204409998842,147.65204409998842,147.65204409998842,147.65204409998842,147.65204409998842,147.65204409998842,148.01841320004314,148.01841320004314,148.01841320004314,148.01841320004314,148.01841320004314,148.01841320004314,148.01841320004314,148.01841320004314,148.01841320004314,21,1,[0.33377219998510554],[0.3504506999743171],148.01841320004314,148.22058110003127,1000,148.22058110003127,1000,1000,1000,1000,1,num_2,0.35987650003517047,,24,13,2026-03-04_16h19.23.174,2026A_exp2,2022.2.4,59.9440961359471,
0,0,6.1,0.0,0,0,38,38,41,,,,,148.60226380004315,149.253076300025,149.253076300025,149.7541634000372,45,45,149.7541634000372,149.7541634000372,149.7541634000372,149.7541634000372,149.7541634000372,149.7541634000372,149.7541634000372,149.7541634000372,149.7541634000372,150.12056090001715,150.12056090001715,150.12056090001715,150.12056090001715,150.12056090001715,150.12056090001715,150.12056090001715,150.12056090001715,150.12056090001715,1,2,"[0.0012236000038683414, 0.0837098000338301]","[0.06689640000695363, 0.3673970000236295]",150.12056090001715,150.32079850003356,0.0,150.32079850003356,0,0.0,0,1,1000,num_1,1.7157843000022694,,24,13,2026-03-04_16h19.23.174,2026A_exp2,2022.2.4,59.9440961359471,
1,0,3.7,6.1,1,0,39,39,68,,,,,152.05571039998904,152.70644580002408,152.70644580002408,153.19092780002393,45,45,153.19092780002393,153.19092780002393,153.19092780002393,153.19092780002393,153.19092780002393,153.19092780002393,153.19092780002393,153.19092780002393,153.19092780002393,153.55725060001714,153.55725060001714,153.55725060001714,153.55725060001714,153.55725060001714,153.55725060001714,153.55725060001714,153.55725060001714,153.55725060001714,12,4,"[0.017507300013676286, 0.11635359999490902, 0.16705869999714196, 0.30028590001165867]","[0.03359290002845228, 0.1330007000360638, 0.2835418999893591, 0.33403790002921596]",153.55725060001714,153.75747220002813,6.1,153.75747220002813,1,6.1,1,1,1000,num_4,0.6872471999959089,,24,13,2026-03-04_16h19.23.174,2026A_exp2,2022.2.4,59.9440961359471,
1000,1,6.1,0.0,1,0,40,40,79,,,,,154.47475940000731,155.12549930001842,155.12549930001842,155.6099062000285,315,45,155.6099062000285,155.6099062000285,155.6099062000285,155.6099062000285,155.6099062000285,155.6099062000285,155.6099062000285,155.6099062000285,155.6099062000285,155.97635160002392,155.97635160002392,155.97635160002392,155.97635160002392,155.97635160002392,155.97635160002392,155.97635160002392,155.97635160002392,155.97635160002392,0,1,[0.0012070999946445227],[0.3671406999928877],155.97635160002392,156.17835320002632,1000,156.17835320002632,1000,1000,1000,1000,0,num_3,0.714901999977883,,24,13,2026-03-04_16h19.23.174,2026A_exp2,2022.2.4,59.9440961359471,
1000,1,0.0,0.0,0,0,41,41,65,,,,,156.9105367999873,157.5612894000369,157.5612894000369,158.0624172000098,315,45,158.0624172000098,158.0624172000098,158.0624172000098,158.0624172000098,158.0624172000098,158.0624172000098,158.0624172000098,158.0624172000098,158.0624172000098,158.4288904000423,158.4288904000423,158.4288904000423,158.4288904000423,158.4288904000423,158.4288904000423,158.4288904000423,158.4288904000423,158.4288904000423,0,1,[0.0012644000235013664],[0.36719620000803843],158.4288904000423,158.6313281999901,1000,158.6313281999901,1000,1000,1000,1000,1,num_2,0.6291175000369549,,24,13,2026-03-04_16h19.23.174,2026A_exp2,2022.2.4,59.9440961359471,
1000,1,0.0,0.0,1,0,42,42,29,,,,,159.2796876000357,159.9304179000319,159.9304179000319,160.43154910003068,45,45,160.43154910003068,160.43154910003068,160.43154910003068,160.43154910003068,160.43154910003068,160.43154910003068,160.43154910003068,160.43154910003068,160.43154910003068,160.79799819999607,160.79799819999607,160.79799819999607,160.79799819999607,160.79799819999607,160.79799819999607,160.79799819999607,160.79799819999607,160.79799819999607,0,1,[0.0012030000216327608],[0.3672783999936655],160.79799819999607,161.00018400000408,1000,161.00018400000408,1000,1000,1000,1000,1,num_2,1.132760300009977,,24,13,2026-03-04_16h19.23.174,2026A_exp2,2022.2.4,59.9440961359471,
1,0,0.0,6.1,1,0,43,43,19,,,,,162.14915820001625,162.79986040003132,162.79986040003132,163.30104029999347,45,315,163.30104029999347,163.30104029999347,163.30104029999347,163.30104029999347,163.30104029999347,163.30104029999347,163.30104029999347,163.30104029999347,163.30104029999347,163.66750270000193,163.66750270000193,163.66750270000193,163.66750270000193,163.66750270000193,163.66750270000193,163.66750270000193,163.66750270000193,163.66750270000193,0,1,[0.0012244000099599361],[0.36675230000400916],163.66750270000193,163.86765279999236,6.1,163.86765279999236,1,6.1,1,1,1000,num_4,0.6977872999850661,,24,13,2026-03-04_16h19.23.174,2026A_exp2,2022.2.4,59.9440961359471,
0,0,4.9,0.0,0,0,44,44,40,,,,,164.5848291000002,165.23564239998814,165.23564239998814,165.72002440004144,45,45,165.72002440004144,165.72002440004144,165.72002440004144,165.72002440004144,165.72002440004144,165.72002440004144,165.72002440004144,165.72002440004144,165.72002440004144,166.08655760000693,166.08655760000693,166.08655760000693,166.08655760000693,166.08655760000693,166.08655760000693,166.08655760000693,166.08655760000693,166.08655760000693,0,1,[0.0012386000016704202],[0.3670968000078574],166.08655760000693,166.28673380002147,0.0,166.28673380002147,1,0.0,0,0,1000,num_4,3.2469372999621555,,24,13,2026-03-04_16h19.23.174,2026A_exp2,2022.2.4,59.9440961359471,
1000,1,0.0,3.7,1,0,45,45,88,,,,,169.55673930002376,170.19055500003742,170.19055500003742,170.6917457000236,315,45,170.6917457000236,170.6917457000236,170.6917457000236,170.6917457000236,170.6917457000236,170.6917457000236,170.6917457000236,170.6917457000236,170.6917457000236,171.0579953000415,171.0579953000415,171.0579953000415,171.0579953000415,171.0579953000415,171.0579953000415,171.0579953000415,171.0579953000415,171.0579953000415,0,1,[0.0012500000302679837],[0.367475499981083],171.0579953000415,171.26029360003304,1000,171.26029360003304,1000,1000,1000,1000,1,num_2,0.8641933999606408,,24,13,2026-03-04_16h19.23.174,2026A_exp2,2022.2.4,59.9440961359471,
1000,1,0.0,0.0,0,0,46,46,57,,,,,172.14241249999031,172.79332070000237,172.79332070000237,173.29428480000934,315,315,173.29428480000934,173.29428480000934,173.29428480000934,173.29428480000934,173.29428480000934,173.29428480000934,173.29428480000934,173.29428480000934,173.29428480000934,173.6607922000112,173.6607922000112,173.6607922000112,173.6607922000112,173.6607922000112,173.6607922000112,173.6607922000112,173.6607922000112,173.6607922000112,0,1,[0.0012036999687552452],[0.3671184999984689],173.6607922000112,173.86290730000474,1000,173.86290730000474,1000,1000,1000,1000,0,num_3,0.6135038000065833,,24,13,2026-03-04_16h19.23.174,2026A_exp2,2022.2.4,59.9440961359471,
0,0,0.0,3.7,1,0,47,47,53,,,,,174.494672300003,175.1456244000001,175.1456244000001,175.6466197000118,45,315,175.6466197000118,175.6466197000118,175.6466197000118,175.6466197000118,175.6466197000118,175.6466197000118,175.6466197000118,175.6466197000118,175.6466197000118,176.01308880001307,176.01308880001307,176.01308880001307,176.01308880001307,176.01308880001307,176.01308880001307,176.01308880001307,176.01308880001307,176.01308880001307,0,1,[0.0012029000208713114],[0.36707179999211803],176.01308880001307,176.2133587000426,0.0,176.2133587000426,0,0.0,0,1,1000,num_1,1.1355986000271514,,24,13,2026-03-04_16h19.23.174,2026A_exp2,2022.2.4,59.9440961359471,
1000,1,0.0,6.1,1,0,48,48,74,,,,,177.38111519999802,178.0150874000392,178.0150874000392,178.51602300000377,45,45,178.51602300000377,178.51602300000377,178.51602300000377,178.51602300000377,178.51602300000377,178.51602300000377,178.51602300000377,178.51602300000377,178.51602300000377,178.8825802000356,178.8825802000356,178.8825802000356,178.8825802000356,178.8825802000356,178.8825802000356,178.8825802000356,178.8825802000356,178.8825802000356,7,3,"[0.0016068000113591552, 0.26718159997835755, 0.3004215999972075]","[0.1837105000158772, 0.28375609999056906, 0.36726899998029694]",178.8825802000356,179.08924030000344,1000,179.08924030000344,1000,1000,1000,1000,1,num_2,1.411428999970667,,24,13,2026-03-04_16h19.23.174,2026A_exp2,2022.2.4,59.9440961359471,
1000,1,6.1,3.7,1,0,49,49,11,,,,,180.5175745000015,181.16819870000472,181.16819870000472,181.6693285999936,45,45,181.6693285999936,181.6693285999936,181.6693285999936,181.6693285999936,181.6693285999936,181.6693285999936,181.6693285999936,181.6693285999936,181.6693285999936,182.03557760000695,182.03557760000695,182.03557760000695,182.03557760000695,182.03557760000695,182.03557760000695,182.03557760000695,182.03557760000695,182.03557760000695,1,2,"[0.0012209999840706587, 0.35049979999894276]","[0.33387149998452514, 0.3671720999991521]",182.03557760000695,182.2380986000062,1000,182.2380986000062,1000,1000,1000,1000,0,num_3,0.5344261999707669,,24,13,2026-03-04_16h19.23.174,2026A_exp2,2022.2.4,59.9440961359471,
1000,1,0.0,0.0,1,0,50,50,2,,,,,182.80313890002435,183.4539247000357,183.4539247000357,183.95487780001713,45,315,183.95487780001713,183.95487780001713,183.95487780001713,183.95487780001713,183.95487780001713,183.95487780001713,183.95487780001713,183.95487780001713,183.95487780001713,184.3214355999953,184.3214355999953,184.3214355999953,184.3214355999953,184.3214355999953,184.3214355999953,184.3214355999953,184.3214355999953,184.3214355999953,0,1,[0.0012238000053912401],[0.3672116000088863],184.3214355999953,184.5237502999953,1000,184.5237502999953,1000,1000,1000,1000,1,num_2,1.4413106000283733,,24,13,2026-03-04_16h19.23.174,2026A_exp2,2022.2.4,59.9440961359471,
1000,1,3.7,4.9,1,0,51,51,71,,,,,185.9897387000383,186.64040239999304,186.64040239999304,187.14139760000398,45,315,187.14139760000398,187.14139760000398,187.14139760000398,187.14139760000398,187.14139760000398,187.14139760000398,187.14139760000398,187.14139760000398,187.14139760000398,187.50792390003335,187.50792390003335,187.50792390003335,187.50792390003335,187.50792390003335,187.50792390003335,187.50792390003335,187.50792390003335,187.50792390003335,0,1,[0.0012156999437138438],[0.3672367999679409],187.50792390003335,187.71004760003416,1000,187.71004760003416,1000,1000,1000,1000,1,num_2,0.5104501000023447,,24,13,2026-03-04_16h19.23.174,2026A_exp2,2022.2.4,59.9440961359471,
1,0,0.0,0.0,1,0,52,52,31,,,,,188.24192340002628,188.89263850002317,188.89263850002317,189.39367170003243,315,45,189.39367170003243,189.39367170003243,189.39367170003243,189.39367170003243,189.39367170003243,189.39367170003243,189.39367170003243,189.39367170003243,189.39367170003243,189.76019910001196,189.76019910001196,189.76019910001196,189.76019910001196,189.76019910001196,189.76019910001196,189.76019910001196,189.76019910001196,189.76019910001196,0,1,[0.0012684999965131283],[0.36725700000533834],189.76019910001196,189.960469200043,0.0,189.960469200043,1,0.0,0,0,1000,num_4,1.6216040999861434,,24,13,2026-03-04_16h19.23.174,2026A_exp2,2022.2.4,59.9440961359471,
1,0,4.9,0.0,1,0,53,53,34,,,,,191.6119646000443,192.26254450000124,192.26254450000124,192.74729860003572,45,315,192.74729860003572,192.74729860003572,192.74729860003572,192.74729860003572,192.74729860003572,192.74729860003572,192.74729860003572,192.74729860003572,192.74729860003572,193.11352720001014,193.11352720001014,193.11352720001014,193.11352720001014,193.11352720001014,193.11352720001014,193.11352720001014,193.11352720001014,193.11352720001014,0,1,[0.0007116000051610172],[0.3675509999739006],193.11352720001014,193.31384870002512,0.0,193.31384870002512,0,0.0,0,1,1000,num_1,0.8593020000262186,,24,13,2026-03-04_16h19.23.174,2026A_exp2,2022.2.4,59.9440961359471,
1,0,4.9,0.0,0,0,54,54,66,,,,,194.19781790004345,194.84857180004474,194.84857180004474,195.33289660001174,45,315,195.33289660001174,195.33289660001174,195.33289660001174,195.33289660001174,195.33289660001174,195.33289660001174,195.33289660001174,195.33289660001174,195.33289660001174,195.69938030000776,195.69938030000776,195.69938030000776,195.69938030000776,195.69938030000776,195.69938030000776,195.69938030000776,195.69938030000776,195.69938030000776,16,3,"[0.13351700000930578, 0.25012590002734214, 0.3337201999966055]","[0.1669848000165075, 0.3003410000237636, 0.3504127000342123]",195.69938030000776,195.89947970001958,4.9,195.89947970001958,1,4.9,1,1,1000,num_4,0.7219649000326172,,24,13,2026-03-04_16h19.23.174,2026A_exp2,2022.2.4,59.9440961359471,
1000,1,0.0,0.0,0,0,55,55,7,,,,,196.65028110001003,197.30103410000447,197.30103410000447,197.785465700028,315,45,197.785465700028,197.785465700028,197.785465700028,197.785465700028,197.785465700028,197.785465700028,197.785465700028,197.785465700028,197.785465700028,198.1518775000004,198.1518775000004,198.1518775000004,198.1518775000004,198.1518775000004,198.1518775000004,198.1518775000004,198.1518775000004,198.1518775000004,0,1,[0.0012207000399939716],[0.3672451000311412],198.1518775000004,198.35394420003286,1000,198.35394420003286,1000,1000,1000,1000,1,num_2,1.4514851999701932,,24,13,2026-03-04_16h19.23.174,2026A_exp2,2022.2.4,59.9440961359471,
1000,1,4.9,3.7,1,0,56,56,78,,,,,199.83703210001113,200.48746560001746,200.48746560001746,200.9886003000429,315,45,200.9886003000429,200.9886003000429,200.9886003000429,200.9886003000429,200.9886003000429,200.9886003000429,200.9886003000429,200.9886003000429,200.9886003000429,201.3384715000284,201.3384715000284,201.3384715000284,201.3384715000284,201.3384715000284,201.3384715000284,201.3384715000284,201.3384715000284,201.3384715000284,0,1,[0.0012922000023536384],[0.3502431000233628],201.3384715000284,201.54050970001845,1000,201.54050970001845,1000,1000,1000,1000,0,num_3,1.1122445999644697,,24,13,2026-03-04_16h19.23.174,2026A_exp2,2022.2.4,59.9440961359471,
1,0,6.1,0.0,1,0,57,57,17,,,,,202.67298710002797,203.32378730003256,203.32378730003256,203.82479969999986,315,315,203.82479969999986,203.82479969999986,203.82479969999986,203.82479969999986,203.82479969999986,203.82479969999986,203.82479969999986,203.82479969999986,203.82479969999986,204.19130930001847,204.19130930001847,204.19130930001847,204.19130930001847,204.19130930001847,204.19130930001847,204.19130930001847,204.19130930001847,204.19130930001847,9,4,"[0.0013027000240981579, 0.11694500001613051, 0.25050250004278496, 0.36719399999128655]","[0.10021260002395138, 0.21699109999462962, 0.26699050003662705, 0.3671992000308819]",204.19130930001847,204.3914272999973,0.0,204.3914272999973,0,0.0,0,1,1000,num_1,1.3498260999913327,,24,13,2026-03-04_16h19.23.174,2026A_exp2,2022.2.4,59.9440961359471,
1000,1,4.9,0.0,0,0,58,58,50,,,,,205.7592566999956,206.4100783999893,206.4100783999893,206.8946150999982,45,315,206.8946150999982,206.8946150999982,206.8946150999982,206.8946150999982,206.8946150999982,206.8946150999982,206.8946150999982,206.8946150999982,206.8946150999982,207.26103709999006,207.26103709999006,207.26103709999006,207.26103709999006,207.26103709999006,207.26103709999006,207.26103709999006,207.26103709999006,207.26103709999006,5,3,"[0.0012348000309430063, 0.25044930004514754, 0.35063340002670884]","[0.23373279999941587, 0.2834168000263162, 0.367296600015834]",207.26103709999006,207.46312180004315,1000,207.46312180004315,1000,1000,1000,1000,0,num_3,0.7426462000003085,,24,13,2026-03-04_16h19.23.174,2026A_exp2,2022.2.4,59.9440961359471,
1000,1,4.9,3.7,0,0,59,59,28,,,,,208.22867460001726,208.87923680001404,208.87923680001404,209.3801669999957,315,315,209.3801669999957,209.3801669999957,209.3801669999957,209.3801669999957,209.3801669999957,209.3801669999957,209.3801669999957,209.3801669999957,209.3801669999957,209.73012910003308,209.73012910003308,209.73012910003308,209.73012910003308,209.73012910003308,209.73012910003308,209.73012910003308,209.73012910003308,209.73012910003308,13,1,[0.21713500004261732],[0.350667999999132],209.73012910003308,209.9326854000101,1000,209.9326854000101,1000,1000,1000,1000,0,num_3,0.5599392000003718,,24,13,2026-03-04_16h19.23.174,2026A_exp2,2022.2.4,59.9440961359471,
1,0,0.0,6.1,0,0,60,60,24,,,,,210.51403750001919,211.16487239999697,211.16487239999697,211.6659212000086,315,45,211.6659212000086,211.6659212000086,211.6659212000086,211.6659212000086,211.6659212000086,211.6659212000086,211.6659212000086,211.6659212000086,211.6659212000086,212.03228640003363,212.03228640003363,212.03228640003363,212.03228640003363,212.03228640003363,212.03228640003363,212.03228640003363,212.03228640003363,212.03228640003363,7,2,"[0.001236499985679984, 0.2837777999811806]","[0.2335544999805279, 0.30052180000348017]",212.03228640003363,212.23269209999125,0.0,212.23269209999125,1,0.0,0,0,1000,num_4,1.3166837000171654,,24,13,2026-03-04_16h19.23.174,2026A_exp2,2022.2.4,59.9440961359471,
1000,1,0.0,6.1,1,0,61,61,42,,,,,213.5671535000438,214.21760030003497,214.21760030003497,214.70237200002884,315,315,214.70237200002884,214.70237200002884,214.70237200002884,214.70237200002884,214.70237200002884,214.70237200002884,214.70237200002884,214.70237200002884,214.70237200002884,215.06877780001378,215.06877780001378,215.06877780001378,215.06877780001378,215.06877780001378,215.06877780001378,215.06877780001378,215.06877780001378,215.06877780001378,15,2,"[0.0013578999787569046, 0.13347619998967275]","[0.11686030001146719, 0.15020009997533634]",215.06877780001378,215.2692701999913,1000,215.2692701999913,1000,1000,1000,1000,1,num_2,0.6963791999733075,,24,13,2026-03-04_16h19.23.174,2026A_exp2,2022.2.4,59.9440961359471,
1,0,0.0,0.0,0,0,62,62,87,,,,,215.9863584000268,216.63710779999383,216.63710779999383,217.13818950002315,45,315,217.13818950002315,217.13818950002315,217.13818950002315,217.13818950002315,217.13818950002315,217.13818950002315,217.13818950002315,217.13818950002315,217.13818950002315,217.5044307000353,217.5044307000353,217.5044307000353,217.5044307000353,217.5044307000353,217.5044307000353,217.5044307000353,217.5044307000353,217.5044307000353,0,1,[0.0012070999946445227],[0.3674431000254117],217.5044307000353,217.70473150000907,0.0,217.70473150000907,0,0.0,0,1,1000,num_1,1.0765143999597058,,24,13,2026-03-04_16h19.23.174,2026A_exp2,2022.2.4,59.9440961359471,
1000,1,4.9,0.0,1,0,63,63,48,,,,,218.8057867999887,219.4565539000323,219.4565539000323,219.94100880000042,315,45,219.94100880000042,219.94100880000042,219.94100880000042,219.94100880000042,219.94100880000042,219.94100880000042,219.94100880000042,219.94100880000042,219.94100880000042,220.30722890002653,220.30722890002653,220.30722890002653,220.30722890002653,220.30722890002653,220.30722890002653,220.30722890002653,220.30722890002653,220.30722890002653,9,3,"[0.0013898999895900488, 0.16692330001387745, 0.3172113000182435]","[0.10021910001523793, 0.2839407999999821, 0.33377830003155395]",220.30722890002653,220.50917189999018,1000,220.50917189999018,1000,1000,1000,1000,0,num_3,0.5605985000147484,,24,13,2026-03-04_16h19.23.174,2026A_exp2,2022.2.4,59.9440961359471,
1000,1,6.1,0.0,0,0,64,64,58,,,,,221.09137680003187,221.74293130001752,221.74293130001752,222.24334779998753,45,45,222.24334779998753,222.24334779998753,222.24334779998753,222.24334779998753,222.24334779998753,222.24334779998753,222.24334779998753,222.24334779998753,222.24334779998753,222.59303510002792,222.59303510002792,222.59303510002792,222.59303510002792,222.59303510002792,222.59303510002792,222.59303510002792,222.59303510002792,222.59303510002792,0,1,[0.0011062999838031828],[0.35077199997613207],222.59303510002792,222.79498609999428,1000,222.79498609999428,1000,1000,1000,1000,0,num_3,0.5706706999917515,,24,13,2026-03-04_16h19.23.174,2026A_exp2,2022.2.4,59.9440961359471,
1,0,0.0,0.0,0,0,65,65,80,,,,,223.39362660003826,224.0443641000311,224.0443641000311,224.54561249999097,315,315,224.54561249999097,224.54561249999097,224.54561249999097,224.54561249999097,224.54561249999097,224.54561249999097,224.54561249999097,224.54561249999097,224.54561249999097,224.89532700000564,224.89532700000564,224.89532700000564,224.89532700000564,224.89532700000564,224.89532700000564,224.89532700000564,224.89532700000564,224.89532700000564,3,2,"[0.0012060999870300293, 0.23371500003850088]","[0.21710970002459362, 0.35057020001113415]",224.89532700000564,225.09540230000857,0.0,225.11214010004187,0,0.0,0,1,1000,num_1,1.044984700041823,,24,13,2026-03-04_16h19.23.174,2026A_exp2,2022.2.4,59.9440961359471,
1000,1,6.1,6.1,1,0,66,66,22,,,,,226.1798642000067,226.83065700001316,226.83065700001316,227.3149895000388,315,315,227.3149895000388,227.3149895000388,227.3149895000388,227.3149895000388,227.3149895000388,227.3149895000388,227.3149895000388,227.3149895000388,227.3149895000388,227.68140579998726,227.68140579998726,227.68140579998726,227.68140579998726,227.68140579998726,227.68140579998726,227.68140579998726,227.68140579998726,227.68140579998726,0,1,[0.0012011000071652234],[0.3672489000018686],227.68140579998726,227.88385530002415,1000,227.88385530002415,1000,1000,1000,1000,0,num_3,0.6415339999948628,,24,13,2026-03-04_16h19.23.174,2026A_exp2,2022.2.4,59.9440961359471,
0,0,6.1,3.7,0,0,67,67,49,,,,,228.54886889999034,229.19968560000416,229.19968560000416,229.70059580000816,45,45,229.70059580000816,229.70059580000816,229.70059580000816,229.70059580000816,229.70059580000816,229.70059580000816,229.70059580000816,229.70059580000816,229.70059580000816,230.0671399999992,230.0671399999992,230.0671399999992,230.0671399999992,230.0671399999992,230.0671399999992,230.0671399999992,230.0671399999992,230.0671399999992,0,1,[0.0012519999872893095],[0.367098500020802],230.0671399999992,230.26734750001924,3.7,230.26734750001924,0,3.7,1,0,1000,num_1,1.6255635999841616,,24,13,2026-03-04_16h19.23.174,2026A_exp2,2022.2.4,59.9440961359471,
1000,1,0.0,0.0,0,0,68,68,89,,,,,231.91895250004018,232.56962140003452,232.56962140003452,233.05409130000044,45,315,233.05409130000044,233.05409130000044,233.05409130000044,233.05409130000044,233.05409130000044,233.05409130000044,233.05409130000044,233.05409130000044,233.05409130000044,233.42050810001092,233.42050810001092,233.42050810001092,233.42050810001092,233.42050810001092,233.42050810001092,233.42050810001092,233.42050810001092,233.42050810001092,15,4,"[0.05020810000132769, 0.10024900001008064, 0.1334336000145413, 0.31714900000952184]","[0.0836039999849163, 0.1168898000032641, 0.15028409997466952, 0.36709469999186695]",233.42050810001092,233.62240839999868,1000,233.62240839999868,1000,1000,1000,1000,1,num_2,2.4634193000383675,,24,13,2026-03-04_16h19.23.174,2026A_exp2,2022.2.4,59.9440961359471,
1000,1,0.0,0.0,1,0,69,69,55,,,,,236.10645960003603,236.75715680001304,236.75715680001304,237.258141600003,45,45,237.258141600003,237.258141600003,237.258141600003,237.258141600003,237.258141600003,237.258141600003,237.258141600003,237.258141600003,237.258141600003,237.6247399999993,237.6247399999993,237.6247399999993,237.6247399999993,237.6247399999993,237.6247399999993,237.6247399999993,237.6247399999993,237.6247399999993,0,1,[0.0012351999757811427],[0.3672004999825731],237.6247399999993,237.8265064000152,1000,237.8265064000152,1000,1000,1000,1000,1,num_2,0.777926100010518,,24,13,2026-03-04_16h19.23.174,2026A_exp2,2022.2.4,59.9440961359471,
1000,1,0.0,0.0,0,0,70,70,72,,,,,238.62553620000836,239.27632520004408,239.27632520004408,239.77747820003424,45,315,239.77747820003424,239.77747820003424,239.77747820003424,239.77747820003424,239.77747820003424,239.77747820003424,239.77747820003424,239.77747820003424,239.77747820003424,240.14375500002643,240.14375500002643,240.14375500002643,240.14375500002643,240.14375500002643,240.14375500002643,240.14375500002643,240.14375500002643,240.14375500002643,0,1,[0.001241799967829138],[0.36713739996775985],240.14375500002643,240.34611380001297,1000,240.34611380001297,1000,1000,1000,1000,0,num_3,0.9147848999709822,,24,13,2026-03-04_16h19.23.174,2026A_exp2,2022.2.4,59.9440961359471,
1000,1,3.7,6.1,1,0,71,71,75,,,,,241.27832010004204,241.9290425000363,241.9290425000363,242.42996440001298,45,315,242.42996440001298,242.42996440001298,242.42996440001298,242.42996440001298,242.42996440001298,242.42996440001298,242.42996440001298,242.42996440001298,242.42996440001298,242.79653440002585,242.79653440002585,242.79653440002585,242.79653440002585,242.79653440002585,242.79653440002585,242.79653440002585,242.79653440002585,242.79653440002585,0,1,[0.001275799993891269],[0.36704609997104853],242.79653440002585,242.99910519999685,1000,242.99910519999685,1000,1000,1000,1000,1,num_2,0.6462892999988981,,24,13,2026-03-04_16h19.23.174,2026A_exp2,2022.2.4,59.9440961359471,
1,0,4.9,4.9,1,0,72,72,9,,,,,243.66388690000167,244.31470550002996,244.31470550002996,244.8158521000296,45,45,244.8158521000296,244.8158521000296,244.8158521000296,244.8158521000296,244.8158521000296,244.8158521000296,244.8158521000296,244.8158521000296,244.8158521000296,245.18229220004287,245.18229220004287,245.18229220004287,245.18229220004287,245.18229220004287,245.18229220004287,245.18229220004287,245.18229220004287,245.18229220004287,0,1,[0.0012278000358492136],[0.3672987000318244],245.18229220004287,245.38254950003466,4.9,245.38254950003466,1,4.9,1,1,1000,num_4,0.8866551000392064,,24,13,2026-03-04_16h19.23.174,2026A_exp2,2022.2.4,59.9440961359471,
1000,1,0.0,3.7,0,0,73,73,21,,,,,246.29995439999038,246.95478349999757,246.95478349999757,247.4358993000351,45,45,247.4358993000351,247.4358993000351,247.4358993000351,247.4358993000351,247.4358993000351,247.4358993000351,247.4358993000351,247.4358993000351,247.4358993000351,247.80155700002797,247.80155700002797,247.80155700002797,247.80155700002797,247.80155700002797,247.80155700002797,247.80155700002797,247.80155700002797,247.80155700002797,0,1,[0.0017832000157795846],[0.3665962999803014],247.80155700002797,248.00374360004207,1000,248.00374360004207,1000,1000,1000,1000,1,num_2,0.7133928000112064,,24,13,2026-03-04_16h19.23.174,2026A_exp2,2022.2.4,59.9440961359471,
1000,1,0.0,3.7,1,0,74,74,4,,,,,248.73562940000556,249.38645140000153,249.38645140000153,249.88757600000827,45,45,249.88757600000827,249.88757600000827,249.88757600000827,249.88757600000827,249.88757600000827,249.88757600000827,249.88757600000827,249.88757600000827,249.88757600000827,250.25384540000232,250.25384540000232,250.25384540000232,250.25384540000232,250.25384540000232,250.25384540000232,250.25384540000232,250.25384540000232,250.25384540000232,0,1,[0.0013154000043869019],[0.36721250001573935],250.25384540000232,250.45611450000433,1000,250.45611450000433,1000,1000,1000,1000,1,num_2,0.43762829998740926,,24,13,2026-03-04_16h19.23.174,2026A_exp2,2022.2.4,59.9440961359471,
1000,1,6.1,4.9,0,0,75,75,81,,,,,250.92136060004123,251.57188950001728,251.57188950001728,252.07299399998737,315,315,252.07299399998737,252.07299399998737,252.07299399998737,252.07299399998737,252.07299399998737,252.07299399998737,252.07299399998737,252.07299399998737,252.07299399998737,252.42285100003937,252.42285100003937,252.42285100003937,252.42285100003937,252.42285100003937,252.42285100003937,252.42285100003937,252.42285100003937,252.42285100003937,4,4,"[0.001227899978403002, 0.03349340002750978, 0.09968360001221299, 0.14991949999239296]","[0.017344399995636195, 0.06872420001309365, 0.13338130002375692, 0.3511648999992758]",252.42285100003937,252.6249860000098,1000,252.6249860000098,1000,1000,1000,1000,0,num_3,0.7964767999947071,,24,13,2026-03-04_16h19.23.174,2026A_exp2,2022.2.4,59.9440961359471,
1000,1,6.1,0.0,0,0,76,76,27,,,,,253.44047620001948,254.09113750001416,254.09113750001416,254.5920669999905,315,315,254.5920669999905,254.5920669999905,254.5920669999905,254.5920669999905,254.5920669999905,254.5920669999905,254.5920669999905,254.5920669999905,254.5920669999905,254.94199660001323,254.94199660001323,254.94199660001323,254.94199660001323,254.94199660001323,254.94199660001323,254.94199660001323,254.94199660001323,254.94199660001323,2,1,[0.03342540003359318],[0.3503591000335291],254.94199660001323,255.1445284000365,1000,255.15878610004438,1000,1000,1000,1000,0,num_3,0.40637949999654666,,24,13,2026-03-04_16h19.23.174,2026A_exp2,2022.2.4,59.9440961359471,
1,0,3.7,0.0,0,0,77,77,10,,,,,255.5923762000166,256.2433052000124,256.2433052000124,256.72782000002917,45,45,256.72782000002917,256.72782000002917,256.72782000002917,256.72782000002917,256.72782000002917,256.72782000002917,256.72782000002917,256.72782000002917,256.72782000002917,257.09417880000547,257.09417880000547,257.09417880000547,257.09417880000547,257.09417880000547,257.09417880000547,257.09417880000547,257.09417880000547,257.09417880000547,0,1,[0.0012992999982088804],[0.366852100007236],257.09417880000547,257.2942409000243,3.7,257.2942409000243,1,3.7,1,1,1000,num_4,1.8861915999441408,,24,13,2026-03-04_16h19.23.174,2026A_exp2,2022.2.4,59.9440961359471,
1,0,0.0,0.0,1,0,78,78,6,,,,,259.21290889999364,259.84682770003565,259.84682770003565,260.3479151999927,315,315,260.3479151999927,260.3479151999927,260.3479151999927,260.3479151999927,260.3479151999927,260.3479151999927,260.3479151999927,260.3479151999927,260.3479151999927,260.71443870000076,260.71443870000076,260.71443870000076,260.71443870000076,260.71443870000076,260.71443870000076,260.71443870000076,260.71443870000076,260.71443870000076,23,0,,,260.71443870000076,260.91452600003686,0.0,260.91452600003686,0,0.0,0,1,1000,num_1,0.8590747999842279,,24,13,2026-03-04_16h19.23.174,2026A_exp2,2022.2.4,59.9440961359471,
1000,1,3.7,3.7,0,0,79,79,59,,,,,261.7987735000206,262.4494969000225,262.4494969000225,262.93385700002545,315,315,262.93385700002545,262.93385700002545,262.93385700002545,262.93385700002545,262.93385700002545,262.93385700002545,262.93385700002545,262.93385700002545,262.93385700002545,263.3004190000356,263.3004190000356,263.3004190000356,263.3004190000356,263.3004190000356,263.3004190000356,263.3004190000356,263.3004190000356,263.3004190000356,0,1,[0.0012347999727353454],[0.36668330000247806],263.3004190000356,263.5025505000376,1000,263.5025505000376,1000,1000,1000,1000,0,num_3,1.9420323999947868,,24,13,2026-03-04_16h19.23.174,2026A_exp2,2022.2.4,59.9440961359471,
1000,1,0.0,0.0,1,0,80,80,73,,,,,265.4691396999988,266.1197196000139,266.1197196000139,266.6209373000311,45,315,266.6209373000311,266.6209373000311,266.6209373000311,266.6209373000311,266.6209373000311,266.6209373000311,266.6209373000311,266.6209373000311,266.6209373000311,266.9874251000001,266.9874251000001,266.9874251000001,266.9874251000001,266.9874251000001,266.9874251000001,266.9874251000001,266.9874251000001,266.9874251000001,0,1,[0.0012330000172369182],[0.36715010000625625],266.9874251000001,267.1898510000319,1000,267.1898510000319,1000,1000,1000,1000,1,num_2,0.5993965000379831,,24,13,2026-03-04_16h19.23.174,2026A_exp2,2022.2.4,59.9440961359471,
1000,1,3.7,0.0,0,0,81,81,69,,,,,267.8049581000232,268.45549449999817,268.45549449999817,268.95652430003975,45,45,268.95652430003975,268.95652430003975,268.95652430003975,268.95652430003975,268.95652430003975,268.95652430003975,268.95652430003975,268.95652430003975,268.95652430003975,269.32304970000405,269.32304970000405,269.32304970000405,269.32304970000405,269.32304970000405,269.32304970000405,269.32304970000405,269.32304970000405,269.32304970000405,2,1,[0.0013176999636925757],[0.3506514999899082],269.32304970000405,269.5231707000057,1000,269.5231707000057,1000,1000,1000,1000,1,num_2,1.233304199995473,,24,13,2026-03-04_16h19.23.174,2026A_exp2,2022.2.4,59.9440961359471,
1000,1,3.7,0.0,0,0,82,82,86,,,,,270.7743513000314,271.42524579999736,271.42524579999736,271.93656820000615,315,45,271.93656820000615,271.93656820000615,271.93656820000615,271.93656820000615,271.93656820000615,271.93656820000615,271.93656820000615,271.93656820000615,271.93656820000615,272.2924197000102,272.2924197000102,272.2924197000102,272.2924197000102,272.2924197000102,272.2924197000102,272.2924197000102,272.2924197000102,272.2924197000102,0,1,[0.003291499975603074],[0.36490169999888167],272.2924197000102,272.4944368000142,1000,272.4944368000142,1000,1000,1000,1000,0,num_3,0.49430019996361807,,24,13,2026-03-04_16h19.23.174,2026A_exp2,2022.2.4,59.9440961359471,
1,0,6.1,0.0,0,0,83,83,85,,,,,273.0098409000202,273.66088030004175,273.66088030004175,274.16200910002226,315,315,274.16200910002226,274.16200910002226,274.16200910002226,274.16200910002226,274.16200910002226,274.16200910002226,274.16200910002226,274.16200910002226,274.16200910002226,274.5282526999945,274.5282526999945,274.5282526999945,274.5282526999945,274.5282526999945,274.5282526999945,274.5282526999945,274.5282526999945,274.5282526999945,1,1,[0.0007270000060088933],[0.36806910001905635],274.5282526999945,274.72854109999025,6.1,274.72854109999025,1,6.1,1,1,1000,num_4,0.8128096000291407,,24,13,2026-03-04_16h19.23.174,2026A_exp2,2022.2.4,59.9440961359471,
0,0,0.0,0.0,0,0,84,84,15,,,,,275.56252860004315,276.2133986999979,276.2133986999979,276.6976936000283,315,315,276.6976936000283,276.6976936000283,276.6976936000283,276.6976936000283,276.6976936000283,276.6976936000283,276.6976936000283,276.6976936000283,276.6976936000283,277.06404090003343,277.06404090003343,277.06404090003343,277.06404090003343,277.06404090003343,277.06404090003343,277.06404090003343,277.06404090003343,277.06404090003343,0,1,[0.0011950000189244747],[0.36714790004771203],277.06404090003343,277.26417830004357,0.0,277.26417830004357,0,0.0,0,1,1000,num_1,0.9895575999980792,,24,13,2026-03-04_16h19.23.174,2026A_exp2,2022.2.4,59.9440961359471,
1000,1,4.9,6.1,1,0,85,85,5,,,,,278.28192390000913,278.9327276000404,278.9327276000404,279.41711460001534,315,45,279.41711460001534,279.41711460001534,279.41711460001534,279.41711460001534,279.41711460001534,279.41711460001534,279.41711460001534,279.41711460001534,279.41711460001534,279.7835522000096,279.7835522000096,279.7835522000096,279.7835522000096,279.7835522000096,279.7835522000096,279.7835522000096,279.7835522000096,279.7835522000096,0,1,[0.001242399972397834],[0.3672184000024572],279.7835522000096,280.0052791000344,1000,280.0052791000344,1000,1000,1000,1000,0,num_3,1.3601192000205629,,24,13,2026-03-04_16h19.23.174,2026A_exp2,2022.2.4,59.9440961359471,
1000,1,0.0,0.0,0,0,86,86,45,,,,,281.3850164000178,282.0356457000016,282.0356457000016,282.53692889999365,315,315,282.53692889999365,282.53692889999365,282.53692889999365,282.53692889999365,282.53692889999365,282.53692889999365,282.53692889999365,282.53692889999365,282.53692889999365,282.9031109000207,282.9031109000207,282.9031109000207,282.9031109000207,282.9031109000207,282.9031109000207,282.9031109000207,282.9031109000207,282.9031109000207,0,1,[0.0012091000098735094],[0.3668860999750905],282.9031109000207,283.1054587000399,1000,283.1054587000399,1000,1000,1000,1000,1,num_2,0.8429863000055775,,24,13,2026-03-04_16h19.23.174,2026A_exp2,2022.2.4,59.9440961359471,
1,0,0.0,4.9,0,0,87,87,32,,,,,283.9713204000145,284.6217042999924,284.6217042999924,285.1228368000011,45,45,285.1228368000011,285.1228368000011,285.1228368000011,285.1228368000011,285.1228368000011,285.1228368000011,285.1228368000011,285.1228368000011,285.1228368000011,285.47255190002033,285.47255190002033,285.47255190002033,285.47255190002033,285.47255190002033,285.47255190002033,285.47255190002033,285.47255190002033,285.47255190002033,0,1,[0.001214599993545562],[0.3504162000026554],285.47255190002033,285.6727953000227,0.0,285.6727953000227,0,0.0,0,1,1000,num_1,1.4920978999580257,,24,13,2026-03-04_16h19.23.174,2026A_exp2,2022.2.4,59.9440961359471,
1000,1,0.0,6.1,1,0,88,88,13,,,,,287.19083590002265,287.82695960003184,287.82695960003184,288.32604680000804,315,315,288.32604680000804,288.32604680000804,288.32604680000804,288.32604680000804,288.32604680000804,288.32604680000804,288.32604680000804,288.32604680000804,288.32604680000804,288.69233520003036,288.69233520003036,288.69233520003036,288.69233520003036,288.69233520003036,288.69233520003036,288.69233520003036,288.69233520003036,288.69233520003036,22,1,[0.16695340001024306],[0.18359010003041476],288.69233520003036,288.8946617000038,1000,288.8946617000038,1000,1000,1000,1000,1,num_2,0.5264649000018835,,24,13,2026-03-04_16h19.23.174,2026A_exp2,2022.2.4,59.9440961359471,
1,0,0.0,0.0,1,0,89,89,38,,,,,289.44306660001166,290.0937042000005,290.0937042000005,290.5948714000406,45,45,290.5948714000406,290.5948714000406,290.5948714000406,290.5948714000406,290.5948714000406,290.5948714000406,290.5948714000406,290.5948714000406,290.5948714000406,290.96133040002314,290.96133040002314,290.96133040002314,290.96133040002314,290.96133040002314,290.96133040002314,290.96133040002314,290.96133040002314,290.96133040002314,23,0,,,290.96133040002314,291.1615774999955,0.0,291.1615774999955,0,0.0,0,1,1000,num_1,0.8913030999829061,,24,13,2026-03-04_16h19.23.174,2026A_exp2,2022.2.4,59.9440961359471,
,,,,,,,,,,,,,,,,,,,,,,,,,,,,,,,,,,,,,,,,,,,,,,,,,,,,292.08715390000725,,,,,,,
