validity,detectorcomp,contrastCW,contrastCCW,precueCWorCCW,block_80trials.thisRepN,block_80trials.thisTrialN,block_80trials.thisN,block_80trials.thisIndex,etRecord.started,etRecord.stopped,text.started,text.stopped,text_4.started,text_4.stopped,text_6.started,text_6.stopped,oriCW,oriCCW,roi_2.started,grating_UR.started,grating_UL.started,grating_LR.started,grating_LL.started,noise_UR.started,noise_UL.started,noise_LR.started,noise_LL.started,roi_2.stopped,grating_UR.stopped,grating_UL.stopped,grating_LR.stopped,grating_LL.stopped,noise_UR.stopped,noise_UL.stopped,noise_LR.stopped,noise_LL.stopped,outframe,roi_2.numLooks,roi_2.timesOn,roi_2.timesOff,text_2.started,text_2.stopped,probedcontrast,key_resp.started,respdetect,relevantContrast,correctDetect,TorFdetect,respCWorCCW,key_resp.keys,key_resp.rt,feedback_display_.started,participantNo,blockNo,date,expName,psychopyVersion,frameRate,
1,0,0.0,0.0,0,0,0,0,61,9.720004163682461e-05,9.720004163682461e-05,56.35801780014299,58.362269799923524,58.362269799923524,58.99451129999943,58.99451129999943,59.52652900014073,315,315,59.52652900014073,59.52652900014073,59.52652900014073,59.52652900014073,59.52652900014073,59.52652900014073,59.52652900014073,59.52652900014073,59.52652900014073,59.86185110011138,59.86185110011138,59.86185110011138,59.86185110011138,59.86185110011138,59.86185110011138,59.86185110011138,59.86185110011138,59.86185110011138,1,2,"[0.0014226001221686602, 0.08289960003457963]","[0.0651932000182569, 0.36499950010329485]",59.86185110011138,60.06189090013504,0.0,60.06189090013504,0,0.0,0,1,1000,num_1,1.6072507000062615,,35,15,2026-03-13_14h38.44.926,2026A_exp2,2022.2.4,59.91794839237434,
1,0,4.9,6.1,0,0,1,1,29,,,,,61.696853399975225,62.33077879995108,62.33077879995108,62.83208129997365,315,315,62.83208129997365,62.83208129997365,62.83208129997365,62.83208129997365,62.83208129997365,62.83208129997365,62.83208129997365,62.83208129997365,62.83208129997365,63.19822200015187,63.19822200015187,63.19822200015187,63.19822200015187,63.19822200015187,63.19822200015187,63.19822200015187,63.19822200015187,63.19822200015187,11,5,"[0.0010194999631494284, 0.1672559001017362, 0.24966860003769398, 0.3332277999725193, 0.3666934999637306]","[0.09973240015096962, 0.21649010013788939, 0.2664463999681175, 0.35015670000575483, 0.3666968001052737]",63.19822200015187,63.39857230009511,4.9,63.39857230009511,0,4.9,1,0,1000,num_1,0.543096800101921,,35,15,2026-03-13_14h38.44.926,2026A_exp2,2022.2.4,59.91794839237434,
1,0,0.0,4.9,1,0,2,2,73,,,,,63.96576729998924,64.59984849998727,64.59984849998727,65.10094449995086,315,315,65.10094449995086,65.10094449995086,65.10094449995086,65.10094449995086,65.10094449995086,65.10094449995086,65.10094449995086,65.10094449995086,65.10094449995086,65.46729980013333,65.46729980013333,65.46729980013333,65.46729980013333,65.46729980013333,65.46729980013333,65.46729980013333,65.46729980013333,65.46729980013333,0,1,[0.0007180999964475632],[0.36707519995979965],65.46729980013333,65.66741989995353,4.9,65.66741989995353,1,4.9,1,1,1000,num_4,0.4016854001674801,,35,15,2026-03-13_14h38.44.926,2026A_exp2,2022.2.4,59.91794839237434,
1,0,6.1,0.0,1,0,3,3,17,,,,,66.10127310012467,66.73533660010435,66.73533660010435,67.23650830006227,315,315,67.23650830006227,67.23650830006227,67.23650830006227,67.23650830006227,67.23650830006227,67.23650830006227,67.23650830006227,67.23650830006227,67.23650830006227,67.6027450999245,67.6027450999245,67.6027450999245,67.6027450999245,67.6027450999245,67.6027450999245,67.6027450999245,67.6027450999245,67.6027450999245,11,2,"[0.13463250012136996, 0.333739300025627]","[0.3004674999974668, 0.3671055000741035]",67.6027450999245,67.80300950002857,0.0,67.80300950002857,0,0.0,0,1,1000,num_1,0.30671630008146167,,35,15,2026-03-13_14h38.44.926,2026A_exp2,2022.2.4,59.91794839237434,
1000,1,3.7,0.0,1,0,4,4,38,,,,,68.13685170002282,68.77057579997927,68.77057579997927,69.27170539996587,45,45,69.27170539996587,69.27170539996587,69.27170539996587,69.27170539996587,69.27170539996587,69.27170539996587,69.27170539996587,69.27170539996587,69.27170539996587,69.63917650002986,69.63917650002986,69.63917650002986,69.63917650002986,69.63917650002986,69.63917650002986,69.63917650002986,69.63917650002986,69.63917650002986,0,1,[0.0007476001046597958],[0.3674747000914067],69.63917650002986,69.83831369993277,1000,69.83831369993277,1000,1000,1000,1000,0,num_3,0.3112159001175314,,35,15,2026-03-13_14h38.44.926,2026A_exp2,2022.2.4,59.91794839237434,
0,0,0.0,6.1,1,0,5,5,46,,,,,70.17205279995687,70.82272560009733,70.82272560009733,71.30733909993432,45,45,71.30733909993432,71.30733909993432,71.30733909993432,71.30733909993432,71.30733909993432,71.30733909993432,71.30733909993432,71.30733909993432,71.30733909993432,71.6734186001122,71.6734186001122,71.6734186001122,71.6734186001122,71.6734186001122,71.6734186001122,71.6734186001122,71.6734186001122,71.6734186001122,0,1,[0.0007138000801205635],[0.3673618999309838],71.6734186001122,71.87371139996685,0.0,71.87371139996685,0,0.0,0,1,1000,num_1,0.42766480008140206,,35,15,2026-03-13_14h38.44.926,2026A_exp2,2022.2.4,59.91794839237434,
1,0,0.0,3.7,0,0,6,6,64,,,,,72.32415210013278,72.95799160003662,72.95799160003662,73.45901330001652,315,315,73.45901330001652,73.45901330001652,73.45901330001652,73.45901330001652,73.45901330001652,73.45901330001652,73.45901330001652,73.45901330001652,73.45901330001652,73.82545999996364,73.82545999996364,73.82545999996364,73.82545999996364,73.82545999996364,73.82545999996364,73.82545999996364,73.82545999996364,73.82545999996364,12,7,"[0.01731120003387332, 0.06734930002130568, 0.15061170002445579, 0.1841772000771016, 0.21709150006063282, 0.3009643000550568, 0.3671236000955105]","[0.034036400029435754, 0.08365790010429919, 0.16770560014992952, 0.2006163999903947, 0.2839938001707196, 0.3342653000727296, 0.367126900004223]",73.82545999996364,74.02575380005874,0.0,74.02575380005874,0,0.0,0,1,1000,num_1,0.3552292000968009,,35,15,2026-03-13_14h38.44.926,2026A_exp2,2022.2.4,59.91794839237434,
1,0,0.0,0.0,1,0,7,7,59,,,,,74.40959140006453,75.04354900005274,75.04354900005274,75.54464869992808,45,315,75.54464869992808,75.54464869992808,75.54464869992808,75.54464869992808,75.54464869992808,75.54464869992808,75.54464869992808,75.54464869992808,75.54464869992808,75.91098170005716,75.91098170005716,75.91098170005716,75.91098170005716,75.91098170005716,75.91098170005716,75.91098170005716,75.91098170005716,75.91098170005716,11,5,"[0.0007413998246192932, 0.03493329999037087, 0.13345429999753833, 0.2837821999564767, 0.3337298999540508]","[0.017173799918964505, 0.050365000031888485, 0.2669881999026984, 0.3004317998420447, 0.35030109994113445]",75.91098170005716,76.11161090014502,0.0,76.11161090014502,0,0.0,0,1,1000,num_1,0.2460525999777019,,35,15,2026-03-13_14h38.44.926,2026A_exp2,2022.2.4,59.91794839237434,
1000,1,3.7,0.0,0,0,8,8,81,,,,,76.3783015999943,77.02885100012645,77.02885100012645,77.52984690014273,315,45,77.52984690014273,77.52984690014273,77.52984690014273,77.52984690014273,77.52984690014273,77.52984690014273,77.52984690014273,77.52984690014273,77.52984690014273,77.87996709998697,77.87996709998697,77.87996709998697,77.87996709998697,77.87996709998697,77.87996709998697,77.87996709998697,77.87996709998697,77.87996709998697,1,2,"[0.0007819000165909529, 0.25061070010997355]","[0.2341497999150306, 0.3507278999313712]",77.87996709998697,78.08216490014456,1000,78.08216490014456,1000,1000,1000,1000,0,num_3,0.5391504000872374,,35,15,2026-03-13_14h38.44.926,2026A_exp2,2022.2.4,59.91794839237434,
1000,1,0.0,0.0,1,0,9,9,35,,,,,78.64711030013859,79.29797299997881,79.29797299997881,79.79919090005569,45,315,79.79919090005569,79.79919090005569,79.79919090005569,79.79919090005569,79.79919090005569,79.79919090005569,79.79919090005569,79.79919090005569,79.79919090005569,80.14883890002966,80.14883890002966,80.14883890002966,80.14883890002966,80.14883890002966,80.14883890002966,80.14883890002966,80.14883890002966,80.14883890002966,0,1,[0.0012215999886393547],[0.35036739986389875],80.14883890002966,80.35080879996531,1000,80.35080879996531,1000,1000,1000,1000,0,num_3,0.2150504000019282,,35,15,2026-03-13_14h38.44.926,2026A_exp2,2022.2.4,59.91794839237434,
1000,1,4.9,0.0,0,0,10,10,12,,,,,80.58257140009664,81.2331668001134,81.2331668001134,81.73413130012341,315,45,81.73413130012341,81.73413130012341,81.73413130012341,81.73413130012341,81.73413130012341,81.73413130012341,81.73413130012341,81.73413130012341,81.73413130012341,82.08401850005612,82.08401850005612,82.08401850005612,82.08401850005612,82.08401850005612,82.08401850005612,82.08401850005612,82.08401850005612,82.08401850005612,22,0,,,82.08401850005612,82.2860014999751,1000,82.30114979995415,1000,1000,1000,1000,0,num_3,0.5203515999019146,,35,15,2026-03-13_14h38.44.926,2026A_exp2,2022.2.4,59.91794839237434,
1,0,4.9,0.0,0,0,11,11,47,,,,,82.85134440008551,83.50227910000831,83.50227910000831,84.00318500003777,45,315,84.00318500003777,84.00318500003777,84.00318500003777,84.00318500003777,84.00318500003777,84.00318500003777,84.00318500003777,84.00318500003777,84.00318500003777,84.3697443001438,84.3697443001438,84.3697443001438,84.3697443001438,84.3697443001438,84.3697443001438,84.3697443001438,84.3697443001438,84.3697443001438,23,0,,,84.3697443001438,84.57002949994057,4.9,84.57002949994057,1,4.9,1,1,1000,num_4,0.7632490999531001,,35,15,2026-03-13_14h38.44.926,2026A_exp2,2022.2.4,59.91794839237434,
1000,1,4.9,0.0,0,0,12,12,45,,,,,85.35398050001822,86.0047722000163,86.0047722000163,86.48919330001809,45,45,86.48919330001809,86.48919330001809,86.48919330001809,86.48919330001809,86.48919330001809,86.48919330001809,86.48919330001809,86.48919330001809,86.48919330001809,86.85557160014287,86.85557160014287,86.85557160014287,86.85557160014287,86.85557160014287,86.85557160014287,86.85557160014287,86.85557160014287,86.85557160014287,10,1,[0.0012216002214699984],[0.2171951001510024],86.85557160014287,87.05747460015118,1000,87.05747460015118,1000,1000,1000,1000,0,num_3,0.49272380000911653,,35,15,2026-03-13_14h38.44.926,2026A_exp2,2022.2.4,59.91794839237434,
0,0,0.0,4.9,1,0,13,13,0,,,,,87.57275809999555,88.23293779999949,88.23293779999949,88.7263059001416,45,315,88.7263059001416,88.7263059001416,88.7263059001416,88.7263059001416,88.7263059001416,88.7263059001416,88.7263059001416,88.7263059001416,88.7263059001416,89.0742858001031,89.0742858001031,89.0742858001031,89.0742858001031,89.0742858001031,89.0742858001031,89.0742858001031,89.0742858001031,89.0742858001031,20,2,"[0.018898200010880828, 0.06623349990695715]","[0.03374599991366267, 0.08280109986662865]",89.0742858001031,89.27454810007475,0.0,89.27454810007475,0,0.0,0,1,1000,num_1,0.5631397999823093,,35,15,2026-03-13_14h38.44.926,2026A_exp2,2022.2.4,59.91794839237434,
1,0,6.1,0.0,0,0,14,14,51,,,,,89.85871790000238,90.49251749995165,90.49251749995165,90.9936162000522,45,315,90.9936162000522,90.9936162000522,90.9936162000522,90.9936162000522,90.9936162000522,90.9936162000522,90.9936162000522,90.9936162000522,90.9936162000522,91.36008820007555,91.36008820007555,91.36008820007555,91.36008820007555,91.36008820007555,91.36008820007555,91.36008820007555,91.36008820007555,91.36008820007555,17,5,"[0.033532300032675266, 0.08359449985437095, 0.1836329000070691, 0.21705259988084435, 0.30034990003332496]","[0.06719149998389184, 0.1002235000487417, 0.2003868999890983, 0.23366139992140234, 0.3170467000454664]",91.36008820007555,91.56092860014178,6.1,91.56092860014178,1,6.1,1,1,1000,num_4,0.4209523000754416,,35,15,2026-03-13_14h38.44.926,2026A_exp2,2022.2.4,59.91794839237434,
1,0,4.9,4.9,0,0,15,15,28,,,,,92.01060379995033,92.6614256000612,92.6614256000612,93.14580040005967,315,45,93.14580040005967,93.14580040005967,93.14580040005967,93.14580040005967,93.14580040005967,93.14580040005967,93.14580040005967,93.14580040005967,93.14580040005967,93.51218489999883,93.51218489999883,93.51218489999883,93.51218489999883,93.51218489999883,93.51218489999883,93.51218489999883,93.51218489999883,93.51218489999883,2,3,"[0.0012181000784039497, 0.13355590007267892, 0.23334789997898042]","[0.1168177998624742, 0.21671639988198876, 0.3673165999352932]",93.51218489999883,93.71254099998623,4.9,93.71254099998623,0,4.9,1,0,1000,num_1,0.34849519981071353,,35,15,2026-03-13_14h38.44.926,2026A_exp2,2022.2.4,59.91794839237434,
0,0,0.0,0.0,1,0,16,16,80,,,,,94.07929849997163,94.73015600000508,94.73015600000508,95.21445580013096,45,45,95.21445580013096,95.21445580013096,95.21445580013096,95.21445580013096,95.21445580013096,95.21445580013096,95.21445580013096,95.21445580013096,95.21445580013096,95.58100929995999,95.58100929995999,95.58100929995999,95.58100929995999,95.58100929995999,95.58100929995999,95.58100929995999,95.58100929995999,95.58100929995999,0,1,[0.0013848000671714544],[0.3672474001068622],95.58100929995999,95.78121210006066,0.0,95.78121210006066,0,0.0,0,1,1000,num_1,0.24829260003753006,,35,15,2026-03-13_14h38.44.926,2026A_exp2,2022.2.4,59.91794839237434,
1,0,4.9,3.7,1,0,17,17,71,,,,,96.04797050007619,96.69876100006513,96.69876100006513,97.18321510008536,315,45,97.18321510008536,97.18321510008536,97.18321510008536,97.18321510008536,97.18321510008536,97.18321510008536,97.18321510008536,97.18321510008536,97.18321510008536,97.54958029999398,97.54958029999398,97.54958029999398,97.54958029999398,97.54958029999398,97.54958029999398,97.54958029999398,97.54958029999398,97.54958029999398,7,4,"[0.01724439999088645, 0.06666760006919503, 0.10002160002477467, 0.3336368999443948]","[0.050129400100558996, 0.08341130008921027, 0.3002130000386387, 0.3504178000148386]",97.54958029999398,97.7498761001043,3.7,97.7498761001043,1,3.7,1,1,1000,num_4,0.46326850005425513,,35,15,2026-03-13_14h38.44.926,2026A_exp2,2022.2.4,59.91794839237434,
1000,1,0.0,4.9,1,0,18,18,72,,,,,98.2334897001274,98.88423079997301,98.88423079997301,99.36854810011573,315,45,99.36854810011573,99.36854810011573,99.36854810011573,99.36854810011573,99.36854810011573,99.36854810011573,99.36854810011573,99.36854810011573,99.36854810011573,99.73518249997869,99.73518249997869,99.73518249997869,99.73518249997869,99.73518249997869,99.73518249997869,99.73518249997869,99.73518249997869,99.73518249997869,20,2,"[0.3002341000828892, 0.350439399946481]","[0.3171820000279695, 0.36708760005421937]",99.73518249997869,99.93716350011528,1000,99.93716350011528,1000,1000,1000,1000,0,num_3,0.4052416000049561,,35,15,2026-03-13_14h38.44.926,2026A_exp2,2022.2.4,59.91794839237434,
1,0,3.7,0.0,0,0,19,19,10,,,,,100.36905060010031,101.01981750014238,101.01981750014238,101.52098329993896,315,45,101.52098329993896,101.52098329993896,101.52098329993896,101.52098329993896,101.52098329993896,101.52098329993896,101.52098329993896,101.52098329993896,101.52098329993896,101.88728439994156,101.88728439994156,101.88728439994156,101.88728439994156,101.88728439994156,101.88728439994156,101.88728439994156,101.88728439994156,101.88728439994156,4,4,"[0.00079590012319386, 0.16738880006596446, 0.2507484999950975, 0.3342230000998825]","[0.1339604000095278, 0.2341156001202762, 0.3176032002083957, 0.36760570015758276]",101.88728439994156,102.08753699995577,3.7,102.08753699995577,0,3.7,1,0,1000,num_1,0.5096127998549491,,35,15,2026-03-13_14h38.44.926,2026A_exp2,2022.2.4,59.91794839237434,
1000,1,0.0,0.0,1,0,20,20,34,,,,,102.62120750010945,103.2719849999994,103.2719849999994,103.77244520001113,315,315,103.77244520001113,103.77244520001113,103.77244520001113,103.77244520001113,103.77244520001113,103.77244520001113,103.77244520001113,103.77244520001113,103.77244520001113,104.12272169999778,104.12272169999778,104.12272169999778,104.12272169999778,104.12272169999778,104.12272169999778,104.12272169999778,104.12272169999778,104.12272169999778,2,2,"[0.03126020007766783, 0.34729469986632466]","[0.3306962000206113, 0.3640081000048667]",104.12272169999778,104.32543720002286,1000,104.32543720002286,1000,1000,1000,1000,0,num_3,0.28059430001303554,,35,15,2026-03-13_14h38.44.926,2026A_exp2,2022.2.4,59.91794839237434,
1000,1,0.0,0.0,0,0,21,21,2,,,,,104.62323100003414,105.27393470006064,105.27393470006064,105.77516670012847,45,45,105.77516670012847,105.77516670012847,105.77516670012847,105.77516670012847,105.77516670012847,105.77516670012847,105.77516670012847,105.77516670012847,105.77516670012847,106.14155940013006,106.14155940013006,106.14155940013006,106.14155940013006,106.14155940013006,106.14155940013006,106.14155940013006,106.14155940013006,106.14155940013006,5,2,"[0.01757190003991127, 0.11692639999091625]","[0.06698719994165003, 0.36713439994491637]",106.14155940013006,106.34354709996842,1000,106.34354709996842,1000,1000,1000,1000,1,num_2,1.1588890999555588,,35,15,2026-03-13_14h38.44.926,2026A_exp2,2022.2.4,59.91794839237434,
1000,1,6.1,6.1,1,0,22,22,53,,,,,107.52631310001016,108.17677689995617,108.17677689995617,108.6778987001162,45,315,108.6778987001162,108.6778987001162,108.6778987001162,108.6778987001162,108.6778987001162,108.6778987001162,108.6778987001162,108.6778987001162,108.6778987001162,109.04448630008847,109.04448630008847,109.04448630008847,109.04448630008847,109.04448630008847,109.04448630008847,109.04448630008847,109.04448630008847,109.04448630008847,5,4,"[0.0012936999555677176, 0.23353570001199841, 0.300299399998039, 0.3336969001684338]","[0.21698740008287132, 0.2836947999894619, 0.3169954000040889, 0.35040879994630814]",109.04448630008847,109.24625530000776,1000,109.24625530000776,1000,1000,1000,1000,0,num_3,0.39954529982060194,,35,15,2026-03-13_14h38.44.926,2026A_exp2,2022.2.4,59.91794839237434,
1000,1,0.0,0.0,1,0,23,23,88,,,,,109.6615860001184,110.31239950004965,110.31239950004965,110.812277500052,315,315,110.812277500052,110.812277500052,110.812277500052,110.812277500052,110.812277500052,110.812277500052,110.812277500052,110.812277500052,110.812277500052,111.16331390012056,111.16331390012056,111.16331390012056,111.16331390012056,111.16331390012056,111.16331390012056,111.16331390012056,111.16331390012056,111.16331390012056,4,4,"[0.004202600102871656, 0.047589899972081184, 0.11491969996131957, 0.34893610002472997]","[0.03229780006222427, 0.08387929992750287, 0.3315566999372095, 0.36500660004094243]",111.16331390012056,111.3795761000365,1000,111.3795761000365,1000,1000,1000,1000,1,num_2,0.6583221999462694,,35,15,2026-03-13_14h38.44.926,2026A_exp2,2022.2.4,59.91794839237434,
1,0,3.7,0.0,0,0,24,24,9,,,,,112.06397080002353,112.71475120005198,112.71475120005198,113.21576069993898,315,45,113.21576069993898,113.21576069993898,113.21576069993898,113.21576069993898,113.21576069993898,113.21576069993898,113.21576069993898,113.21576069993898,113.21576069993898,113.58235269994475,113.58235269994475,113.58235269994475,113.58235269994475,113.58235269994475,113.58235269994475,113.58235269994475,113.58235269994475,113.58235269994475,0,1,[0.0014547000173479319],[0.3671175001654774],113.58235269994475,113.78253780002706,3.7,113.78253780002706,1,3.7,1,1,1000,num_4,0.767047300003469,,35,15,2026-03-13_14h38.44.926,2026A_exp2,2022.2.4,59.91794839237434,
1,0,3.7,3.7,0,0,25,25,8,,,,,114.56647760001943,115.21726580010727,115.21726580010727,115.7013922999613,45,45,115.7013922999613,115.7013922999613,115.7013922999613,115.7013922999613,115.7013922999613,115.7013922999613,115.7013922999613,115.7013922999613,115.7013922999613,116.06816480006091,116.06816480006091,116.06816480006091,116.06816480006091,116.06816480006091,116.06816480006091,116.06816480006091,116.06816480006091,116.06816480006091,3,2,"[0.0012626999523490667, 0.25036110007204115]","[0.23361380002461374, 0.3503743000328541]",116.06816480006091,116.26820200006478,3.7,116.26820200006478,0,3.7,1,0,1000,num_1,0.7369192999321967,,35,15,2026-03-13_14h38.44.926,2026A_exp2,2022.2.4,59.91794839237434,
0,0,6.1,4.9,1,0,26,26,42,,,,,117.02050180011429,117.66966339992359,117.66966339992359,118.17074500001036,315,315,118.17074500001036,118.17074500001036,118.17074500001036,118.17074500001036,118.17074500001036,118.17074500001036,118.17074500001036,118.17074500001036,118.17074500001036,118.53720470005646,118.53720470005646,118.53720470005646,118.53720470005646,118.53720470005646,118.53720470005646,118.53720470005646,118.53720470005646,118.53720470005646,2,2,"[0.0007123998366296291, 0.31731830001808703]","[0.28387259994633496, 0.3672929999884218]",118.53720470005646,118.73753220005892,6.1,118.73753220005892,1,6.1,1,1,1000,num_4,0.6117545000743121,,35,15,2026-03-13_14h38.44.926,2026A_exp2,2022.2.4,59.91794839237434,
1000,1,0.0,4.9,1,0,27,27,57,,,,,119.3712776999455,120.022196700098,120.022196700098,120.50638710008934,45,45,120.50638710008934,120.50638710008934,120.50638710008934,120.50638710008934,120.50638710008934,120.50638710008934,120.50638710008934,120.50638710008934,120.50638710008934,120.87281320011243,120.87281320011243,120.87281320011243,120.87281320011243,120.87281320011243,120.87281320011243,120.87281320011243,120.87281320011243,120.87281320011243,2,2,"[0.0012110997922718525, 0.2337771998718381]","[0.2003757997881621, 0.36720249988138676]",120.87281320011243,121.07500279997475,1000,121.07500279997475,1000,1000,1000,1000,1,num_2,0.5389344000723213,,35,15,2026-03-13_14h38.44.926,2026A_exp2,2022.2.4,59.91794839237434,
1000,1,3.7,3.7,1,0,28,28,54,,,,,121.64020569995046,122.29105670005083,122.29105670005083,122.79213079996407,45,45,122.79213079996407,122.79213079996407,122.79213079996407,122.79213079996407,122.79213079996407,122.79213079996407,122.79213079996407,122.79213079996407,122.79213079996407,123.14172720001079,123.14172720001079,123.14172720001079,123.14172720001079,123.14172720001079,123.14172720001079,123.14172720001079,123.14172720001079,123.14172720001079,19,2,"[0.08352490002289414, 0.1670057000592351]","[0.11693200003355742, 0.18375590001232922]",123.14172720001079,123.34476380003616,1000,123.34476380003616,1000,1000,1000,1000,0,num_3,0.3891066999640316,,35,15,2026-03-13_14h38.44.926,2026A_exp2,2022.2.4,59.91794839237434,
1000,1,0.0,0.0,0,0,29,29,24,,,,,123.75908350013196,124.40981029998511,124.40981029998511,124.91078260005452,315,45,124.91078260005452,124.91078260005452,124.91078260005452,124.91078260005452,124.91078260005452,124.91078260005452,124.91078260005452,124.91078260005452,124.91078260005452,125.27728200005367,125.27728200005367,125.27728200005367,125.27728200005367,125.27728200005367,125.27728200005367,125.27728200005367,125.27728200005367,125.27728200005367,8,4,"[0.0172603998798877, 0.08358060009777546, 0.13360600010491908, 0.25046460004523396]","[0.033528100000694394, 0.11712269997224212, 0.20006649987772107, 0.367300899932161]",125.27728200005367,125.47971990006045,1000,125.47971990006045,1000,1000,1000,1000,1,num_2,0.4461676999926567,,35,15,2026-03-13_14h38.44.926,2026A_exp2,2022.2.4,59.91794839237434,
1000,1,0.0,0.0,0,0,30,30,79,,,,,125.94472949998453,126.59535810002126,126.59535810002126,127.09648200008087,315,315,127.09648200008087,127.09648200008087,127.09648200008087,127.09648200008087,127.09648200008087,127.09648200008087,127.09648200008087,127.09648200008087,127.09648200008087,127.46289049996994,127.46289049996994,127.46289049996994,127.46289049996994,127.46289049996994,127.46289049996994,127.46289049996994,127.46289049996994,127.46289049996994,14,3,"[0.11667130002751946, 0.2504096000920981, 0.3504410001914948]","[0.1666127999778837, 0.3170498001854867, 0.36714490014128387]",127.46289049996994,127.66491720010526,1000,127.66491720010526,1000,1000,1000,1000,0,num_3,0.3485257998108864,,35,15,2026-03-13_14h38.44.926,2026A_exp2,2022.2.4,59.91794839237434,
1,0,6.1,6.1,0,0,31,31,89,,,,,128.03009780007415,128.6807897000108,128.6807897000108,129.18188940011896,45,45,129.18188940011896,129.18188940011896,129.18188940011896,129.18188940011896,129.18188940011896,129.18188940011896,129.18188940011896,129.18188940011896,129.18188940011896,129.54828079999425,129.54828079999425,129.54828079999425,129.54828079999425,129.54828079999425,129.54828079999425,129.54828079999425,129.54828079999425,129.54828079999425,23,0,,,129.54828079999425,129.7485311999917,6.1,129.7485311999917,1,6.1,1,1,1000,num_4,0.6965745000634342,,35,15,2026-03-13_14h38.44.926,2026A_exp2,2022.2.4,59.91794839237434,
1000,1,6.1,4.9,1,0,32,32,15,,,,,130.4656637001317,131.1165684000589,131.1165684000589,131.60098590003327,45,45,131.60098590003327,131.60098590003327,131.60098590003327,131.60098590003327,131.60098590003327,131.60098590003327,131.60098590003327,131.60098590003327,131.60098590003327,131.9673790000379,131.9673790000379,131.9673790000379,131.9673790000379,131.9673790000379,131.9673790000379,131.9673790000379,131.9673790000379,131.9673790000379,23,0,,,131.9673790000379,132.16932870005257,1000,132.16932870005257,1000,1000,1000,1000,0,num_3,0.4124664000701159,,35,15,2026-03-13_14h38.44.926,2026A_exp2,2022.2.4,59.91794839237434,
1000,1,6.1,6.1,0,0,33,33,87,,,,,132.60122780012898,133.25544219999574,133.25544219999574,133.75301630003378,315,45,133.75301630003378,133.75301630003378,133.75301630003378,133.75301630003378,133.75301630003378,133.75301630003378,133.75301630003378,133.75301630003378,133.75301630003378,134.1194893999491,134.1194893999491,134.1194893999491,134.1194893999491,134.1194893999491,134.1194893999491,134.1194893999491,134.1194893999491,134.1194893999491,0,1,[0.0012519999872893095],[0.36715349997393787],134.1194893999491,134.3214187999256,1000,134.3214187999256,1000,1000,1000,1000,0,num_3,0.40459809987805784,,35,15,2026-03-13_14h38.44.926,2026A_exp2,2022.2.4,59.91794839237434,
1,0,0.0,0.0,1,0,34,34,58,,,,,134.75338000012562,135.4039982999675,135.4039982999675,135.90515520004556,45,45,135.90515520004556,135.90515520004556,135.90515520004556,135.90515520004556,135.90515520004556,135.90515520004556,135.90515520004556,135.90515520004556,135.90515520004556,136.27163200010546,136.27163200010546,136.27163200010546,136.27163200010546,136.27163200010546,136.27163200010546,136.27163200010546,136.27163200010546,136.27163200010546,0,1,[0.001232899958267808],[0.36725240014493465],136.27163200010546,136.47197910002433,0.0,136.47197910002433,0,0.0,0,1,1000,num_1,0.5015889999922365,,35,15,2026-03-13_14h38.44.926,2026A_exp2,2022.2.4,59.91794839237434,
1,0,0.0,0.0,0,0,35,35,22,,,,,137.00553760002367,137.639656299958,137.639656299958,138.1409730000887,315,45,138.1409730000887,138.1409730000887,138.1409730000887,138.1409730000887,138.1409730000887,138.1409730000887,138.1409730000887,138.1409730000887,138.1409730000887,138.50724950013682,138.50724950013682,138.50724950013682,138.50724950013682,138.50724950013682,138.50724950013682,138.50724950013682,138.50724950013682,138.50724950013682,10,3,"[0.11730489996261895, 0.18416259996592999, 0.28389539988711476]","[0.15057959989644587, 0.26703529991209507, 0.36766169988550246]",138.50724950013682,138.70735509996302,0.0,138.70735509996302,0,0.0,0,1,1000,num_1,0.24207679997198284,,35,15,2026-03-13_14h38.44.926,2026A_exp2,2022.2.4,59.91794839237434,
1,0,0.0,0.0,1,0,36,36,20,,,,,138.9742741000373,139.62502790009603,139.62502790009603,140.1093779001385,315,45,140.1093779001385,140.1093779001385,140.1093779001385,140.1093779001385,140.1093779001385,140.1093779001385,140.1093779001385,140.1093779001385,140.1093779001385,140.47590130008757,140.47590130008757,140.47590130008757,140.47590130008757,140.47590130008757,140.47590130008757,140.47590130008757,140.47590130008757,140.47590130008757,1,2,"[0.0012070999946445227, 0.05015420005656779]","[0.033436600118875504, 0.3671798000577837]",140.47590130008757,140.6760082000401,0.0,140.6760082000401,1,0.0,0,0,1000,num_4,0.402342600049451,,35,15,2026-03-13_14h38.44.926,2026A_exp2,2022.2.4,59.91794839237434,
1,0,6.1,3.7,1,0,37,37,16,,,,,141.1097319999244,141.76027810014784,141.76027810014784,142.24491160013713,45,315,142.24491160013713,142.24491160013713,142.24491160013713,142.24491160013713,142.24491160013713,142.24491160013713,142.24491160013713,142.24491160013713,142.24491160013713,142.61132690007798,142.61132690007798,142.61132690007798,142.61132690007798,142.61132690007798,142.61132690007798,142.61132690007798,142.61132690007798,142.61132690007798,12,5,"[0.11691169999539852, 0.14994850009679794, 0.2504960000514984, 0.2837716001085937, 0.3171721000690013]","[0.13329460006207228, 0.23369180015288293, 0.2671001001726836, 0.3004487999714911, 0.3672068000305444]",142.61132690007798,142.81154470006004,3.7,142.81154470006004,0,3.7,1,0,1000,num_1,0.6021957001648843,,35,15,2026-03-13_14h38.44.926,2026A_exp2,2022.2.4,59.91794839237434,
1000,1,6.1,0.0,0,0,38,38,69,,,,,143.4453344999347,144.09618630004115,144.09618630004115,144.58046329999343,45,45,144.58046329999343,144.58046329999343,144.58046329999343,144.58046329999343,144.58046329999343,144.58046329999343,144.58046329999343,144.58046329999343,144.58046329999343,144.94703010004014,144.94703010004014,144.94703010004014,144.94703010004014,144.94703010004014,144.94703010004014,144.94703010004014,144.94703010004014,144.94703010004014,0,1,[0.0013158000074326992],[0.3673302000388503],144.94703010004014,145.14928709995002,1000,145.14928709995002,1000,1000,1000,1000,0,num_3,0.43984959996305406,,35,15,2026-03-13_14h38.44.926,2026A_exp2,2022.2.4,59.91794839237434,
1,0,0.0,3.7,0,0,39,39,76,,,,,145.61418600007892,146.26504350011237,146.26504350011237,146.76612289994955,45,45,146.76612289994955,146.76612289994955,146.76612289994955,146.76612289994955,146.76612289994955,146.76612289994955,146.76612289994955,146.76612289994955,146.76612289994955,147.13239250006154,147.13239250006154,147.13239250006154,147.13239250006154,147.13239250006154,147.13239250006154,147.13239250006154,147.13239250006154,147.13239250006154,3,2,"[0.033525200095027685, 0.13375069992616773]","[0.11701339995488524, 0.36729900003410876]",147.13239250006154,147.33263480011374,0.0,147.33263480011374,0,0.0,0,1,1000,num_1,0.3451928999274969,,35,15,2026-03-13_14h38.44.926,2026A_exp2,2022.2.4,59.91794839237434,
0,0,0.0,0.0,1,0,40,40,14,,,,,147.69959710002877,148.3503173000645,148.3503173000645,148.83489729999565,45,45,148.83489729999565,148.83489729999565,148.83489729999565,148.83489729999565,148.83489729999565,148.83489729999565,148.83489729999565,148.83489729999565,148.83489729999565,149.20122170005925,149.20122170005925,149.20122170005925,149.20122170005925,149.20122170005925,149.20122170005925,149.20122170005925,149.20122170005925,149.20122170005925,0,1,[0.0012123999185860157],[0.36738660000264645],149.20122170005925,149.40149560011923,0.0,149.40149560011923,1,0.0,0,0,1000,num_4,0.7879009998869151,,35,15,2026-03-13_14h38.44.926,2026A_exp2,2022.2.4,59.91794839237434,
1000,1,0.0,3.7,0,0,41,41,50,,,,,150.2187415000517,150.8788121000398,150.8788121000398,151.37080130004324,45,45,151.37080130004324,151.37080130004324,151.37080130004324,151.37080130004324,151.37080130004324,151.37080130004324,151.37080130004324,151.37080130004324,151.37080130004324,151.7371543000918,151.7371543000918,151.7371543000918,151.7371543000918,151.7371543000918,151.7371543000918,151.7371543000918,151.7371543000918,151.7371543000918,0,1,[0.001393500017002225],[0.3672251000534743],151.7371543000918,151.93902559997514,1000,151.93902559997514,1000,1000,1000,1000,0,num_3,0.45864220010116696,,35,15,2026-03-13_14h38.44.926,2026A_exp2,2022.2.4,59.91794839237434,
1000,1,3.7,0.0,1,0,42,42,78,,,,,152.4210133999586,153.08278409997,153.08278409997,153.57818070007488,315,45,153.57818070007488,153.57818070007488,153.57818070007488,153.57818070007488,153.57818070007488,153.57818070007488,153.57818070007488,153.57818070007488,153.57818070007488,153.9226345999632,153.9226345999632,153.9226345999632,153.9226345999632,153.9226345999632,153.9226345999632,153.9226345999632,153.9226345999632,153.9226345999632,3,4,"[0.0026104000862687826, 0.11694939993321896, 0.16697290004231036, 0.2004376999102533]","[0.10029289987869561, 0.1338311000727117, 0.1837989001069218, 0.35049219988286495]",153.9226345999632,154.13802980002947,1000,154.13802980002947,1000,1000,1000,1000,1,num_2,0.6281511997804046,,35,15,2026-03-13_14h38.44.926,2026A_exp2,2022.2.4,59.91794839237434,
1000,1,0.0,4.9,0,0,43,43,23,,,,,154.79010250000283,155.4408297999762,155.4408297999762,155.94181079999544,315,45,155.94181079999544,155.94181079999544,155.94181079999544,155.94181079999544,155.94181079999544,155.94181079999544,155.94181079999544,155.94181079999544,155.94181079999544,156.30806150007993,156.30806150007993,156.30806150007993,156.30806150007993,156.30806150007993,156.30806150007993,156.30806150007993,156.30806150007993,156.30806150007993,1,2,"[0.0012409999035298824, 0.31706480006687343]","[0.3003352000378072, 0.3668341999873519]",156.30806150007993,156.51033610012382,1000,156.51033610012382,1000,1000,1000,1000,1,num_2,0.64707179996185,,35,15,2026-03-13_14h38.44.926,2026A_exp2,2022.2.4,59.91794839237434,
1000,1,4.9,0.0,1,0,44,44,84,,,,,157.17587990011089,157.8263970001135,157.8263970001135,158.32769070006907,315,315,158.32769070006907,158.32769070006907,158.32769070006907,158.32769070006907,158.32769070006907,158.32769070006907,158.32769070006907,158.32769070006907,158.32769070006907,158.69399549998343,158.69399549998343,158.69399549998343,158.69399549998343,158.69399549998343,158.69399549998343,158.69399549998343,158.69399549998343,158.69399549998343,5,4,"[0.0012221999932080507, 0.13370090001262724, 0.18410099996253848, 0.24982169992290437]","[0.11648349999450147, 0.16674409992992878, 0.2165775999892503, 0.36705449991859496]",158.69399549998343,158.89605350000784,1000,158.89605350000784,1000,1000,1000,1000,0,num_3,0.39049459993839264,,35,15,2026-03-13_14h38.44.926,2026A_exp2,2022.2.4,59.91794839237434,
1,0,0.0,3.7,1,0,45,45,30,,,,,159.31142670009285,159.96191329997964,159.96191329997964,160.46323460014537,315,315,160.46323460014537,160.46323460014537,160.46323460014537,160.46323460014537,160.46323460014537,160.46323460014537,160.46323460014537,160.46323460014537,160.46323460014537,160.82952610007487,160.82952610007487,160.82952610007487,160.82952610007487,160.82952610007487,160.82952610007487,160.82952610007487,160.82952610007487,160.82952610007487,1,2,"[0.000865899957716465, 0.3501997999846935]","[0.3333685998804867, 0.3668951999861747]",160.82952610007487,161.0296680999454,3.7,161.0296680999454,0,3.7,1,0,1000,num_1,0.5692197000607848,,35,15,2026-03-13_14h38.44.926,2026A_exp2,2022.2.4,59.91794839237434,
1000,1,3.7,0.0,1,0,46,46,19,,,,,161.6301778999623,162.2808332000859,162.2808332000859,162.76540599996224,45,315,162.76540599996224,162.76540599996224,162.76540599996224,162.76540599996224,162.76540599996224,162.76540599996224,162.76540599996224,162.76540599996224,162.76540599996224,163.1319212000817,163.1319212000817,163.1319212000817,163.1319212000817,163.1319212000817,163.1319212000817,163.1319212000817,163.1319212000817,163.1319212000817,0,1,[0.0012012000661343336],[0.3670550000388175],163.1319212000817,163.33379800012335,1000,163.33379800012335,1000,1000,1000,1000,0,num_3,0.37622059998102486,,35,15,2026-03-13_14h38.44.926,2026A_exp2,2022.2.4,59.91794839237434,
1,0,0.0,3.7,0,0,47,47,31,,,,,163.73231069999747,164.38305720011704,164.38305720011704,164.8847310000565,45,45,164.8847310000565,164.8847310000565,164.8847310000565,164.8847310000565,164.8847310000565,164.8847310000565,164.8847310000565,164.8847310000565,164.8847310000565,165.25066250003874,165.25066250003874,165.25066250003874,165.25066250003874,165.25066250003874,165.25066250003874,165.25066250003874,165.25066250003874,165.25066250003874,7,4,"[0.03268459998071194, 0.11606919998303056, 0.19950310001149774, 0.2663318000268191]","[0.06595419999212027, 0.18272430007345974, 0.24958600010722876, 0.36644620005972683]",165.25066250003874,165.45079499995336,0.0,165.45079499995336,0,0.0,0,1,1000,num_1,0.45965129998512566,,35,15,2026-03-13_14h38.44.926,2026A_exp2,2022.2.4,59.91794839237434,
1,0,0.0,0.0,0,0,48,48,85,,,,,165.9346859001089,166.58529529999942,166.58529529999942,167.0748485000804,45,315,167.0748485000804,167.0748485000804,167.0748485000804,167.0748485000804,167.0748485000804,167.0748485000804,167.0748485000804,167.0748485000804,167.0748485000804,167.4361717000138,167.4361717000138,167.4361717000138,167.4361717000138,167.4361717000138,167.4361717000138,167.4361717000138,167.4361717000138,167.4361717000138,2,2,"[0.0025281000416725874, 0.3332701998297125]","[0.30000149994157255, 0.3668080000206828]",167.4361717000138,167.64000260015018,0.0,167.64000260015018,0,0.0,0,1,1000,num_1,0.31006000004708767,,35,15,2026-03-13_14h38.44.926,2026A_exp2,2022.2.4,59.91794839237434,
1,0,0.0,0.0,0,0,49,49,6,,,,,167.96990670007654,168.62064760015346,168.62064760015346,169.1218226000201,315,315,169.1218226000201,169.1218226000201,169.1218226000201,169.1218226000201,169.1218226000201,169.1218226000201,169.1218226000201,169.1218226000201,169.1218226000201,169.4882066999562,169.4882066999562,169.4882066999562,169.4882066999562,169.4882066999562,169.4882066999562,169.4882066999562,169.4882066999562,169.4882066999562,3,2,"[0.01751999999396503, 0.36730020004324615]","[0.33386050001718104, 0.3673052000813186]",169.4882066999562,169.6884842000436,0.0,169.6884842000436,0,0.0,0,1,1000,num_1,0.10071110003627837,,35,15,2026-03-13_14h38.44.926,2026A_exp2,2022.2.4,59.91794839237434,
1,0,3.7,0.0,0,0,50,50,3,,,,,169.8050979000982,170.45593479997478,170.45593479997478,170.94027710007504,315,315,170.94027710007504,170.94027710007504,170.94027710007504,170.94027710007504,170.94027710007504,170.94027710007504,170.94027710007504,170.94027710007504,170.94027710007504,171.3065848001279,171.3065848001279,171.3065848001279,171.3065848001279,171.3065848001279,171.3065848001279,171.3065848001279,171.3065848001279,171.3065848001279,4,3,"[0.0012425000313669443, 0.08358739991672337, 0.2169542999472469]","[0.050074700033292174, 0.20020429999567568, 0.3671818000730127]",171.3065848001279,171.5068123000674,3.7,171.5068123000674,1,3.7,1,1,1000,num_4,0.2830463000573218,,35,15,2026-03-13_14h38.44.926,2026A_exp2,2022.2.4,59.91794839237434,
1000,1,0.0,0.0,1,0,51,51,44,,,,,171.80702430009842,172.45785320014693,172.45785320014693,172.9422689001076,45,45,172.9422689001076,172.9422689001076,172.9422689001076,172.9422689001076,172.9422689001076,172.9422689001076,172.9422689001076,172.9422689001076,172.9422689001076,173.30871340003796,173.30871340003796,173.30871340003796,173.30871340003796,173.30871340003796,173.30871340003796,173.30871340003796,173.30871340003796,173.30871340003796,1,2,"[0.00122079998254776, 0.3672130999621004]","[0.35051980009302497, 0.367218199884519]",173.30871340003796,173.5107359001413,1000,173.5107359001413,1000,1000,1000,1000,0,num_3,0.5589970999862999,,35,15,2026-03-13_14h38.44.926,2026A_exp2,2022.2.4,59.91794839237434,
1,0,0.0,0.0,0,0,52,52,39,,,,,174.09272760013118,174.74344699992798,174.74344699992798,175.2445241000969,45,45,175.2445241000969,175.2445241000969,175.2445241000969,175.2445241000969,175.2445241000969,175.2445241000969,175.2445241000969,175.2445241000969,175.2445241000969,175.59415629995055,175.59415629995055,175.59415629995055,175.59415629995055,175.59415629995055,175.59415629995055,175.59415629995055,175.59415629995055,175.59415629995055,3,4,"[0.001191499875858426, 0.03352089994587004, 0.16703870007768273, 0.2337517999112606]","[0.017369200009852648, 0.15037659998051822, 0.21705370000563562, 0.3504711000714451]",175.59415629995055,175.79432020010427,0.0,175.79432020010427,0,0.0,0,1,1000,num_1,0.05976149998605251,,35,15,2026-03-13_14h38.44.926,2026A_exp2,2022.2.4,59.91794839237434,
1,0,0.0,0.0,0,0,53,53,32,,,,,175.8778119001072,176.5286008999683,176.5286008999683,177.0296752001159,45,45,177.0296752001159,177.0296752001159,177.0296752001159,177.0296752001159,177.0296752001159,177.0296752001159,177.0296752001159,177.0296752001159,177.0296752001159,177.37937390012667,177.37937390012667,177.37937390012667,177.37937390012667,177.37937390012667,177.37937390012667,177.37937390012667,177.37937390012667,177.37937390012667,0,1,[0.0012246000114828348],[0.3507755999453366],177.37937390012667,177.57962960004807,0.0,177.57962960004807,0,0.0,0,1,1000,num_1,0.13813530001789331,,35,15,2026-03-13_14h38.44.926,2026A_exp2,2022.2.4,59.91794839237434,
1000,1,0.0,0.0,1,0,54,54,63,,,,,177.74634149996564,178.38048389996402,178.38048389996402,178.88146580010653,315,315,178.88146580010653,178.88146580010653,178.88146580010653,178.88146580010653,178.88146580010653,178.88146580010653,178.88146580010653,178.88146580010653,178.88146580010653,179.24792640004307,179.24792640004307,179.24792640004307,179.24792640004307,179.24792640004307,179.24792640004307,179.24792640004307,179.24792640004307,179.24792640004307,0,1,[0.0012339998502284288],[0.3674155999906361],179.24792640004307,179.45012079994194,1000,179.45012079994194,1000,1000,1000,1000,0,num_3,0.5639744999352843,,35,15,2026-03-13_14h38.44.926,2026A_exp2,2022.2.4,59.91794839237434,
1000,1,4.9,0.0,1,0,55,55,56,,,,,180.03196089994162,180.68270589993335,180.68270589993335,181.18420010013506,45,45,181.18420010013506,181.18420010013506,181.18420010013506,181.18420010013506,181.18420010013506,181.18420010013506,181.18420010013506,181.18420010013506,181.18420010013506,181.55030120001175,181.55030120001175,181.55030120001175,181.55030120001175,181.55030120001175,181.55030120001175,181.55030120001175,181.55030120001175,181.55030120001175,23,0,,,181.55030120001175,181.75222180015408,1000,181.75222180015408,1000,1000,1000,1000,0,num_3,0.30969609995372593,,35,15,2026-03-13_14h38.44.926,2026A_exp2,2022.2.4,59.91794839237434,
1000,1,0.0,0.0,1,0,56,56,68,,,,,182.08396690012887,182.73481729999185,182.73481729999185,183.2360156001523,45,315,183.2360156001523,183.2360156001523,183.2360156001523,183.2360156001523,183.2360156001523,183.2360156001523,183.2360156001523,183.2360156001523,183.2360156001523,183.58545250003226,183.58545250003226,183.58545250003226,183.58545250003226,183.58545250003226,183.58545250003226,183.58545250003226,183.58545250003226,183.58545250003226,2,2,"[0.017372200032696128, 0.11693640006706119]","[0.10034200013615191, 0.35073509998619556]",183.58545250003226,183.7881309001241,1000,183.7881309001241,1000,1000,1000,1000,1,num_2,0.5930318001192063,,35,15,2026-03-13_14h38.44.926,2026A_exp2,2022.2.4,59.91794839237434,
1000,1,0.0,0.0,0,0,57,57,13,,,,,184.40300490008667,185.05371430004016,185.05371430004016,185.55479399999604,45,315,185.55479399999604,185.55479399999604,185.55479399999604,185.55479399999604,185.55479399999604,185.55479399999604,185.55479399999604,185.55479399999604,185.55479399999604,185.92130950000137,185.92130950000137,185.92130950000137,185.92130950000137,185.92130950000137,185.92130950000137,185.92130950000137,185.92130950000137,185.92130950000137,1,2,"[0.0012326999567449093, 0.20056729996576905]","[0.18363320012576878, 0.36732250009663403]",185.92130950000137,186.1233061000239,1000,186.1233061000239,1000,1000,1000,1000,0,num_3,0.6588536999188364,,35,15,2026-03-13_14h38.44.926,2026A_exp2,2022.2.4,59.91794839237434,
1,0,6.1,6.1,1,0,58,58,49,,,,,186.80544809997082,187.4561640000902,187.4561640000902,187.9573556999676,315,315,187.9573556999676,187.9573556999676,187.9573556999676,187.9573556999676,187.9573556999676,187.9573556999676,187.9573556999676,187.9573556999676,187.9573556999676,188.32326949993148,188.32326949993148,188.32326949993148,188.32326949993148,188.32326949993148,188.32326949993148,188.32326949993148,188.32326949993148,188.32326949993148,3,4,"[0.0012427999172359705, 0.08349550003185868, 0.25040969997644424, 0.3498777998611331]","[0.06682199984788895, 0.23379640001803637, 0.333535399986431, 0.3670126998331398]",188.32326949993148,188.52386990003288,6.1,188.52386990003288,0,6.1,1,0,1000,num_1,0.665858400054276,,35,15,2026-03-13_14h38.44.926,2026A_exp2,2022.2.4,59.91794839237434,
0,0,0.0,4.9,0,0,59,59,65,,,,,189.2077775001526,189.85860330006108,189.85860330006108,190.34285939997062,45,45,190.34285939997062,190.34285939997062,190.34285939997062,190.34285939997062,190.34285939997062,190.34285939997062,190.34285939997062,190.34285939997062,190.34285939997062,190.70925440010615,190.70925440010615,190.70925440010615,190.70925440010615,190.70925440010615,190.70925440010615,190.70925440010615,190.70925440010615,190.70925440010615,0,1,[0.0011970000341534615],[0.3672041001264006],190.70925440010615,190.90962149994448,4.9,190.90962149994448,1,4.9,1,1,1000,num_4,0.3122033001855016,,35,15,2026-03-13_14h38.44.926,2026A_exp2,2022.2.4,59.91794839237434,
0,0,4.9,0.0,1,0,60,60,26,,,,,191.24304990004748,191.89377130009234,191.89377130009234,192.37840040004812,315,315,192.37840040004812,192.37840040004812,192.37840040004812,192.37840040004812,192.37840040004812,192.37840040004812,192.37840040004812,192.37840040004812,192.37840040004812,192.74496769998223,192.74496769998223,192.74496769998223,192.74496769998223,192.74496769998223,192.74496769998223,192.74496769998223,192.74496769998223,192.74496769998223,21,2,"[0.001244500046595931, 0.23357459995895624]","[0.01726100011728704, 0.250365300104022]",192.74496769998223,192.94501359993592,4.9,192.94501359993592,0,4.9,1,0,1000,num_1,0.49999969988130033,,35,15,2026-03-13_14h38.44.926,2026A_exp2,2022.2.4,59.91794839237434,
1000,1,0.0,3.7,1,0,61,61,67,,,,,193.4621965000406,194.1128972999286,194.1128972999286,194.59727720008232,315,45,194.59727720008232,194.59727720008232,194.59727720008232,194.59727720008232,194.59727720008232,194.59727720008232,194.59727720008232,194.59727720008232,194.59727720008232,194.96356609999202,194.96356609999202,194.96356609999202,194.96356609999202,194.96356609999202,194.96356609999202,194.96356609999202,194.96356609999202,194.96356609999202,10,6,"[0.0013083999510854483, 0.033326299861073494, 0.06683109980076551, 0.10029989993199706, 0.216984799830243, 0.3169525999110192]","[0.017495199805125594, 0.05004399991594255, 0.08352809981442988, 0.1335648000240326, 0.28373219980858266, 0.3672560998238623]",194.96356609999202,195.16564809996635,1000,195.16564809996635,1000,1000,1000,1000,0,num_3,0.5202200000640005,,35,15,2026-03-13_14h38.44.926,2026A_exp2,2022.2.4,59.91794839237434,
0,0,4.9,6.1,1,0,62,62,70,,,,,195.71465119998902,196.36496490007266,196.36496490007266,196.84919820004143,45,315,196.84919820004143,196.84919820004143,196.84919820004143,196.84919820004143,196.84919820004143,196.84919820004143,196.84919820004143,196.84919820004143,196.84919820004143,197.2158921000082,197.2158921000082,197.2158921000082,197.2158921000082,197.2158921000082,197.2158921000082,197.2158921000082,197.2158921000082,197.2158921000082,2,2,"[0.017149799969047308, 0.2009521999862045]","[0.18405809998512268, 0.36704879999160767]",197.2158921000082,197.41602739994414,4.9,197.41602739994414,0,4.9,1,0,1000,num_1,0.47819329984486103,,35,15,2026-03-13_14h38.44.926,2026A_exp2,2022.2.4,59.91794839237434,
0,0,3.7,3.7,1,0,63,63,62,,,,,197.916516300058,198.5673879000824,198.5673879000824,199.06841120007448,315,45,199.06841120007448,199.06841120007448,199.06841120007448,199.06841120007448,199.06841120007448,199.06841120007448,199.06841120007448,199.06841120007448,199.06841120007448,199.43480699998327,199.43480699998327,199.43480699998327,199.43480699998327,199.43480699998327,199.43480699998327,199.43480699998327,199.43480699998327,199.43480699998327,3,3,"[0.0012676999904215336, 0.16630430007353425, 0.20006110006943345]","[0.13344400003552437, 0.1835861001163721, 0.36690240004099905]",199.43480699998327,199.63493439997546,3.7,199.63493439997546,0,3.7,1,0,1000,num_1,0.40240399981848896,,35,15,2026-03-13_14h38.44.926,2026A_exp2,2022.2.4,59.91794839237434,
1,0,0.0,0.0,0,0,64,64,11,,,,,200.06875899992883,200.71946089994162,200.71946089994162,201.20401460002176,45,315,201.20401460002176,201.20401460002176,201.20401460002176,201.20401460002176,201.20401460002176,201.20401460002176,201.20401460002176,201.20401460002176,201.20401460002176,201.57032299996354,201.57032299996354,201.57032299996354,201.57032299996354,201.57032299996354,201.57032299996354,201.57032299996354,201.57032299996354,201.57032299996354,11,3,"[0.0012129000388085842, 0.2338066000957042, 0.28383659990504384]","[0.06678920006379485, 0.26709860004484653, 0.36715549998916686]",201.57032299996354,201.77039590012282,0.0,201.77039590012282,0,0.0,0,1,1000,num_1,0.050740000093355775,,35,15,2026-03-13_14h38.44.926,2026A_exp2,2022.2.4,59.91794839237434,
0,0,6.1,6.1,1,0,65,65,48,,,,,201.8371129001025,202.48793080006726,202.48793080006726,202.97236620006151,315,315,202.97236620006151,202.97236620006151,202.97236620006151,202.97236620006151,202.97236620006151,202.97236620006151,202.97236620006151,202.97236620006151,202.97236620006151,203.3385320000816,203.3385320000816,203.3385320000816,203.3385320000816,203.3385320000816,203.3385320000816,203.3385320000816,203.3385320000816,203.3385320000816,7,3,"[0.0012345998547971249, 0.03376260004006326, 0.1504281999077648]","[0.01761159999296069, 0.10037750005722046, 0.3507672999985516]",203.3385320000816,203.53898870013654,6.1,203.53898870013654,0,6.1,1,0,1000,num_1,0.8260451999958605,,35,15,2026-03-13_14h38.44.926,2026A_exp2,2022.2.4,59.91794839237434,
1,0,3.7,6.1,1,0,66,66,75,,,,,204.389641799964,205.0402131001465,205.0402131001465,205.5248199000489,315,315,205.5248199000489,205.5248199000489,205.5248199000489,205.5248199000489,205.5248199000489,205.5248199000489,205.5248199000489,205.5248199000489,205.5248199000489,205.8911637000274,205.8911637000274,205.8911637000274,205.8911637000274,205.8911637000274,205.8911637000274,205.8911637000274,205.8911637000274,205.8911637000274,20,3,"[0.0012060001026839018, 0.1337286001071334, 0.183861100114882]","[0.017453000182285905, 0.15031650010496378, 0.20054910006001592]",205.8911637000274,206.09157960000448,6.1,206.09157960000448,0,6.1,1,0,1000,num_1,0.529775399947539,,35,15,2026-03-13_14h38.44.926,2026A_exp2,2022.2.4,59.91794839237434,
0,0,0.0,4.9,1,0,67,67,33,,,,,206.64196579996496,207.2927962001413,207.2927962001413,207.77697060001083,315,315,207.77697060001083,207.77697060001083,207.77697060001083,207.77697060001083,207.77697060001083,207.77697060001083,207.77697060001083,207.77697060001083,207.77697060001083,208.1432296000421,208.1432296000421,208.1432296000421,208.1432296000421,208.1432296000421,208.1432296000421,208.1432296000421,208.1432296000421,208.1432296000421,22,1,[0.13363979989662766],[0.15031379996798933],208.1432296000421,208.34373429999687,0.0,208.34373429999687,0,0.0,0,1,1000,num_1,0.7576772000174969,,35,15,2026-03-13_14h38.44.926,2026A_exp2,2022.2.4,59.91794839237434,
1000,1,4.9,3.7,0,0,68,68,40,,,,,209.12767300009727,209.77856500004418,209.77856500004418,210.26286450005136,315,45,210.26286450005136,210.26286450005136,210.26286450005136,210.26286450005136,210.26286450005136,210.26286450005136,210.26286450005136,210.26286450005136,210.26286450005136,210.62950740009546,210.62950740009546,210.62950740009546,210.62950740009546,210.62950740009546,210.62950740009546,210.62950740009546,210.62950740009546,210.62950740009546,23,0,,,210.62950740009546,210.84373129997402,1000,210.84373129997402,1000,1000,1000,1000,0,num_3,0.5147154999431223,,35,15,2026-03-13_14h38.44.926,2026A_exp2,2022.2.4,59.91794839237434,
1000,1,0.0,3.7,1,0,69,69,1,,,,,211.38002589996904,212.03071260009892,212.03071260009892,212.54808799992315,45,45,212.54808799992315,212.54808799992315,212.54808799992315,212.54808799992315,212.54808799992315,212.54808799992315,212.54808799992315,212.54808799992315,212.54808799992315,212.8815768000204,212.8815768000204,212.8815768000204,212.8815768000204,212.8815768000204,212.8815768000204,212.8815768000204,212.8815768000204,212.8815768000204,3,2,"[0.033158899983391166, 0.1131929000839591]","[0.08551250002346933, 0.34753550007008016]",212.8815768000204,213.08612790005282,1000,213.08612790005282,1000,1000,1000,1000,1,num_2,0.7922205000650138,,35,15,2026-03-13_14h38.44.926,2026A_exp2,2022.2.4,59.91794839237434,
1000,1,0.0,6.1,0,0,70,70,27,,,,,213.89908060012385,214.55001690005884,214.55001690005884,215.05105499993078,45,45,215.05105499993078,215.05105499993078,215.05105499993078,215.05105499993078,215.05105499993078,215.05105499993078,215.05105499993078,215.05105499993078,215.05105499993078,215.4174768999219,215.4174768999219,215.4174768999219,215.4174768999219,215.4174768999219,215.4174768999219,215.4174768999219,215.4174768999219,215.4174768999219,9,4,"[0.001204000087454915, 0.11686519999057055, 0.1837003999389708, 0.35041900002397597]","[0.03351649991236627, 0.15029169991612434, 0.3170902000274509, 0.36724109994247556]",215.4174768999219,215.61943110008724,1000,215.61943110008724,1000,1000,1000,1000,1,num_2,0.47375859995372593,,35,15,2026-03-13_14h38.44.926,2026A_exp2,2022.2.4,59.91794839237434,
1000,1,3.7,6.1,1,0,71,71,43,,,,,216.11806300003082,216.77708990010433,216.77708990010433,217.26996780000627,45,315,217.26996780000627,217.26996780000627,217.26996780000627,217.26996780000627,217.26996780000627,217.26996780000627,217.26996780000627,217.26996780000627,217.26996780000627,217.63641389994882,217.63641389994882,217.63641389994882,217.63641389994882,217.63641389994882,217.63641389994882,217.63641389994882,217.63641389994882,217.63641389994882,6,4,"[0.0014086998999118805, 0.0668405001051724, 0.21698709996417165, 0.3336863999720663]","[0.03356130002066493, 0.18372719991020858, 0.3002460999414325, 0.36700830003246665]",217.63641389994882,217.83777129999362,1000,217.83777129999362,1000,1000,1000,1000,1,num_2,0.32767839985899627,,35,15,2026-03-13_14h38.44.926,2026A_exp2,2022.2.4,59.91794839237434,
1,0,3.7,3.7,0,0,72,72,60,,,,,218.18681660015136,218.8374974001199,218.8374974001199,219.322004100075,315,45,219.322004100075,219.322004100075,219.322004100075,219.322004100075,219.322004100075,219.322004100075,219.322004100075,219.322004100075,219.322004100075,219.6883807000704,219.6883807000704,219.6883807000704,219.6883807000704,219.6883807000704,219.6883807000704,219.6883807000704,219.6883807000704,219.6883807000704,16,4,"[0.0012193999718874693, 0.18363639991730452, 0.2667992999777198, 0.30020499997772276]","[0.033127699978649616, 0.23352860007435083, 0.28343189996667206, 0.316970800049603]",219.6883807000704,219.88865999993868,3.7,219.88865999993868,1,3.7,1,1,1000,num_4,0.8612798000685871,,35,15,2026-03-13_14h38.44.926,2026A_exp2,2022.2.4,59.91794839237434,
1000,1,6.1,4.9,1,0,73,73,86,,,,,220.77270100009628,221.42342690005898,221.42342690005898,221.907935900148,315,315,221.907935900148,221.907935900148,221.907935900148,221.907935900148,221.907935900148,221.907935900148,221.907935900148,221.907935900148,221.907935900148,222.27428440004587,222.27428440004587,222.27428440004587,222.27428440004587,222.27428440004587,222.27428440004587,222.27428440004587,222.27428440004587,222.27428440004587,18,2,"[0.05019220011308789, 0.1503265001811087]","[0.10020630015060306, 0.1669195001013577]",222.27428440004587,222.4766444999259,1000,222.4766444999259,1000,1000,1000,1000,1,num_2,0.4245414000470191,,35,15,2026-03-13_14h38.44.926,2026A_exp2,2022.2.4,59.91794839237434,
1000,1,6.1,0.0,0,0,74,74,21,,,,,222.92483790009283,223.57565380004235,223.57565380004235,224.0767918000929,45,315,224.0767918000929,224.0767918000929,224.0767918000929,224.0767918000929,224.0767918000929,224.0767918000929,224.0767918000929,224.0767918000929,224.0767918000929,224.42642119992524,224.42642119992524,224.42642119992524,224.42642119992524,224.42642119992524,224.42642119992524,224.42642119992524,224.42642119992524,224.42642119992524,18,4,"[0.0012321998365223408, 0.0337378999684006, 0.06700349994935095, 0.1336749999318272]","[0.01774209993891418, 0.05037449998781085, 0.08374909986741841, 0.1504404000006616]",224.42642119992524,224.6286512000952,1000,224.64336560014635,1000,1000,1000,1000,0,num_3,0.45815249998122454,,35,15,2026-03-13_14h38.44.926,2026A_exp2,2022.2.4,59.91794839237434,
1,0,6.1,0.0,0,0,75,75,77,,,,,225.12723070010543,225.77785820001736,225.77785820001736,226.2789745000191,315,45,226.2789745000191,226.2789745000191,226.2789745000191,226.2789745000191,226.2789745000191,226.2789745000191,226.2789745000191,226.2789745000191,226.2789745000191,226.64536610012874,226.64536610012874,226.64536610012874,226.64536610012874,226.64536610012874,226.64536610012874,226.64536610012874,226.64536610012874,226.64536610012874,12,5,"[0.017546800198033452, 0.1004536000546068, 0.16711889998987317, 0.23389050015248358, 0.36727110017091036]","[0.050285000121220946, 0.13378710020333529, 0.1838018000125885, 0.3173446001019329, 0.36727580009028316]",226.64536610012874,226.8456232000608,6.1,226.8456232000608,1,6.1,1,1,1000,num_4,0.552141500171274,,35,15,2026-03-13_14h38.44.926,2026A_exp2,2022.2.4,59.91794839237434,
1,0,6.1,3.7,1,0,76,76,83,,,,,227.42953610001132,228.08006880013272,228.08006880013272,228.56442579999566,315,315,228.56442579999566,228.56442579999566,228.56442579999566,228.56442579999566,228.56442579999566,228.56442579999566,228.56442579999566,228.56442579999566,228.56442579999566,228.9308633999899,228.9308633999899,228.9308633999899,228.9308633999899,228.9308633999899,228.9308633999899,228.9308633999899,228.9308633999899,228.9308633999899,7,6,"[0.01731039979495108, 0.13337909989058971, 0.183496099896729, 0.2504913997836411, 0.28348859981633723, 0.316997499903664]","[0.11634169984608889, 0.16664119996130466, 0.21706809988245368, 0.2670249999500811, 0.3003605999983847, 0.366868999786675]",228.9308633999899,229.1313036000356,3.7,229.1313036000356,0,3.7,1,0,1000,num_1,0.47498030005954206,,35,15,2026-03-13_14h38.44.926,2026A_exp2,2022.2.4,59.91794839237434,
1000,1,0.0,3.7,1,0,77,77,82,,,,,229.6318433000706,230.28228119993582,230.28228119993582,230.78349780011922,315,315,230.78349780011922,230.78349780011922,230.78349780011922,230.78349780011922,230.78349780011922,230.78349780011922,230.78349780011922,230.78349780011922,230.78349780011922,231.14975430001505,231.14975430001505,231.14975430001505,231.14975430001505,231.14975430001505,231.14975430001505,231.14975430001505,231.14975430001505,231.14975430001505,7,5,"[0.03343839989975095, 0.11681239982135594, 0.15023279981687665, 0.18344459985382855, 0.3670824998989701]","[0.1002460999879986, 0.13362329988740385, 0.1666811998002231, 0.3336386999581009, 0.3670874999370426]",231.14975430001505,231.35157670010813,1000,231.35157670010813,1000,1000,1000,1000,0,num_3,0.533369000069797,,35,15,2026-03-13_14h38.44.926,2026A_exp2,2022.2.4,59.91794839237434,
1000,1,3.7,4.9,0,0,78,78,25,,,,,231.9005661001429,232.55126220011152,232.55126220011152,233.05222610011697,315,45,233.05222610011697,233.05222610011697,233.05222610011697,233.05222610011697,233.05222610011697,233.05222610011697,233.05222610011697,233.05222610011697,233.05222610011697,233.4021121999249,233.4021121999249,233.4021121999249,233.4021121999249,233.4021121999249,233.4021121999249,233.4021121999249,233.4021121999249,233.4021121999249,20,1,[0.28384120017290115],[0.3173375001642853],233.4021121999249,233.60398150002584,1000,233.61905350000598,1000,1000,1000,1000,0,num_3,0.5467823999933898,,35,15,2026-03-13_14h38.44.926,2026A_exp2,2022.2.4,59.91794839237434,
1000,1,4.9,0.0,1,0,79,79,74,,,,,234.1862933000084,234.83687320002355,234.83687320002355,235.33791140001267,315,315,235.33791140001267,235.33791140001267,235.33791140001267,235.33791140001267,235.33791140001267,235.33791140001267,235.33791140001267,235.33791140001267,235.33791140001267,235.70444489992224,235.70444489992224,235.70444489992224,235.70444489992224,235.70444489992224,235.70444489992224,235.70444489992224,235.70444489992224,235.70444489992224,8,3,"[0.0012106001377105713, 0.28372539998963475, 0.3504707000683993]","[0.20047709997743368, 0.3171070001553744, 0.367334800073877]",235.70444489992224,235.9050306000281,1000,235.9050306000281,1000,1000,1000,1000,0,num_3,0.47702220012433827,,35,15,2026-03-13_14h38.44.926,2026A_exp2,2022.2.4,59.91794839237434,
1,0,0.0,0.0,1,0,80,80,4,,,,,236.40511150006205,237.05582160013728,237.05582160013728,237.55695570004173,45,45,237.55695570004173,237.55695570004173,237.55695570004173,237.55695570004173,237.55695570004173,237.55695570004173,237.55695570004173,237.55695570004173,237.55695570004173,237.92316040000878,237.92316040000878,237.92316040000878,237.92316040000878,237.92316040000878,237.92316040000878,237.92316040000878,237.92316040000878,237.92316040000878,12,5,"[0.0012453999370336533, 0.0334612000733614, 0.10022690007463098, 0.1504068998619914, 0.23374180006794631]","[0.0175284999422729, 0.0669887000694871, 0.13351359986700118, 0.2004064000211656, 0.28401810000650585]",237.92316040000878,238.1233833001461,0.0,238.1233833001461,0,0.0,0,1,1000,num_1,0.6897611999884248,,35,15,2026-03-13_14h38.44.926,2026A_exp2,2022.2.4,59.91794839237434,
1000,1,4.9,0.0,0,0,81,81,37,,,,,238.8409229000099,239.4915653001517,239.4915653001517,239.97594220004976,315,45,239.97594220004976,239.97594220004976,239.97594220004976,239.97594220004976,239.97594220004976,239.97594220004976,239.97594220004976,239.97594220004976,239.97594220004976,240.34224000014365,240.34224000014365,240.34224000014365,240.34224000014365,240.34224000014365,240.34224000014365,240.34224000014365,240.34224000014365,240.34224000014365,22,1,[0.25042000017128885],[0.26727830013260245],240.34224000014365,240.54476279998198,1000,240.54476279998198,1000,1000,1000,1000,0,num_3,0.7089106999337673,,35,15,2026-03-13_14h38.44.926,2026A_exp2,2022.2.4,59.91794839237434,
1000,1,3.7,0.0,1,0,82,82,52,,,,,241.2764359000139,241.9272318999283,241.9272318999283,242.42847710009664,45,315,242.42847710009664,242.42847710009664,242.42847710009664,242.42847710009664,242.42847710009664,242.42847710009664,242.42847710009664,242.42847710009664,242.42847710009664,242.79487360012718,242.79487360012718,242.79487360012718,242.79487360012718,242.79487360012718,242.79487360012718,242.79487360012718,242.79487360012718,242.79487360012718,6,6,"[0.017508900025859475, 0.06683230004273355, 0.20048530003987253, 0.2338338999543339, 0.26724010007455945, 0.30051860003732145]","[0.05022200010716915, 0.18373559997417033, 0.21707940008491278, 0.250438499962911, 0.2838370001409203, 0.3672661001328379]",242.79487360012718,242.99702550005168,1000,242.99702550005168,1000,1000,1000,1000,1,num_2,0.7761357999406755,,35,15,2026-03-13_14h38.44.926,2026A_exp2,2022.2.4,59.91794839237434,
1000,1,3.7,0.0,0,0,83,83,55,,,,,243.79585890006274,244.44663570006378,244.44663570006378,244.9475906000007,315,45,244.9475906000007,244.9475906000007,244.9475906000007,244.9475906000007,244.9475906000007,244.9475906000007,244.9475906000007,244.9475906000007,244.9475906000007,245.31396850012243,245.31396850012243,245.31396850012243,245.31396850012243,245.31396850012243,245.31396850012243,245.31396850012243,245.31396850012243,245.31396850012243,19,3,"[0.0012465999461710453, 0.10031470004469156, 0.3171381000429392]","[0.033492600079625845, 0.11686210008338094, 0.3340291001368314]",245.31396850012243,245.51436379994266,1000,245.51436379994266,1000,1000,1000,1000,0,num_3,0.2987778999377042,,35,15,2026-03-13_14h38.44.926,2026A_exp2,2022.2.4,59.91794839237434,
1,0,0.0,6.1,1,0,84,84,5,,,,,245.83131040004082,246.48171490011737,246.48171490011737,246.98301530000754,315,45,246.98301530000754,246.98301530000754,246.98301530000754,246.98301530000754,246.98301530000754,246.98301530000754,246.98301530000754,246.98301530000754,246.98301530000754,247.34946039994247,247.34946039994247,247.34946039994247,247.34946039994247,247.34946039994247,247.34946039994247,247.34946039994247,247.34946039994247,247.34946039994247,4,3,"[0.03363989992067218, 0.15014439984224737, 0.31715899985283613]","[0.13354730000719428, 0.3005617999006063, 0.36722010001540184]",247.34946039994247,247.54965030006133,6.1,247.54965030006133,1,6.1,1,1,1000,num_4,0.9358791999984533,,35,15,2026-03-13_14h38.44.926,2026A_exp2,2022.2.4,59.91794839237434,
1,0,4.9,6.1,1,0,85,85,36,,,,,248.51707910001278,249.15126870013773,249.15126870013773,249.6522210999392,45,315,249.6522210999392,249.6522210999392,249.6522210999392,249.6522210999392,249.6522210999392,249.6522210999392,249.6522210999392,249.6522210999392,249.6522210999392,250.01863200007938,250.01863200007938,250.01863200007938,250.01863200007938,250.01863200007938,250.01863200007938,250.01863200007938,250.01863200007938,250.01863200007938,16,2,"[0.2508523999713361, 0.3339683001395315]","[0.30053120013326406, 0.3674105000682175]",250.01863200007938,250.2189182001166,6.1,250.2189182001166,1,6.1,1,1,1000,num_4,0.49105299985967577,,35,15,2026-03-13_14h38.44.926,2026A_exp2,2022.2.4,59.91794839237434,
1,0,0.0,4.9,1,0,86,86,41,,,,,250.73607670003548,251.38673000014387,251.38673000014387,251.87117550009862,45,45,251.87117550009862,251.87117550009862,251.87117550009862,251.87117550009862,251.87117550009862,251.87117550009862,251.87117550009862,251.87117550009862,251.87117550009862,252.23759080003947,252.23759080003947,252.23759080003947,252.23759080003947,252.23759080003947,252.23759080003947,252.23759080003947,252.23759080003947,252.23759080003947,2,2,"[0.0012515999842435122, 0.35009519988670945]","[0.3165228997822851, 0.3669194998219609]",252.23759080003947,252.43772440007888,4.9,252.43772440007888,1,4.9,1,1,1000,num_4,0.3923961000982672,,35,15,2026-03-13_14h38.44.926,2026A_exp2,2022.2.4,59.91794839237434,
1,0,3.7,0.0,0,0,87,87,7,,,,,252.85487659997307,253.505563700106,253.505563700106,253.99001780012622,45,45,253.99001780012622,253.99001780012622,253.99001780012622,253.99001780012622,253.99001780012622,253.99001780012622,253.99001780012622,253.99001780012622,253.99001780012622,254.35625510010868,254.35625510010868,254.35625510010868,254.35625510010868,254.35625510010868,254.35625510010868,254.35625510010868,254.35625510010868,254.35625510010868,2,2,"[0.0013599998783320189, 0.10043939994648099]","[0.06712809996679425, 0.3672753998544067]",254.35625510010868,254.55659990012646,3.7,254.55659990012646,1,3.7,1,1,1000,num_4,0.6004468998871744,,35,15,2026-03-13_14h38.44.926,2026A_exp2,2022.2.4,59.91794839237434,
1,0,4.9,4.9,1,0,88,88,18,,,,,255.1739342000801,255.82464629993774,255.82464629993774,256.30891730007716,45,315,256.30891730007716,256.30891730007716,256.30891730007716,256.30891730007716,256.30891730007716,256.30891730007716,256.30891730007716,256.30891730007716,256.30891730007716,256.6752035000827,256.6752035000827,256.6752035000827,256.6752035000827,256.6752035000827,256.6752035000827,256.6752035000827,256.6752035000827,256.6752035000827,6,6,"[0.001204600092023611, 0.06695270002819598, 0.11688550002872944, 0.15035160002298653, 0.20035020005889237, 0.25039159995503724]","[0.05016879993490875, 0.10022070002742112, 0.13364110002294183, 0.1837410000152886, 0.2337702999357134, 0.3664977001026273]",256.6752035000827,256.8753231000155,4.9,256.891896400135,1,4.9,1,1,1000,num_4,0.6584914000704885,,35,15,2026-03-13_14h38.44.926,2026A_exp2,2022.2.4,59.91794839237434,
1,0,0.0,0.0,1,0,89,89,66,,,,,257.5761828001123,258.2269333000295,258.2269333000295,258.7279324999545,315,45,258.7279324999545,258.7279324999545,258.7279324999545,258.7279324999545,258.7279324999545,258.7279324999545,258.7279324999545,258.7279324999545,258.7279324999545,259.0944171999581,259.0944171999581,259.0944171999581,259.0944171999581,259.0944171999581,259.0944171999581,259.0944171999581,259.0944171999581,259.0944171999581,11,7,"[0.017352099996060133, 0.050277000060305, 0.14972080010920763, 0.20016420003958046, 0.2505195999983698, 0.28382860007695854, 0.3505406000185758]","[0.033658500062301755, 0.1161823000293225, 0.16649270011112094, 0.21695130015723407, 0.26717530004680157, 0.33389859995804727, 0.367304100189358]",259.0944171999581,259.294541799929,0.0,259.294541799929,0,0.0,0,1,1000,num_1,0.38261480000801384,,35,15,2026-03-13_14h38.44.926,2026A_exp2,2022.2.4,59.91794839237434,
,,,,,,,,,,,,,,,,,,,,,,,,,,,,,,,,,,,,,,,,,,,,,,,,,,,,259.703467000043,,,,,,,
