validity,detectorcomp,contrastCW,contrastCCW,precueCWorCCW,block_80trials.thisRepN,block_80trials.thisTrialN,block_80trials.thisN,block_80trials.thisIndex,etRecord.started,etRecord.stopped,text.started,text.stopped,text_4.started,text_4.stopped,text_6.started,text_6.stopped,oriCW,oriCCW,roi_2.started,grating_UR.started,grating_UL.started,grating_LR.started,grating_LL.started,noise_UR.started,noise_UL.started,noise_LR.started,noise_LL.started,roi_2.stopped,grating_UR.stopped,grating_UL.stopped,grating_LR.stopped,grating_LL.stopped,noise_UR.stopped,noise_UL.stopped,noise_LR.stopped,noise_LL.stopped,outframe,roi_2.numLooks,roi_2.timesOn,roi_2.timesOff,text_2.started,text_2.stopped,probedcontrast,key_resp.started,respdetect,relevantContrast,correctDetect,TorFdetect,respCWorCCW,key_resp.keys,key_resp.rt,feedback_display_.started,participantNo,blockNo,date,expName,psychopyVersion,frameRate,
1,0,3.7,6.1,1,0,0,0,75,5.4999953135848045e-05,5.4999953135848045e-05,46.562097100075334,48.56437000003643,48.56437000003643,49.19863160001114,49.19863160001114,49.7201809999533,315,315,49.7201809999533,49.7201809999533,49.7201809999533,49.7201809999533,49.7201809999533,49.7201809999533,49.7201809999533,49.7201809999533,49.7201809999533,50.066052600042894,50.066052600042894,50.066052600042894,50.066052600042894,50.066052600042894,50.066052600042894,50.066052600042894,50.066052600042894,50.066052600042894,23,0,,,50.066052600042894,50.26630229991861,6.1,50.26630229991861,1,6.1,1,1,1000,num_4,0.8913841999601573,,37,7,2026-03-13_18h01.23.165,2026A_exp2,2022.2.4,60.110169946627906,
1000,1,0.0,4.9,0,0,1,1,23,,,,,51.18383949995041,51.834490000037476,51.834490000037476,52.335596499964595,45,45,52.335596499964595,52.335596499964595,52.335596499964595,52.335596499964595,52.335596499964595,52.335596499964595,52.335596499964595,52.335596499964595,52.335596499964595,52.68538839998655,52.68538839998655,52.68538839998655,52.68538839998655,52.68538839998655,52.68538839998655,52.68538839998655,52.68538839998655,52.68538839998655,3,2,"[0.0012058999855071306, 0.3334043000359088]","[0.2837916000280529, 0.3504306999966502]",52.68538839998655,52.89006130001508,1000,52.90245799999684,1000,1000,1000,1000,1,num_2,0.727649400010705,,37,7,2026-03-13_18h01.23.165,2026A_exp2,2022.2.4,60.110169946627906,
1,0,3.7,3.7,0,0,2,2,60,,,,,53.653032399946824,54.30352540011518,54.30352540011518,54.80470520001836,315,45,54.80470520001836,54.80470520001836,54.80470520001836,54.80470520001836,54.80470520001836,54.80470520001836,54.80470520001836,54.80470520001836,54.80470520001836,55.154306899989024,55.154306899989024,55.154306899989024,55.154306899989024,55.154306899989024,55.154306899989024,55.154306899989024,55.154306899989024,55.154306899989024,0,1,[0.0009709999430924654],[0.3507961998693645],55.154306899989024,55.354568999959156,3.7,55.37142680003308,0,3.7,1,0,1000,num_1,1.19405769999139,,37,7,2026-03-13_18h01.23.165,2026A_exp2,2022.2.4,60.110169946627906,
1,0,0.0,4.9,1,0,3,3,73,,,,,56.5893399999477,57.23991849995218,57.23991849995218,57.7243081999477,45,45,57.7243081999477,57.7243081999477,57.7243081999477,57.7243081999477,57.7243081999477,57.7243081999477,57.7243081999477,57.7243081999477,57.7243081999477,58.09073920012452,58.09073920012452,58.09073920012452,58.09073920012452,58.09073920012452,58.09073920012452,58.09073920012452,58.09073920012452,58.09073920012452,0,1,[0.0013023000210523605],[0.36705280002206564],58.09073920012452,58.29089169995859,4.9,58.29089169995859,1,4.9,1,1,1000,num_4,0.8187636998482049,,37,7,2026-03-13_18h01.23.165,2026A_exp2,2022.2.4,60.110169946627906,
1,0,0.0,0.0,0,0,4,4,32,,,,,59.14183080010116,59.79244190012105,59.79244190012105,60.276760099921376,315,45,60.276760099921376,60.276760099921376,60.276760099921376,60.276760099921376,60.276760099921376,60.276760099921376,60.276760099921376,60.276760099921376,60.276760099921376,60.643319400027394,60.643319400027394,60.643319400027394,60.643319400027394,60.643319400027394,60.643319400027394,60.643319400027394,60.643319400027394,60.643319400027394,0,1,[0.001272499794140458],[0.36725329980254173],60.643319400027394,60.84355970006436,0.0,60.84355970006436,0,0.0,0,1,1000,num_1,1.3221052000299096,,37,7,2026-03-13_18h01.23.165,2026A_exp2,2022.2.4,60.110169946627906,
1000,1,0.0,4.9,1,0,5,5,72,,,,,62.19494990003295,62.84555430011824,62.84555430011824,63.32992190006189,315,45,63.32992190006189,63.32992190006189,63.32992190006189,63.32992190006189,63.32992190006189,63.32992190006189,63.32992190006189,63.32992190006189,63.32992190006189,63.69636039994657,63.69636039994657,63.69636039994657,63.69636039994657,63.69636039994657,63.69636039994657,63.69636039994657,63.69636039994657,63.69636039994657,0,1,[0.0008564998861402273],[0.36788829998113215],63.69636039994657,63.898109700065106,1000,63.898109700065106,1000,1000,1000,1000,1,num_2,0.771999099990353,,37,7,2026-03-13_18h01.23.165,2026A_exp2,2022.2.4,60.110169946627906,
1,0,0.0,3.7,0,0,6,6,76,,,,,64.69749759999104,65.34799770009704,65.34799770009704,65.84917540010065,45,315,65.84917540010065,65.84917540010065,65.84917540010065,65.84917540010065,65.84917540010065,65.84917540010065,65.84917540010065,65.84917540010065,65.84917540010065,66.19906949996948,66.19906949996948,66.19906949996948,66.19906949996948,66.19906949996948,66.19906949996948,66.19906949996948,66.19906949996948,66.19906949996948,0,1,[0.0012250998988747597],[0.3504544999450445],66.19906949996948,66.39913869998418,0.0,66.4156758999452,0,0.0,0,1,1000,num_1,0.8149049000348896,,37,7,2026-03-13_18h01.23.165,2026A_exp2,2022.2.4,60.110169946627906,
1,0,0.0,0.0,0,0,7,7,39,,,,,67.24979060003534,67.90046299993992,67.90046299993992,68.38498640013859,45,315,68.38498640013859,68.38498640013859,68.38498640013859,68.38498640013859,68.38498640013859,68.38498640013859,68.38498640013859,68.38498640013859,68.38498640013859,68.75144160003401,68.75144160003401,68.75144160003401,68.75144160003401,68.75144160003401,68.75144160003401,68.75144160003401,68.75144160003401,68.75144160003401,0,1,[0.0011983998119831085],[0.3671514999587089],68.75144160003401,68.95157160004601,0.0,68.95157160004601,0,0.0,0,1,1000,num_1,1.0308481000829488,,37,7,2026-03-13_18h01.23.165,2026A_exp2,2022.2.4,60.110169946627906,
1000,1,4.9,3.7,0,0,8,8,40,,,,,70.0024270999711,70.65333699993789,70.65333699993789,71.1376326000318,315,45,71.1376326000318,71.1376326000318,71.1376326000318,71.1376326000318,71.1376326000318,71.1376326000318,71.1376326000318,71.1376326000318,71.1376326000318,71.50422900007106,71.50422900007106,71.50422900007106,71.50422900007106,71.50422900007106,71.50422900007106,71.50422900007106,71.50422900007106,71.50422900007106,0,1,[0.00123740010894835],[0.36705320002511144],71.50422900007106,71.70691840001382,1000,71.70691840001382,1000,1000,1000,1000,0,num_3,0.6036920000333339,,37,7,2026-03-13_18h01.23.165,2026A_exp2,2022.2.4,60.110169946627906,
1000,1,3.7,0.0,1,0,9,9,52,,,,,72.3382848999463,72.98891600011848,72.98891600011848,73.4902389999479,45,45,73.4902389999479,73.4902389999479,73.4902389999479,73.4902389999479,73.4902389999479,73.4902389999479,73.4902389999479,73.4902389999479,73.4902389999479,73.85635349992663,73.85635349992663,73.85635349992663,73.85635349992663,73.85635349992663,73.85635349992663,73.85635349992663,73.85635349992663,73.85635349992663,0,1,[0.0007350998930633068],[0.36767919990234077],73.85635349992663,74.05869890004396,1000,74.05869890004396,1000,1000,1000,1000,0,num_3,0.4198209000751376,,37,7,2026-03-13_18h01.23.165,2026A_exp2,2022.2.4,60.110169946627906,
1,0,4.9,6.1,0,0,10,10,29,,,,,74.50710209994577,75.16648250003345,75.16648250003345,75.6588479001075,315,45,75.6588479001075,75.6588479001075,75.6588479001075,75.6588479001075,75.6588479001075,75.6588479001075,75.6588479001075,75.6588479001075,75.6588479001075,76.02541760005988,76.02541760005988,76.02541760005988,76.02541760005988,76.02541760005988,76.02541760005988,76.02541760005988,76.02541760005988,76.02541760005988,0,1,[0.0011996000539511442],[0.36710059992037714],76.02541760005988,76.2254262000788,4.9,76.2254262000788,0,4.9,1,0,1000,num_1,2.3728378999512643,,37,7,2026-03-13_18h01.23.165,2026A_exp2,2022.2.4,60.110169946627906,
1000,1,6.1,4.9,1,0,11,11,15,,,,,78.6279379001353,79.27866249997169,79.27866249997169,79.77977670007385,45,45,79.77977670007385,79.77977670007385,79.77977670007385,79.77977670007385,79.77977670007385,79.77977670007385,79.77977670007385,79.77977670007385,79.77977670007385,80.14615139993839,80.14615139993839,80.14615139993839,80.14615139993839,80.14615139993839,80.14615139993839,80.14615139993839,80.14615139993839,80.14615139993839,0,1,[0.0012875001411885023],[0.3669846002012491],80.14615139993839,80.34644760005176,1000,80.34644760005176,1000,1000,1000,1000,0,num_3,0.7323066999670118,,37,7,2026-03-13_18h01.23.165,2026A_exp2,2022.2.4,60.110169946627906,
0,0,4.9,6.1,1,0,12,12,70,,,,,81.10070349997841,81.74762729997747,81.74762729997747,82.24893680005334,45,315,82.24893680005334,82.24893680005334,82.24893680005334,82.24893680005334,82.24893680005334,82.24893680005334,82.24893680005334,82.24893680005334,82.24893680005334,82.61518530012108,82.61518530012108,82.61518530012108,82.61518530012108,82.61518530012108,82.61518530012108,82.61518530012108,82.61518530012108,82.61518530012108,19,3,"[0.21698719984851778, 0.3171218999195844, 0.36706669977866113]","[0.2503059997688979, 0.3337390997912735, 0.3670713999308646]",82.61518530012108,82.8154508001171,4.9,82.8154508001171,1,4.9,1,1,1000,num_4,1.1826750000473112,,37,7,2026-03-13_18h01.23.165,2026A_exp2,2022.2.4,60.110169946627906,
0,0,0.0,4.9,1,0,13,13,0,,,,,84.01654119999148,84.66737019992433,84.66737019992433,85.1516875999514,45,315,85.1516875999514,85.1516875999514,85.1516875999514,85.1516875999514,85.1516875999514,85.1516875999514,85.1516875999514,85.1516875999514,85.1516875999514,85.51811409997754,85.51811409997754,85.51811409997754,85.51811409997754,85.51811409997754,85.51811409997754,85.51811409997754,85.51811409997754,85.51811409997754,14,3,"[0.0009127999655902386, 0.23391129984520376, 0.2840411998331547]","[0.033393000019714236, 0.2506051999516785, 0.36726239998824894]",85.51811409997754,85.7183062999975,0.0,85.7183062999975,0,0.0,0,1,1000,num_1,0.8071956001222134,,37,7,2026-03-13_18h01.23.165,2026A_exp2,2022.2.4,60.110169946627906,
1,0,4.9,4.9,0,0,14,14,28,,,,,86.55242770002224,87.20310620008968,87.20310620008968,87.68755010003224,315,315,87.68755010003224,87.68755010003224,87.68755010003224,87.68755010003224,87.68755010003224,87.68755010003224,87.68755010003224,87.68755010003224,87.68755010003224,88.0540769000072,88.0540769000072,88.0540769000072,88.0540769000072,88.0540769000072,88.0540769000072,88.0540769000072,88.0540769000072,88.0540769000072,5,4,"[0.001239200122654438, 0.08339680009521544, 0.16687109996564686, 0.283506500069052]","[0.050099899992346764, 0.1166807000990957, 0.2668423999566585, 0.3705075001344085]",88.0540769000072,88.25773579999804,4.9,88.25773579999804,1,4.9,1,1,1000,num_4,1.052808899898082,,37,7,2026-03-13_18h01.23.165,2026A_exp2,2022.2.4,60.110169946627906,
1000,1,6.1,0.0,0,0,15,15,69,,,,,89.3385054001119,89.98922610003501,89.98922610003501,90.49030050006695,45,45,90.49030050006695,90.49030050006695,90.49030050006695,90.49030050006695,90.49030050006695,90.49030050006695,90.49030050006695,90.49030050006695,90.49030050006695,90.84000530000776,90.84000530000776,90.84000530000776,90.84000530000776,90.84000530000776,90.84000530000776,90.84000530000776,90.84000530000776,90.84000530000776,5,5,"[0.0015937997959554195, 0.06614939984865487, 0.13298789993859828, 0.1999534999486059, 0.24990069982595742]","[0.04976610001176596, 0.11630449979566038, 0.18310679984278977, 0.2164950999431312, 0.34999319980852306]",90.84000530000776,91.04215320013463,1000,91.04215320013463,1000,1000,1000,1000,0,num_3,0.6434335999656469,,37,7,2026-03-13_18h01.23.165,2026A_exp2,2022.2.4,60.110169946627906,
1,0,3.7,0.0,0,0,16,16,10,,,,,91.7077367999591,92.35834129992872,92.35834129992872,92.85938620008528,315,315,92.85938620008528,92.85938620008528,92.85938620008528,92.85938620008528,92.85938620008528,92.85938620008528,92.85938620008528,92.85938620008528,92.85938620008528,93.22594089992344,93.22594089992344,93.22594089992344,93.22594089992344,93.22594089992344,93.22594089992344,93.22594089992344,93.22594089992344,93.22594089992344,23,0,,,93.22594089992344,93.42615359998308,3.7,93.42615359998308,1,3.7,1,1,1000,num_4,1.2996467999182642,,37,7,2026-03-13_18h01.23.165,2026A_exp2,2022.2.4,60.110169946627906,
1,0,0.0,0.0,1,0,17,17,59,,,,,94.74410869996063,95.38728519994766,95.38728519994766,95.88246549991891,315,315,95.88246549991891,95.88246549991891,95.88246549991891,95.88246549991891,95.88246549991891,95.88246549991891,95.88246549991891,95.88246549991891,95.88246549991891,96.2451987999957,96.2451987999957,96.2451987999957,96.2451987999957,96.2451987999957,96.2451987999957,96.2451987999957,96.2451987999957,96.2451987999957,0,1,[0.0023183999583125114],[0.36612540017813444],96.2451987999957,96.44540750002488,0.0,96.44540750002488,1,0.0,0,0,1000,num_4,0.6970017000567168,,37,7,2026-03-13_18h01.23.165,2026A_exp2,2022.2.4,60.110169946627906,
1,0,0.0,0.0,1,0,18,18,66,,,,,97.16303259995766,97.81393290008418,97.81393290008418,98.29820169997402,45,45,98.29820169997402,98.29820169997402,98.29820169997402,98.29820169997402,98.29820169997402,98.29820169997402,98.29820169997402,98.29820169997402,98.29820169997402,98.66428250004537,98.66428250004537,98.66428250004537,98.66428250004537,98.66428250004537,98.66428250004537,98.66428250004537,98.66428250004537,98.66428250004537,23,0,,,98.66428250004537,98.86485569993965,0.0,98.86485569993965,1,0.0,0,0,1000,num_4,0.5967482998967171,,37,7,2026-03-13_18h01.23.165,2026A_exp2,2022.2.4,60.110169946627906,
1,0,3.7,0.0,0,0,19,19,3,,,,,99.48237280012108,100.13277249992825,100.13277249992825,100.61719339992851,315,45,100.61719339992851,100.61719339992851,100.61719339992851,100.61719339992851,100.61719339992851,100.61719339992851,100.61719339992851,100.61719339992851,100.61719339992851,100.9836276001297,100.9836276001297,100.9836276001297,100.9836276001297,100.9836276001297,100.9836276001297,100.9836276001297,100.9836276001297,100.9836276001297,21,1,[0.0009751999750733376],[0.03369179996661842],100.9836276001297,101.18381120008416,3.7,101.18381120008416,0,3.7,1,0,1000,num_1,1.022821499966085,,37,7,2026-03-13_18h01.23.165,2026A_exp2,2022.2.4,60.110169946627906,
1000,1,4.9,0.0,1,0,20,20,84,,,,,102.23481589998119,102.88550109998323,102.88550109998323,103.36997890006751,45,315,103.36997890006751,103.36997890006751,103.36997890006751,103.36997890006751,103.36997890006751,103.36997890006751,103.36997890006751,103.36997890006751,103.36997890006751,103.73630660003982,103.73630660003982,103.73630660003982,103.73630660003982,103.73630660003982,103.73630660003982,103.73630660003982,103.73630660003982,103.73630660003982,19,3,"[0.0011982000432908535, 0.05022830003872514, 0.2671263001393527]","[0.01748500019311905, 0.08360090013593435, 0.28386580012738705]",103.73630660003982,103.93818409997039,1000,103.93818409997039,1000,1000,1000,1000,0,num_3,0.683542100014165,,37,7,2026-03-13_18h01.23.165,2026A_exp2,2022.2.4,60.110169946627906,
1,0,0.0,6.1,1,0,21,21,5,,,,,104.63774919998832,105.28791760001332,105.28791760001332,105.77229580003768,315,45,105.77229580003768,105.77229580003768,105.77229580003768,105.77229580003768,105.77229580003768,105.77229580003768,105.77229580003768,105.77229580003768,105.77229580003768,106.13867600006051,106.13867600006051,106.13867600006051,106.13867600006051,106.13867600006051,106.13867600006051,106.13867600006051,106.13867600006051,106.13867600006051,0,1,[0.0012812998611479998],[0.36714879982173443],106.13867600006051,106.33888930012472,6.1,106.33888930012472,1,6.1,1,1,1000,num_4,0.5704673998989165,,37,7,2026-03-13_18h01.23.165,2026A_exp2,2022.2.4,60.110169946627906,
1,0,3.7,3.7,0,0,22,22,8,,,,,106.93949949997477,107.59020680002868,107.59020680002868,108.07467220001854,45,45,108.07467220001854,108.07467220001854,108.07467220001854,108.07467220001854,108.07467220001854,108.07467220001854,108.07467220001854,108.07467220001854,108.07467220001854,108.44115000008605,108.44115000008605,108.44115000008605,108.44115000008605,108.44115000008605,108.44115000008605,108.44115000008605,108.44115000008605,108.44115000008605,21,2,"[0.001281999982893467, 0.05014940002001822]","[0.01735399989411235, 0.06698670005425811]",108.44115000008605,108.64137879991904,3.7,108.64137879991904,1,3.7,1,1,1000,num_4,1.988476000027731,,37,7,2026-03-13_18h01.23.165,2026A_exp2,2022.2.4,60.110169946627906,
1,0,4.9,6.1,1,0,23,23,36,,,,,110.66004119999707,111.31066800002009,111.31066800002009,111.79511740012094,45,315,111.79511740012094,111.79511740012094,111.79511740012094,111.79511740012094,111.79511740012094,111.79511740012094,111.79511740012094,111.79511740012094,111.79511740012094,112.16145340004005,112.16145340004005,112.16145340004005,112.16145340004005,112.16145340004005,112.16145340004005,112.16145340004005,112.16145340004005,112.16145340004005,0,1,[0.0013743999879807234],[0.3670753000769764],112.16145340004005,112.36179059999995,6.1,112.36179059999995,1,6.1,1,1,1000,num_4,0.6838963001500815,,37,7,2026-03-13_18h01.23.165,2026A_exp2,2022.2.4,60.110169946627906,
1000,1,6.1,0.0,0,0,24,24,21,,,,,113.06231130007654,113.71306210011244,113.71306210011244,114.21454900014214,45,315,114.21454900014214,114.21454900014214,114.21454900014214,114.21454900014214,114.21454900014214,114.21454900014214,114.21454900014214,114.21454900014214,114.21454900014214,114.56366119999439,114.56366119999439,114.56366119999439,114.56366119999439,114.56366119999439,114.56366119999439,114.56366119999439,114.56366119999439,114.56366119999439,0,1,[0.001239800127223134],[0.3502503000199795],114.56366119999439,114.76595130003989,1000,114.76595130003989,1000,1000,1000,1000,0,num_3,0.6088064000941813,,37,7,2026-03-13_18h01.23.165,2026A_exp2,2022.2.4,60.110169946627906,
1,0,6.1,0.0,0,0,25,25,77,,,,,115.39798390003853,116.05075970012695,116.05075970012695,116.5546741001308,45,315,116.5546741001308,116.5546741001308,116.5546741001308,116.5546741001308,116.5546741001308,116.5546741001308,116.5546741001308,116.5546741001308,116.5546741001308,116.91632040007971,116.91632040007971,116.91632040007971,116.91632040007971,116.91632040007971,116.91632040007971,116.91632040007971,116.91632040007971,116.91632040007971,0,1,[0.0025640998501330614],[0.3661281999666244],116.91632040007971,117.11645060009323,6.1,117.11645060009323,1,6.1,1,1,1000,num_4,0.5528202999848872,,37,7,2026-03-13_18h01.23.165,2026A_exp2,2022.2.4,60.110169946627906,
1000,1,0.0,0.0,0,0,26,26,13,,,,,117.70034280000255,118.35108970012516,118.35108970012516,118.83548819995485,315,45,118.83548819995485,118.83548819995485,118.83548819995485,118.83548819995485,118.83548819995485,118.83548819995485,118.83548819995485,118.83548819995485,118.83548819995485,119.20171159994788,119.20171159994788,119.20171159994788,119.20171159994788,119.20171159994788,119.20171159994788,119.20171159994788,119.20171159994788,119.20171159994788,0,1,[0.001194800017401576],[0.3673378999810666],119.20171159994788,119.40391870005988,1000,119.40391870005988,1000,1000,1000,1000,1,num_2,1.6583710999693722,,37,7,2026-03-13_18h01.23.165,2026A_exp2,2022.2.4,60.110169946627906,
1,0,0.0,3.7,0,0,27,27,64,,,,,121.08720130007714,121.73996019992046,121.73996019992046,122.22735400008969,315,45,122.22735400008969,122.22735400008969,122.22735400008969,122.22735400008969,122.22735400008969,122.22735400008969,122.22735400008969,122.22735400008969,122.22735400008969,122.58866590005346,122.58866590005346,122.58866590005346,122.58866590005346,122.58866590005346,122.58866590005346,122.58866590005346,122.58866590005346,122.58866590005346,1,1,[0.0025643999688327312],[0.36615849984809756],122.58866590005346,122.78860149998218,0.0,122.78860149998218,0,0.0,0,1,1000,num_1,1.2258262999821454,,37,7,2026-03-13_18h01.23.165,2026A_exp2,2022.2.4,60.110169946627906,
1,0,6.1,6.1,0,0,28,28,89,,,,,124.03998090000823,124.69065200001933,124.69065200001933,125.19171399995685,315,45,125.19171399995685,125.19171399995685,125.19171399995685,125.19171399995685,125.19171399995685,125.19171399995685,125.19171399995685,125.19171399995685,125.19171399995685,125.55827319994569,125.55827319994569,125.55827319994569,125.55827319994569,125.55827319994569,125.55827319994569,125.55827319994569,125.55827319994569,125.55827319994569,1,2,"[0.0011489000171422958, 0.3008280999492854]","[0.2837833999656141, 0.36739940010011196]",125.55827319994569,125.75844940007664,6.1,125.75844940007664,1,6.1,1,1,1000,num_4,2.103953499812633,,37,7,2026-03-13_18h01.23.165,2026A_exp2,2022.2.4,60.110169946627906,
1000,1,6.1,6.1,1,0,29,29,53,,,,,127.89369220007211,128.54457859997638,128.54457859997638,129.02904439996928,45,45,129.02904439996928,129.02904439996928,129.02904439996928,129.02904439996928,129.02904439996928,129.02904439996928,129.02904439996928,129.02904439996928,129.02904439996928,129.39510660013184,129.39510660013184,129.39510660013184,129.39510660013184,129.39510660013184,129.39510660013184,129.39510660013184,129.39510660013184,129.39510660013184,14,5,"[0.0012488998472690582, 0.033717299811542034, 0.06698499992489815, 0.15035689994692802, 0.21713829995132983]","[0.017493199789896607, 0.05028239986859262, 0.13406699988991022, 0.18370129982940853, 0.23359169997274876]",129.39510660013184,129.5972025000956,1000,129.5972025000956,1000,1000,1000,1000,1,num_2,0.672986599849537,,37,7,2026-03-13_18h01.23.165,2026A_exp2,2022.2.4,60.110169946627906,
1000,1,0.0,0.0,1,0,30,30,44,,,,,130.29619639995508,130.9469413999468,130.9469413999468,131.44784540007822,315,45,131.44784540007822,131.44784540007822,131.44784540007822,131.44784540007822,131.44784540007822,131.44784540007822,131.44784540007822,131.44784540007822,131.44784540007822,131.8141711000353,131.8141711000353,131.8141711000353,131.8141711000353,131.8141711000353,131.8141711000353,131.8141711000353,131.8141711000353,131.8141711000353,2,3,"[0.0012292999308556318, 0.11685119988396764, 0.2836632998660207]","[0.10025319992564619, 0.2669702998828143, 0.3669868998695165]",131.8141711000353,132.01447169994935,1000,132.01447169994935,1000,1000,1000,1000,1,num_2,0.9751395999919623,,37,7,2026-03-13_18h01.23.165,2026A_exp2,2022.2.4,60.110169946627906,
1000,1,0.0,0.0,1,0,31,31,88,,,,,133.01556969992816,133.6661318000406,133.6661318000406,134.15057700010948,45,45,134.15057700010948,134.15057700010948,134.15057700010948,134.15057700010948,134.15057700010948,134.15057700010948,134.15057700010948,134.15057700010948,134.15057700010948,134.5178270000033,134.5178270000033,134.5178270000033,134.5178270000033,134.5178270000033,134.5178270000033,134.5178270000033,134.5178270000033,134.5178270000033,0,1,[0.0007529000286012888],[0.3677986999973655],134.5178270000033,134.7173220999539,1000,134.7173220999539,1000,1000,1000,1000,0,num_3,0.7768126998562366,,37,7,2026-03-13_18h01.23.165,2026A_exp2,2022.2.4,60.110169946627906,
1000,1,6.1,4.9,1,0,32,32,86,,,,,135.51789329992607,136.16861469997093,136.16861469997093,136.65284890006296,45,315,136.65284890006296,136.65284890006296,136.65284890006296,136.65284890006296,136.65284890006296,136.65284890006296,136.65284890006296,136.65284890006296,136.65284890006296,137.01938700000755,137.01938700000755,137.01938700000755,137.01938700000755,137.01938700000755,137.01938700000755,137.01938700000755,137.01938700000755,137.01938700000755,23,0,,,137.01938700000755,137.220105699962,1000,137.220105699962,1000,1000,1000,1000,0,num_3,0.8101930001284927,,37,7,2026-03-13_18h01.23.165,2026A_exp2,2022.2.4,60.110169946627906,
1000,1,3.7,0.0,1,0,33,33,38,,,,,138.05402519996278,138.70460769999772,138.70460769999772,139.20572670013644,315,45,139.20572670013644,139.20572670013644,139.20572670013644,139.20572670013644,139.20572670013644,139.20572670013644,139.20572670013644,139.20572670013644,139.20572670013644,139.55556840007193,139.55556840007193,139.55556840007193,139.55556840007193,139.55556840007193,139.55556840007193,139.55556840007193,139.55556840007193,139.55556840007193,18,2,"[0.18362749996595085, 0.2502091999631375]","[0.21650810004211962, 0.2835704998578876]",139.55556840007193,139.755843100138,1000,139.772404700052,1000,1000,1000,1000,0,num_3,0.4975281001534313,,37,7,2026-03-13_18h01.23.165,2026A_exp2,2022.2.4,60.110169946627906,
1000,1,0.0,0.0,1,0,34,34,34,,,,,140.2895055001136,140.94015410006978,140.94015410006978,141.45289269997738,315,45,141.45289269997738,141.45289269997738,141.45289269997738,141.45289269997738,141.45289269997738,141.45289269997738,141.45289269997738,141.45289269997738,141.45289269997738,141.8075788000133,141.8075788000133,141.8075788000133,141.8075788000133,141.8075788000133,141.8075788000133,141.8075788000133,141.8075788000133,141.8075788000133,23,0,,,141.8075788000133,142.0098985999357,1000,142.0098985999357,1000,1000,1000,1000,1,num_2,0.6194971001241356,,37,7,2026-03-13_18h01.23.165,2026A_exp2,2022.2.4,60.110169946627906,
1000,1,0.0,4.9,1,0,35,35,57,,,,,142.65885030012578,143.30930730002,143.30930730002,143.8103219999466,315,315,143.8103219999466,143.8103219999466,143.8103219999466,143.8103219999466,143.8103219999466,143.8103219999466,143.8103219999466,143.8103219999466,143.8103219999466,144.17698760004714,144.17698760004714,144.17698760004714,144.17698760004714,144.17698760004714,144.17698760004714,144.17698760004714,144.17698760004714,144.17698760004714,6,5,"[0.0012039998546242714, 0.08635639981366694, 0.16677129990421236, 0.21857859985902905, 0.3184988999273628]","[0.0668917999137193, 0.11761269997805357, 0.20117449993267655, 0.30184519989416003, 0.3687132999766618]",144.17698760004714,144.39153330004774,1000,144.39153330004774,1000,1000,1000,1000,1,num_2,0.5110356002114713,,37,7,2026-03-13_18h01.23.165,2026A_exp2,2022.2.4,60.110169946627906,
1000,1,0.0,6.1,0,0,36,36,27,,,,,144.92771099996753,145.578123500105,145.578123500105,146.08729710010812,45,315,146.08729710010812,146.08729710010812,146.08729710010812,146.08729710010812,146.08729710010812,146.08729710010812,146.08729710010812,146.08729710010812,146.08729710010812,146.445812900085,146.445812900085,146.445812900085,146.445812900085,146.445812900085,146.445812900085,146.445812900085,146.445812900085,146.445812900085,21,2,"[0.24878999986685812, 0.36578009999357164]","[0.26563260005787015, 0.3657865999266505]",146.445812900085,146.6519166000653,1000,146.6519166000653,1000,1000,1000,1000,1,num_2,0.28973400010727346,,37,7,2026-03-13_18h01.23.165,2026A_exp2,2022.2.4,60.110169946627906,
1,0,0.0,3.7,0,0,37,37,31,,,,,146.9628103999421,147.6135877999477,147.6135877999477,148.1149224000983,45,315,148.1149224000983,148.1149224000983,148.1149224000983,148.1149224000983,148.1149224000983,148.1149224000983,148.1149224000983,148.1149224000983,148.1149224000983,148.48107410012744,148.48107410012744,148.48107410012744,148.48107410012744,148.48107410012744,148.48107410012744,148.48107410012744,148.48107410012744,148.48107410012744,0,1,[0.00084910006262362],[0.36775530013255775],148.48107410012744,148.68137090001255,0.0,148.68137090001255,0,0.0,0,1,1000,num_1,0.8519896999932826,,37,7,2026-03-13_18h01.23.165,2026A_exp2,2022.2.4,60.110169946627906,
1000,1,3.7,0.0,1,0,38,38,78,,,,,149.54870210005902,150.1996021999512,150.1996021999512,150.71782710007392,45,315,150.71782710007392,150.71782710007392,150.71782710007392,150.71782710007392,150.71782710007392,150.71782710007392,150.71782710007392,150.71782710007392,150.71782710007392,151.06708780000918,151.06708780000918,151.06708780000918,151.06708780000918,151.06708780000918,151.06708780000918,151.06708780000918,151.06708780000918,151.06708780000918,2,2,"[0.03150110016576946, 0.09722850006073713]","[0.06492240005172789, 0.36339200008660555]",151.06708780000918,151.2690026999917,1000,151.2690026999917,1000,1000,1000,1000,0,num_3,0.8257098000030965,,37,7,2026-03-13_18h01.23.165,2026A_exp2,2022.2.4,60.110169946627906,
1,0,3.7,0.0,0,0,39,39,9,,,,,152.11802459997125,152.76875749998726,152.76875749998726,153.26985889999196,45,315,153.26985889999196,153.26985889999196,153.26985889999196,153.26985889999196,153.26985889999196,153.26985889999196,153.26985889999196,153.26985889999196,153.26985889999196,153.63625079998747,153.63625079998747,153.63625079998747,153.63625079998747,153.63625079998747,153.63625079998747,153.63625079998747,153.63625079998747,153.63625079998747,23,0,,,153.63625079998747,153.8365172999911,3.7,153.8365172999911,1,3.7,1,1,1000,num_4,0.9615754000842571,,37,7,2026-03-13_18h01.23.165,2026A_exp2,2022.2.4,60.110169946627906,
1000,1,3.7,3.7,1,0,40,40,54,,,,,154.82055870001204,155.47142750001512,155.47142750001512,155.9557755999267,45,315,155.9557755999267,155.9557755999267,155.9557755999267,155.9557755999267,155.9557755999267,155.9557755999267,155.9557755999267,155.9557755999267,155.9557755999267,156.32234410010278,156.32234410010278,156.32234410010278,156.32234410010278,156.32234410010278,156.32234410010278,156.32234410010278,156.32234410010278,156.32234410010278,22,1,[0.28326699999161065],[0.30031379987485707],156.32234410010278,156.52410880010575,1000,156.52410880010575,1000,1000,1000,1000,1,num_2,1.1695449000690132,,37,7,2026-03-13_18h01.23.165,2026A_exp2,2022.2.4,60.110169946627906,
1000,1,0.0,3.7,1,0,41,41,1,,,,,157.7237204001285,158.37436209991574,158.37436209991574,158.87550990004092,315,315,158.87550990004092,158.87550990004092,158.87550990004092,158.87550990004092,158.87550990004092,158.87550990004092,158.87550990004092,158.87550990004092,158.87550990004092,159.2419573001098,159.2419573001098,159.2419573001098,159.2419573001098,159.2419573001098,159.2419573001098,159.2419573001098,159.2419573001098,159.2419573001098,23,0,,,159.2419573001098,159.44390580011532,1000,159.44390580011532,1000,1000,1000,1000,1,num_2,0.4256837998982519,,37,7,2026-03-13_18h01.23.165,2026A_exp2,2022.2.4,60.110169946627906,
1000,1,0.0,0.0,0,0,42,42,2,,,,,159.89294170006178,160.54289490007795,160.54289490007795,161.02763379993849,315,315,161.02763379993849,161.02763379993849,161.02763379993849,161.02763379993849,161.02763379993849,161.02763379993849,161.02763379993849,161.02763379993849,161.02763379993849,161.39390609995462,161.39390609995462,161.39390609995462,161.39390609995462,161.39390609995462,161.39390609995462,161.39390609995462,161.39390609995462,161.39390609995462,23,0,,,161.39390609995462,161.59592079999857,1000,161.59592079999857,1000,1000,1000,1000,0,num_3,0.3294859998859465,,37,7,2026-03-13_18h01.23.165,2026A_exp2,2022.2.4,60.110169946627906,
1000,1,0.0,3.7,1,0,43,43,67,,,,,161.94448469998315,162.59527579997666,162.59527579997666,163.10032030008733,45,315,163.10032030008733,163.10032030008733,163.10032030008733,163.10032030008733,163.10032030008733,163.10032030008733,163.10032030008733,163.10032030008733,163.10032030008733,163.46280129998922,163.46280129998922,163.46280129998922,163.46280129998922,163.46280129998922,163.46280129998922,163.46280129998922,163.46280129998922,163.46280129998922,22,1,[0.18268719990737736],[0.19939500000327826],163.46280129998922,163.6671991001349,1000,163.6671991001349,1000,1000,1000,1000,1,num_2,0.4105594002176076,,37,7,2026-03-13_18h01.23.165,2026A_exp2,2022.2.4,60.110169946627906,
1000,1,0.0,0.0,1,0,44,44,35,,,,,164.09665740001947,164.74751999997534,164.74751999997534,165.24841640004888,45,315,165.24841640004888,165.24841640004888,165.24841640004888,165.24841640004888,165.24841640004888,165.24841640004888,165.24841640004888,165.24841640004888,165.24841640004888,165.6148924001027,165.6148924001027,165.6148924001027,165.6148924001027,165.6148924001027,165.6148924001027,165.6148924001027,165.6148924001027,165.6148924001027,23,0,,,165.6148924001027,165.8243569000624,1000,165.8243569000624,1000,1000,1000,1000,0,num_3,1.068932899972424,,37,7,2026-03-13_18h01.23.165,2026A_exp2,2022.2.4,60.110169946627906,
1000,1,4.9,0.0,0,0,45,45,12,,,,,166.91639299993403,167.56692070001736,167.56692070001736,168.06815730012022,315,45,168.06815730012022,168.06815730012022,168.06815730012022,168.06815730012022,168.06815730012022,168.06815730012022,168.06815730012022,168.06815730012022,168.06815730012022,168.4177508999128,168.4177508999128,168.4177508999128,168.4177508999128,168.4177508999128,168.4177508999128,168.4177508999128,168.4177508999128,168.4177508999128,20,1,[0.3337542999070138],[0.35054949996992946],168.4177508999128,168.61972029996105,1000,168.61972029996105,1000,1000,1000,1000,0,num_3,0.33053969987668097,,37,7,2026-03-13_18h01.23.165,2026A_exp2,2022.2.4,60.110169946627906,
1,0,6.1,3.7,1,0,46,46,16,,,,,168.9686505999416,169.6186895999126,169.6186895999126,170.10337879997678,315,45,170.10337879997678,170.10337879997678,170.10337879997678,170.10337879997678,170.10337879997678,170.10337879997678,170.10337879997678,170.10337879997678,170.10337879997678,170.46977229998447,170.46977229998447,170.46977229998447,170.46977229998447,170.46977229998447,170.46977229998447,170.46977229998447,170.46977229998447,170.46977229998447,23,0,,,170.46977229998447,170.67022889992222,3.7,170.67022889992222,1,3.7,1,1,1000,num_4,1.5444195000454783,,37,7,2026-03-13_18h01.23.165,2026A_exp2,2022.2.4,60.110169946627906,
1,0,0.0,0.0,0,0,47,47,6,,,,,172.2381347999908,172.8889234000817,172.8889234000817,173.37321670004167,45,45,173.37321670004167,173.37321670004167,173.37321670004167,173.37321670004167,173.37321670004167,173.37321670004167,173.37321670004167,173.37321670004167,173.37321670004167,173.73959590005688,173.73959590005688,173.73959590005688,173.73959590005688,173.73959590005688,173.73959590005688,173.73959590005688,173.73959590005688,173.73959590005688,23,0,,,173.73959590005688,173.93997439998202,0.0,173.93997439998202,1,0.0,0,0,1000,num_4,0.818185499869287,,37,7,2026-03-13_18h01.23.165,2026A_exp2,2022.2.4,60.110169946627906,
1,0,3.7,0.0,0,0,48,48,7,,,,,174.77409010007977,175.42477939999662,175.42477939999662,175.9092238000594,45,315,175.9092238000594,175.9092238000594,175.9092238000594,175.9092238000594,175.9092238000594,175.9092238000594,175.9092238000594,175.9092238000594,175.9092238000594,176.275462300051,176.275462300051,176.275462300051,176.275462300051,176.275462300051,176.275462300051,176.275462300051,176.275462300051,176.275462300051,22,1,[0.2501264000311494],[0.26678330008871853],176.275462300051,176.47586150001734,3.7,176.47586150001734,1,3.7,1,1,1000,num_4,0.6336750001646578,,37,7,2026-03-13_18h01.23.165,2026A_exp2,2022.2.4,60.110169946627906,
1000,1,0.0,3.7,1,0,49,49,82,,,,,177.1264543000143,177.76043360005133,177.76043360005133,178.2614207000006,45,45,178.2614207000006,178.2614207000006,178.2614207000006,178.2614207000006,178.2614207000006,178.2614207000006,178.2614207000006,178.2614207000006,178.2614207000006,178.62799310008995,178.62799310008995,178.62799310008995,178.62799310008995,178.62799310008995,178.62799310008995,178.62799310008995,178.62799310008995,178.62799310008995,23,0,,,178.62799310008995,178.82985710003413,1000,178.82985710003413,1000,1000,1000,1000,1,num_2,0.6569311998318881,,37,7,2026-03-13_18h01.23.165,2026A_exp2,2022.2.4,60.110169946627906,
1000,1,0.0,0.0,0,0,50,50,24,,,,,179.5119370999746,180.1647493999917,180.1647493999917,180.66404790012166,45,45,180.66404790012166,180.66404790012166,180.66404790012166,180.66404790012166,180.66404790012166,180.66404790012166,180.66404790012166,180.66404790012166,180.66404790012166,181.03052049991675,181.03052049991675,181.03052049991675,181.03052049991675,181.03052049991675,181.03052049991675,181.03052049991675,181.03052049991675,181.03052049991675,23,0,,,181.03052049991675,181.23236369993538,1000,181.23236369993538,1000,1000,1000,1000,1,num_2,0.4932234000880271,,37,7,2026-03-13_18h01.23.165,2026A_exp2,2022.2.4,60.110169946627906,
1000,1,3.7,0.0,0,0,51,51,81,,,,,181.74793660012074,182.39844819996506,182.39844819996506,182.89960679993965,45,315,182.89960679993965,182.89960679993965,182.89960679993965,182.89960679993965,182.89960679993965,182.89960679993965,182.89960679993965,182.89960679993965,182.89960679993965,183.26588730001822,183.26588730001822,183.26588730001822,183.26588730001822,183.26588730001822,183.26588730001822,183.26588730001822,183.26588730001822,183.26588730001822,0,1,[0.0012348999734967947],[0.36717820004560053],183.26588730001822,183.4677965999581,1000,183.4677965999581,1000,1000,1000,1000,0,num_3,0.37754679983481765,,37,7,2026-03-13_18h01.23.165,2026A_exp2,2022.2.4,60.110169946627906,
1,0,0.0,0.0,1,0,52,52,4,,,,,183.86641609994695,184.51717030000873,184.51717030000873,185.01833959994838,45,45,185.01833959994838,185.01833959994838,185.01833959994838,185.01833959994838,185.01833959994838,185.01833959994838,185.01833959994838,185.01833959994838,185.01833959994838,185.38451040000655,185.38451040000655,185.38451040000655,185.38451040000655,185.38451040000655,185.38451040000655,185.38451040000655,185.38451040000655,185.38451040000655,5,3,"[0.001233499962836504, 0.16693349997512996, 0.28386019985191524]","[0.13383489986881614, 0.2504644999280572, 0.3671748999040574]",185.38451040000655,185.58503880002536,0.0,185.58503880002536,1,0.0,0,0,1000,num_4,2.916620399802923,,37,7,2026-03-13_18h01.23.165,2026A_exp2,2022.2.4,60.110169946627906,
0,0,0.0,6.1,1,0,53,53,46,,,,,188.521064999979,189.17182109993882,189.17182109993882,189.65617120009847,315,45,189.65617120009847,189.65617120009847,189.65617120009847,189.65617120009847,189.65617120009847,189.65617120009847,189.65617120009847,189.65617120009847,189.65617120009847,190.02258440013975,190.02258440013975,190.02258440013975,190.02258440013975,190.02258440013975,190.02258440013975,190.02258440013975,190.02258440013975,190.02258440013975,3,4,"[0.0012400001287460327, 0.1001568001229316, 0.2336995000950992, 0.31720879999920726]","[0.08345530019141734, 0.21700250008143485, 0.3004048999864608, 0.3671031000558287]",190.02258440013975,190.22289799991995,0.0,190.22289799991995,0,0.0,0,1,1000,num_1,1.0227952999994159,,37,7,2026-03-13_18h01.23.165,2026A_exp2,2022.2.4,60.110169946627906,
1000,1,3.7,4.9,0,0,54,54,25,,,,,191.27394190011546,191.93506129994057,191.93506129994057,192.4087571001146,315,45,192.4087571001146,192.4087571001146,192.4087571001146,192.4087571001146,192.4087571001146,192.4087571001146,192.4087571001146,192.4087571001146,192.4087571001146,192.77542720013298,192.77542720013298,192.77542720013298,192.77542720013298,192.77542720013298,192.77542720013298,192.77542720013298,192.77542720013298,192.77542720013298,23,0,,,192.77542720013298,192.9774573999457,1000,192.9774573999457,1000,1000,1000,1000,1,num_2,0.7808314000722021,,37,7,2026-03-13_18h01.23.165,2026A_exp2,2022.2.4,60.110169946627906,
0,0,0.0,4.9,0,0,55,55,65,,,,,193.77644150005654,194.4271235000342,194.4271235000342,194.92813090002164,45,315,194.92813090002164,194.92813090002164,194.92813090002164,194.92813090002164,194.92813090002164,194.92813090002164,194.92813090002164,194.92813090002164,194.92813090002164,195.27793759992346,195.27793759992346,195.27793759992346,195.27793759992346,195.27793759992346,195.27793759992346,195.27793759992346,195.27793759992346,195.27793759992346,5,4,"[0.033469000132754445, 0.08318090019747615, 0.11662510014139116, 0.33382390020415187]","[0.06629320001229644, 0.09993770020082593, 0.3171113000717014, 0.3503979002125561]",195.27793759992346,195.4781206001062,4.9,195.49483669991605,1,4.9,1,1,1000,num_4,0.7913480000570416,,37,7,2026-03-13_18h01.23.165,2026A_exp2,2022.2.4,60.110169946627906,
1000,1,4.9,0.0,0,0,56,56,45,,,,,196.31212910008617,196.96288889995776,196.96288889995776,197.4474482999649,315,45,197.4474482999649,197.4474482999649,197.4474482999649,197.4474482999649,197.4474482999649,197.4474482999649,197.4474482999649,197.4474482999649,197.4474482999649,197.81340990005992,197.81340990005992,197.81340990005992,197.81340990005992,197.81340990005992,197.81340990005992,197.81340990005992,197.81340990005992,197.81340990005992,23,0,,,197.81340990005992,198.0383095999714,1000,198.0383095999714,1000,1000,1000,1000,0,num_3,1.1355910000856966,,37,7,2026-03-13_18h01.23.165,2026A_exp2,2022.2.4,60.110169946627906,
0,0,0.0,0.0,1,0,57,57,80,,,,,199.19859690009616,199.849185799947,199.849185799947,200.35033529996872,315,315,200.35033529996872,200.35033529996872,200.35033529996872,200.35033529996872,200.35033529996872,200.35033529996872,200.35033529996872,200.35033529996872,200.35033529996872,200.71674860012718,200.71674860012718,200.71674860012718,200.71674860012718,200.71674860012718,200.71674860012718,200.71674860012718,200.71674860012718,200.71674860012718,23,0,,,200.71674860012718,200.9169085000176,0.0,200.9169085000176,0,0.0,0,1,1000,num_1,1.1777496000286192,,37,7,2026-03-13_18h01.23.165,2026A_exp2,2022.2.4,60.110169946627906,
1000,1,4.9,0.0,1,0,58,58,56,,,,,202.11800360004418,202.768720400054,202.768720400054,203.2530962000601,315,45,203.2530962000601,203.2530962000601,203.2530962000601,203.2530962000601,203.2530962000601,203.2530962000601,203.2530962000601,203.2530962000601,203.2530962000601,203.61949439998716,203.61949439998716,203.61949439998716,203.61949439998716,203.61949439998716,203.61949439998716,203.61949439998716,203.61949439998716,203.61949439998716,23,0,,,203.61949439998716,203.8217730000615,1000,203.8217730000615,1000,1000,1000,1000,1,num_2,1.4567326998803765,,37,7,2026-03-13_18h01.23.165,2026A_exp2,2022.2.4,60.110169946627906,
1000,1,0.0,0.0,0,0,59,59,79,,,,,205.30451450007968,205.95536620006897,205.95536620006897,206.45644360012375,45,45,206.45644360012375,206.45644360012375,206.45644360012375,206.45644360012375,206.45644360012375,206.45644360012375,206.45644360012375,206.45644360012375,206.45644360012375,206.8227850999683,206.8227850999683,206.8227850999683,206.8227850999683,206.8227850999683,206.8227850999683,206.8227850999683,206.8227850999683,206.8227850999683,23,0,,,206.8227850999683,207.02535040001385,1000,207.02535040001385,1000,1000,1000,1000,0,num_3,0.3089465999510139,,37,7,2026-03-13_18h01.23.165,2026A_exp2,2022.2.4,60.110169946627906,
0,0,6.1,4.9,1,0,60,60,42,,,,,207.3568063999992,208.00721110007726,208.00721110007726,208.4916882000398,315,45,208.4916882000398,208.4916882000398,208.4916882000398,208.4916882000398,208.4916882000398,208.4916882000398,208.4916882000398,208.4916882000398,208.4916882000398,208.8581386001315,208.8581386001315,208.8581386001315,208.8581386001315,208.8581386001315,208.8581386001315,208.8581386001315,208.8581386001315,208.8581386001315,0,1,[0.0012350000906735659],[0.3672232001554221],208.8581386001315,209.05842939997092,6.1,209.05842939997092,0,6.1,1,0,1000,num_1,1.044376599835232,,37,7,2026-03-13_18h01.23.165,2026A_exp2,2022.2.4,60.110169946627906,
1,0,6.1,3.7,1,0,61,61,83,,,,,210.1259951000102,210.77671260014176,210.77671260014176,211.26117069995962,315,45,211.26117069995962,211.26117069995962,211.26117069995962,211.26117069995962,211.26117069995962,211.26117069995962,211.26117069995962,211.26117069995962,211.26117069995962,211.62760660005733,211.62760660005733,211.62760660005733,211.62760660005733,211.62760660005733,211.62760660005733,211.62760660005733,211.62760660005733,211.62760660005733,0,1,[0.0010653999634087086],[0.3672456999775022],211.62760660005733,211.8278989000246,3.7,211.8278989000246,0,3.7,1,0,1000,num_1,0.7298334999941289,,37,7,2026-03-13_18h01.23.165,2026A_exp2,2022.2.4,60.110169946627906,
1000,1,0.0,3.7,0,0,62,62,50,,,,,212.57836710009724,213.22928229998797,213.22928229998797,213.71357450005598,315,45,213.71357450005598,213.71357450005598,213.71357450005598,213.71357450005598,213.71357450005598,213.71357450005598,213.71357450005598,213.71357450005598,213.71357450005598,214.08010910009034,214.08010910009034,214.08010910009034,214.08010910009034,214.08010910009034,214.08010910009034,214.08010910009034,214.08010910009034,214.08010910009034,6,1,[0.033478799974545836],[0.3171771999914199],214.08010910009034,214.281857999973,1000,214.281857999973,1000,1000,1000,1000,1,num_2,1.3317821000237018,,37,7,2026-03-13_18h01.23.165,2026A_exp2,2022.2.4,60.110169946627906,
1,0,4.9,0.0,0,0,63,63,47,,,,,215.63147259992547,216.28236790001392,216.28236790001392,216.7832158000674,315,315,216.7832158000674,216.7832158000674,216.7832158000674,216.7832158000674,216.7832158000674,216.7832158000674,216.7832158000674,216.7832158000674,216.7832158000674,217.14971649996005,217.14971649996005,217.14971649996005,217.14971649996005,217.14971649996005,217.14971649996005,217.14971649996005,217.14971649996005,217.14971649996005,23,0,,,217.14971649996005,217.3497697999701,4.9,217.3497697999701,1,4.9,1,1,1000,num_4,1.0085583999752998,,37,7,2026-03-13_18h01.23.165,2026A_exp2,2022.2.4,60.110169946627906,
1000,1,3.7,6.1,1,0,64,64,43,,,,,218.38401819998398,219.0350764999166,219.0350764999166,219.53621269995347,45,315,219.53621269995347,219.53621269995347,219.53621269995347,219.53621269995347,219.53621269995347,219.53621269995347,219.53621269995347,219.53621269995347,219.53621269995347,219.8858064999804,219.8858064999804,219.8858064999804,219.8858064999804,219.8858064999804,219.8858064999804,219.8858064999804,219.8858064999804,219.8858064999804,22,0,,,219.8858064999804,220.08776660007425,1000,220.08776660007425,1000,1000,1000,1000,1,num_2,0.5185954999178648,,37,7,2026-03-13_18h01.23.165,2026A_exp2,2022.2.4,60.110169946627906,
1,0,0.0,3.7,1,0,65,65,30,,,,,220.6365422999952,221.28733170009218,221.28733170009218,221.78818419994786,315,45,221.78818419994786,221.78818419994786,221.78818419994786,221.78818419994786,221.78818419994786,221.78818419994786,221.78818419994786,221.78818419994786,221.78818419994786,222.15479500009678,222.15479500009678,222.15479500009678,222.15479500009678,222.15479500009678,222.15479500009678,222.15479500009678,222.15479500009678,222.15479500009678,23,0,,,222.15479500009678,222.35499519994482,3.7,222.35499519994482,1,3.7,1,1,1000,num_4,0.642322100000456,,37,7,2026-03-13_18h01.23.165,2026A_exp2,2022.2.4,60.110169946627906,
1000,1,0.0,0.0,1,0,66,66,68,,,,,223.02218899992295,223.6730527000036,223.6730527000036,224.15732070012018,315,45,224.15732070012018,224.15732070012018,224.15732070012018,224.15732070012018,224.15732070012018,224.15732070012018,224.15732070012018,224.15732070012018,224.15732070012018,224.52380369999446,224.52380369999446,224.52380369999446,224.52380369999446,224.52380369999446,224.52380369999446,224.52380369999446,224.52380369999446,224.52380369999446,23,0,,,224.52380369999446,224.72594429994933,1000,224.72594429994933,1000,1000,1000,1000,1,num_2,0.6396566000767052,,37,7,2026-03-13_18h01.23.165,2026A_exp2,2022.2.4,60.110169946627906,
1,0,0.0,4.9,1,0,67,67,41,,,,,225.39165439992212,226.04209050000645,226.04209050000645,226.54321109992452,315,45,226.54321109992452,226.54321109992452,226.54321109992452,226.54321109992452,226.54321109992452,226.54321109992452,226.54321109992452,226.54321109992452,226.54321109992452,226.90956340008415,226.90956340008415,226.90956340008415,226.90956340008415,226.90956340008415,226.90956340008415,226.90956340008415,226.90956340008415,226.90956340008415,23,0,,,226.90956340008415,227.10976020013914,4.9,227.10976020013914,1,4.9,1,1,1000,num_4,0.47287739999592304,,37,7,2026-03-13_18h01.23.165,2026A_exp2,2022.2.4,60.110169946627906,
1,0,6.1,0.0,1,0,68,68,17,,,,,227.61017330014147,228.26090739993379,228.26090739993379,228.74534539994784,45,45,228.74534539994784,228.74534539994784,228.74534539994784,228.74534539994784,228.74534539994784,228.74534539994784,228.74534539994784,228.74534539994784,228.74534539994784,229.11174009996466,229.11174009996466,229.11174009996466,229.11174009996466,229.11174009996466,229.11174009996466,229.11174009996466,229.11174009996466,229.11174009996466,23,0,,,229.11174009996466,229.31197159993462,0.0,229.31197159993462,0,0.0,0,1,1000,num_1,0.8222422001417726,,37,7,2026-03-13_18h01.23.165,2026A_exp2,2022.2.4,60.110169946627906,
1000,1,6.1,6.1,0,0,69,69,87,,,,,230.1629929000046,230.81353710009716,230.81353710009716,231.29792969999835,45,315,231.29792969999835,231.29792969999835,231.29792969999835,231.29792969999835,231.29792969999835,231.29792969999835,231.29792969999835,231.29792969999835,231.29792969999835,231.66434479993768,231.66434479993768,231.66434479993768,231.66434479993768,231.66434479993768,231.66434479993768,231.66434479993768,231.66434479993768,231.66434479993768,23,0,,,231.66434479993768,231.86632020003162,1000,231.86632020003162,1000,1000,1000,1000,0,num_3,1.0925028999336064,,37,7,2026-03-13_18h01.23.165,2026A_exp2,2022.2.4,60.110169946627906,
0,0,0.0,4.9,1,0,70,70,33,,,,,232.9827042000834,233.63297039992176,233.63297039992176,234.1340844000224,315,45,234.1340844000224,234.1340844000224,234.1340844000224,234.1340844000224,234.1340844000224,234.1340844000224,234.1340844000224,234.1340844000224,234.1340844000224,234.5005111999344,234.5005111999344,234.5005111999344,234.5005111999344,234.5005111999344,234.5005111999344,234.5005111999344,234.5005111999344,234.5005111999344,23,0,,,234.5005111999344,234.70060999994166,0.0,234.70060999994166,0,0.0,0,1,1000,num_1,0.697961299913004,,37,7,2026-03-13_18h01.23.165,2026A_exp2,2022.2.4,60.110169946627906,
1,0,0.0,0.0,0,0,71,71,61,,,,,235.4181292001158,236.0763463000767,236.0763463000767,236.57472979999147,45,315,236.57472979999147,236.57472979999147,236.57472979999147,236.57472979999147,236.57472979999147,236.57472979999147,236.57472979999147,236.57472979999147,236.57472979999147,236.93612500000745,236.93612500000745,236.93612500000745,236.93612500000745,236.93612500000745,236.93612500000745,236.93612500000745,236.93612500000745,236.93612500000745,23,0,,,236.93612500000745,237.13649070006795,0.0,237.13649070006795,1,0.0,0,0,1000,num_4,0.8133815999608487,,37,7,2026-03-13_18h01.23.165,2026A_exp2,2022.2.4,60.110169946627906,
0,0,4.9,0.0,1,0,72,72,26,,,,,237.97041560010985,238.621292399941,238.621292399941,239.1056065999437,45,315,239.1056065999437,239.1056065999437,239.1056065999437,239.1056065999437,239.1056065999437,239.1056065999437,239.1056065999437,239.1056065999437,239.1056065999437,239.4721564000938,239.4721564000938,239.4721564000938,239.4721564000938,239.4721564000938,239.4721564000938,239.4721564000938,239.4721564000938,239.4721564000938,23,0,,,239.4721564000938,239.6723547000438,4.9,239.6723547000438,1,4.9,1,1,1000,num_4,0.8697563998866826,,37,7,2026-03-13_18h01.23.165,2026A_exp2,2022.2.4,60.110169946627906,
0,0,3.7,3.7,1,0,73,73,62,,,,,240.573282700032,241.22393890004605,241.22393890004605,241.7083865001332,45,45,241.7083865001332,241.7083865001332,241.7083865001332,241.7083865001332,241.7083865001332,241.7083865001332,241.7083865001332,241.7083865001332,241.7083865001332,242.07474229997024,242.07474229997024,242.07474229997024,242.07474229997024,242.07474229997024,242.07474229997024,242.07474229997024,242.07474229997024,242.07474229997024,23,0,,,242.07474229997024,242.27500030002557,3.7,242.27500030002557,1,3.7,1,1,1000,num_4,1.2758041000925004,,37,7,2026-03-13_18h01.23.165,2026A_exp2,2022.2.4,60.110169946627906,
0,0,6.1,6.1,1,0,74,74,48,,,,,243.57612390001304,244.22691550012678,244.22691550012678,244.71137999999337,45,45,244.71137999999337,244.71137999999337,244.71137999999337,244.71137999999337,244.71137999999337,244.71137999999337,244.71137999999337,244.71137999999337,244.71137999999337,245.07767069991678,245.07767069991678,245.07767069991678,245.07767069991678,245.07767069991678,245.07767069991678,245.07767069991678,245.07767069991678,245.07767069991678,23,0,,,245.07767069991678,245.27788700000383,6.1,245.27788700000383,1,6.1,1,1,1000,num_4,0.871678699972108,,37,7,2026-03-13_18h01.23.165,2026A_exp2,2022.2.4,60.110169946627906,
1,0,0.0,0.0,1,0,75,75,20,,,,,246.1787392999977,246.83280600002035,246.83280600002035,247.31374330003746,315,315,247.31374330003746,247.31374330003746,247.31374330003746,247.31374330003746,247.31374330003746,247.31374330003746,247.31374330003746,247.31374330003746,247.31374330003746,247.68042839993723,247.68042839993723,247.68042839993723,247.68042839993723,247.68042839993723,247.68042839993723,247.68042839993723,247.68042839993723,247.68042839993723,23,0,,,247.68042839993723,247.8804977000691,0.0,247.8804977000691,0,0.0,0,1,1000,num_1,0.8613980999216437,,37,7,2026-03-13_18h01.23.165,2026A_exp2,2022.2.4,60.110169946627906,
1,0,4.9,4.9,1,0,76,76,18,,,,,248.76465010014363,249.4154871001374,249.4154871001374,249.89971109991893,315,45,249.89971109991893,249.89971109991893,249.89971109991893,249.89971109991893,249.89971109991893,249.89971109991893,249.89971109991893,249.89971109991893,249.89971109991893,250.26628830004483,250.26628830004483,250.26628830004483,250.26628830004483,250.26628830004483,250.26628830004483,250.26628830004483,250.26628830004483,250.26628830004483,23,0,,,250.26628830004483,250.4665379000362,4.9,250.4665379000362,1,4.9,1,1,1000,num_4,0.8117567000444978,,37,7,2026-03-13_18h01.23.165,2026A_exp2,2022.2.4,60.110169946627906,
0,0,0.0,0.0,1,0,77,77,14,,,,,251.3004717999138,251.95147500000894,251.95147500000894,252.435585899977,315,315,252.435585899977,252.435585899977,252.435585899977,252.435585899977,252.435585899977,252.435585899977,252.435585899977,252.435585899977,252.435585899977,252.8021120999474,252.8021120999474,252.8021120999474,252.8021120999474,252.8021120999474,252.8021120999474,252.8021120999474,252.8021120999474,252.8021120999474,23,0,,,252.8021120999474,253.00228359992616,0.0,253.00228359992616,0,0.0,0,1,1000,num_1,1.5711795999668539,,37,7,2026-03-13_18h01.23.165,2026A_exp2,2022.2.4,60.110169946627906,
1000,1,4.9,0.0,0,0,78,78,37,,,,,254.60382750001736,255.25459560006857,255.25459560006857,255.73897160007618,315,315,255.73897160007618,255.73897160007618,255.73897160007618,255.73897160007618,255.73897160007618,255.73897160007618,255.73897160007618,255.73897160007618,255.73897160007618,256.10528420004994,256.10528420004994,256.10528420004994,256.10528420004994,256.10528420004994,256.10528420004994,256.10528420004994,256.10528420004994,256.10528420004994,23,0,,,256.10528420004994,256.30745090008713,1000,256.30745090008713,1000,1000,1000,1000,0,num_3,0.9144407000858337,,37,7,2026-03-13_18h01.23.165,2026A_exp2,2022.2.4,60.110169946627906,
1000,1,0.0,0.0,1,0,79,79,63,,,,,257.23975050006993,257.8904705999885,257.8904705999885,258.39153790008277,315,45,258.39153790008277,258.39153790008277,258.39153790008277,258.39153790008277,258.39153790008277,258.39153790008277,258.39153790008277,258.39153790008277,258.39153790008277,258.75800230004825,258.75800230004825,258.75800230004825,258.75800230004825,258.75800230004825,258.75800230004825,258.75800230004825,258.75800230004825,258.75800230004825,23,0,,,258.75800230004825,258.96028150012717,1000,258.96028150012717,1000,1000,1000,1000,0,num_3,1.2693648000713438,,37,7,2026-03-13_18h01.23.165,2026A_exp2,2022.2.4,60.110169946627906,
1,0,0.0,0.0,0,0,80,80,22,,,,,260.25950079993345,260.91028880001977,260.91028880001977,261.4115933999419,45,45,261.4115933999419,261.4115933999419,261.4115933999419,261.4115933999419,261.4115933999419,261.4115933999419,261.4115933999419,261.4115933999419,261.4115933999419,261.7775552000385,261.7775552000385,261.7775552000385,261.7775552000385,261.7775552000385,261.7775552000385,261.7775552000385,261.7775552000385,261.7775552000385,23,0,,,261.7775552000385,261.9779443000443,0.0,261.9779443000443,0,0.0,0,1,1000,num_1,2.7003019000403583,,37,7,2026-03-13_18h01.23.165,2026A_exp2,2022.2.4,60.110169946627906,
1,0,4.9,3.7,1,0,81,81,71,,,,,264.6974939999636,265.3479266001377,265.3479266001377,265.84902660013177,45,45,265.84902660013177,265.84902660013177,265.84902660013177,265.84902660013177,265.84902660013177,265.84902660013177,265.84902660013177,265.84902660013177,265.84902660013177,266.21549329999834,266.21549329999834,266.21549329999834,266.21549329999834,266.21549329999834,266.21549329999834,266.21549329999834,266.21549329999834,266.21549329999834,23,0,,,266.21549329999834,266.41573090013117,3.7,266.41573090013117,1,3.7,1,1,1000,num_4,1.070389400003478,,37,7,2026-03-13_18h01.23.165,2026A_exp2,2022.2.4,60.110169946627906,
1,0,6.1,6.1,1,0,82,82,49,,,,,267.51677060010843,268.1677165001165,268.1677165001165,268.651879100129,315,315,268.651879100129,268.651879100129,268.651879100129,268.651879100129,268.651879100129,268.651879100129,268.651879100129,268.651879100129,268.651879100129,269.01833430002443,269.01833430002443,269.01833430002443,269.01833430002443,269.01833430002443,269.01833430002443,269.01833430002443,269.01833430002443,269.01833430002443,3,3,"[0.001210999907925725, 0.23351690010167658, 0.30056559992954135]","[0.21699459990486503, 0.26689349999651313, 0.36700930004008114]",269.01833430002443,269.2185847000219,6.1,269.2185847000219,1,6.1,1,1,1000,num_4,0.6835989998653531,,37,7,2026-03-13_18h01.23.165,2026A_exp2,2022.2.4,60.110169946627906,
1,0,6.1,0.0,0,0,83,83,51,,,,,269.91902350005694,270.5698870001361,270.5698870001361,271.05432719993405,315,315,271.05432719993405,271.05432719993405,271.05432719993405,271.05432719993405,271.05432719993405,271.05432719993405,271.05432719993405,271.05432719993405,271.05432719993405,271.42078769998625,271.42078769998625,271.42078769998625,271.42078769998625,271.42078769998625,271.42078769998625,271.42078769998625,271.42078769998625,271.42078769998625,16,4,"[0.11705180001445115, 0.21725570014677942, 0.2839709999971092, 0.3340019001625478]","[0.13398600020445883, 0.2505020000971854, 0.3005055000539869, 0.3674094001762569]",271.42078769998625,271.62101470003836,6.1,271.62101470003836,1,6.1,1,1,1000,num_4,0.8568363999947906,,37,7,2026-03-13_18h01.23.165,2026A_exp2,2022.2.4,60.110169946627906,
1,0,0.0,0.0,0,0,84,84,85,,,,,272.50502260006033,273.1557823000476,273.1557823000476,273.6569006999489,315,315,273.6569006999489,273.6569006999489,273.6569006999489,273.6569006999489,273.6569006999489,273.6569006999489,273.6569006999489,273.6569006999489,273.6569006999489,274.00648050010204,274.00648050010204,274.00648050010204,274.00648050010204,274.00648050010204,274.00648050010204,274.00648050010204,274.00648050010204,274.00648050010204,22,0,,,274.00648050010204,274.2068875001278,0.0,274.2068875001278,0,0.0,0,1,1000,num_1,2.7906814999878407,,37,7,2026-03-13_18h01.23.165,2026A_exp2,2022.2.4,60.110169946627906,
1000,1,3.7,0.0,0,0,85,85,55,,,,,277.0262217000127,277.6769799001049,277.6769799001049,278.16132790013216,315,315,278.16132790013216,278.16132790013216,278.16132790013216,278.16132790013216,278.16132790013216,278.16132790013216,278.16132790013216,278.16132790013216,278.16132790013216,278.5278529000934,278.5278529000934,278.5278529000934,278.5278529000934,278.5278529000934,278.5278529000934,278.5278529000934,278.5278529000934,278.5278529000934,23,0,,,278.5278529000934,278.7294115999248,1000,278.7294115999248,1000,1000,1000,1000,0,num_3,0.8130189999938011,,37,7,2026-03-13_18h01.23.165,2026A_exp2,2022.2.4,60.110169946627906,
1000,1,4.9,0.0,1,0,86,86,74,,,,,279.5622102001216,280.2125792000443,280.2125792000443,280.7140510000754,45,315,280.7140510000754,280.7140510000754,280.7140510000754,280.7140510000754,280.7140510000754,280.7140510000754,280.7140510000754,280.7140510000754,280.7140510000754,281.0803986999672,281.0803986999672,281.0803986999672,281.0803986999672,281.0803986999672,281.0803986999672,281.0803986999672,281.0803986999672,281.0803986999672,23,0,,,281.0803986999672,281.2823089999147,1000,281.2823089999147,1000,1000,1000,1000,0,num_3,0.5711446001660079,,37,7,2026-03-13_18h01.23.165,2026A_exp2,2022.2.4,60.110169946627906,
1,0,0.0,0.0,0,0,87,87,11,,,,,281.8813281999901,282.5318001001142,282.5318001001142,283.0481950000394,315,315,283.0481950000394,283.0481950000394,283.0481950000394,283.0481950000394,283.0481950000394,283.0481950000394,283.0481950000394,283.0481950000394,283.0481950000394,283.3993965999689,283.3993965999689,283.3993965999689,283.3993965999689,283.3993965999689,283.3993965999689,283.3993965999689,283.3993965999689,283.3993965999689,23,0,,,283.3993965999689,283.59956969995983,0.0,283.59956969995983,0,0.0,0,1,1000,num_1,1.5988545001018792,,37,7,2026-03-13_18h01.23.165,2026A_exp2,2022.2.4,60.110169946627906,
1000,1,3.7,0.0,1,0,88,88,19,,,,,285.2177764000371,285.86848830012605,285.86848830012605,286.35284569999203,45,45,286.35284569999203,286.35284569999203,286.35284569999203,286.35284569999203,286.35284569999203,286.35284569999203,286.35284569999203,286.35284569999203,286.35284569999203,286.7193917001132,286.7193917001132,286.7193917001132,286.7193917001132,286.7193917001132,286.7193917001132,286.7193917001132,286.7193917001132,286.7193917001132,23,0,,,286.7193917001132,286.9215498000849,1000,286.9215498000849,1000,1000,1000,1000,0,num_3,0.5645569998305291,,37,7,2026-03-13_18h01.23.165,2026A_exp2,2022.2.4,60.110169946627906,
1,0,0.0,0.0,1,0,89,89,58,,,,,287.50330330012366,288.15419350005686,288.15419350005686,288.655290100025,315,315,288.655290100025,288.655290100025,288.655290100025,288.655290100025,288.655290100025,288.655290100025,288.655290100025,288.655290100025,288.655290100025,289.0216163001023,289.0216163001023,289.0216163001023,289.0216163001023,289.0216163001023,289.0216163001023,289.0216163001023,289.0216163001023,289.0216163001023,0,1,[0.0012255001347512007],[0.36716860020533204],289.0216163001023,289.2218665999826,0.0,289.2218665999826,0,0.0,0,1,1000,num_1,1.0082249999977648,,37,7,2026-03-13_18h01.23.165,2026A_exp2,2022.2.4,60.110169946627906,
,,,,,,,,,,,,,,,,,,,,,,,,,,,,,,,,,,,,,,,,,,,,,,,,,,,,290.26462880009785,,,,,,,
