validity,detectorcomp,contrastCW,contrastCCW,precueCWorCCW,block_80trials.thisRepN,block_80trials.thisTrialN,block_80trials.thisN,block_80trials.thisIndex,etRecord.started,etRecord.stopped,text.started,text.stopped,text_4.started,text_4.stopped,text_6.started,text_6.stopped,oriCW,oriCCW,roi_2.started,grating_UR.started,grating_UL.started,grating_LR.started,grating_LL.started,noise_UR.started,noise_UL.started,noise_LR.started,noise_LL.started,roi_2.stopped,grating_UR.stopped,grating_UL.stopped,grating_LR.stopped,grating_LL.stopped,noise_UR.stopped,noise_UL.stopped,noise_LR.stopped,noise_LL.stopped,outframe,roi_2.numLooks,roi_2.timesOn,roi_2.timesOff,text_2.started,text_2.stopped,probedcontrast,key_resp.started,respdetect,relevantContrast,correctDetect,TorFdetect,respCWorCCW,key_resp.keys,key_resp.rt,feedback_display_.started,participantNo,blockNo,date,expName,psychopyVersion,frameRate,
1,0,0.0,4.9,1,0,0,0,73,6.880000000819564e-05,6.880000000819564e-05,58.52032120001968,60.5289295000257,60.5289295000257,61.173479100019904,61.173479100019904,61.6940194000199,45,45,61.6940194000199,61.6940194000199,61.6940194000199,61.6940194000199,61.6940194000199,61.6940194000199,61.6940194000199,61.6940194000199,61.6940194000199,62.04101040001842,62.04101040001842,62.04101040001842,62.04101040001842,62.04101040001842,62.04101040001842,62.04101040001842,62.04101040001842,62.04101040001842,0,1,[0.0009652000153437257],[0.3673924000177067],62.04101040001842,62.241178299998865,4.9,62.241178299998865,1,4.9,1,1,1000,num_4,0.9442080000007991,,20,7,2026-03-02_16h01.00.539,2026A_exp2,2022.2.4,59.86901855354456,
1,0,0.0,0.0,0,0,1,1,11,,,,,63.208600000012666,63.8425772000046,63.8425772000046,64.34370450000279,45,315,64.34370450000279,64.34370450000279,64.34370450000279,64.34370450000279,64.34370450000279,64.34370450000279,64.34370450000279,64.34370450000279,64.34370450000279,64.71121210002457,64.71121210002457,64.71121210002457,64.71121210002457,64.71121210002457,64.71121210002457,64.71121210002457,64.71121210002457,64.71121210002457,0,1,[0.0009222999797202647],[0.3682157000002917],64.71121210002457,64.91026680002687,0.0,64.91026680002687,0,0.0,0,1,1000,num_1,1.0581415999913588,,20,7,2026-03-02_16h01.00.539,2026A_exp2,2022.2.4,59.86901855354456,
1000,1,4.9,3.7,0,0,2,2,40,,,,,65.9947626000212,66.64539350001724,66.64539350001724,67.12974390000454,315,45,67.12974390000454,67.12974390000454,67.12974390000454,67.12974390000454,67.12974390000454,67.12974390000454,67.12974390000454,67.12974390000454,67.12974390000454,67.49644780001836,67.49644780001836,67.49644780001836,67.49644780001836,67.49644780001836,67.49644780001836,67.49644780001836,67.49644780001836,67.49644780001836,0,1,[0.0007354000117629766],[0.3671656000078656],67.49644780001836,67.6963311000145,1000,67.6963311000145,1000,1000,1000,1000,0,num_3,0.448790900001768,,20,7,2026-03-02_16h01.00.539,2026A_exp2,2022.2.4,59.86901855354456,
1,0,6.1,0.0,1,0,3,3,17,,,,,68.16364579999936,68.81452460002038,68.81452460002038,69.2985024000227,315,45,69.2985024000227,69.2985024000227,69.2985024000227,69.2985024000227,69.2985024000227,69.2985024000227,69.2985024000227,69.2985024000227,69.2985024000227,69.66484450001735,69.66484450001735,69.66484450001735,69.66484450001735,69.66484450001735,69.66484450001735,69.66484450001735,69.66484450001735,69.66484450001735,0,1,[0.0007551000162493438],[0.36660060001304373],69.66484450001735,69.86516140002641,0.0,69.86516140002641,0,0.0,0,1,1000,num_1,0.6714130000036675,,20,7,2026-03-02_16h01.00.539,2026A_exp2,2022.2.4,59.86901855354456,
1000,1,0.0,0.0,1,0,4,4,68,,,,,70.56597370002419,71.21643369999947,71.21643369999947,71.70103360002395,45,45,71.70103360002395,71.70103360002395,71.70103360002395,71.70103360002395,71.70103360002395,71.70103360002395,71.70103360002395,71.70103360002395,71.70103360002395,72.0677607000107,72.0677607000107,72.0677607000107,72.0677607000107,72.0677607000107,72.0677607000107,72.0677607000107,72.0677607000107,72.0677607000107,23,0,,,72.0677607000107,72.26942350002355,1000,72.26942350002355,1000,1000,1000,1000,1,num_2,1.4597606000024825,,20,7,2026-03-02_16h01.00.539,2026A_exp2,2022.2.4,59.86901855354456,
1000,1,3.7,3.7,1,0,5,5,54,,,,,73.75281800000812,74.40329460002249,74.40329460002249,74.9047155000153,315,315,74.9047155000153,74.9047155000153,74.9047155000153,74.9047155000153,74.9047155000153,74.9047155000153,74.9047155000153,74.9047155000153,74.9047155000153,75.27090580001823,75.27090580001823,75.27090580001823,75.27090580001823,75.27090580001823,75.27090580001823,75.27090580001823,75.27090580001823,75.27090580001823,0,1,[0.0007089999853633344],[0.36752549998345785],75.27090580001823,75.4729561000131,1000,75.4729561000131,1000,1000,1000,1000,1,num_2,1.7450256000156514,,20,7,2026-03-02_16h01.00.539,2026A_exp2,2022.2.4,59.86901855354456,
1,0,0.0,4.9,1,0,6,6,41,,,,,77.2395308999985,77.8901655000227,77.8901655000227,78.37450260002515,45,315,78.37450260002515,78.37450260002515,78.37450260002515,78.37450260002515,78.37450260002515,78.37450260002515,78.37450260002515,78.37450260002515,78.37450260002515,78.74106280002161,78.74106280002161,78.74106280002161,78.74106280002161,78.74106280002161,78.74106280002161,78.74106280002161,78.74106280002161,78.74106280002161,0,1,[0.0012503000034485012],[0.3672358999901917],78.74106280002161,78.94098250000388,4.9,78.95804510000744,1,4.9,1,1,1000,num_4,0.7311858000175562,,20,7,2026-03-02_16h01.00.539,2026A_exp2,2022.2.4,59.86901855354456,
1,0,3.7,0.0,0,0,7,7,10,,,,,79.70859020002536,80.3594534000149,80.3594534000149,80.84385000000475,315,45,80.84385000000475,80.84385000000475,80.84385000000475,80.84385000000475,80.84385000000475,80.84385000000475,80.84385000000475,80.84385000000475,80.84385000000475,81.21029610000551,81.21029610000551,81.21029610000551,81.21029610000551,81.21029610000551,81.21029610000551,81.21029610000551,81.21029610000551,81.21029610000551,0,1,[0.0012306999997235835],[0.3671860999893397],81.21029610000551,81.41031040000962,3.7,81.41031040000962,1,3.7,1,1,1000,num_4,0.7906285999924876,,20,7,2026-03-02_16h01.00.539,2026A_exp2,2022.2.4,59.86901855354456,
1000,1,0.0,0.0,1,0,8,8,63,,,,,82.2278088000021,82.87847550000879,82.87847550000879,83.3628942000214,315,45,83.3628942000214,83.3628942000214,83.3628942000214,83.3628942000214,83.3628942000214,83.3628942000214,83.3628942000214,83.3628942000214,83.3628942000214,83.72936690002098,83.72936690002098,83.72936690002098,83.72936690002098,83.72936690002098,83.72936690002098,83.72936690002098,83.72936690002098,83.72936690002098,0,1,[0.001191499992273748],[0.3672344000078738],83.72936690002098,83.9313356000057,1000,83.9313356000057,1000,1000,1000,1000,1,num_2,0.5978807000210509,,20,7,2026-03-02_16h01.00.539,2026A_exp2,2022.2.4,59.86901855354456,
1000,1,4.9,0.0,0,0,9,9,12,,,,,84.5468926000176,85.19754380002269,85.19754380002269,85.69868770000176,315,45,85.69868770000176,85.69868770000176,85.69868770000176,85.69868770000176,85.69868770000176,85.69868770000176,85.69868770000176,85.69868770000176,85.69868770000176,86.06503090000479,86.06503090000479,86.06503090000479,86.06503090000479,86.06503090000479,86.06503090000479,86.06503090000479,86.06503090000479,86.06503090000479,0,1,[0.0012069999938830733],[0.36673270000028424],86.06503090000479,86.2736481000029,1000,86.2736481000029,1000,1000,1000,1000,0,num_3,0.3277779000054579,,20,7,2026-03-02_16h01.00.539,2026A_exp2,2022.2.4,59.86901855354456,
1,0,4.9,6.1,0,0,10,10,29,,,,,86.63221960002556,87.2829832000134,87.2829832000134,87.78404830000363,45,315,87.78404830000363,87.78404830000363,87.78404830000363,87.78404830000363,87.78404830000363,87.78404830000363,87.78404830000363,87.78404830000363,87.78404830000363,88.13377310000942,88.13377310000942,88.13377310000942,88.13377310000942,88.13377310000942,88.13377310000942,88.13377310000942,88.13377310000942,88.13377310000942,0,1,[0.0012183000217191875],[0.3506119000085164],88.13377310000942,88.33405570001923,4.9,88.35055830000783,0,4.9,1,0,1000,num_1,1.2189362999924924,,20,7,2026-03-02_16h01.00.539,2026A_exp2,2022.2.4,59.86901855354456,
1000,1,0.0,4.9,0,0,11,11,23,,,,,89.60195710000698,90.23593380002421,90.23593380002421,90.73706530002528,315,315,90.73706530002528,90.73706530002528,90.73706530002528,90.73706530002528,90.73706530002528,90.73706530002528,90.73706530002528,90.73706530002528,90.73706530002528,91.10347660002299,91.10347660002299,91.10347660002299,91.10347660002299,91.10347660002299,91.10347660002299,91.10347660002299,91.10347660002299,91.10347660002299,21,1,[0.001287799997953698],[0.03365479997592047],91.10347660002299,91.3052681000263,1000,91.3052681000263,1000,1000,1000,1000,1,num_2,0.49615150000317954,,20,7,2026-03-02_16h01.00.539,2026A_exp2,2022.2.4,59.86901855354456,
1,0,0.0,0.0,0,0,12,12,6,,,,,91.82071610001731,92.47151690002647,92.47151690002647,92.97260720000486,315,315,92.97260720000486,92.97260720000486,92.97260720000486,92.97260720000486,92.97260720000486,92.97260720000486,92.97260720000486,92.97260720000486,92.97260720000486,93.32237440001336,93.32237440001336,93.32237440001336,93.32237440001336,93.32237440001336,93.32237440001336,93.32237440001336,93.32237440001336,93.32237440001336,3,1,[0.05016310000792146],[0.35034649999579415],93.32237440001336,93.52240549999988,0.0,93.539133400016,0,0.0,0,1,1000,num_1,1.8625347999914084,,20,7,2026-03-02_16h01.00.539,2026A_exp2,2022.2.4,59.86901855354456,
1,0,0.0,0.0,0,0,13,13,85,,,,,95.42435470002238,96.07503010000801,96.07503010000801,96.55955340000219,45,45,96.55955340000219,96.55955340000219,96.55955340000219,96.55955340000219,96.55955340000219,96.55955340000219,96.55955340000219,96.55955340000219,96.55955340000219,96.92599410002003,96.92599410002003,96.92599410002003,96.92599410002003,96.92599410002003,96.92599410002003,96.92599410002003,96.92599410002003,96.92599410002003,0,1,[0.001215899974340573],[0.3673361999972258],96.92599410002003,97.12606590002542,0.0,97.12606590002542,0,0.0,0,1,1000,num_1,1.2353541000047699,,20,7,2026-03-02_16h01.00.539,2026A_exp2,2022.2.4,59.86901855354456,
1000,1,3.7,6.1,1,0,14,14,43,,,,,98.3773076000216,99.02804130001459,99.02804130001459,99.51254640001571,315,315,99.51254640001571,99.51254640001571,99.51254640001571,99.51254640001571,99.51254640001571,99.51254640001571,99.51254640001571,99.51254640001571,99.51254640001571,99.87868990001152,99.87868990001152,99.87868990001152,99.87868990001152,99.87868990001152,99.87868990001152,99.87868990001152,99.87868990001152,99.87868990001152,0,1,[0.001208100002259016],[0.366886700008763],99.87868990001152,100.0810437000182,1000,100.0810437000182,1000,1000,1000,1000,1,num_2,0.44019850000040606,,20,7,2026-03-02_16h01.00.539,2026A_exp2,2022.2.4,59.86901855354456,
0,0,3.7,3.7,1,0,15,15,62,,,,,100.54614610000863,101.19676920000347,101.19676920000347,101.69802750000963,315,315,101.69802750000963,101.69802750000963,101.69802750000963,101.69802750000963,101.69802750000963,101.69802750000963,101.69802750000963,101.69802750000963,101.69802750000963,102.06444730001385,102.06444730001385,102.06444730001385,102.06444730001385,102.06444730001385,102.06444730001385,102.06444730001385,102.06444730001385,102.06444730001385,0,1,[0.0012315000058151782],[0.367203600006178],102.06444730001385,102.26461680000648,3.7,102.26461680000648,0,3.7,1,0,1000,num_1,1.2159116999828257,,20,7,2026-03-02_16h01.00.539,2026A_exp2,2022.2.4,59.86901855354456,
1000,1,3.7,0.0,0,0,16,16,55,,,,,103.49898220002069,104.14967400001478,104.14967400001478,104.6343157000083,45,45,104.6343157000083,104.6343157000083,104.6343157000083,104.6343157000083,104.6343157000083,104.6343157000083,104.6343157000083,104.6343157000083,104.6343157000083,105.00074320001295,105.00074320001295,105.00074320001295,105.00074320001295,105.00074320001295,105.00074320001295,105.00074320001295,105.00074320001295,105.00074320001295,21,2,"[0.18332460001693107, 0.21717390001867898]","[0.20007240000995807, 0.23342900001443923]",105.00074320001295,105.2009786000126,1000,105.2009786000126,1000,1000,1000,1000,0,num_3,2.5204602999729104,,20,7,2026-03-02_16h01.00.539,2026A_exp2,2022.2.4,59.86901855354456,
1,0,6.1,6.1,1,0,17,17,49,,,,,107.73659040001803,108.38741090000258,108.38741090000258,108.88848100000178,315,315,108.88848100000178,108.88848100000178,108.88848100000178,108.88848100000178,108.88848100000178,108.88848100000178,108.88848100000178,108.88848100000178,108.88848100000178,109.25497010000981,109.25497010000981,109.25497010000981,109.25497010000981,109.25497010000981,109.25497010000981,109.25497010000981,109.25497010000981,109.25497010000981,0,1,[0.001206899993121624],[0.36719499999890104],109.25497010000981,109.45499080000445,6.1,109.45499080000445,1,6.1,1,1,1000,num_4,0.7222616999933962,,20,7,2026-03-02_16h01.00.539,2026A_exp2,2022.2.4,59.86901855354456,
1000,1,0.0,3.7,1,0,18,18,82,,,,,110.20601620001253,110.85657699999865,110.85657699999865,111.34104350002599,45,45,111.34104350002599,111.34104350002599,111.34104350002599,111.34104350002599,111.34104350002599,111.34104350002599,111.34104350002599,111.34104350002599,111.34104350002599,111.7073932000203,111.7073932000203,111.7073932000203,111.7073932000203,111.7073932000203,111.7073932000203,111.7073932000203,111.7073932000203,111.7073932000203,19,1,[0.0012360999826341867],[0.050348399992799386],111.7073932000203,111.90961709999829,1000,111.90961709999829,1000,1000,1000,1000,1,num_2,0.9072431999957189,,20,7,2026-03-02_16h01.00.539,2026A_exp2,2022.2.4,59.86901855354456,
1000,1,4.9,0.0,1,0,19,19,74,,,,,112.84188500000164,113.475757600012,113.475757600012,113.9768898000184,45,315,113.9768898000184,113.9768898000184,113.9768898000184,113.9768898000184,113.9768898000184,113.9768898000184,113.9768898000184,113.9768898000184,113.9768898000184,114.34339190000901,114.34339190000901,114.34339190000901,114.34339190000901,114.34339190000901,114.34339190000901,114.34339190000901,114.34339190000901,114.34339190000901,23,0,,,114.34339190000901,114.56160860002274,1000,114.56160860002274,1000,1000,1000,1000,1,num_2,1.4404287000070326,,20,7,2026-03-02_16h01.00.539,2026A_exp2,2022.2.4,59.86901855354456,
1000,1,0.0,6.1,0,0,20,20,27,,,,,116.0283374999999,116.67899549999856,116.67899549999856,117.18021240000962,45,45,117.18021240000962,117.18021240000962,117.18021240000962,117.18021240000962,117.18021240000962,117.18021240000962,117.18021240000962,117.18021240000962,117.18021240000962,117.52983820001828,117.52983820001828,117.52983820001828,117.52983820001828,117.52983820001828,117.52983820001828,117.52983820001828,117.52983820001828,117.52983820001828,0,1,[0.001214599993545562],[0.3506536000058986],117.52983820001828,117.73204230002011,1000,117.73204230002011,1000,1000,1000,1000,1,num_2,1.4774824999913108,,20,7,2026-03-02_16h01.00.539,2026A_exp2,2022.2.4,59.86901855354456,
0,0,0.0,4.9,1,0,21,21,0,,,,,119.23145870000008,119.88219689999823,119.88219689999823,120.38338600000134,45,45,120.38338600000134,120.38338600000134,120.38338600000134,120.38338600000134,120.38338600000134,120.38338600000134,120.38338600000134,120.38338600000134,120.38338600000134,120.74980360001791,120.74980360001791,120.74980360001791,120.74980360001791,120.74980360001791,120.74980360001791,120.74980360001791,120.74980360001791,120.74980360001791,0,1,[0.0011872000177390873],[0.36714270000811666],120.74980360001791,120.95012320001842,0.0,120.95012320001842,0,0.0,0,1,1000,num_1,1.1391535999719054,,20,7,2026-03-02_16h01.00.539,2026A_exp2,2022.2.4,59.86901855354456,
1,0,4.9,6.1,1,0,22,22,36,,,,,122.11764580002637,122.76841110002715,122.76841110002715,123.2527738000208,315,315,123.2527738000208,123.2527738000208,123.2527738000208,123.2527738000208,123.2527738000208,123.2527738000208,123.2527738000208,123.2527738000208,123.2527738000208,123.61933600000339,123.61933600000339,123.61933600000339,123.61933600000339,123.61933600000339,123.61933600000339,123.61933600000339,123.61933600000339,123.61933600000339,4,1,[0.06673489999957383],[0.36691529999370687],123.61933600000339,123.81955610000296,6.1,123.81955610000296,1,6.1,1,1,1000,num_4,1.0784281000087503,,20,7,2026-03-02_16h01.00.539,2026A_exp2,2022.2.4,59.86901855354456,
1,0,0.0,3.7,1,0,23,23,30,,,,,124.92041440002504,125.57137990000774,125.57137990000774,126.0556316000002,315,315,126.0556316000002,126.0556316000002,126.0556316000002,126.0556316000002,126.0556316000002,126.0556316000002,126.0556316000002,126.0556316000002,126.0556316000002,126.42206450001686,126.42206450001686,126.42206450001686,126.42206450001686,126.42206450001686,126.42206450001686,126.42206450001686,126.42206450001686,126.42206450001686,14,2,"[0.217140599997947, 0.31726830001571216]","[0.3003792999952566, 0.3672288999950979]",126.42206450001686,126.62222040002234,3.7,126.62222040002234,1,3.7,1,1,1000,num_4,1.4032937999872956,,20,7,2026-03-02_16h01.00.539,2026A_exp2,2022.2.4,59.86901855354456,
1,0,0.0,0.0,0,0,24,24,32,,,,,128.05687880000914,128.70769320000545,128.70769320000545,129.1920386000129,315,315,129.1920386000129,129.1920386000129,129.1920386000129,129.1920386000129,129.1920386000129,129.1920386000129,129.1920386000129,129.1920386000129,129.1920386000129,129.55857250001281,129.55857250001281,129.55857250001281,129.55857250001281,129.55857250001281,129.55857250001281,129.55857250001281,129.55857250001281,129.55857250001281,0,1,[0.0012253000168129802],[0.36720410000998527],129.55857250001281,129.75867940002354,0.0,129.75867940002354,1,0.0,0,0,1000,num_4,1.9704225999885239,,20,7,2026-03-02_16h01.00.539,2026A_exp2,2022.2.4,59.86901855354456,
1,0,3.7,0.0,0,0,25,25,9,,,,,131.76071070000762,132.41132770001423,132.41132770001423,132.89587080001365,315,315,132.89587080001365,132.89587080001365,132.89587080001365,132.89587080001365,132.89587080001365,132.89587080001365,132.89587080001365,132.89587080001365,132.89587080001365,133.26232070001424,133.26232070001424,133.26232070001424,133.26232070001424,133.26232070001424,133.26232070001424,133.26232070001424,133.26232070001424,133.26232070001424,0,1,[0.0013290999922901392],[0.3671660000109114],133.26232070001424,133.46239790000254,3.7,133.46239790000254,0,3.7,1,0,1000,num_1,1.114994800009299,,20,7,2026-03-02_16h01.00.539,2026A_exp2,2022.2.4,59.86901855354456,
1000,1,3.7,0.0,1,0,26,26,19,,,,,134.59684370001196,135.2476557000191,135.2476557000191,135.73206000000937,45,45,135.73206000000937,135.73206000000937,135.73206000000937,135.73206000000937,135.73206000000937,135.73206000000937,135.73206000000937,135.73206000000937,135.73206000000937,136.09835320001002,136.09835320001002,136.09835320001002,136.09835320001002,136.09835320001002,136.09835320001002,136.09835320001002,136.09835320001002,136.09835320001002,0,1,[0.0011986999888904393],[0.3673595000000205],136.09835320001002,136.30036560000735,1000,136.30036560000735,1000,1000,1000,1000,0,num_3,0.42895420000422746,,20,7,2026-03-02_16h01.00.539,2026A_exp2,2022.2.4,59.86901855354456,
0,0,0.0,0.0,1,0,27,27,80,,,,,136.74900410001283,137.39963910001097,137.39963910001097,137.9007655000023,315,45,137.9007655000023,137.9007655000023,137.9007655000023,137.9007655000023,137.9007655000023,137.9007655000023,137.9007655000023,137.9007655000023,137.9007655000023,138.26723000002676,138.26723000002676,138.26723000002676,138.26723000002676,138.26723000002676,138.26723000002676,138.26723000002676,138.26723000002676,138.26723000002676,23,0,,,138.26723000002676,138.46742760000052,0.0,138.46742760000052,1,0.0,0,0,1000,num_4,0.7583842999883927,,20,7,2026-03-02_16h01.00.539,2026A_exp2,2022.2.4,59.86901855354456,
1,0,6.1,0.0,0,0,28,28,51,,,,,139.25159880000865,139.9035652000166,139.9035652000166,140.38674159999937,45,45,140.38674159999937,140.38674159999937,140.38674159999937,140.38674159999937,140.38674159999937,140.38674159999937,140.38674159999937,140.38674159999937,140.38674159999937,140.75316260001273,140.75316260001273,140.75316260001273,140.75316260001273,140.75316260001273,140.75316260001273,140.75316260001273,140.75316260001273,140.75316260001273,0,1,[0.0014085000148043036],[0.36723990002064966],140.75316260001273,140.95336440001847,6.1,140.95336440001847,1,6.1,1,1,1000,num_4,0.7119988000195008,,20,7,2026-03-02_16h01.00.539,2026A_exp2,2022.2.4,59.86901855354456,
1000,1,3.7,0.0,1,0,29,29,38,,,,,141.6871582000167,142.3378624000179,142.3378624000179,142.82238240001607,45,315,142.82238240001607,142.82238240001607,142.82238240001607,142.82238240001607,142.82238240001607,142.82238240001607,142.82238240001607,142.82238240001607,142.82238240001607,143.1886583000014,143.1886583000014,143.1886583000014,143.1886583000014,143.1886583000014,143.1886583000014,143.1886583000014,143.1886583000014,143.1886583000014,23,0,,,143.1886583000014,143.38953280000715,1000,143.38953280000715,1000,1000,1000,1000,0,num_3,0.5312892000074498,,20,7,2026-03-02_16h01.00.539,2026A_exp2,2022.2.4,59.86901855354456,
1,0,6.1,3.7,1,0,30,30,16,,,,,143.9392945000145,144.59007940001902,144.59007940001902,145.0747268999985,45,315,145.0747268999985,145.0747268999985,145.0747268999985,145.0747268999985,145.0747268999985,145.0747268999985,145.0747268999985,145.0747268999985,145.0747268999985,145.44069700001273,145.44069700001273,145.44069700001273,145.44069700001273,145.44069700001273,145.44069700001273,145.44069700001273,145.44069700001273,145.44069700001273,3,2,"[0.0007391999824903905, 0.250932399998419]","[0.2003944999887608, 0.3672264000051655]",145.44069700001273,145.64089800001238,3.7,145.64089800001238,0,3.7,1,0,1000,num_1,1.0409167000034358,,20,7,2026-03-02_16h01.00.539,2026A_exp2,2022.2.4,59.86901855354456,
1000,1,0.0,4.9,1,0,31,31,72,,,,,146.7089590000105,147.3597447000211,147.3597447000211,147.84419510001317,45,315,147.84419510001317,147.84419510001317,147.84419510001317,147.84419510001317,147.84419510001317,147.84419510001317,147.84419510001317,147.84419510001317,147.84419510001317,148.21064320000005,148.21064320000005,148.21064320000005,148.21064320000005,148.21064320000005,148.21064320000005,148.21064320000005,148.21064320000005,148.21064320000005,0,1,[0.001248000015038997],[0.36745869999867864],148.21064320000005,148.41279590001795,1000,148.41279590001795,1000,1000,1000,1000,1,num_2,0.9317364000016823,,20,7,2026-03-02_16h01.00.539,2026A_exp2,2022.2.4,59.86901855354456,
1,0,0.0,0.0,1,0,32,32,66,,,,,149.36166130000493,150.01222390000476,150.01222390000476,150.51353620001464,315,45,150.51353620001464,150.51353620001464,150.51353620001464,150.51353620001464,150.51353620001464,150.51353620001464,150.51353620001464,150.51353620001464,150.51353620001464,150.87984990002587,150.87984990002587,150.87984990002587,150.87984990002587,150.87984990002587,150.87984990002587,150.87984990002587,150.87984990002587,150.87984990002587,0,1,[0.0012385000009089708],[0.3674108000122942],150.87984990002587,151.08015720002004,0.0,151.08015720002004,1,0.0,0,0,1000,num_4,0.8969222999876365,,20,7,2026-03-02_16h01.00.539,2026A_exp2,2022.2.4,59.86901855354456,
1000,1,3.7,0.0,0,0,33,33,81,,,,,151.99755910001113,152.6484815000149,152.6484815000149,153.14935410002363,45,45,153.14935410002363,153.14935410002363,153.14935410002363,153.14935410002363,153.14935410002363,153.14935410002363,153.14935410002363,153.14935410002363,153.14935410002363,153.49918610000168,153.49918610000168,153.49918610000168,153.49918610000168,153.49918610000168,153.49918610000168,153.49918610000168,153.49918610000168,153.49918610000168,3,3,"[0.0006599000189453363, 0.2675341000140179, 0.30097169999498874]","[0.2510346000199206, 0.2843347000016365, 0.3510655999998562]",153.49918610000168,153.70130549999885,1000,153.70130549999885,1000,1000,1000,1000,0,num_3,0.667852300015511,,20,7,2026-03-02_16h01.00.539,2026A_exp2,2022.2.4,59.86901855354456,
1000,1,4.9,0.0,0,0,34,34,37,,,,,154.39975710000726,155.05065380001906,155.05065380001906,155.55172220000532,315,315,155.55172220000532,155.55172220000532,155.55172220000532,155.55172220000532,155.55172220000532,155.55172220000532,155.55172220000532,155.55172220000532,155.55172220000532,155.9181426000141,155.9181426000141,155.9181426000141,155.9181426000141,155.9181426000141,155.9181426000141,155.9181426000141,155.9181426000141,155.9181426000141,0,1,[0.0011912000190932304],[0.3674790000077337],155.9181426000141,156.12007699999958,1000,156.12007699999958,1000,1000,1000,1000,0,num_3,0.45667430001776665,,20,7,2026-03-02_16h01.00.539,2026A_exp2,2022.2.4,59.86901855354456,
1000,1,0.0,0.0,1,0,35,35,34,,,,,156.60220860000118,157.25294289999874,157.25294289999874,157.7537854000111,45,45,157.7537854000111,157.7537854000111,157.7537854000111,157.7537854000111,157.7537854000111,157.7537854000111,157.7537854000111,157.7537854000111,157.7537854000111,158.1038124000188,158.1038124000188,158.1038124000188,158.1038124000188,158.1038124000188,158.1038124000188,158.1038124000188,158.1038124000188,158.1038124000188,0,1,[0.0007228000031318516],[0.3508966999943368],158.1038124000188,158.3061374000099,1000,158.3208173000021,1000,1000,1000,1000,0,num_3,0.5200144000118598,,20,7,2026-03-02_16h01.00.539,2026A_exp2,2022.2.4,59.86901855354456,
1000,1,6.1,4.9,1,0,36,36,15,,,,,158.87107870000182,159.52193390001776,159.52193390001776,160.02299730002414,45,45,160.02299730002414,160.02299730002414,160.02299730002414,160.02299730002414,160.02299730002414,160.02299730002414,160.02299730002414,160.02299730002414,160.02299730002414,160.37271580001106,160.37271580001106,160.37271580001106,160.37271580001106,160.37271580001106,160.37271580001106,160.37271580001106,160.37271580001106,160.37271580001106,0,1,[0.0009246999979950488],[0.35077520000049844],160.37271580001106,160.5746332000126,1000,160.58969820002676,1000,1000,1000,1000,1,num_2,0.43521399999735877,,20,7,2026-03-02_16h01.00.539,2026A_exp2,2022.2.4,59.86901855354456,
1000,1,0.0,0.0,1,0,37,37,88,,,,,161.04007920000004,161.6906818000134,161.6906818000134,162.1916841000202,315,45,162.1916841000202,162.1916841000202,162.1916841000202,162.1916841000202,162.1916841000202,162.1916841000202,162.1916841000202,162.1916841000202,162.1916841000202,162.55828830000246,162.55828830000246,162.55828830000246,162.55828830000246,162.55828830000246,162.55828830000246,162.55828830000246,162.55828830000246,162.55828830000246,15,1,[0.25048320001224056],[0.3670700000075158],162.55828830000246,162.75852820000728,1000,162.75852820000728,1000,1000,1000,1000,0,num_3,0.9781152999785263,,20,7,2026-03-02_16h01.00.539,2026A_exp2,2022.2.4,59.86901855354456,
1000,1,6.1,6.1,0,0,38,38,87,,,,,163.7596360000025,164.41002229999867,164.41002229999867,164.91122520001954,45,45,164.91122520001954,164.91122520001954,164.91122520001954,164.91122520001954,164.91122520001954,164.91122520001954,164.91122520001954,164.91122520001954,164.91122520001954,165.2775559000147,165.2775559000147,165.2775559000147,165.2775559000147,165.2775559000147,165.2775559000147,165.2775559000147,165.2775559000147,165.2775559000147,0,1,[0.001229099987540394],[0.36726199998520315],165.2775559000147,165.47972280002432,1000,165.47972280002432,1000,1000,1000,1000,1,num_2,0.6407757999841124,,20,7,2026-03-02_16h01.00.539,2026A_exp2,2022.2.4,59.86901855354456,
1,0,4.9,4.9,0,0,39,39,28,,,,,166.1450953000167,166.79580760002136,166.79580760002136,167.29685800001607,315,45,167.29685800001607,167.29685800001607,167.29685800001607,167.29685800001607,167.29685800001607,167.29685800001607,167.29685800001607,167.29685800001607,167.29685800001607,167.66330480002216,167.66330480002216,167.66330480002216,167.66330480002216,167.66330480002216,167.66330480002216,167.66330480002216,167.66330480002216,167.66330480002216,23,0,,,167.66330480002216,167.86343409999972,4.9,167.86343409999972,0,4.9,1,0,1000,num_1,1.2586103999929037,,20,7,2026-03-02_16h01.00.539,2026A_exp2,2022.2.4,59.86901855354456,
1,0,3.7,3.7,0,0,40,40,8,,,,,169.14803070001653,169.7987909000076,169.7987909000076,170.28326890000608,45,315,170.28326890000608,170.28326890000608,170.28326890000608,170.28326890000608,170.28326890000608,170.28326890000608,170.28326890000608,170.28326890000608,170.28326890000608,170.64958050000132,170.64958050000132,170.64958050000132,170.64958050000132,170.64958050000132,170.64958050000132,170.64958050000132,170.64958050000132,170.64958050000132,2,2,"[0.0011876999924425036, 0.3505581999779679]","[0.33377959998324513, 0.36724969997885637]",170.64958050000132,170.84978499999852,3.7,170.84978499999852,1,3.7,1,1,1000,num_4,0.8873778999841306,,20,7,2026-03-02_16h01.00.539,2026A_exp2,2022.2.4,59.86901855354456,
0,0,0.0,6.1,1,0,41,41,46,,,,,171.76733100001002,172.41807000001427,172.41807000001427,172.9024369000108,45,315,172.9024369000108,172.9024369000108,172.9024369000108,172.9024369000108,172.9024369000108,172.9024369000108,172.9024369000108,172.9024369000108,172.9024369000108,173.28567030001432,173.28567030001432,173.28567030001432,173.28567030001432,173.28567030001432,173.28567030001432,173.28567030001432,173.28567030001432,173.28567030001432,0,1,[0.0011990000202786177],[0.3833777000254486],173.28567030001432,173.4858424999984,0.0,173.4858424999984,0,0.0,0,1,1000,num_1,0.6523262999835424,,20,7,2026-03-02_16h01.00.539,2026A_exp2,2022.2.4,59.86901855354456,
0,0,6.1,6.1,1,0,42,42,48,,,,,174.16957530000946,174.82048190000933,174.82048190000933,175.32162870001048,315,45,175.32162870001048,175.32162870001048,175.32162870001048,175.32162870001048,175.32162870001048,175.32162870001048,175.32162870001048,175.32162870001048,175.32162870001048,175.67140479999944,175.67140479999944,175.67140479999944,175.67140479999944,175.67140479999944,175.67140479999944,175.67140479999944,175.67140479999944,175.67140479999944,0,1,[0.0012035999970976263],[0.3507073999790009],175.67140479999944,175.8715007000137,6.1,175.8882732000202,1,6.1,1,1,1000,num_4,1.2804655999934766,,20,7,2026-03-02_16h01.00.539,2026A_exp2,2022.2.4,59.86901855354456,
1000,1,3.7,0.0,1,0,43,43,52,,,,,177.18946470000083,177.8401545000088,177.8401545000088,178.32449180001277,45,45,178.32449180001277,178.32449180001277,178.32449180001277,178.32449180001277,178.32449180001277,178.32449180001277,178.32449180001277,178.32449180001277,178.32449180001277,178.7075195000216,178.7075195000216,178.7075195000216,178.7075195000216,178.7075195000216,178.7075195000216,178.7075195000216,178.7075195000216,178.7075195000216,0,1,[0.001193900010548532],[0.38387620000867173],178.7075195000216,178.9080722000217,1000,178.9080722000217,1000,1000,1000,1000,0,num_3,1.5253718000021763,,20,7,2026-03-02_16h01.00.539,2026A_exp2,2022.2.4,59.86901855354456,
1000,1,0.0,0.0,0,0,44,44,24,,,,,180.4595476000104,181.11017980001634,181.11017980001634,181.61120400001528,315,45,181.61120400001528,181.61120400001528,181.61120400001528,181.61120400001528,181.61120400001528,181.61120400001528,181.61120400001528,181.61120400001528,181.61120400001528,181.97764490000554,181.97764490000554,181.97764490000554,181.97764490000554,181.97764490000554,181.97764490000554,181.97764490000554,181.97764490000554,181.97764490000554,23,0,,,181.97764490000554,182.17974430002505,1000,182.17974430002505,1000,1000,1000,1000,1,num_2,0.5327477999962866,,20,7,2026-03-02_16h01.00.539,2026A_exp2,2022.2.4,59.86901855354456,
1000,1,0.0,0.0,0,0,45,45,2,,,,,182.72833780001383,183.37918630000786,183.37918630000786,183.8802066000062,315,315,183.8802066000062,183.8802066000062,183.8802066000062,183.8802066000062,183.8802066000062,183.8802066000062,183.8802066000062,183.8802066000062,183.8802066000062,184.24642900002073,184.24642900002073,184.24642900002073,184.24642900002073,184.24642900002073,184.24642900002073,184.24642900002073,184.24642900002073,184.24642900002073,16,2,"[0.25042349999421276, 0.3171931999968365]","[0.30046040000161156, 0.367105499986792]",184.24642900002073,184.44692040001974,1000,184.44692040001974,1000,1000,1000,1000,1,num_2,0.4262832999811508,,20,7,2026-03-02_16h01.00.539,2026A_exp2,2022.2.4,59.86901855354456,
1,0,3.7,0.0,0,0,46,46,3,,,,,184.8970696000033,185.53116060001776,185.53116060001776,186.03221670002677,45,315,186.03221670002677,186.03221670002677,186.03221670002677,186.03221670002677,186.03221670002677,186.03221670002677,186.03221670002677,186.03221670002677,186.03221670002677,186.39868600000045,186.39868600000045,186.39868600000045,186.39868600000045,186.39868600000045,186.39868600000045,186.39868600000045,186.39868600000045,186.39868600000045,10,1,[0.16705310001270846],[0.3671258999966085],186.39868600000045,186.59889670001576,3.7,186.59889670001576,0,3.7,1,0,1000,num_1,1.1950712999969255,,20,7,2026-03-02_16h01.00.539,2026A_exp2,2022.2.4,59.86901855354456,
0,0,4.9,0.0,1,0,47,47,26,,,,,187.81668400001945,188.4675032000232,188.4675032000232,188.96868160000304,315,315,188.96868160000304,188.96868160000304,188.96868160000304,188.96868160000304,188.96868160000304,188.96868160000304,188.96868160000304,188.96868160000304,188.96868160000304,189.31833180002286,189.31833180002286,189.31833180002286,189.31833180002286,189.31833180002286,189.31833180002286,189.31833180002286,189.31833180002286,189.31833180002286,0,1,[0.0009183000074699521],[0.35082859999965876],189.31833180002286,189.51864620001288,4.9,189.51864620001288,1,4.9,1,1,1000,num_4,0.8670210000127554,,20,7,2026-03-02_16h01.00.539,2026A_exp2,2022.2.4,59.86901855354456,
1,0,6.1,0.0,0,0,48,48,77,,,,,190.40264290000778,191.0533103000198,191.0533103000198,191.53778170002624,315,315,191.53778170002624,191.53778170002624,191.53778170002624,191.53778170002624,191.53778170002624,191.53778170002624,191.53778170002624,191.53778170002624,191.53778170002624,191.90459370001918,191.90459370001918,191.90459370001918,191.90459370001918,191.90459370001918,191.90459370001918,191.90459370001918,191.90459370001918,191.90459370001918,23,0,,,191.90459370001918,192.10448760000872,6.1,192.10448760000872,1,6.1,1,1,1000,num_4,0.7929313999775331,,20,7,2026-03-02_16h01.00.539,2026A_exp2,2022.2.4,59.86901855354456,
1,0,0.0,0.0,1,0,49,49,4,,,,,192.92196120001609,193.55583100000513,193.55583100000513,194.056920300005,315,315,194.056920300005,194.056920300005,194.056920300005,194.056920300005,194.056920300005,194.056920300005,194.056920300005,194.056920300005,194.056920300005,194.423463300016,194.423463300016,194.423463300016,194.423463300016,194.423463300016,194.423463300016,194.423463300016,194.423463300016,194.423463300016,23,0,,,194.423463300016,194.62354730002698,0.0,194.62354730002698,1,0.0,0,0,1000,num_4,0.9058249999943655,,20,7,2026-03-02_16h01.00.539,2026A_exp2,2022.2.4,59.86901855354456,
1000,1,4.9,0.0,0,0,50,50,45,,,,,195.55799880000995,196.1918215000187,196.1918215000187,196.69309410001733,45,315,196.69309410001733,196.69309410001733,196.69309410001733,196.69309410001733,196.69309410001733,196.69309410001733,196.69309410001733,196.69309410001733,196.69309410001733,197.05937220001942,197.05937220001942,197.05937220001942,197.05937220001942,197.05937220001942,197.05937220001942,197.05937220001942,197.05937220001942,197.05937220001942,23,0,,,197.05937220001942,197.26146230002632,1000,197.26146230002632,1000,1000,1000,1000,0,num_3,0.5153734000050463,,20,7,2026-03-02_16h01.00.539,2026A_exp2,2022.2.4,59.86901855354456,
1000,1,0.0,4.9,1,0,51,51,57,,,,,197.79338080002344,198.44416410001577,198.44416410001577,198.9451746000268,315,45,198.9451746000268,198.9451746000268,198.9451746000268,198.9451746000268,198.9451746000268,198.9451746000268,198.9451746000268,198.9451746000268,198.9451746000268,199.3116726000153,199.3116726000153,199.3116726000153,199.3116726000153,199.3116726000153,199.3116726000153,199.3116726000153,199.3116726000153,199.3116726000153,20,1,[0.33390170001075603],[0.36675100002321415],199.3116726000153,199.5139518000069,1000,199.5139518000069,1000,1000,1000,1000,1,num_2,0.43941110000014305,,20,7,2026-03-02_16h01.00.539,2026A_exp2,2022.2.4,59.86901855354456,
1000,1,0.0,3.7,0,0,52,52,50,,,,,199.9789423000184,200.6295901000267,200.6295901000267,201.13079540000763,45,45,201.13079540000763,201.13079540000763,201.13079540000763,201.13079540000763,201.13079540000763,201.13079540000763,201.13079540000763,201.13079540000763,201.13079540000763,201.49702730000718,201.49702730000718,201.49702730000718,201.49702730000718,201.49702730000718,201.49702730000718,201.49702730000718,201.49702730000718,201.49702730000718,23,0,,,201.49702730000718,201.69925440000952,1000,201.69925440000952,1000,1000,1000,1000,1,num_2,0.47027729998808354,,20,7,2026-03-02_16h01.00.539,2026A_exp2,2022.2.4,59.86901855354456,
1,0,0.0,0.0,1,0,53,53,59,,,,,202.19783240000834,202.8484839000157,202.8484839000157,203.3495976999984,45,45,203.3495976999984,203.3495976999984,203.3495976999984,203.3495976999984,203.3495976999984,203.3495976999984,203.3495976999984,203.3495976999984,203.3495976999984,203.71605909999926,203.71605909999926,203.71605909999926,203.71605909999926,203.71605909999926,203.71605909999926,203.71605909999926,203.71605909999926,203.71605909999926,0,1,[0.0011981999850831926],[0.36727019998943433],203.71605909999926,203.91631430000416,0.0,203.91631430000416,1,0.0,0,0,1000,num_4,1.0843842000176664,,20,7,2026-03-02_16h01.00.539,2026A_exp2,2022.2.4,59.86901855354456,
1000,1,6.1,0.0,0,0,54,54,21,,,,,205.0172780000139,205.66791410002043,205.66791410002043,206.15249910001876,315,45,206.15249910001876,206.15249910001876,206.15249910001876,206.15249910001876,206.15249910001876,206.15249910001876,206.15249910001876,206.15249910001876,206.15249910001876,206.51881180002238,206.51881180002238,206.51881180002238,206.51881180002238,206.51881180002238,206.51881180002238,206.51881180002238,206.51881180002238,206.51881180002238,23,0,,,206.51881180002238,206.72079000002122,1000,206.72079000002122,1000,1000,1000,1000,0,num_3,0.3919064000074286,,20,7,2026-03-02_16h01.00.539,2026A_exp2,2022.2.4,59.86901855354456,
0,0,0.0,0.0,1,0,55,55,14,,,,,207.13602270002593,207.78667120001046,207.78667120001046,208.28782030000002,315,45,208.28782030000002,208.28782030000002,208.28782030000002,208.28782030000002,208.28782030000002,208.28782030000002,208.28782030000002,208.28782030000002,208.28782030000002,208.65417200000957,208.65417200000957,208.65417200000957,208.65417200000957,208.65417200000957,208.65417200000957,208.65417200000957,208.65417200000957,208.65417200000957,0,1,[0.0012313000042922795],[0.3670764999988023],208.65417200000957,208.8547976000118,0.0,208.8547976000118,0,0.0,0,1,1000,num_1,1.6509546000161208,,20,7,2026-03-02_16h01.00.539,2026A_exp2,2022.2.4,59.86901855354456,
1,0,4.9,0.0,0,0,56,56,47,,,,,210.524012400012,211.1840688000084,211.1840688000084,211.69106510002166,315,315,211.69106510002166,211.69106510002166,211.69106510002166,211.69106510002166,211.69106510002166,211.69106510002166,211.69106510002166,211.69106510002166,211.69106510002166,212.04110160001437,212.04110160001437,212.04110160001437,212.04110160001437,212.04110160001437,212.04110160001437,212.04110160001437,212.04110160001437,212.04110160001437,0,1,[0.004542300011962652],[0.3635503000114113],212.04110160001437,212.24124540001503,4.9,212.24124540001503,1,4.9,1,1,1000,num_4,0.7038315999961924,,20,7,2026-03-02_16h01.00.539,2026A_exp2,2022.2.4,59.86901855354456,
0,0,6.1,4.9,1,0,57,57,42,,,,,212.97523310000543,213.6258202000172,213.6258202000172,214.11043700002483,315,45,214.11043700002483,214.11043700002483,214.11043700002483,214.11043700002483,214.11043700002483,214.11043700002483,214.11043700002483,214.11043700002483,214.11043700002483,214.47679190000053,214.47679190000053,214.47679190000053,214.47679190000053,214.47679190000053,214.47679190000053,214.47679190000053,214.47679190000053,214.47679190000053,23,0,,,214.47679190000053,214.6770308999985,6.1,214.6770308999985,1,6.1,1,1,1000,num_4,0.70776739998837,,20,7,2026-03-02_16h01.00.539,2026A_exp2,2022.2.4,59.86901855354456,
1,0,0.0,3.7,0,0,58,58,31,,,,,215.410913300002,216.06172389999847,216.06172389999847,216.5462155000132,45,315,216.5462155000132,216.5462155000132,216.5462155000132,216.5462155000132,216.5462155000132,216.5462155000132,216.5462155000132,216.5462155000132,216.5462155000132,216.91261240001768,216.91261240001768,216.91261240001768,216.91261240001768,216.91261240001768,216.91261240001768,216.91261240001768,216.91261240001768,216.91261240001768,11,3,"[0.001198899990413338, 0.23377829999662936, 0.3671348000061698]","[0.15026039999793284, 0.267206399992574, 0.367139700014377]",216.91261240001768,217.11241520001204,0.0,217.11241520001204,0,0.0,0,1,1000,num_1,0.8567689000046812,,20,7,2026-03-02_16h01.00.539,2026A_exp2,2022.2.4,59.86901855354456,
0,0,0.0,4.9,0,0,59,59,65,,,,,217.99735879999935,218.64758660001098,218.64758660001098,219.13215190000483,45,315,219.13215190000483,219.13215190000483,219.13215190000483,219.13215190000483,219.13215190000483,219.13215190000483,219.13215190000483,219.13215190000483,219.13215190000483,219.4984916000103,219.4984916000103,219.4984916000103,219.4984916000103,219.4984916000103,219.4984916000103,219.4984916000103,219.4984916000103,219.4984916000103,4,4,"[0.0012246999831404537, 0.03368239998235367, 0.1335618000011891, 0.3004660999868065]","[0.017436199996154755, 0.10029839997878298, 0.28371409999090247, 0.3668930999992881]",219.4984916000103,219.6985779000097,4.9,219.6985779000097,1,4.9,1,1,1000,num_4,0.5025180999946315,,20,7,2026-03-02_16h01.00.539,2026A_exp2,2022.2.4,59.86901855354456,
1000,1,3.7,0.0,1,0,60,60,78,,,,,220.23237760001211,220.88315290000173,220.88315290000173,221.367721800023,315,45,221.367721800023,221.367721800023,221.367721800023,221.367721800023,221.367721800023,221.367721800023,221.367721800023,221.367721800023,221.367721800023,221.73406760001672,221.73406760001672,221.73406760001672,221.73406760001672,221.73406760001672,221.73406760001672,221.73406760001672,221.73406760001672,221.73406760001672,0,1,[0.0012132000119891018],[0.36715400000684895],221.73406760001672,221.93594410002697,1000,221.93594410002697,1000,1000,1000,1000,0,num_3,0.497021399991354,,20,7,2026-03-02_16h01.00.539,2026A_exp2,2022.2.4,59.86901855354456,
1,0,0.0,3.7,0,0,61,61,64,,,,,222.45133190002525,223.10214329999872,223.10214329999872,223.6029611999984,45,45,223.6029611999984,223.6029611999984,223.6029611999984,223.6029611999984,223.6029611999984,223.6029611999984,223.6029611999984,223.6029611999984,223.6029611999984,223.96971860001213,223.96971860001213,223.96971860001213,223.96971860001213,223.96971860001213,223.96971860001213,223.96971860001213,223.96971860001213,223.96971860001213,0,1,[0.0007016000163275748],[0.36729470000136644],223.96971860001213,224.16990000000806,0.0,224.16990000000806,0,0.0,0,1,1000,num_1,0.943448099977104,,20,7,2026-03-02_16h01.00.539,2026A_exp2,2022.2.4,59.86901855354456,
1,0,4.9,4.9,1,0,62,62,18,,,,,225.13749550000648,225.78809529999853,225.78809529999853,226.27239530000952,315,45,226.27239530000952,226.27239530000952,226.27239530000952,226.27239530000952,226.27239530000952,226.27239530000952,226.27239530000952,226.27239530000952,226.27239530000952,226.63894450000953,226.63894450000953,226.63894450000953,226.63894450000953,226.63894450000953,226.63894450000953,226.63894450000953,226.63894450000953,226.63894450000953,23,0,,,226.63894450000953,226.83905120001873,4.9,226.83905120001873,0,4.9,1,0,1000,num_1,0.7622216000163462,,20,7,2026-03-02_16h01.00.539,2026A_exp2,2022.2.4,59.86901855354456,
1000,1,6.1,0.0,0,0,63,63,69,,,,,227.62293800001498,228.27392640002654,228.27392640002654,228.75819900000351,45,315,228.75819900000351,228.75819900000351,228.75819900000351,228.75819900000351,228.75819900000351,228.75819900000351,228.75819900000351,228.75819900000351,228.75819900000351,229.12460680000368,229.12460680000368,229.12460680000368,229.12460680000368,229.12460680000368,229.12460680000368,229.12460680000368,229.12460680000368,229.12460680000368,0,1,[0.0016428999952040613],[0.366871500009438],229.12460680000368,229.32712770000217,1000,229.32712770000217,1000,1000,1000,1000,0,num_3,0.2981902999745216,,20,7,2026-03-02_16h01.00.539,2026A_exp2,2022.2.4,59.86901855354456,
1000,1,3.7,4.9,0,0,64,64,25,,,,,229.64208850002615,230.2926241000241,230.2926241000241,230.79368910001358,315,315,230.79368910001358,230.79368910001358,230.79368910001358,230.79368910001358,230.79368910001358,230.79368910001358,230.79368910001358,230.79368910001358,230.79368910001358,231.14351270001498,231.14351270001498,231.14351270001498,231.14351270001498,231.14351270001498,231.14351270001498,231.14351270001498,231.14351270001498,231.14351270001498,0,1,[0.0011935999791603535],[0.350759900000412],231.14351270001498,231.34542460000375,1000,231.3604252000223,1000,1000,1000,1000,1,num_2,0.44811769999796525,,20,7,2026-03-02_16h01.00.539,2026A_exp2,2022.2.4,59.86901855354456,
1,0,0.0,3.7,0,0,65,65,76,,,,,231.82732850001776,232.4778559000115,232.4778559000115,232.96228120001615,45,315,232.96228120001615,232.96228120001615,232.96228120001615,232.96228120001615,232.96228120001615,232.96228120001615,232.96228120001615,232.96228120001615,232.96228120001615,233.32920540001942,233.32920540001942,233.32920540001942,233.32920540001942,233.32920540001942,233.32920540001942,233.32920540001942,233.32920540001942,233.32920540001942,0,1,[0.0011380999931134284],[0.3668725000170525],233.32920540001942,233.52924940001685,0.0,233.5457164000254,0,0.0,0,1,1000,num_1,0.6154149000067264,,20,7,2026-03-02_16h01.00.539,2026A_exp2,2022.2.4,59.86901855354456,
1,0,0.0,6.1,1,0,66,66,5,,,,,234.18112980001024,234.830672400014,234.830672400014,235.33180480002193,315,315,235.33180480002193,235.33180480002193,235.33180480002193,235.33180480002193,235.33180480002193,235.33180480002193,235.33180480002193,235.33180480002193,235.33180480002193,235.6980118000065,235.6980118000065,235.6980118000065,235.6980118000065,235.6980118000065,235.6980118000065,235.6980118000065,235.6980118000065,235.6980118000065,22,1,[0.3669252999825403],[0.3669281000038609],235.6980118000065,235.89837609999813,6.1,235.89837609999813,1,6.1,1,1,1000,num_4,0.7108851999801118,,20,7,2026-03-02_16h01.00.539,2026A_exp2,2022.2.4,59.86901855354456,
1,0,6.1,3.7,1,0,67,67,83,,,,,236.63274800000363,237.2829907000123,237.2829907000123,237.76724340001238,45,45,237.76724340001238,237.76724340001238,237.76724340001238,237.76724340001238,237.76724340001238,237.76724340001238,237.76724340001238,237.76724340001238,237.76724340001238,238.13435310000204,238.13435310000204,238.13435310000204,238.13435310000204,238.13435310000204,238.13435310000204,238.13435310000204,238.13435310000204,238.13435310000204,23,0,,,238.13435310000204,238.33418010000605,3.7,238.33418010000605,0,3.7,1,0,1000,num_1,0.6511217000079341,,20,7,2026-03-02_16h01.00.539,2026A_exp2,2022.2.4,59.86901855354456,
1000,1,0.0,3.7,1,0,68,68,1,,,,,239.00141700002132,239.65195170001243,239.65195170001243,240.1365974000073,315,315,240.1365974000073,240.1365974000073,240.1365974000073,240.1365974000073,240.1365974000073,240.1365974000073,240.1365974000073,240.1365974000073,240.1365974000073,240.50300970001263,240.50300970001263,240.50300970001263,240.50300970001263,240.50300970001263,240.50300970001263,240.50300970001263,240.50300970001263,240.50300970001263,4,1,[0.06649660001858138],[0.36692470000707544],240.50300970001263,240.70362939999904,1000,240.70362939999904,1000,1000,1000,1000,1,num_2,0.4015775000152644,,20,7,2026-03-02_16h01.00.539,2026A_exp2,2022.2.4,59.86901855354456,
1000,1,0.0,3.7,1,0,69,69,67,,,,,241.13665470000706,241.78706920001423,241.78706920001423,242.2718875000137,45,45,242.2718875000137,242.2718875000137,242.2718875000137,242.2718875000137,242.2718875000137,242.2718875000137,242.2718875000137,242.2718875000137,242.2718875000137,242.6380269000074,242.6380269000074,242.6380269000074,242.6380269000074,242.6380269000074,242.6380269000074,242.6380269000074,242.6380269000074,242.6380269000074,23,0,,,242.6380269000074,242.83921940001892,1000,242.83921940001892,1000,1000,1000,1000,1,num_2,0.4815893000049982,,20,7,2026-03-02_16h01.00.539,2026A_exp2,2022.2.4,59.86901855354456,
1,0,4.9,3.7,1,0,70,70,71,,,,,243.3392826000054,243.98972530002357,243.98972530002357,244.47401550001814,315,315,244.47401550001814,244.47401550001814,244.47401550001814,244.47401550001814,244.47401550001814,244.47401550001814,244.47401550001814,244.47401550001814,244.47401550001814,244.840425900009,244.840425900009,244.840425900009,244.840425900009,244.840425900009,244.840425900009,244.840425900009,244.840425900009,244.840425900009,23,0,,,244.840425900009,245.0407191000122,3.7,245.0407191000122,0,3.7,1,0,1000,num_1,0.5371203999966383,,20,7,2026-03-02_16h01.00.539,2026A_exp2,2022.2.4,59.86901855354456,
1000,1,0.0,0.0,0,0,71,71,13,,,,,245.60777700002654,246.25860720002674,246.25860720002674,246.74291520001134,315,315,246.74291520001134,246.74291520001134,246.74291520001134,246.74291520001134,246.74291520001134,246.74291520001134,246.74291520001134,246.74291520001134,246.74291520001134,247.10934819999966,247.10934819999966,247.10934819999966,247.10934819999966,247.10934819999966,247.10934819999966,247.10934819999966,247.10934819999966,247.10934819999966,0,1,[0.0011961999989580363],[0.36723000000347383],247.10934819999966,247.31196750001982,1000,247.31196750001982,1000,1000,1000,1000,0,num_3,0.6971631000051275,,20,7,2026-03-02_16h01.00.539,2026A_exp2,2022.2.4,59.86901855354456,
1000,1,4.9,0.0,1,0,72,72,84,,,,,248.02691200000118,248.67757960001472,248.67757960001472,249.1788358000049,45,45,249.1788358000049,249.1788358000049,249.1788358000049,249.1788358000049,249.1788358000049,249.1788358000049,249.1788358000049,249.1788358000049,249.1788358000049,249.54524150001816,249.54524150001816,249.54524150001816,249.54524150001816,249.54524150001816,249.54524150001816,249.54524150001816,249.54524150001816,249.54524150001816,0,1,[0.0011415999906603247],[0.3672484999988228],249.54524150001816,249.74714350001886,1000,249.74714350001886,1000,1000,1000,1000,0,num_3,0.5267825000046287,,20,7,2026-03-02_16h01.00.539,2026A_exp2,2022.2.4,59.86901855354456,
1000,1,0.0,0.0,0,0,73,73,79,,,,,250.29588879999937,250.94644100000733,250.94644100000733,251.44761339999968,315,315,251.44761339999968,251.44761339999968,251.44761339999968,251.44761339999968,251.44761339999968,251.44761339999968,251.44761339999968,251.44761339999968,251.44761339999968,251.8141926000244,251.8141926000244,251.8141926000244,251.8141926000244,251.8141926000244,251.8141926000244,251.8141926000244,251.8141926000244,251.8141926000244,0,1,[0.0012266999983694404],[0.36698160000378266],251.8141926000244,252.01588360001915,1000,252.01588360001915,1000,1000,1000,1000,1,num_2,0.7215835999813862,,20,7,2026-03-02_16h01.00.539,2026A_exp2,2022.2.4,59.86901855354456,
1,0,0.0,0.0,1,0,74,74,58,,,,,252.76528800002416,253.41570370001136,253.41570370001136,253.91687830002047,45,45,253.91687830002047,253.91687830002047,253.91687830002047,253.91687830002047,253.91687830002047,253.91687830002047,253.91687830002047,253.91687830002047,253.91687830002047,254.28322630000184,254.28322630000184,254.28322630000184,254.28322630000184,254.28322630000184,254.28322630000184,254.28322630000184,254.28322630000184,254.28322630000184,0,1,[0.000820100016426295],[0.3675701000029221],254.28322630000184,254.48343370002112,0.0,254.48343370002112,0,0.0,0,1,1000,num_1,0.9494305000116583,,20,7,2026-03-02_16h01.00.539,2026A_exp2,2022.2.4,59.86901855354456,
1,0,0.0,0.0,0,0,75,75,22,,,,,255.4509851000039,256.101593600004,256.101593600004,256.5861900000018,45,315,256.5861900000018,256.5861900000018,256.5861900000018,256.5861900000018,256.5861900000018,256.5861900000018,256.5861900000018,256.5861900000018,256.5861900000018,256.95262190001085,256.95262190001085,256.95262190001085,256.95262190001085,256.95262190001085,256.95262190001085,256.95262190001085,256.95262190001085,256.95262190001085,22,1,[0.06678629998350516],[0.08350459998473525],256.95262190001085,257.15277650000644,0.0,257.15277650000644,0,0.0,0,1,1000,num_1,1.4883323999820277,,20,7,2026-03-02_16h01.00.539,2026A_exp2,2022.2.4,59.86901855354456,
1,0,0.0,0.0,1,0,76,76,20,,,,,258.67104000001564,259.30507810000563,259.30507810000563,259.80625040002633,45,315,259.80625040002633,259.80625040002633,259.80625040002633,259.80625040002633,259.80625040002633,259.80625040002633,259.80625040002633,259.80625040002633,259.80625040002633,260.1724585000193,260.1724585000193,260.1724585000193,260.1724585000193,260.1724585000193,260.1724585000193,260.1724585000193,260.1724585000193,260.1724585000193,23,0,,,260.1724585000193,260.3727230000077,0.0,260.3727230000077,0,0.0,0,1,1000,num_1,0.7086859999981243,,20,7,2026-03-02_16h01.00.539,2026A_exp2,2022.2.4,59.86901855354456,
1000,1,0.0,0.0,1,0,77,77,44,,,,,261.10668409999926,261.75745510001434,261.75745510001434,262.24188830002095,45,45,262.24188830002095,262.24188830002095,262.24188830002095,262.24188830002095,262.24188830002095,262.24188830002095,262.24188830002095,262.24188830002095,262.24188830002095,262.6082979000057,262.6082979000057,262.6082979000057,262.6082979000057,262.6082979000057,262.6082979000057,262.6082979000057,262.6082979000057,262.6082979000057,23,0,,,262.6082979000057,262.8104561000073,1000,262.8104561000073,1000,1000,1000,1000,0,num_3,0.5190006000048015,,20,7,2026-03-02_16h01.00.539,2026A_exp2,2022.2.4,59.86901855354456,
0,0,0.0,4.9,1,0,78,78,33,,,,,263.35889390000375,264.00976840002113,264.00976840002113,264.5107840000128,45,45,264.5107840000128,264.5107840000128,264.5107840000128,264.5107840000128,264.5107840000128,264.5107840000128,264.5107840000128,264.5107840000128,264.5107840000128,264.8772934000008,264.8772934000008,264.8772934000008,264.8772934000008,264.8772934000008,264.8772934000008,264.8772934000008,264.8772934000008,264.8772934000008,0,1,[0.0012057999847456813],[0.36724819999653846],264.8772934000008,265.07734250000794,0.0,265.07734250000794,0,0.0,0,1,1000,num_1,1.1403671999869402,,20,7,2026-03-02_16h01.00.539,2026A_exp2,2022.2.4,59.86901855354456,
1000,1,0.0,0.0,1,0,79,79,35,,,,,266.24501220000093,266.8959084000089,266.8959084000089,267.38030040002195,315,45,267.38030040002195,267.38030040002195,267.38030040002195,267.38030040002195,267.38030040002195,267.38030040002195,267.38030040002195,267.38030040002195,267.38030040002195,267.7468477000075,267.7468477000075,267.7468477000075,267.7468477000075,267.7468477000075,267.7468477000075,267.7468477000075,267.7468477000075,267.7468477000075,23,0,,,267.7468477000075,267.9490534000215,1000,267.9490534000215,1000,1000,1000,1000,1,num_2,1.124238200020045,,20,7,2026-03-02_16h01.00.539,2026A_exp2,2022.2.4,59.86901855354456,
1000,1,6.1,4.9,1,0,80,80,86,,,,,269.0979977000097,269.74867830000585,269.74867830000585,270.24973050001427,45,45,270.24973050001427,270.24973050001427,270.24973050001427,270.24973050001427,270.24973050001427,270.24973050001427,270.24973050001427,270.24973050001427,270.24973050001427,270.6162394999992,270.6162394999992,270.6162394999992,270.6162394999992,270.6162394999992,270.6162394999992,270.6162394999992,270.6162394999992,270.6162394999992,0,1,[0.0013248999894130975],[0.3672789999982342],270.6162394999992,270.81857400000445,1000,270.81857400000445,1000,1000,1000,1000,0,num_3,0.3838936999964062,,20,7,2026-03-02_16h01.00.539,2026A_exp2,2022.2.4,59.86901855354456,
1,0,6.1,6.1,0,0,81,81,89,,,,,271.2336490000016,271.8839397999982,271.8839397999982,272.38532770000165,315,45,272.38532770000165,272.38532770000165,272.38532770000165,272.38532770000165,272.38532770000165,272.38532770000165,272.38532770000165,272.38532770000165,272.38532770000165,272.75179490001756,272.75179490001756,272.75179490001756,272.75179490001756,272.75179490001756,272.75179490001756,272.75179490001756,272.75179490001756,272.75179490001756,18,1,[0.30023720001918264],[0.36711200000718236],272.75179490001756,272.9518728000112,6.1,272.9518728000112,1,6.1,1,1,1000,num_4,0.9931448999850545,,20,7,2026-03-02_16h01.00.539,2026A_exp2,2022.2.4,59.86901855354456,
1,0,3.7,0.0,0,0,82,82,7,,,,,273.96952110002167,274.6201536000008,274.6201536000008,275.12131220000447,315,45,275.12131220000447,275.12131220000447,275.12131220000447,275.12131220000447,275.12131220000447,275.12131220000447,275.12131220000447,275.12131220000447,275.12131220000447,275.4878344000026,275.4878344000026,275.4878344000026,275.4878344000026,275.4878344000026,275.4878344000026,275.4878344000026,275.4878344000026,275.4878344000026,0,1,[0.0012026000185869634],[0.36724670001422055],275.4878344000026,275.6880042000266,3.7,275.6880042000266,1,3.7,1,1,1000,num_4,1.8418834000185598,,20,7,2026-03-02_16h01.00.539,2026A_exp2,2022.2.4,59.86901855354456,
1,0,0.0,0.0,0,0,83,83,39,,,,,277.5565056000196,278.2071247000131,278.2071247000131,278.69157070000074,45,315,278.69157070000074,278.69157070000074,278.69157070000074,278.69157070000074,278.69157070000074,278.69157070000074,278.69157070000074,278.69157070000074,278.69157070000074,279.0581963000004,279.0581963000004,279.0581963000004,279.0581963000004,279.0581963000004,279.0581963000004,279.0581963000004,279.0581963000004,279.0581963000004,0,1,[0.0011989999911747873],[0.3673615999869071],279.0581963000004,279.2582218000025,0.0,279.2582218000025,0,0.0,0,1,1000,num_1,1.079433600010816,,20,7,2026-03-02_16h01.00.539,2026A_exp2,2022.2.4,59.86901855354456,
1,0,0.0,0.0,0,0,84,84,61,,,,,280.3593530000071,281.01001769999857,281.01001769999857,281.49447990002227,315,45,281.49447990002227,281.49447990002227,281.49447990002227,281.49447990002227,281.49447990002227,281.49447990002227,281.49447990002227,281.49447990002227,281.49447990002227,281.8607157000224,281.8607157000224,281.8607157000224,281.8607157000224,281.8607157000224,281.8607157000224,281.8607157000224,281.8607157000224,281.8607157000224,0,1,[0.001193300005979836],[0.3674052999995183],281.8607157000224,282.06099250001716,0.0,282.06099250001716,0,0.0,0,1,1000,num_1,1.7562152000027709,,20,7,2026-03-02_16h01.00.539,2026A_exp2,2022.2.4,59.86901855354456,
1000,1,6.1,6.1,1,0,85,85,53,,,,,283.8462550000113,284.49686080001993,284.49686080001993,284.98128880001605,315,45,284.98128880001605,284.98128880001605,284.98128880001605,284.98128880001605,284.98128880001605,284.98128880001605,284.98128880001605,284.98128880001605,284.98128880001605,285.34765200002585,285.34765200002585,285.34765200002585,285.34765200002585,285.34765200002585,285.34765200002585,285.34765200002585,285.34765200002585,285.34765200002585,0,1,[0.0011952000204473734],[0.3671899000182748],285.34765200002585,285.54952610001783,1000,285.54952610001783,1000,1000,1000,1000,0,num_3,0.5154141000239179,,20,7,2026-03-02_16h01.00.539,2026A_exp2,2022.2.4,59.86901855354456,
0,0,4.9,6.1,1,0,86,86,70,,,,,286.0819010999985,286.73244680001517,286.73244680001517,287.23352340000565,315,315,287.23352340000565,287.23352340000565,287.23352340000565,287.23352340000565,287.23352340000565,287.23352340000565,287.23352340000565,287.23352340000565,287.23352340000565,287.59993890000624,287.59993890000624,287.59993890000624,287.59993890000624,287.59993890000624,287.59993890000624,287.59993890000624,287.59993890000624,287.59993890000624,23,0,,,287.59993890000624,287.8001292000117,4.9,287.8001292000117,0,4.9,1,0,1000,num_1,0.937371100008022,,20,7,2026-03-02_16h01.00.539,2026A_exp2,2022.2.4,59.86901855354456,
1000,1,4.9,0.0,1,0,87,87,56,,,,,288.767665899999,289.418338700023,289.418338700023,289.9028428000165,315,45,289.9028428000165,289.9028428000165,289.9028428000165,289.9028428000165,289.9028428000165,289.9028428000165,289.9028428000165,289.9028428000165,289.9028428000165,290.26933110001846,290.26933110001846,290.26933110001846,290.26933110001846,290.26933110001846,290.26933110001846,290.26933110001846,290.26933110001846,290.26933110001846,23,0,,,290.26933110001846,290.47134509999887,1000,290.47134509999887,1000,1000,1000,1000,0,num_3,0.4100228000024799,,20,7,2026-03-02_16h01.00.539,2026A_exp2,2022.2.4,59.86901855354456,
1,0,3.7,3.7,0,0,88,88,60,,,,,290.9033743000182,291.55386930002715,291.55386930002715,292.0548821000266,45,315,292.0548821000266,292.0548821000266,292.0548821000266,292.0548821000266,292.0548821000266,292.0548821000266,292.0548821000266,292.0548821000266,292.0548821000266,292.4213606000121,292.4213606000121,292.4213606000121,292.4213606000121,292.4213606000121,292.4213606000121,292.4213606000121,292.4213606000121,292.4213606000121,23,0,,,292.4213606000121,292.6214973000169,3.7,292.6214973000169,0,3.7,1,0,1000,num_1,0.6990247000067029,,20,7,2026-03-02_16h01.00.539,2026A_exp2,2022.2.4,59.86901855354456,
1,0,3.7,6.1,1,0,89,89,75,,,,,293.3390479000227,293.98955460000434,293.98955460000434,294.47399480000604,315,315,294.47399480000604,294.47399480000604,294.47399480000604,294.47399480000604,294.47399480000604,294.47399480000604,294.47399480000604,294.47399480000604,294.47399480000604,294.840414300008,294.840414300008,294.840414300008,294.840414300008,294.840414300008,294.840414300008,294.840414300008,294.840414300008,294.840414300008,13,1,[0.0012326000141911209],[0.1671148000168614],294.840414300008,295.0406822000223,6.1,295.0406822000223,1,6.1,1,1,1000,num_4,0.6412741999956779,,20,7,2026-03-02_16h01.00.539,2026A_exp2,2022.2.4,59.86901855354456,
,,,,,,,,,,,,,,,,,,,,,,,,,,,,,,,,,,,,,,,,,,,,,,,,,,,,295.7271764000179,,,,,,,
