validity,detectorcomp,contrastCW,contrastCCW,precueCWorCCW,block_80trials.thisRepN,block_80trials.thisTrialN,block_80trials.thisN,block_80trials.thisIndex,etRecord.started,etRecord.stopped,text.started,text.stopped,text_4.started,text_4.stopped,text_6.started,text_6.stopped,oriCW,oriCCW,roi_2.started,grating_UR.started,grating_UL.started,grating_LR.started,grating_LL.started,noise_UR.started,noise_UL.started,noise_LR.started,noise_LL.started,roi_2.stopped,grating_UR.stopped,grating_UL.stopped,grating_LR.stopped,grating_LL.stopped,noise_UR.stopped,noise_UL.stopped,noise_LR.stopped,noise_LL.stopped,outframe,roi_2.numLooks,roi_2.timesOn,roi_2.timesOff,text_2.started,text_2.stopped,probedcontrast,key_resp.started,respdetect,relevantContrast,correctDetect,TorFdetect,respCWorCCW,key_resp.keys,key_resp.rt,feedback_display_.started,participantNo,blockNo,date,expName,psychopyVersion,frameRate,
1000,1,3.7,3.7,0,0,0,0,76,7.409998215734959e-05,7.409998215734959e-05,48.3576726000756,50.362198600079864,50.362198600079864,50.99532290012576,50.99532290012576,51.51649329997599,45,315,51.51649329997599,51.51649329997599,51.51649329997599,51.51649329997599,51.51649329997599,51.51649329997599,51.51649329997599,51.51649329997599,51.51649329997599,51.86210350017063,51.86210350017063,51.86210350017063,51.86210350017063,51.86210350017063,51.86210350017063,51.86210350017063,51.86210350017063,51.86210350017063,5,1,[0.000901699997484684],[0.30018620006740093],51.86210350017063,52.06289339996874,1000,52.06289339996874,1000,1000,1000,1000,0,num_3,0.5606947001069784,,32,14,2026-03-12_16h25.48.432,2026A_exp2,2022.2.4,59.9507804392701,
1000,1,0.0,0.0,0,0,1,1,33,,,,,52.64623980014585,53.297040899982676,53.297040899982676,53.781347300158814,315,45,53.781347300158814,53.781347300158814,53.781347300158814,53.781347300158814,53.781347300158814,53.781347300158814,53.781347300158814,53.781347300158814,53.781347300158814,54.147766300011426,54.147766300011426,54.147766300011426,54.147766300011426,54.147766300011426,54.147766300011426,54.147766300011426,54.147766300011426,54.147766300011426,16,5,"[0.06689150002785027, 0.16696820012293756, 0.20047989999875426, 0.23373590013943613, 0.35052790003828704]","[0.11701719998382032, 0.18368470016866922, 0.2168521999847144, 0.25042650010436773, 0.36720750015228987]",54.147766300011426,54.34987449995242,1000,54.34987449995242,1000,1000,1000,1000,0,num_3,0.7060700000729412,,32,14,2026-03-12_16h25.48.432,2026A_exp2,2022.2.4,59.9507804392701,
1000,1,3.7,0.0,1,0,2,2,54,,,,,55.08205409999937,55.73267569998279,55.73267569998279,56.23372290004045,315,45,56.23372290004045,56.23372290004045,56.23372290004045,56.23372290004045,56.23372290004045,56.23372290004045,56.23372290004045,56.23372290004045,56.23372290004045,56.60037590004504,56.60037590004504,56.60037590004504,56.60037590004504,56.60037590004504,56.60037590004504,56.60037590004504,56.60037590004504,56.60037590004504,23,0,,,56.60037590004504,56.800757999997586,1000,56.800757999997586,1000,1000,1000,1000,0,num_3,0.2630600000265986,,32,14,2026-03-12_16h25.48.432,2026A_exp2,2022.2.4,59.9507804392701,
1000,1,4.9,6.1,0,0,3,3,35,,,,,57.08410009997897,57.73460049997084,57.73460049997084,58.235781399998814,315,315,58.235781399998814,58.235781399998814,58.235781399998814,58.235781399998814,58.235781399998814,58.235781399998814,58.235781399998814,58.235781399998814,58.235781399998814,58.60225130012259,58.60225130012259,58.60225130012259,58.60225130012259,58.60225130012259,58.60225130012259,58.60225130012259,58.60225130012259,58.60225130012259,23,0,,,58.60225130012259,58.803887499962,1000,58.803887499962,1000,1000,1000,1000,1,num_2,0.5809925999492407,,32,14,2026-03-12_16h25.48.432,2026A_exp2,2022.2.4,59.9507804392701,
1,0,0.0,4.9,1,0,4,4,2,,,,,59.40313720004633,60.05367680010386,60.05367680010386,60.55475610005669,45,45,60.55475610005669,60.55475610005669,60.55475610005669,60.55475610005669,60.55475610005669,60.55475610005669,60.55475610005669,60.55475610005669,60.55475610005669,60.92111790017225,60.92111790017225,60.92111790017225,60.92111790017225,60.92111790017225,60.92111790017225,60.92111790017225,60.92111790017225,60.92111790017225,23,0,,,60.92111790017225,61.12137349997647,4.9,61.12137349997647,0,4.9,1,0,1000,num_1,0.5114044998772442,,32,14,2026-03-12_16h25.48.432,2026A_exp2,2022.2.4,59.9507804392701,
0,0,6.1,0.0,0,0,5,5,65,,,,,61.655182000016794,62.30579939996824,62.30579939996824,62.790308700175956,315,315,62.790308700175956,62.790308700175956,62.790308700175956,62.790308700175956,62.790308700175956,62.790308700175956,62.790308700175956,62.790308700175956,62.790308700175956,63.156712300144136,63.156712300144136,63.156712300144136,63.156712300144136,63.156712300144136,63.156712300144136,63.156712300144136,63.156712300144136,63.156712300144136,23,0,,,63.156712300144136,63.35693300003186,0.0,63.35693300003186,0,0.0,0,1,1000,num_1,5.516053300118074,,32,14,2026-03-12_16h25.48.432,2026A_exp2,2022.2.4,59.9507804392701,
1,0,6.1,4.9,1,0,6,6,38,,,,,68.89578280015849,69.54644470009953,69.54644470009953,70.03090070001781,315,45,70.03090070001781,70.03090070001781,70.03090070001781,70.03090070001781,70.03090070001781,70.03090070001781,70.03090070001781,70.03090070001781,70.03090070001781,70.3973672001157,70.3973672001157,70.3973672001157,70.3973672001157,70.3973672001157,70.3973672001157,70.3973672001157,70.3973672001157,70.3973672001157,10,3,"[0.001243300037458539, 0.06688440009020269, 0.1003235001116991]","[0.017355200136080384, 0.08349580015055835, 0.28378530009649694]",70.3973672001157,70.59753579995595,4.9,70.59753579995595,1,4.9,1,1,1000,num_4,1.562356400070712,,32,14,2026-03-12_16h25.48.432,2026A_exp2,2022.2.4,59.9507804392701,
1,0,0.0,0.0,1,0,7,7,24,,,,,72.1822510000784,72.83316130004823,72.83316130004823,73.31756860017776,45,315,73.31756860017776,73.31756860017776,73.31756860017776,73.31756860017776,73.31756860017776,73.31756860017776,73.31756860017776,73.31756860017776,73.31756860017776,73.68383059999906,73.68383059999906,73.68383059999906,73.68383059999906,73.68383059999906,73.68383059999906,73.68383059999906,73.68383059999906,73.68383059999906,23,0,,,73.68383059999906,73.88418240007013,0.0,73.88418240007013,0,0.0,0,1,1000,num_1,0.7397167000453919,,32,14,2026-03-12_16h25.48.432,2026A_exp2,2022.2.4,59.9507804392701,
1,0,0.0,0.0,0,0,8,8,87,,,,,74.651407700032,75.30229880008847,75.30229880008847,75.7865508000832,315,315,75.7865508000832,75.7865508000832,75.7865508000832,75.7865508000832,75.7865508000832,75.7865508000832,75.7865508000832,75.7865508000832,75.7865508000832,76.15312370005995,76.15312370005995,76.15312370005995,76.15312370005995,76.15312370005995,76.15312370005995,76.15312370005995,76.15312370005995,76.15312370005995,8,2,"[0.0012083000037819147, 0.26695889979600906]","[0.20025599980726838, 0.31705880002118647]",76.15312370005995,76.35319890012033,0.0,76.35319890012033,0,0.0,0,1,1000,num_1,0.782991899875924,,32,14,2026-03-12_16h25.48.432,2026A_exp2,2022.2.4,59.9507804392701,
1,0,3.7,4.9,0,0,9,9,70,,,,,77.15397520014085,77.80462580011226,77.80462580011226,78.28921360010281,315,315,78.28921360010281,78.28921360010281,78.28921360010281,78.28921360010281,78.28921360010281,78.28921360010281,78.28921360010281,78.28921360010281,78.28921360010281,78.65562590002082,78.65562590002082,78.65562590002082,78.65562590002082,78.65562590002082,78.65562590002082,78.65562590002082,78.65562590002082,78.65562590002082,23,0,,,78.65562590002082,78.8556878999807,3.7,78.8556878999807,1,3.7,1,1,1000,num_4,0.5687217998784035,,32,14,2026-03-12_16h25.48.432,2026A_exp2,2022.2.4,59.9507804392701,
1,0,0.0,3.7,1,0,10,10,83,,,,,79.45635979995131,80.0902303000912,80.0902303000912,80.59141620015725,45,315,80.59141620015725,80.59141620015725,80.59141620015725,80.59141620015725,80.59141620015725,80.59141620015725,80.59141620015725,80.59141620015725,80.59141620015725,80.95802340004593,80.95802340004593,80.95802340004593,80.95802340004593,80.95802340004593,80.95802340004593,80.95802340004593,80.95802340004593,80.95802340004593,9,1,[0.0012072001118212938],[0.23383569996804],80.95802340004593,81.15785189997405,3.7,81.15785189997405,0,3.7,1,0,1000,num_1,0.45862060016952455,,32,14,2026-03-12_16h25.48.432,2026A_exp2,2022.2.4,59.9507804392701,
1000,1,0.0,0.0,1,0,11,11,80,,,,,81.64184139994904,82.27575849997811,82.27575849997811,82.77708810009062,315,315,82.77708810009062,82.77708810009062,82.77708810009062,82.77708810009062,82.77708810009062,82.77708810009062,82.77708810009062,82.77708810009062,82.77708810009062,83.14324060012586,83.14324060012586,83.14324060012586,83.14324060012586,83.14324060012586,83.14324060012586,83.14324060012586,83.14324060012586,83.14324060012586,7,1,[0.017704299883916974],[0.2843237998895347],83.14324060012586,83.3448695000261,1000,83.3448695000261,1000,1000,1000,1000,0,num_3,0.6075374998617917,,32,14,2026-03-12_16h25.48.432,2026A_exp2,2022.2.4,59.9507804392701,
1000,1,0.0,0.0,1,0,12,12,72,,,,,83.9773977000732,84.62827640003525,84.62827640003525,85.12919000000693,315,45,85.12919000000693,85.12919000000693,85.12919000000693,85.12919000000693,85.12919000000693,85.12919000000693,85.12919000000693,85.12919000000693,85.12919000000693,85.49575550016016,85.49575550016016,85.49575550016016,85.49575550016016,85.49575550016016,85.49575550016016,85.49575550016016,85.49575550016016,85.49575550016016,15,1,[0.001601500203832984],[0.13349490007385612],85.49575550016016,85.69758999999613,1000,85.69758999999613,1000,1000,1000,1000,0,num_3,0.39888640004210174,,32,14,2026-03-12_16h25.48.432,2026A_exp2,2022.2.4,59.9507804392701,
1,0,0.0,4.9,1,0,13,13,44,,,,,86.11294690007344,86.76360960002057,86.76360960002057,87.26469980017282,315,315,87.26469980017282,87.26469980017282,87.26469980017282,87.26469980017282,87.26469980017282,87.26469980017282,87.26469980017282,87.26469980017282,87.26469980017282,87.63103689998388,87.63103689998388,87.63103689998388,87.63103689998388,87.63103689998388,87.63103689998388,87.63103689998388,87.63103689998388,87.63103689998388,23,0,,,87.63103689998388,87.83155420003459,4.9,87.83155420003459,1,4.9,1,1,1000,num_4,0.5202444000169635,,32,14,2026-03-12_16h25.48.432,2026A_exp2,2022.2.4,59.9507804392701,
1,0,0.0,6.1,1,0,14,14,17,,,,,88.38176430016756,89.03264470002614,89.03264470002614,89.51748040015809,315,45,89.51748040015809,89.51748040015809,89.51748040015809,89.51748040015809,89.51748040015809,89.51748040015809,89.51748040015809,89.51748040015809,89.51748040015809,89.88320160005242,89.88320160005242,89.88320160005242,89.88320160005242,89.88320160005242,89.88320160005242,89.88320160005242,89.88320160005242,89.88320160005242,7,2,"[0.0008517000824213028, 0.2502651000395417]","[0.23338250000961125, 0.2832479001954198]",89.88320160005242,90.08375870017335,6.1,90.08375870017335,1,6.1,1,1,1000,num_4,0.31653590011410415,,32,14,2026-03-12_16h25.48.432,2026A_exp2,2022.2.4,59.9507804392701,
0,0,3.7,0.0,0,0,15,15,16,,,,,90.41713680000976,91.06789690000005,91.06789690000005,91.55241780006327,315,45,91.55241780006327,91.55241780006327,91.55241780006327,91.55241780006327,91.55241780006327,91.55241780006327,91.55241780006327,91.55241780006327,91.55241780006327,91.91926640016027,91.91926640016027,91.91926640016027,91.91926640016027,91.91926640016027,91.91926640016027,91.91926640016027,91.91926640016027,91.91926640016027,22,1,[0.03337190020829439],[0.05009930022060871],91.91926640016027,92.11908720014617,0.0,92.11908720014617,0,0.0,0,1,1000,num_1,0.6817181999795139,,32,14,2026-03-12_16h25.48.432,2026A_exp2,2022.2.4,59.9507804392701,
1,0,0.0,6.1,0,0,16,16,3,,,,,92.81949810008518,93.47037460003048,93.47037460003048,93.95452310005203,315,315,93.95452310005203,93.95452310005203,93.95452310005203,93.95452310005203,93.95452310005203,93.95452310005203,93.95452310005203,93.95452310005203,93.95452310005203,94.32127910014242,94.32127910014242,94.32127910014242,94.32127910014242,94.32127910014242,94.32127910014242,94.32127910014242,94.32127910014242,94.32127910014242,23,0,,,94.32127910014242,94.52152250008658,0.0,94.52152250008658,0,0.0,0,1,1000,num_1,0.5909978998824954,,32,14,2026-03-12_16h25.48.432,2026A_exp2,2022.2.4,59.9507804392701,
0,0,0.0,6.1,0,0,17,17,30,,,,,95.14033660013229,95.7893753000535,95.7893753000535,96.29048780002631,45,315,96.29048780002631,96.29048780002631,96.29048780002631,96.29048780002631,96.29048780002631,96.29048780002631,96.29048780002631,96.29048780002631,96.29048780002631,96.65687680011615,96.65687680011615,96.65687680011615,96.65687680011615,96.65687680011615,96.65687680011615,96.65687680011615,96.65687680011615,96.65687680011615,0,1,[0.00124040013179183],[0.36709650000557303],96.65687680011615,96.85707280016504,6.1,96.85707280016504,1,6.1,1,1,1000,num_4,0.47091459995135665,,32,14,2026-03-12_16h25.48.432,2026A_exp2,2022.2.4,59.9507804392701,
1,0,3.7,3.7,0,0,18,18,69,,,,,97.35742929996923,98.0083033000119,98.0083033000119,98.50923800002784,315,45,98.50923800002784,98.50923800002784,98.50923800002784,98.50923800002784,98.50923800002784,98.50923800002784,98.50923800002784,98.50923800002784,98.50923800002784,98.85915750009008,98.85915750009008,98.85915750009008,98.85915750009008,98.85915750009008,98.85915750009008,98.85915750009008,98.85915750009008,98.85915750009008,0,1,[0.001232400070875883],[0.3509136000648141],98.85915750009008,99.05936049995944,3.7,99.05936049995944,0,3.7,1,0,1000,num_1,1.1004390001762658,,32,14,2026-03-12_16h25.48.432,2026A_exp2,2022.2.4,59.9507804392701,
1,0,6.1,0.0,1,0,19,19,29,,,,,100.17684490000829,100.8276104000397,100.8276104000397,101.32888250006363,315,315,101.32888250006363,101.32888250006363,101.32888250006363,101.32888250006363,101.32888250006363,101.32888250006363,101.32888250006363,101.32888250006363,101.32888250006363,101.67857350013219,101.67857350013219,101.67857350013219,101.67857350013219,101.67857350013219,101.67857350013219,101.67857350013219,101.67857350013219,101.67857350013219,21,1,[0.017384500009939075],[0.0330766998231411],101.67857350013219,101.87867949996144,0.0,101.87867949996144,0,0.0,0,1,1000,num_1,0.6336558000184596,,32,14,2026-03-12_16h25.48.432,2026A_exp2,2022.2.4,59.9507804392701,
1,0,6.1,0.0,0,0,20,20,58,,,,,102.52931230003014,103.1800993999932,103.1800993999932,103.6643761000596,45,45,103.6643761000596,103.6643761000596,103.6643761000596,103.6643761000596,103.6643761000596,103.6643761000596,103.6643761000596,103.6643761000596,103.6643761000596,104.03089200006798,104.03089200006798,104.03089200006798,104.03089200006798,104.03089200006798,104.03089200006798,104.03089200006798,104.03089200006798,104.03089200006798,14,6,"[0.001216700067743659, 0.083450400037691, 0.1167136998847127, 0.2335641998797655, 0.2834610999561846, 0.33366880007088184]","[0.017095299903303385, 0.09999660006724298, 0.14998949994333088, 0.26698059984482825, 0.31697400007396936, 0.35046710004098713]",104.03089200006798,104.231249100063,6.1,104.231249100063,1,6.1,1,1,1000,num_4,0.4896458999719471,,32,14,2026-03-12_16h25.48.432,2026A_exp2,2022.2.4,59.9507804392701,
1000,1,6.1,0.0,1,0,21,21,71,,,,,104.74817800009623,105.3988401000388,105.3988401000388,105.88361120014451,45,45,105.88361120014451,105.88361120014451,105.88361120014451,105.88361120014451,105.88361120014451,105.88361120014451,105.88361120014451,105.88361120014451,105.88361120014451,106.24977959995158,106.24977959995158,106.24977959995158,106.24977959995158,106.24977959995158,106.24977959995158,106.24977959995158,106.24977959995158,106.24977959995158,17,4,"[0.0011978000402450562, 0.050192799884825945, 0.10034290002658963, 0.2502973999362439]","[0.01744570001028478, 0.06686539994552732, 0.11691039986908436, 0.3004550999030471]",106.24977959995158,106.45006059994921,1000,106.45006059994921,1000,1000,1000,1000,0,num_3,0.5514012998901308,,32,14,2026-03-12_16h25.48.432,2026A_exp2,2022.2.4,59.9507804392701,
1,0,0.0,0.0,1,0,22,22,60,,,,,107.0203716000542,107.66801320016384,107.66801320016384,108.1690697001759,315,45,108.1690697001759,108.1690697001759,108.1690697001759,108.1690697001759,108.1690697001759,108.1690697001759,108.1690697001759,108.1690697001759,108.1690697001759,108.53548580012284,108.53548580012284,108.53548580012284,108.53548580012284,108.53548580012284,108.53548580012284,108.53548580012284,108.53548580012284,108.53548580012284,22,1,[0.08363609993830323],[0.10022529982961714],108.53548580012284,108.73575850017369,0.0,108.73575850017369,0,0.0,0,1,1000,num_1,0.7526187000330538,,32,14,2026-03-12_16h25.48.432,2026A_exp2,2022.2.4,59.9507804392701,
1000,1,0.0,0.0,1,0,23,23,8,,,,,109.51958810002543,110.17034479998983,110.17034479998983,110.65471470006742,315,315,110.65471470006742,110.65471470006742,110.65471470006742,110.65471470006742,110.65471470006742,110.65471470006742,110.65471470006742,110.65471470006742,110.65471470006742,111.02132260007784,111.02132260007784,111.02132260007784,111.02132260007784,111.02132260007784,111.02132260007784,111.02132260007784,111.02132260007784,111.02132260007784,19,2,"[0.05025490000844002, 0.11693979986011982]","[0.08351380005478859, 0.13356429990381002]",111.02132260007784,111.22366730007343,1000,111.22366730007343,1000,1000,1000,1000,0,num_3,0.7446586999576539,,32,14,2026-03-12_16h25.48.432,2026A_exp2,2022.2.4,59.9507804392701,
1000,1,0.0,4.9,0,0,24,24,50,,,,,111.98877370008267,112.63924180017784,112.63924180017784,113.15605140011758,45,45,113.15605140011758,113.15605140011758,113.15605140011758,113.15605140011758,113.15605140011758,113.15605140011758,113.15605140011758,113.15605140011758,113.15605140011758,113.50722220004536,113.50722220004536,113.50722220004536,113.50722220004536,113.50722220004536,113.50722220004536,113.50722220004536,113.50722220004536,113.50722220004536,19,2,"[0.0044212001375854015, 0.36572500015608966]","[0.046373800141736865, 0.36573410010896623]",113.50722220004536,113.72405249997973,1000,113.72405249997973,1000,1000,1000,1000,1,num_2,1.1079458999447525,,32,14,2026-03-12_16h25.48.432,2026A_exp2,2022.2.4,59.9507804392701,
1,0,0.0,0.0,0,0,25,25,31,,,,,114.85830019996502,115.50913210003637,115.50913210003637,116.01024470012635,45,315,116.01024470012635,116.01024470012635,116.01024470012635,116.01024470012635,116.01024470012635,116.01024470012635,116.01024470012635,116.01024470012635,116.01024470012635,116.37652100017294,116.37652100017294,116.37652100017294,116.37652100017294,116.37652100017294,116.37652100017294,116.37652100017294,116.37652100017294,116.37652100017294,11,5,"[0.06666489993222058, 0.2006435999646783, 0.26709660002961755, 0.31721369992010295, 0.3672909999731928]","[0.15041649993509054, 0.2504191999323666, 0.3004600000567734, 0.333979899995029, 0.36729590012691915]",116.37652100017294,116.57675670017488,0.0,116.57675670017488,0,0.0,0,1,1000,num_1,0.7829485000111163,,32,14,2026-03-12_16h25.48.432,2026A_exp2,2022.2.4,59.9507804392701,
1,0,0.0,4.9,0,0,26,26,9,,,,,117.3775208001025,118.02815710008144,118.02815710008144,118.51271399995312,45,45,118.51271399995312,118.51271399995312,118.51271399995312,118.51271399995312,118.51271399995312,118.51271399995312,118.51271399995312,118.51271399995312,118.51271399995312,118.87894640001468,118.87894640001468,118.87894640001468,118.87894640001468,118.87894640001468,118.87894640001468,118.87894640001468,118.87894640001468,118.87894640001468,14,6,"[0.017332499846816063, 0.1335648000240326, 0.1668949997983873, 0.23374249995686114, 0.2837019998114556, 0.35019539995118976]","[0.03353719995357096, 0.15032699983567, 0.183695700019598, 0.25034449994564056, 0.3335319999605417, 0.3668455998413265]",118.87894640001468,119.07936149998568,0.0,119.07936149998568,0,0.0,0,1,1000,num_1,0.6243966999463737,,32,14,2026-03-12_16h25.48.432,2026A_exp2,2022.2.4,59.9507804392701,
1,0,0.0,0.0,1,0,27,27,68,,,,,119.72983269998804,120.38072340004146,120.38072340004146,120.8649987000972,315,315,120.8649987000972,120.8649987000972,120.8649987000972,120.8649987000972,120.8649987000972,120.8649987000972,120.8649987000972,120.8649987000972,120.8649987000972,121.23144460003823,121.23144460003823,121.23144460003823,121.23144460003823,121.23144460003823,121.23144460003823,121.23144460003823,121.23144460003823,121.23144460003823,8,6,"[0.017281899927183986, 0.10003859992139041, 0.133481299970299, 0.16690849978476763, 0.26709749992005527, 0.3671695999801159]","[0.06623629992827773, 0.1169384999666363, 0.14988719997927547, 0.23359889979474247, 0.3507056999951601, 0.367173999780789]",121.23144460003823,121.43175560003147,0.0,121.43175560003147,1,0.0,0,0,1000,num_4,0.6323620998300612,,32,14,2026-03-12_16h25.48.432,2026A_exp2,2022.2.4,59.9507804392701,
1,0,3.7,6.1,0,0,28,28,74,,,,,122.08217380009592,122.73293599998578,122.73293599998578,123.21729529998265,45,315,123.21729529998265,123.21729529998265,123.21729529998265,123.21729529998265,123.21729529998265,123.21729529998265,123.21729529998265,123.21729529998265,123.21729529998265,123.58385070017539,123.58385070017539,123.58385070017539,123.58385070017539,123.58385070017539,123.58385070017539,123.58385070017539,123.58385070017539,123.58385070017539,6,4,"[0.03345789993181825, 0.08330500009469688, 0.11672779987566173, 0.2503174999728799]","[0.06679420010186732, 0.10009369999170303, 0.23355789994820952, 0.36695339996367693]",123.58385070017539,123.78394820005633,3.7,123.78394820005633,1,3.7,1,1,1000,num_4,0.6245074002072215,,32,14,2026-03-12_16h25.48.432,2026A_exp2,2022.2.4,59.9507804392701,
1000,1,0.0,3.7,1,0,29,29,7,,,,,124.4344797001686,125.08517630002461,125.08517630002461,125.56982229999267,45,45,125.56982229999267,125.56982229999267,125.56982229999267,125.56982229999267,125.56982229999267,125.56982229999267,125.56982229999267,125.56982229999267,125.56982229999267,125.9362310001161,125.9362310001161,125.9362310001161,125.9362310001161,125.9362310001161,125.9362310001161,125.9362310001161,125.9362310001161,125.9362310001161,19,2,"[0.03358039981685579, 0.2837864998728037]","[0.08357289992272854, 0.3170830998569727]",125.9362310001161,126.13784070010297,1000,126.13784070010297,1000,1000,1000,1000,0,num_3,1.0551286998670548,,32,14,2026-03-12_16h25.48.432,2026A_exp2,2022.2.4,59.9507804392701,
1,0,6.1,0.0,0,0,30,30,22,,,,,127.22071080002934,127.87145560001954,127.87145560001954,128.3559554000385,315,45,128.3559554000385,128.3559554000385,128.3559554000385,128.3559554000385,128.3559554000385,128.3559554000385,128.3559554000385,128.3559554000385,128.3559554000385,128.7221921000164,128.7221921000164,128.7221921000164,128.7221921000164,128.7221921000164,128.7221921000164,128.7221921000164,128.7221921000164,128.7221921000164,9,4,"[0.0011921999976038933, 0.06691970000974834, 0.117024099919945, 0.2671256000176072]","[0.03356379992328584, 0.0837409000378102, 0.20002999994903803, 0.35076359985396266]",128.7221921000164,128.92240829998627,6.1,128.92240829998627,1,6.1,1,1,1000,num_4,0.4222876001149416,,32,14,2026-03-12_16h25.48.432,2026A_exp2,2022.2.4,59.9507804392701,
1,0,0.0,0.0,1,0,31,31,66,,,,,129.37269080011174,130.02350999996997,130.02350999996997,130.52462749998085,45,45,130.52462749998085,130.52462749998085,130.52462749998085,130.52462749998085,130.52462749998085,130.52462749998085,130.52462749998085,130.52462749998085,130.52462749998085,130.89105390012264,130.89105390012264,130.89105390012264,130.89105390012264,130.89105390012264,130.89105390012264,130.89105390012264,130.89105390012264,130.89105390012264,14,5,"[0.09985090000554919, 0.16677320003509521, 0.2501668999902904, 0.28345469990745187, 0.3502344998996705]","[0.13340829988010228, 0.2334930000361055, 0.2668578999582678, 0.3001262000761926, 0.3671565998811275]",130.89105390012264,131.09128520009108,0.0,131.09128520009108,0,0.0,0,1,1000,num_1,1.8614281001500785,,32,14,2026-03-12_16h25.48.432,2026A_exp2,2022.2.4,59.9507804392701,
1,0,0.0,0.0,1,0,32,32,56,,,,,132.97635739995167,133.62724960013293,133.62724960013293,134.11151670012623,45,45,134.11151670012623,134.11151670012623,134.11151670012623,134.11151670012623,134.11151670012623,134.11151670012623,134.11151670012623,134.11151670012623,134.11151670012623,134.47795700002462,134.47795700002462,134.47795700002462,134.47795700002462,134.47795700002462,134.47795700002462,134.47795700002462,134.47795700002462,134.47795700002462,20,3,"[0.05085600004531443, 0.23377549997530878, 0.3671328001655638]","[0.06685850000940263, 0.2503615999594331, 0.3671375000849366]",134.47795700002462,134.6782410000451,0.0,134.6782410000451,1,0.0,0,0,1000,num_4,0.6503049000166357,,32,14,2026-03-12_16h25.48.432,2026A_exp2,2022.2.4,59.9507804392701,
1000,1,0.0,3.7,1,0,33,33,86,,,,,135.34540690016001,135.99607110000215,135.99607110000215,136.48054599994794,45,45,136.48054599994794,136.48054599994794,136.48054599994794,136.48054599994794,136.48054599994794,136.48054599994794,136.48054599994794,136.48054599994794,136.48054599994794,136.84709890000522,136.84709890000522,136.84709890000522,136.84709890000522,136.84709890000522,136.84709890000522,136.84709890000522,136.84709890000522,136.84709890000522,13,6,"[0.017186000011861324, 0.06688080006279051, 0.1001601000316441, 0.1502765000332147, 0.21703159995377064, 0.317005000077188]","[0.033424700144678354, 0.08345669996924698, 0.11686720000579953, 0.18366420012898743, 0.2836703001521528, 0.3337970001157373]",136.84709890000522,137.0494125999976,1000,137.0494125999976,1000,1000,1000,1000,0,num_3,0.8705152999609709,,32,14,2026-03-12_16h25.48.432,2026A_exp2,2022.2.4,59.9507804392701,
1,0,3.7,0.0,0,0,34,34,15,,,,,137.9480944001116,138.59881959995255,138.59881959995255,139.0999970000703,45,315,139.0999970000703,139.0999970000703,139.0999970000703,139.0999970000703,139.0999970000703,139.0999970000703,139.0999970000703,139.0999970000703,139.0999970000703,139.46640020003542,139.46640020003542,139.46640020003542,139.46640020003542,139.46640020003542,139.46640020003542,139.46640020003542,139.46640020003542,139.46640020003542,14,4,"[0.08353820000775158, 0.16694349981844425, 0.2670582998543978, 0.3671244999859482]","[0.11674700002186, 0.23360249982215464, 0.28361059981398284, 0.3671289999037981]",139.46640020003542,139.6666322001256,3.7,139.6666322001256,1,3.7,1,1,1000,num_4,0.30106399999931455,,32,14,2026-03-12_16h25.48.432,2026A_exp2,2022.2.4,59.9507804392701,
1,0,4.9,6.1,1,0,35,35,62,,,,,139.9839207001496,140.63415360008366,140.63415360008366,141.13534389995039,315,315,141.13534389995039,141.13534389995039,141.13534389995039,141.13534389995039,141.13534389995039,141.13534389995039,141.13534389995039,141.13534389995039,141.13534389995039,141.48494350002147,141.48494350002147,141.48494350002147,141.48494350002147,141.48494350002147,141.48494350002147,141.48494350002147,141.48494350002147,141.48494350002147,11,6,"[0.0012459999416023493, 0.1502567999996245, 0.1834718999452889, 0.23374269995838404, 0.28370200004428625, 0.31709920009598136]","[0.08350829989649355, 0.1669282999355346, 0.20033550006337464, 0.2671101000159979, 0.30022690002806485, 0.3505402998998761]",141.48494350002147,141.68486020015553,6.1,141.70178829994984,1,6.1,1,1,1000,num_4,0.4823698999825865,,32,14,2026-03-12_16h25.48.432,2026A_exp2,2022.2.4,59.9507804392701,
1000,1,4.9,3.7,1,0,36,36,46,,,,,142.20233060000464,142.83641220000573,142.83641220000573,143.3375170000363,315,45,143.3375170000363,143.3375170000363,143.3375170000363,143.3375170000363,143.3375170000363,143.3375170000363,143.3375170000363,143.3375170000363,143.3375170000363,143.70404800004326,143.70404800004326,143.70404800004326,143.70404800004326,143.70404800004326,143.70404800004326,143.70404800004326,143.70404800004326,143.70404800004326,17,2,"[0.11674070009030402, 0.23346789996139705]","[0.18339180015027523, 0.26674310001544654]",143.70404800004326,143.90560659999028,1000,143.90560659999028,1000,1000,1000,1000,0,num_3,0.7588365999981761,,32,14,2026-03-12_16h25.48.432,2026A_exp2,2022.2.4,59.9507804392701,
1000,1,4.9,4.9,0,0,37,37,36,,,,,144.688401899999,145.34307459997945,145.34307459997945,145.8400810000021,45,315,145.8400810000021,145.8400810000021,145.8400810000021,145.8400810000021,145.8400810000021,145.8400810000021,145.8400810000021,145.8400810000021,145.8400810000021,146.20628700009547,146.20628700009547,146.20628700009547,146.20628700009547,146.20628700009547,146.20628700009547,146.20628700009547,146.20628700009547,146.20628700009547,20,2,"[0.06698599993251264, 0.21716809994541109]","[0.10024299984797835, 0.23381649982184172]",146.20628700009547,146.40833190013655,1000,146.40833190013655,1000,1000,1000,1000,0,num_3,0.5281698000617325,,32,14,2026-03-12_16h25.48.432,2026A_exp2,2022.2.4,59.9507804392701,
1,0,3.7,0.0,1,0,38,38,73,,,,,146.95711990003474,147.60788509994745,147.60788509994745,148.1000177001115,45,45,148.1000177001115,148.1000177001115,148.1000177001115,148.1000177001115,148.1000177001115,148.1000177001115,148.1000177001115,148.1000177001115,148.1000177001115,148.45878380001523,148.45878380001523,148.45878380001523,148.45878380001523,148.45878380001523,148.45878380001523,148.45878380001523,148.45878380001523,148.45878380001523,10,5,"[0.00303900009021163, 0.1332723000086844, 0.23372659995220602, 0.2835941999219358, 0.36704990011639893]","[0.11679610004648566, 0.15011809999123216, 0.2502297000028193, 0.333616100018844, 0.3670614000875503]",148.45878380001523,148.65886480011977,0.0,148.65886480011977,0,0.0,0,1,1000,num_1,0.38944409997202456,,32,14,2026-03-12_16h25.48.432,2026A_exp2,2022.2.4,59.9507804392701,
1,0,6.1,0.0,1,0,39,39,23,,,,,149.0760459001176,149.72664500004612,149.72664500004612,150.21109680016525,315,315,150.21109680016525,150.21109680016525,150.21109680016525,150.21109680016525,150.21109680016525,150.21109680016525,150.21109680016525,150.21109680016525,150.21109680016525,150.5773595001083,150.5773595001083,150.5773595001083,150.5773595001083,150.5773595001083,150.5773595001083,150.5773595001083,150.5773595001083,150.5773595001083,13,8,"[0.00121380016207695, 0.03356579993851483, 0.08365539996884763, 0.16705740010365844, 0.23384799994528294, 0.2671436001546681, 0.3173649001400918, 0.35054270015098155]","[0.01732730004005134, 0.05032879998907447, 0.11712540010921657, 0.1838026000186801, 0.25056520011276007, 0.2838586999569088, 0.33389460016041994, 0.36734170001000166]",150.5773595001083,150.77760459994897,0.0,150.77760459994897,0,0.0,0,1,1000,num_1,0.5908359999302775,,32,14,2026-03-12_16h25.48.432,2026A_exp2,2022.2.4,59.9507804392701,
0,0,0.0,6.1,0,0,40,40,12,,,,,151.39484339999035,152.0289831000846,152.0289831000846,152.53009809996001,315,315,152.53009809996001,152.53009809996001,152.53009809996001,152.53009809996001,152.53009809996001,152.53009809996001,152.53009809996001,152.53009809996001,152.53009809996001,152.89647849998437,152.89647849998437,152.89647849998437,152.89647849998437,152.89647849998437,152.89647849998437,152.89647849998437,152.89647849998437,152.89647849998437,12,4,"[0.01757639995776117, 0.0837459999602288, 0.30045420001260936, 0.36733720009215176]","[0.05028819991275668, 0.18372630001977086, 0.33385200006887317, 0.3673419998958707]",152.89647849998437,153.096628600033,6.1,153.096628600033,1,6.1,1,1,1000,num_4,0.48709270008839667,,32,14,2026-03-12_16h25.48.432,2026A_exp2,2022.2.4,59.9507804392701,
0,0,0.0,0.0,0,0,41,41,10,,,,,153.61368519999087,154.27424539998174,154.27424539998174,154.76564610004425,315,45,154.76564610004425,154.76564610004425,154.76564610004425,154.76564610004425,154.76564610004425,154.76564610004425,154.76564610004425,154.76564610004425,154.76564610004425,155.11552680004388,155.11552680004388,155.11552680004388,155.11552680004388,155.11552680004388,155.11552680004388,155.11552680004388,155.11552680004388,155.11552680004388,20,2,"[0.28546869987621903, 0.3191444999538362]","[0.30214200005866587, 0.3353079999797046]",155.11552680004388,155.31895720004104,0.0,155.31895720004104,0,0.0,0,1,1000,num_1,0.7611825000494719,,32,14,2026-03-12_16h25.48.432,2026A_exp2,2022.2.4,59.9507804392701,
1000,1,0.0,0.0,1,0,42,42,27,,,,,156.0994786999654,156.7502431999892,156.7502431999892,157.25132620008662,45,315,157.25132620008662,157.25132620008662,157.25132620008662,157.25132620008662,157.25132620008662,157.25132620008662,157.25132620008662,157.25132620008662,157.25132620008662,157.61778430012055,157.61778430012055,157.61778430012055,157.61778430012055,157.61778430012055,157.61778430012055,157.61778430012055,157.61778430012055,157.61778430012055,21,1,[0.3170696999877691],[0.35038059996441007],157.61778430012055,157.8198164999485,1000,157.8198164999485,1000,1000,1000,1000,1,num_2,1.3164484000299126,,32,14,2026-03-12_16h25.48.432,2026A_exp2,2022.2.4,59.9507804392701,
1,0,0.0,3.7,0,0,43,43,34,,,,,159.15261550014839,159.80333200003952,159.80333200003952,160.30448020016775,315,45,160.30448020016775,160.30448020016775,160.30448020016775,160.30448020016775,160.30448020016775,160.30448020016775,160.30448020016775,160.30448020016775,160.30448020016775,160.67106810002588,160.67106810002588,160.67106810002588,160.67106810002588,160.67106810002588,160.67106810002588,160.67106810002588,160.67106810002588,160.67106810002588,11,4,"[0.0012380999978631735, 0.08347960002720356, 0.18738669995218515, 0.35184839996509254]","[0.017622899962589145, 0.10041410010308027, 0.3351412999909371, 0.36859899992123246]",160.67106810002588,160.8710899001453,0.0,160.8710899001453,1,0.0,0,0,1000,num_4,1.578024399932474,,32,14,2026-03-12_16h25.48.432,2026A_exp2,2022.2.4,59.9507804392701,
1,0,4.9,0.0,0,0,44,44,14,,,,,162.47281499998644,163.12342040007934,163.12342040007934,163.60765520017594,45,315,163.60765520017594,163.60765520017594,163.60765520017594,163.60765520017594,163.60765520017594,163.60765520017594,163.60765520017594,163.60765520017594,163.60765520017594,163.974392300006,163.974392300006,163.974392300006,163.974392300006,163.974392300006,163.974392300006,163.974392300006,163.974392300006,163.974392300006,20,3,"[0.10017189988866448, 0.15027199988253415, 0.333644500002265]","[0.11692549986764789, 0.16689689992927015, 0.35038629989139736]",163.974392300006,164.1744556000922,4.9,164.1744556000922,1,4.9,1,1,1000,num_4,1.7693837000988424,,32,14,2026-03-12_16h25.48.432,2026A_exp2,2022.2.4,59.9507804392701,
1000,1,3.7,3.7,1,0,45,45,25,,,,,165.95959350001067,166.610150200082,166.610150200082,167.0945874999743,45,315,167.0945874999743,167.0945874999743,167.0945874999743,167.0945874999743,167.0945874999743,167.0945874999743,167.0945874999743,167.0945874999743,167.0945874999743,167.46097930008546,167.46097930008546,167.46097930008546,167.46097930008546,167.46097930008546,167.46097930008546,167.46097930008546,167.46097930008546,167.46097930008546,8,5,"[0.001236499985679984, 0.033484400017187, 0.10024090018123388, 0.21690740017220378, 0.2670411001890898]","[0.017242199974134564, 0.0502961000893265, 0.1835436001420021, 0.2337483000010252, 0.3672145002055913]",167.46097930008546,167.66293700016104,1000,167.66293700016104,1000,1000,1000,1000,0,num_3,0.42611079989001155,,32,14,2026-03-12_16h25.48.432,2026A_exp2,2022.2.4,59.9507804392701,
1000,1,0.0,3.7,1,0,46,46,81,,,,,168.11154800001532,168.76233950001188,168.76233950001188,169.26326590008102,315,45,169.26326590008102,169.26326590008102,169.26326590008102,169.26326590008102,169.26326590008102,169.26326590008102,169.26326590008102,169.26326590008102,169.26326590008102,169.62987870001234,169.62987870001234,169.62987870001234,169.62987870001234,169.62987870001234,169.62987870001234,169.62987870001234,169.62987870001234,169.62987870001234,13,5,"[0.01727239997126162, 0.10023729992099106, 0.15028559998609126, 0.1837170000653714, 0.3171242999378592]","[0.05016590002924204, 0.1335072999354452, 0.16702649998478591, 0.20033230003900826, 0.36723070009611547]",169.62987870001234,169.83207210013643,1000,169.83207210013643,1000,1000,1000,1000,1,num_2,0.46462159999646246,,32,14,2026-03-12_16h25.48.432,2026A_exp2,2022.2.4,59.9507804392701,
1000,1,0.0,0.0,1,0,47,47,78,,,,,170.31393370009027,170.96446670009755,170.96446670009755,171.46567469998263,45,45,171.46567469998263,171.46567469998263,171.46567469998263,171.46567469998263,171.46567469998263,171.46567469998263,171.46567469998263,171.46567469998263,171.46567469998263,171.83207869995385,171.83207869995385,171.83207869995385,171.83207869995385,171.83207869995385,171.83207869995385,171.83207869995385,171.83207869995385,171.83207869995385,7,6,"[0.001250100089237094, 0.05025650002062321, 0.1003233001101762, 0.13378909998573363, 0.18373519997112453, 0.33378550014458597]","[0.017392100067809224, 0.06701460015028715, 0.1168730000499636, 0.16688859998248518, 0.3171674001496285, 0.36738800001330674]",171.83207869995385,172.03231899999082,1000,172.03231899999082,1000,1000,1000,1000,1,num_2,0.6320552001707256,,32,14,2026-03-12_16h25.48.432,2026A_exp2,2022.2.4,59.9507804392701,
1,0,4.9,0.0,0,0,48,48,19,,,,,172.68295669998042,173.3335583000444,173.3335583000444,173.81778739998117,45,45,173.81778739998117,173.81778739998117,173.81778739998117,173.81778739998117,173.81778739998117,173.81778739998117,173.81778739998117,173.81778739998117,173.81778739998117,174.18452839995734,174.18452839995734,174.18452839995734,174.18452839995734,174.18452839995734,174.18452839995734,174.18452839995734,174.18452839995734,174.18452839995734,5,5,"[0.001199900172650814, 0.10031120013445616, 0.21697910013608634, 0.2504512001760304, 0.3338659000582993]","[0.08347100019454956, 0.18367260019294918, 0.2336236999835819, 0.3171978001482785, 0.3667439999990165]",174.18452839995734,174.38459690008312,4.9,174.38459690008312,1,4.9,1,1,1000,num_4,0.5835480000823736,,32,14,2026-03-12_16h25.48.432,2026A_exp2,2022.2.4,59.9507804392701,
1000,1,4.9,4.9,1,0,49,49,67,,,,,174.9850400001742,175.63581799995154,175.63581799995154,176.12034579995088,45,315,176.12034579995088,176.12034579995088,176.12034579995088,176.12034579995088,176.12034579995088,176.12034579995088,176.12034579995088,176.12034579995088,176.12034579995088,176.48674660013057,176.48674660013057,176.48674660013057,176.48674660013057,176.48674660013057,176.48674660013057,176.48674660013057,176.48674660013057,176.48674660013057,7,5,"[0.0010863000061362982, 0.06688760011456907, 0.15029920008964837, 0.2505606999620795, 0.35049069998785853]","[0.050222499994561076, 0.13354980014264584, 0.21715330006554723, 0.3005288001149893, 0.3673474001698196]",176.48674660013057,176.68901580013335,1000,176.68901580013335,1000,1000,1000,1000,0,num_3,1.4307478000409901,,32,14,2026-03-12_16h25.48.432,2026A_exp2,2022.2.4,59.9507804392701,
0,0,0.0,0.0,0,0,50,50,20,,,,,178.13823530008085,178.78901110007428,178.78901110007428,179.29018840007484,315,45,179.29018840007484,179.29018840007484,179.29018840007484,179.29018840007484,179.29018840007484,179.29018840007484,179.29018840007484,179.29018840007484,179.29018840007484,179.656527900137,179.656527900137,179.656527900137,179.656527900137,179.656527900137,179.656527900137,179.656527900137,179.656527900137,179.656527900137,7,4,"[0.017466400051489472, 0.0836847999598831, 0.13382510002702475, 0.18378319987095892]","[0.05027500004507601, 0.11703570000827312, 0.1671329999808222, 0.36726199998520315]",179.656527900137,179.8565283000935,0.0,179.8565283000935,0,0.0,0,1,1000,num_1,1.647914499975741,,32,14,2026-03-12_16h25.48.432,2026A_exp2,2022.2.4,59.9507804392701,
0,0,0.0,6.1,1,0,51,51,84,,,,,181.52492310013622,182.17581559997052,182.17581559997052,182.66003739996813,315,45,182.66003739996813,182.66003739996813,182.66003739996813,182.66003739996813,182.66003739996813,182.66003739996813,182.66003739996813,182.66003739996813,182.66003739996813,183.02651570015587,183.02651570015587,183.02651570015587,183.02651570015587,183.02651570015587,183.02651570015587,183.02651570015587,183.02651570015587,183.02651570015587,21,2,"[0.26708869985304773, 0.3670626999810338]","[0.28361849999055266, 0.3670671998988837]",183.02651570015587,183.22676890017465,0.0,183.22676890017465,0,0.0,0,1,1000,num_1,0.5731053000781685,,32,14,2026-03-12_16h25.48.432,2026A_exp2,2022.2.4,59.9507804392701,
1,0,0.0,0.0,0,0,52,52,64,,,,,183.82722009997815,184.4778585000895,184.4778585000895,184.9625434000045,315,45,184.9625434000045,184.9625434000045,184.9625434000045,184.9625434000045,184.9625434000045,184.9625434000045,184.9625434000045,184.9625434000045,184.9625434000045,185.32882030005567,185.32882030005567,185.32882030005567,185.32882030005567,185.32882030005567,185.32882030005567,185.32882030005567,185.32882030005567,185.32882030005567,19,2,"[0.13364130002446473, 0.31676990003325045]","[0.16710230009630322, 0.35064440011046827]",185.32882030005567,185.52896240004338,0.0,185.52896240004338,1,0.0,0,0,1000,num_4,0.6400941000320017,,32,14,2026-03-12_16h25.48.432,2026A_exp2,2022.2.4,59.9507804392701,
1000,1,4.9,3.7,0,0,53,53,26,,,,,186.1966685000807,186.84714199998416,186.84714199998416,187.33140760008246,45,315,187.33140760008246,187.33140760008246,187.33140760008246,187.33140760008246,187.33140760008246,187.33140760008246,187.33140760008246,187.33140760008246,187.33140760008246,187.69802080001682,187.69802080001682,187.69802080001682,187.69802080001682,187.69802080001682,187.69802080001682,187.69802080001682,187.69802080001682,187.69802080001682,14,5,"[0.0007779998704791069, 0.06709039979614317, 0.18403079989366233, 0.2340851000044495, 0.33436819980852306]","[0.017212999984622, 0.08373889978975058, 0.21754270000383258, 0.30077749979682267, 0.35093649988994]",187.69802080001682,187.89988639997318,1000,187.89988639997318,1000,1000,1000,1000,0,num_3,0.5572454000357538,,32,14,2026-03-12_16h25.48.432,2026A_exp2,2022.2.4,59.9507804392701,
1000,1,4.9,6.1,0,0,54,54,59,,,,,188.48196610016748,189.13276030006818,189.13276030006818,189.63378829997964,315,315,189.63378829997964,189.63378829997964,189.63378829997964,189.63378829997964,189.63378829997964,189.63378829997964,189.63378829997964,189.63378829997964,189.63378829997964,190.00024079997092,190.00024079997092,190.00024079997092,190.00024079997092,190.00024079997092,190.00024079997092,190.00024079997092,190.00024079997092,190.00024079997092,7,5,"[0.0012996001169085503, 0.04998880019411445, 0.08342260005883873, 0.24982750019989908, 0.28359400015324354]","[0.033378600142896175, 0.0667301001958549, 0.21644690004177392, 0.26684570009820163, 0.3669746001251042]",190.00024079997092,190.2024644999765,1000,190.2024644999765,1000,1000,1000,1000,1,num_2,0.4386736999731511,,32,14,2026-03-12_16h25.48.432,2026A_exp2,2022.2.4,59.9507804392701,
1000,1,0.0,4.9,1,0,55,55,51,,,,,190.66739329998381,191.3182223001495,191.3182223001495,191.8192629001569,45,315,191.8192629001569,191.8192629001569,191.8192629001569,191.8192629001569,191.8192629001569,191.8192629001569,191.8192629001569,191.8192629001569,191.8192629001569,192.1857654999476,192.1857654999476,192.1857654999476,192.1857654999476,192.1857654999476,192.1857654999476,192.1857654999476,192.1857654999476,192.1857654999476,4,3,"[0.0012345998547971249, 0.11683079996146262, 0.2838106998242438]","[0.08343730005435646, 0.24987820000387728, 0.3670842999126762]",192.1857654999476,192.3877626999747,1000,192.3877626999747,1000,1000,1000,1000,1,num_2,0.4360788001213223,,32,14,2026-03-12_16h25.48.432,2026A_exp2,2022.2.4,59.9507804392701,
1000,1,0.0,3.7,0,0,56,56,18,,,,,192.85297999996692,193.5035896000918,193.5035896000918,194.00485470006242,315,315,194.00485470006242,194.00485470006242,194.00485470006242,194.00485470006242,194.00485470006242,194.00485470006242,194.00485470006242,194.00485470006242,194.00485470006242,194.37131690001115,194.37131690001115,194.37131690001115,194.37131690001115,194.37131690001115,194.37131690001115,194.37131690001115,194.37131690001115,194.37131690001115,13,5,"[0.001196600031107664, 0.16701170010492206, 0.23373130010440946, 0.2837470001541078, 0.35055840015411377]","[0.03352129994891584, 0.20047669997438788, 0.25029670004732907, 0.31702259997837245, 0.36713659996166825]",194.37131690001115,194.57336329994723,1000,194.57336329994723,1000,1000,1000,1000,1,num_2,0.523146599996835,,32,14,2026-03-12_16h25.48.432,2026A_exp2,2022.2.4,59.9507804392701,
1,0,6.1,3.7,0,0,57,57,79,,,,,195.12186730001122,195.77264910005033,195.77264910005033,196.27381899999455,45,315,196.27381899999455,196.27381899999455,196.27381899999455,196.27381899999455,196.27381899999455,196.27381899999455,196.27381899999455,196.27381899999455,196.27381899999455,196.64024710003287,196.64024710003287,196.64024710003287,196.64024710003287,196.64024710003287,196.64024710003287,196.64024710003287,196.64024710003287,196.64024710003287,1,2,"[0.0010711001232266426, 0.2507210001349449]","[0.23381290002726018, 0.36739690019749105]",196.64024710003287,196.8405647999607,6.1,196.8405647999607,1,6.1,1,1,1000,num_4,0.703603999922052,,32,14,2026-03-12_16h25.48.432,2026A_exp2,2022.2.4,59.9507804392701,
0,0,4.9,6.1,0,0,58,58,1,,,,,197.5743277000729,198.22515160008334,198.22515160008334,198.7093968000263,45,45,198.7093968000263,198.7093968000263,198.7093968000263,198.7093968000263,198.7093968000263,198.7093968000263,198.7093968000263,198.7093968000263,198.7093968000263,199.07604359998368,199.07604359998368,199.07604359998368,199.07604359998368,199.07604359998368,199.07604359998368,199.07604359998368,199.07604359998368,199.07604359998368,5,5,"[0.0011984999291598797, 0.1168517000041902, 0.20044769998639822, 0.2671314999461174, 0.35044869990088046]","[0.08346799993887544, 0.18365209992043674, 0.25030190008692443, 0.3337250000331551, 0.3670701999217272]",199.07604359998368,199.27621150016785,6.1,199.27621150016785,1,6.1,1,1,1000,num_4,1.0518725998699665,,32,14,2026-03-12_16h25.48.432,2026A_exp2,2022.2.4,59.9507804392701,
1000,1,6.1,0.0,1,0,59,59,61,,,,,200.3454356000293,200.9945039001759,200.9945039001759,201.49558060010895,45,315,201.49558060010895,201.49558060010895,201.49558060010895,201.49558060010895,201.49558060010895,201.49558060010895,201.49558060010895,201.49558060010895,201.49558060010895,201.86217850004323,201.86217850004323,201.86217850004323,201.86217850004323,201.86217850004323,201.86217850004323,201.86217850004323,201.86217850004323,201.86217850004323,5,4,"[0.01742940000258386, 0.10007809987291694, 0.1499677998945117, 0.3337632999755442]","[0.06748939980752766, 0.13353469991125166, 0.3172267999034375, 0.36693779984489083]",201.86217850004323,202.06293800007552,1000,202.06293800007552,1000,1000,1000,1000,0,num_3,0.41672650002874434,,32,14,2026-03-12_16h25.48.432,2026A_exp2,2022.2.4,59.9507804392701,
1000,1,0.0,6.1,0,0,60,60,85,,,,,202.4959001999814,203.14663510001265,203.14663510001265,203.6312144000549,315,315,203.6312144000549,203.6312144000549,203.6312144000549,203.6312144000549,203.6312144000549,203.6312144000549,203.6312144000549,203.6312144000549,203.6312144000549,203.99754200014286,203.99754200014286,203.99754200014286,203.99754200014286,203.99754200014286,203.99754200014286,203.99754200014286,203.99754200014286,203.99754200014286,14,6,"[0.06698700017295778, 0.11722660018131137, 0.2003047000616789, 0.23386460007168353, 0.28394950018264353, 0.3504933000076562]","[0.08381290012039244, 0.16733000008389354, 0.2172634000889957, 0.2504155000206083, 0.3003003001213074, 0.36734090000391006]",203.99754200014286,204.20792419998907,1000,204.20792419998907,1000,1000,1000,1000,1,num_2,0.44014169997535646,,32,14,2026-03-12_16h25.48.432,2026A_exp2,2022.2.4,59.9507804392701,
1,0,0.0,0.0,1,0,61,61,77,,,,,204.66475790017284,205.3155994999688,205.3155994999688,205.81658800016157,45,315,205.81658800016157,205.81658800016157,205.81658800016157,205.81658800016157,205.81658800016157,205.81658800016157,205.81658800016157,205.81658800016157,205.81658800016157,206.18304000003263,206.18304000003263,206.18304000003263,206.18304000003263,206.18304000003263,206.18304000003263,206.18304000003263,206.18304000003263,206.18304000003263,7,5,"[0.0012956000864505768, 0.13357579987496138, 0.21635550004430115, 0.2831949999090284, 0.33358770003542304]","[0.10028810007497668, 0.1829073999542743, 0.26685029990039766, 0.31666520005092025, 0.3667792999185622]",206.18304000003263,206.38313159998506,0.0,206.38313159998506,0,0.0,0,1,1000,num_1,0.6484708001371473,,32,14,2026-03-12_16h25.48.432,2026A_exp2,2022.2.4,59.9507804392701,
1,0,4.9,3.7,0,0,62,62,89,,,,,207.05046180007048,207.7013495999854,207.7013495999854,208.18578000017442,45,45,208.18578000017442,208.18578000017442,208.18578000017442,208.18578000017442,208.18578000017442,208.18578000017442,208.18578000017442,208.18578000017442,208.18578000017442,208.552009700099,208.552009700099,208.552009700099,208.552009700099,208.552009700099,208.552009700099,208.552009700099,208.552009700099,208.552009700099,16,4,"[0.133608799893409, 0.18375379987992346, 0.30051929992623627, 0.3673125999048352]","[0.15030519990250468, 0.21713029989041388, 0.35055849980562925, 0.3673167999368161]",208.552009700099,208.75216999999247,4.9,208.75216999999247,1,4.9,1,1,1000,num_4,0.5127902999520302,,32,14,2026-03-12_16h25.48.432,2026A_exp2,2022.2.4,59.9507804392701,
1000,1,4.9,6.1,1,0,63,63,4,,,,,209.28600029996596,209.9368144001346,209.9368144001346,210.43773090001196,45,45,210.43773090001196,210.43773090001196,210.43773090001196,210.43773090001196,210.43773090001196,210.43773090001196,210.43773090001196,210.43773090001196,210.43773090001196,210.7876816999633,210.7876816999633,210.7876816999633,210.7876816999633,210.7876816999633,210.7876816999633,210.7876816999633,210.7876816999633,210.7876816999633,14,3,"[0.0011986999306827784, 0.10020969994366169, 0.2836096999235451]","[0.017006099922582507, 0.18350049993023276, 0.30033140000887215]",210.7876816999633,210.9893206001725,1000,211.0042703000363,1000,1000,1000,1000,1,num_2,0.8196656999643892,,32,14,2026-03-12_16h25.48.432,2026A_exp2,2022.2.4,59.9507804392701,
0,0,3.7,0.0,1,0,64,64,0,,,,,211.85561670013703,212.50601450004615,212.50601450004615,213.0071285001468,45,45,213.0071285001468,213.0071285001468,213.0071285001468,213.0071285001468,213.0071285001468,213.0071285001468,213.0071285001468,213.0071285001468,213.0071285001468,213.3569841000717,213.3569841000717,213.3569841000717,213.3569841000717,213.3569841000717,213.3569841000717,213.3569841000717,213.3569841000717,213.3569841000717,22,0,,,213.3569841000717,213.55703200004064,3.7,213.55703200004064,1,3.7,1,1,1000,num_4,0.9068350999150425,,32,14,2026-03-12_16h25.48.432,2026A_exp2,2022.2.4,59.9507804392701,
1000,1,0.0,6.1,0,0,65,65,5,,,,,214.49128970014863,215.14203079999425,215.14203079999425,215.6264220001176,315,315,215.6264220001176,215.6264220001176,215.6264220001176,215.6264220001176,215.6264220001176,215.6264220001176,215.6264220001176,215.6264220001176,215.6264220001176,215.9927135000471,215.9927135000471,215.9927135000471,215.9927135000471,215.9927135000471,215.9927135000471,215.9927135000471,215.9927135000471,215.9927135000471,22,1,[0.13344540004618466],[0.1501366999000311],215.9927135000471,216.19499760004692,1000,216.19499760004692,1000,1000,1000,1000,1,num_2,0.42190330009907484,,32,14,2026-03-12_16h25.48.432,2026A_exp2,2022.2.4,59.9507804392701,
1000,1,0.0,6.1,1,0,66,66,40,,,,,216.64346290007234,217.2942236000672,217.2942236000672,217.79520920012146,315,45,217.79520920012146,217.79520920012146,217.79520920012146,217.79520920012146,217.79520920012146,217.79520920012146,217.79520920012146,217.79520920012146,217.79520920012146,218.16139900009148,218.16139900009148,218.16139900009148,218.16139900009148,218.16139900009148,218.16139900009148,218.16139900009148,218.16139900009148,218.16139900009148,15,6,"[0.0012749999295920134, 0.06681760004721582, 0.11695829988457263, 0.28343389998190105, 0.3172092998865992, 0.35024259984493256]","[0.01726939994841814, 0.10016179992817342, 0.13371940003708005, 0.300364299910143, 0.333515000063926, 0.36673879995942116]",218.16139900009148,218.36168610001914,1000,218.36168610001914,1000,1000,1000,1000,1,num_2,0.42339070001617074,,32,14,2026-03-12_16h25.48.432,2026A_exp2,2022.2.4,59.9507804392701,
1,0,0.0,6.1,1,0,67,67,39,,,,,218.81224530003965,219.46304229996167,219.46304229996167,219.96410910016857,315,315,219.96410910016857,219.96410910016857,219.96410910016857,219.96410910016857,219.96410910016857,219.96410910016857,219.96410910016857,219.96410910016857,219.96410910016857,220.31384210009128,220.31384210009128,220.31384210009128,220.31384210009128,220.31384210009128,220.31384210009128,220.31384210009128,220.31384210009128,220.31384210009128,13,5,"[0.01732570002786815, 0.10030759987421334, 0.18366229999810457, 0.28372880001552403, 0.33385789999738336]","[0.033529399894177914, 0.15033990005031228, 0.20027430006302893, 0.3170584999024868, 0.3504770998843014]",220.31384210009128,220.51420840015635,6.1,220.51420840015635,1,6.1,1,1,1000,num_4,0.5424995999783278,,32,14,2026-03-12_16h25.48.432,2026A_exp2,2022.2.4,59.9507804392701,
1000,1,0.0,0.0,1,0,68,68,37,,,,,221.08110830001533,221.73203340009786,221.73203340009786,222.21680689998902,315,315,222.21680689998902,222.21680689998902,222.21680689998902,222.21680689998902,222.21680689998902,222.21680689998902,222.21680689998902,222.21680689998902,222.21680689998902,222.5826962001156,222.5826962001156,222.5826962001156,222.5826962001156,222.5826962001156,222.5826962001156,222.5826962001156,222.5826962001156,222.5826962001156,13,3,"[0.0012054000981152058, 0.13326449994929135, 0.20032740011811256]","[0.11647309991531074, 0.16710889991372824, 0.21699029998853803]",222.5826962001156,222.7847287999466,1000,222.7847287999466,1000,1000,1000,1000,0,num_3,0.8072734999004751,,32,14,2026-03-12_16h25.48.432,2026A_exp2,2022.2.4,59.9507804392701,
1000,1,0.0,0.0,1,0,69,69,63,,,,,223.61703900014982,224.267879600171,224.267879600171,224.7688605999574,315,315,224.7688605999574,224.7688605999574,224.7688605999574,224.7688605999574,224.7688605999574,224.7688605999574,224.7688605999574,224.7688605999574,224.7688605999574,225.13545190007426,225.13545190007426,225.13545190007426,225.13545190007426,225.13545190007426,225.13545190007426,225.13545190007426,225.13545190007426,225.13545190007426,14,2,"[0.0012382999993860722, 0.21707470016553998]","[0.1169537000823766, 0.25043810019269586]",225.13545190007426,225.33741140016355,1000,225.33741140016355,1000,1000,1000,1000,1,num_2,1.6235148999840021,,32,14,2026-03-12_16h25.48.432,2026A_exp2,2022.2.4,59.9507804392701,
1,0,3.7,0.0,1,0,70,70,55,,,,,226.9872922000941,227.63782960013486,227.63782960013486,228.1390201000031,45,45,228.1390201000031,228.1390201000031,228.1390201000031,228.1390201000031,228.1390201000031,228.1390201000031,228.1390201000031,228.1390201000031,228.1390201000031,228.50533189997077,228.50533189997077,228.50533189997077,228.50533189997077,228.50533189997077,228.50533189997077,228.50533189997077,228.50533189997077,228.50533189997077,23,0,,,228.50533189997077,228.70546790002845,0.0,228.70546790002845,0,0.0,0,1,1000,num_1,0.295495199970901,,32,14,2026-03-12_16h25.48.432,2026A_exp2,2022.2.4,59.9507804392701,
1,0,6.1,3.7,1,0,71,71,45,,,,,229.02243819995783,229.67331420001574,229.67331420001574,230.15753399999812,315,45,230.15753399999812,230.15753399999812,230.15753399999812,230.15753399999812,230.15753399999812,230.15753399999812,230.15753399999812,230.15753399999812,230.15753399999812,230.52398930001073,230.52398930001073,230.52398930001073,230.52398930001073,230.52398930001073,230.52398930001073,230.52398930001073,230.52398930001073,230.52398930001073,23,0,,,230.52398930001073,230.72427500016056,3.7,230.72427500016056,0,3.7,1,0,1000,num_1,0.8441629000008106,,32,14,2026-03-12_16h25.48.432,2026A_exp2,2022.2.4,59.9507804392701,
1000,1,4.9,6.1,0,0,72,72,49,,,,,231.59167710016482,232.24224140006118,232.24224140006118,232.72658780007623,315,315,232.72658780007623,232.72658780007623,232.72658780007623,232.72658780007623,232.72658780007623,232.72658780007623,232.72658780007623,232.72658780007623,232.72658780007623,233.0933493000921,233.0933493000921,233.0933493000921,233.0933493000921,233.0933493000921,233.0933493000921,233.0933493000921,233.0933493000921,233.0933493000921,21,2,"[0.15096619981341064, 0.3177209999412298]","[0.16735409991815686, 0.3344338999595493]",233.0933493000921,233.29514280008152,1000,233.29514280008152,1000,1000,1000,1000,0,num_3,0.47324430011212826,,32,14,2026-03-12_16h25.48.432,2026A_exp2,2022.2.4,59.9507804392701,
1,0,0.0,0.0,0,0,73,73,75,,,,,233.79394920007326,234.4445547000505,234.4445547000505,234.94561489997432,315,45,234.94561489997432,234.94561489997432,234.94561489997432,234.94561489997432,234.94561489997432,234.94561489997432,234.94561489997432,234.94561489997432,234.94561489997432,235.31224480015226,235.31224480015226,235.31224480015226,235.31224480015226,235.31224480015226,235.31224480015226,235.31224480015226,235.31224480015226,235.31224480015226,19,3,"[0.03311020019464195, 0.100200500106439, 0.13359360001049936]","[0.0667187999933958, 0.1167041000444442, 0.1504629000555724]",235.31224480015226,235.51259980001487,0.0,235.51259980001487,1,0.0,0,0,1000,num_4,0.7834656999912113,,32,14,2026-03-12_16h25.48.432,2026A_exp2,2022.2.4,59.9507804392701,
1,0,4.9,0.0,1,0,74,74,52,,,,,236.3131524999626,236.9639125999529,236.9639125999529,237.44823340000585,45,45,237.44823340000585,237.44823340000585,237.44823340000585,237.44823340000585,237.44823340000585,237.44823340000585,237.44823340000585,237.44823340000585,237.44823340000585,237.81468700012192,237.81468700012192,237.81468700012192,237.81468700012192,237.81468700012192,237.81468700012192,237.81468700012192,237.81468700012192,237.81468700012192,8,4,"[0.0012632000725716352, 0.08346250001341105, 0.15042970003560185, 0.2504960000514984]","[0.06690860004164279, 0.1335678999312222, 0.2336490999441594, 0.3001556999515742]",237.81468700012192,238.01496160007082,0.0,238.01496160007082,0,0.0,0,1,1000,num_1,0.7131306000519544,,32,14,2026-03-12_16h25.48.432,2026A_exp2,2022.2.4,59.9507804392701,
1,0,4.9,4.9,1,0,75,75,32,,,,,238.74881230015308,239.40503150015138,239.40503150015138,239.883999499958,45,45,239.883999499958,239.883999499958,239.883999499958,239.883999499958,239.883999499958,239.883999499958,239.883999499958,239.883999499958,239.883999499958,240.25057100015692,240.25057100015692,240.25057100015692,240.25057100015692,240.25057100015692,240.25057100015692,240.25057100015692,240.25057100015692,240.25057100015692,17,4,"[0.0011940998956561089, 0.10012359987013042, 0.16681759990751743, 0.2502611998934299]","[0.050161599880084395, 0.11686760000884533, 0.18333659996278584, 0.2668995999265462]",240.25057100015692,240.45074150012806,4.9,240.45074150012806,0,4.9,1,0,1000,num_1,0.8690205998718739,,32,14,2026-03-12_16h25.48.432,2026A_exp2,2022.2.4,59.9507804392701,
1,0,0.0,4.9,0,0,76,76,48,,,,,241.3516552001238,242.00227120006457,242.00227120006457,242.48676420003176,315,45,242.48676420003176,242.48676420003176,242.48676420003176,242.48676420003176,242.48676420003176,242.48676420003176,242.48676420003176,242.48676420003176,242.48676420003176,242.8530423999764,242.8530423999764,242.8530423999764,242.8530423999764,242.8530423999764,242.8530423999764,242.8530423999764,242.8530423999764,242.8530423999764,23,0,,,242.8530423999764,243.0532017000951,0.0,243.0532017000951,1,0.0,0,0,1000,num_4,1.08332149987109,,32,14,2026-03-12_16h25.48.432,2026A_exp2,2022.2.4,59.9507804392701,
1,0,4.9,0.0,0,0,77,77,47,,,,,244.154350399971,244.80494310008362,244.80494310008362,245.28934739995748,315,45,245.28934739995748,245.28934739995748,245.28934739995748,245.28934739995748,245.28934739995748,245.28934739995748,245.28934739995748,245.28934739995748,245.28934739995748,245.65571269998327,245.65571269998327,245.65571269998327,245.65571269998327,245.65571269998327,245.65571269998327,245.65571269998327,245.65571269998327,245.65571269998327,15,4,"[0.11670609982684255, 0.2004596998449415, 0.23376669990830123, 0.3672770999837667]","[0.1669126998167485, 0.2171502998098731, 0.28353879996575415, 0.36728130001574755]",245.65571269998327,245.85592330014333,4.9,245.85592330014333,1,4.9,1,1,1000,num_4,0.42414209991693497,,32,14,2026-03-12_16h25.48.432,2026A_exp2,2022.2.4,59.9507804392701,
1000,1,4.9,0.0,0,0,78,78,82,,,,,246.30639680009335,246.96536080003716,246.96536080003716,247.4583827999886,45,315,247.4583827999886,247.4583827999886,247.4583827999886,247.4583827999886,247.4583827999886,247.4583827999886,247.4583827999886,247.4583827999886,247.4583827999886,247.80820400011726,247.80820400011726,247.80820400011726,247.80820400011726,247.80820400011726,247.80820400011726,247.80820400011726,247.80820400011726,247.80820400011726,22,0,,,247.80820400011726,248.0241543999873,1000,248.0241543999873,1000,1000,1000,1000,0,num_3,0.5838496999349445,,32,14,2026-03-12_16h25.48.432,2026A_exp2,2022.2.4,59.9507804392701,
0,0,4.9,4.9,0,0,79,79,88,,,,,248.625335900113,249.2762427001726,249.2762427001726,249.77720819995739,315,45,249.77720819995739,249.77720819995739,249.77720819995739,249.77720819995739,249.77720819995739,249.77720819995739,249.77720819995739,249.77720819995739,249.77720819995739,250.1437212000601,250.1437212000601,250.1437212000601,250.1437212000601,250.1437212000601,250.1437212000601,250.1437212000601,250.1437212000601,250.1437212000601,20,3,"[0.0012107999064028263, 0.21702830004505813, 0.3672285000793636]","[0.017214099876582623, 0.2330437998753041, 0.3672328998800367]",250.1437212000601,250.34387330012396,4.9,250.34387330012396,0,4.9,1,0,1000,num_1,0.567774600116536,,32,14,2026-03-12_16h25.48.432,2026A_exp2,2022.2.4,59.9507804392701,
1000,1,0.0,3.7,0,0,80,80,21,,,,,250.9277949000243,251.57838169997558,251.57838169997558,252.06286960002035,315,45,252.06286960002035,252.06286960002035,252.06286960002035,252.06286960002035,252.06286960002035,252.06286960002035,252.06286960002035,252.06286960002035,252.06286960002035,252.42928729997948,252.42928729997948,252.42928729997948,252.42928729997948,252.42928729997948,252.42928729997948,252.42928729997948,252.42928729997948,252.42928729997948,15,2,"[0.16750260000117123, 0.2669569000136107]","[0.18354590004310012, 0.3672269000671804]",252.42928729997948,252.63114559999667,1000,252.63114559999667,1000,1000,1000,1000,1,num_2,0.68926199991256,,32,14,2026-03-12_16h25.48.432,2026A_exp2,2022.2.4,59.9507804392701,
1000,1,3.7,0.0,0,0,81,81,28,,,,,253.34689490008168,253.99756680009887,253.99756680009887,254.49869349994697,315,45,254.49869349994697,254.49869349994697,254.49869349994697,254.49869349994697,254.49869349994697,254.49869349994697,254.49869349994697,254.49869349994697,254.49869349994697,254.86513060005382,254.86513060005382,254.86513060005382,254.86513060005382,254.86513060005382,254.86513060005382,254.86513060005382,254.86513060005382,254.86513060005382,19,4,"[0.06664000009186566, 0.10021560010500252, 0.1502919001504779, 0.2501382001210004]","[0.08307780022732913, 0.11672510020434856, 0.16691140015609562, 0.26702380017377436]",254.86513060005382,255.0667171999812,1000,255.0667171999812,1000,1000,1000,1000,0,num_3,0.4454826000146568,,32,14,2026-03-12_16h25.48.432,2026A_exp2,2022.2.4,59.9507804392701,
1,0,4.9,0.0,0,0,82,82,57,,,,,255.53234080015682,256.18308009998873,256.18308009998873,256.68422619998455,45,45,256.68422619998455,256.68422619998455,256.68422619998455,256.68422619998455,256.68422619998455,256.68422619998455,256.68422619998455,256.68422619998455,256.68422619998455,257.0506253000349,257.0506253000349,257.0506253000349,257.0506253000349,257.0506253000349,257.0506253000349,257.0506253000349,257.0506253000349,257.0506253000349,9,4,"[0.0007538998033851385, 0.1840987999457866, 0.2341885999776423, 0.3509567999280989]","[0.10061590000987053, 0.21742979995906353, 0.3175575998611748, 0.3675681999884546]",257.0506253000349,257.2508016000502,4.9,257.2508016000502,1,4.9,1,1,1000,num_4,0.5172459001187235,,32,14,2026-03-12_16h25.48.432,2026A_exp2,2022.2.4,59.9507804392701,
0,0,4.9,3.7,1,0,83,83,13,,,,,257.78458720003255,258.43546970002353,258.43546970002353,258.91975670005195,315,315,258.91975670005195,258.91975670005195,258.91975670005195,258.91975670005195,258.91975670005195,258.91975670005195,258.91975670005195,258.91975670005195,258.91975670005195,259.2862448000815,259.2862448000815,259.2862448000815,259.2862448000815,259.2862448000815,259.2862448000815,259.2862448000815,259.2862448000815,259.2862448000815,22,1,[0.050000099930912256],[0.06645889999344945],259.2862448000815,259.48639790015295,4.9,259.48639790015295,1,4.9,1,1,1000,num_4,0.6734018998686224,,32,14,2026-03-12_16h25.48.432,2026A_exp2,2022.2.4,59.9507804392701,
1,0,0.0,0.0,1,0,84,84,42,,,,,260.18692110013217,260.83776709996164,260.83776709996164,261.3220802000724,45,45,261.3220802000724,261.3220802000724,261.3220802000724,261.3220802000724,261.3220802000724,261.3220802000724,261.3220802000724,261.3220802000724,261.3220802000724,261.6885208999738,261.6885208999738,261.6885208999738,261.6885208999738,261.6885208999738,261.6885208999738,261.6885208999738,261.6885208999738,261.6885208999738,21,1,[0.13355359993875027],[0.15033319988287985],261.6885208999738,261.8888431000523,0.0,261.8888431000523,0,0.0,0,1,1000,num_1,0.6312657000962645,,32,14,2026-03-12_16h25.48.432,2026A_exp2,2022.2.4,59.9507804392701,
1,0,3.7,3.7,1,0,85,85,11,,,,,262.54011410009116,263.19039480015635,263.19039480015635,263.6743787000887,315,45,263.6743787000887,263.6743787000887,263.6743787000887,263.6743787000887,263.6743787000887,263.6743787000887,263.6743787000887,263.6743787000887,263.6743787000887,264.04096450004727,264.04096450004727,264.04096450004727,264.04096450004727,264.04096450004727,264.04096450004727,264.04096450004727,264.04096450004727,264.04096450004727,14,5,"[0.001205099979415536, 0.06681689992547035, 0.1669058999978006, 0.200221800012514, 0.28379309992305934]","[0.033399200066924095, 0.08353279996663332, 0.18352870014496148, 0.2501910999417305, 0.31637719995342195]",264.04096450004727,264.2411214001477,3.7,264.2411214001477,0,3.7,1,0,1000,num_1,0.9025234000291675,,32,14,2026-03-12_16h25.48.432,2026A_exp2,2022.2.4,59.9507804392701,
1000,1,4.9,4.9,0,0,86,86,6,,,,,265.17536070011556,265.8260920001194,265.8260920001194,266.3105197001714,315,45,266.3105197001714,266.3105197001714,266.3105197001714,266.3105197001714,266.3105197001714,266.3105197001714,266.3105197001714,266.3105197001714,266.3105197001714,266.67680689995177,266.67680689995177,266.67680689995177,266.67680689995177,266.67680689995177,266.67680689995177,266.67680689995177,266.67680689995177,266.67680689995177,9,4,"[0.001199300168082118, 0.10044010006822646, 0.15033009997569025, 0.18383410014212132]","[0.08363850018940866, 0.13377390010282397, 0.16708120005205274, 0.28401190019212663]",266.67680689995177,266.89764490001835,1000,266.89764490001835,1000,1000,1000,1000,0,num_3,0.5588201999198645,,32,14,2026-03-12_16h25.48.432,2026A_exp2,2022.2.4,59.9507804392701,
1,0,6.1,0.0,1,0,87,87,53,,,,,267.47779290005565,268.1283440000843,268.1283440000843,268.6295368000865,45,45,268.6295368000865,268.6295368000865,268.6295368000865,268.6295368000865,268.6295368000865,268.6295368000865,268.6295368000865,268.6295368000865,268.6295368000865,268.99591700010933,268.99591700010933,268.99591700010933,268.99591700010933,268.99591700010933,268.99591700010933,268.99591700010933,268.99591700010933,268.99591700010933,19,3,"[0.23383420007303357, 0.30058220005594194, 0.3672308998648077]","[0.25051639997400343, 0.3338279998861253, 0.3672356999013573]",268.99591700010933,269.19611570006236,0.0,269.19611570006236,0,0.0,0,1,1000,num_1,0.5797298001125455,,32,14,2026-03-12_16h25.48.432,2026A_exp2,2022.2.4,59.9507804392701,
1,0,6.1,0.0,1,0,88,88,41,,,,,269.79668619995937,270.44734650012106,270.44734650012106,270.93162970012054,315,45,270.93162970012054,270.93162970012054,270.93162970012054,270.93162970012054,270.93162970012054,270.93162970012054,270.93162970012054,270.93162970012054,270.93162970012054,271.2982268000487,271.2982268000487,271.2982268000487,271.2982268000487,271.2982268000487,271.2982268000487,271.2982268000487,271.2982268000487,271.2982268000487,13,8,"[0.0011930998880416155, 0.10036140005104244, 0.15038049989379942, 0.18388730008155107, 0.23390439990907907, 0.26716609997674823, 0.30049589998088777, 0.35069640004076064]","[0.017353199888020754, 0.13362259999848902, 0.1670291000045836, 0.20045530004426837, 0.2505250999238342, 0.28388980007730424, 0.3339148999657482, 0.36738900002092123]",271.2982268000487,271.4983149000909,0.0,271.4983149000909,0,0.0,0,1,1000,num_1,0.6386838001199067,,32,14,2026-03-12_16h25.48.432,2026A_exp2,2022.2.4,59.9507804392701,
1000,1,6.1,3.7,0,0,89,89,43,,,,,272.1656973999925,272.8162213000469,272.8162213000469,273.30064989998937,45,45,273.30064989998937,273.30064989998937,273.30064989998937,273.30064989998937,273.30064989998937,273.30064989998937,273.30064989998937,273.30064989998937,273.30064989998937,273.6672722999938,273.6672722999938,273.6672722999938,273.6672722999938,273.6672722999938,273.6672722999938,273.6672722999938,273.6672722999938,273.6672722999938,8,3,"[0.0012344999704509974, 0.15028750011697412, 0.26694660005159676]","[0.11686479998752475, 0.2337013001088053, 0.30039600003510714]",273.6672722999938,273.8693052001763,1000,273.8693052001763,1000,1000,1000,1000,0,num_3,0.6345499998424202,,32,14,2026-03-12_16h25.48.432,2026A_exp2,2022.2.4,59.9507804392701,
,,,,,,,,,,,,,,,,,,,,,,,,,,,,,,,,,,,,,,,,,,,,,,,,,,,,274.5455214001704,,,,,,,
