validity,detectorcomp,contrastCW,contrastCCW,precueCWorCCW,block_80trials.thisRepN,block_80trials.thisTrialN,block_80trials.thisN,block_80trials.thisIndex,etRecord.started,etRecord.stopped,text.started,text.stopped,text_4.started,text_4.stopped,text_6.started,text_6.stopped,oriCW,oriCCW,roi_2.started,grating_UR.started,grating_UL.started,grating_LR.started,grating_LL.started,noise_UR.started,noise_UL.started,noise_LR.started,noise_LL.started,roi_2.stopped,grating_UR.stopped,grating_UL.stopped,grating_LR.stopped,grating_LL.stopped,noise_UR.stopped,noise_UL.stopped,noise_LR.stopped,noise_LL.stopped,outframe,roi_2.numLooks,roi_2.timesOn,roi_2.timesOff,text_2.started,text_2.stopped,probedcontrast,key_resp.started,respdetect,relevantContrast,correctDetect,TorFdetect,respCWorCCW,key_resp.keys,key_resp.rt,feedback_display_.started,participantNo,blockNo,date,expName,psychopyVersion,frameRate,
1,0,6.1,4.9,0,0,0,0,24,4.4800020987167954e-05,4.4800020987167954e-05,63.18023219998577,65.18532579997554,65.18532579997554,65.81704799999716,65.81704799999716,66.3402765999781,45,45,66.3402765999781,66.3402765999781,66.3402765999781,66.3402765999781,66.3402765999781,66.3402765999781,66.3402765999781,66.3402765999781,66.3402765999781,66.68411589998868,66.68411589998868,66.68411589998868,66.68411589998868,66.68411589998868,66.68411589998868,66.68411589998868,66.68411589998868,66.68411589998868,0,1,[0.0010135000047739595],[0.36698280001292005],66.68411589998868,66.88441719999537,6.1,66.88441719999537,1,6.1,1,1,1000,num_4,1.7404710999981035,,21,10,2026-03-02_18h07.07.611,2026A_exp2,2022.2.4,60.02591919710257,
1,0,0.0,0.0,1,0,1,1,73,,,,,68.65242079997552,69.30339759998606,69.30339759998606,69.7877135000017,315,45,69.7877135000017,69.7877135000017,69.7877135000017,69.7877135000017,69.7877135000017,69.7877135000017,69.7877135000017,69.7877135000017,69.7877135000017,70.15423179999925,70.15423179999925,70.15423179999925,70.15423179999925,70.15423179999925,70.15423179999925,70.15423179999925,70.15423179999925,70.15423179999925,0,1,[0.0007176999934017658],[0.3680168999999296],70.15423179999925,70.35412649999489,0.0,70.35412649999489,0,0.0,0,1,1000,num_1,0.39890870000817813,,21,10,2026-03-02_18h07.07.611,2026A_exp2,2022.2.4,60.02591919710257,
1,0,0.0,4.9,1,0,2,2,53,,,,,70.77139619999798,71.40534579998348,71.40534579998348,71.90653809998184,315,315,71.90653809998184,71.90653809998184,71.90653809998184,71.90653809998184,71.90653809998184,71.90653809998184,71.90653809998184,71.90653809998184,71.90653809998184,72.27338669999153,72.27338669999153,72.27338669999153,72.27338669999153,72.27338669999153,72.27338669999153,72.27338669999153,72.27338669999153,72.27338669999153,0,1,[0.0007369999948423356],[0.3676209999830462],72.27338669999153,72.47315069998149,4.9,72.47315069998149,1,4.9,1,1,1000,num_4,0.3913738999981433,,21,10,2026-03-02_18h07.07.611,2026A_exp2,2022.2.4,60.02591919710257,
1,0,0.0,3.7,0,0,3,3,35,,,,,72.8904532000015,73.54102929998771,73.54102929998771,74.02530349997687,45,315,74.02530349997687,74.02530349997687,74.02530349997687,74.02530349997687,74.02530349997687,74.02530349997687,74.02530349997687,74.02530349997687,74.02530349997687,74.39153639998403,74.39153639998403,74.39153639998403,74.39153639998403,74.39153639998403,74.39153639998403,74.39153639998403,74.39153639998403,74.39153639998403,0,1,[0.0007285000174306333],[0.36707350000506267],74.39153639998403,74.59196559997508,0.0,74.59196559997508,0,0.0,0,1,1000,num_1,0.7042608000047039,,21,10,2026-03-02_18h07.07.611,2026A_exp2,2022.2.4,60.02591919710257,
1,0,0.0,3.7,1,0,4,4,66,,,,,75.32617429998936,75.97625809998135,75.97625809998135,76.46109379999689,45,45,76.46109379999689,76.46109379999689,76.46109379999689,76.46109379999689,76.46109379999689,76.46109379999689,76.46109379999689,76.46109379999689,76.46109379999689,76.82774889998836,76.82774889998836,76.82774889998836,76.82774889998836,76.82774889998836,76.82774889998836,76.82774889998836,76.82774889998836,76.82774889998836,1,2,"[0.0007277000113390386, 0.26716489999671467]","[0.2504768999933731, 0.3672493000049144]",76.82774889998836,77.0282409999927,3.7,77.0282409999927,1,3.7,1,1,1000,num_4,0.5004409000102896,,21,10,2026-03-02_18h07.07.611,2026A_exp2,2022.2.4,60.02591919710257,
1000,1,4.9,0.0,0,0,5,5,26,,,,,77.54459529998712,78.17878899999778,78.17878899999778,78.68015780000133,45,45,78.68015780000133,78.68015780000133,78.68015780000133,78.68015780000133,78.68015780000133,78.68015780000133,78.68015780000133,78.68015780000133,78.68015780000133,79.04644259999623,79.04644259999623,79.04644259999623,79.04644259999623,79.04644259999623,79.04644259999623,79.04644259999623,79.04644259999623,79.04644259999623,0,1,[0.0009735999919939786],[0.36697809997713193],79.04644259999623,79.24689849998686,1000,79.24689849998686,1000,1000,1000,1000,0,num_3,0.6413521000067703,,21,10,2026-03-02_18h07.07.611,2026A_exp2,2022.2.4,60.02591919710257,
1000,1,0.0,6.1,1,0,6,6,62,,,,,79.91416309998021,80.5643239999772,80.5643239999772,81.04898019999382,315,45,81.04898019999382,81.04898019999382,81.04898019999382,81.04898019999382,81.04898019999382,81.04898019999382,81.04898019999382,81.04898019999382,81.04898019999382,81.41588239997509,81.41588239997509,81.41588239997509,81.41588239997509,81.41588239997509,81.41588239997509,81.41588239997509,81.41588239997509,81.41588239997509,0,1,[0.0007678999972995371],[0.3676000999985263],81.41588239997509,81.61569399997825,1000,81.61569399997825,1000,1000,1000,1000,1,num_2,0.5604170000005979,,21,10,2026-03-02_18h07.07.611,2026A_exp2,2022.2.4,60.02591919710257,
1000,1,4.9,0.0,1,0,7,7,72,,,,,82.1999462999811,82.8334637999942,82.8334637999942,83.33491439998033,45,315,83.33491439998033,83.33491439998033,83.33491439998033,83.33491439998033,83.33491439998033,83.33491439998033,83.33491439998033,83.33491439998033,83.33491439998033,83.7011829999974,83.7011829999974,83.7011829999974,83.7011829999974,83.7011829999974,83.7011829999974,83.7011829999974,83.7011829999974,83.7011829999974,1,2,"[0.0007472999859601259, 0.28381069999886677]","[0.26690679998137057, 0.3672426999837626]",83.7011829999974,83.90116619999753,1000,83.90116619999753,1000,1000,1000,1000,0,num_3,0.5073726999689825,,21,10,2026-03-02_18h07.07.611,2026A_exp2,2022.2.4,60.02591919710257,
1000,1,0.0,4.9,1,0,8,8,76,,,,,84.43499979999615,85.0857881999982,85.0857881999982,85.57035959998029,315,45,85.57035959998029,85.57035959998029,85.57035959998029,85.57035959998029,85.57035959998029,85.57035959998029,85.57035959998029,85.57035959998029,85.57035959998029,85.93645419998211,85.93645419998211,85.93645419998211,85.93645419998211,85.93645419998211,85.93645419998211,85.93645419998211,85.93645419998211,85.93645419998211,0,1,[0.0008621999877505004],[0.36701190000167117],85.93645419998211,86.13693999999668,1000,86.13693999999668,1000,1000,1000,1000,1,num_2,0.49531570001272485,,21,10,2026-03-02_18h07.07.611,2026A_exp2,2022.2.4,60.02591919710257,
1,0,0.0,0.0,0,0,9,9,63,,,,,86.65430789999664,87.3046861999901,87.3046861999901,87.78889879997587,315,45,87.78889879997587,87.78889879997587,87.78889879997587,87.78889879997587,87.78889879997587,87.78889879997587,87.78889879997587,87.78889879997587,87.78889879997587,88.15526669999235,88.15526669999235,88.15526669999235,88.15526669999235,88.15526669999235,88.15526669999235,88.15526669999235,88.15526669999235,88.15526669999235,23,0,,,88.15526669999235,88.35545370000182,0.0,88.35545370000182,0,0.0,0,1,1000,num_1,0.3809882999921683,,21,10,2026-03-02_18h07.07.611,2026A_exp2,2022.2.4,60.02591919710257,
1000,1,0.0,6.1,0,0,10,10,37,,,,,88.75608490000013,89.40672569998424,89.40672569998424,89.90780689998064,315,45,89.90780689998064,89.90780689998064,89.90780689998064,89.90780689998064,89.90780689998064,89.90780689998064,89.90780689998064,89.90780689998064,89.90780689998064,90.25755419998313,90.25755419998313,90.25755419998313,90.25755419998313,90.25755419998313,90.25755419998313,90.25755419998313,90.25755419998313,90.25755419998313,0,1,[0.0007319000142160803],[0.3502534000144806],90.25755419998313,90.457731100003,1000,90.457731100003,1000,1000,1000,1000,1,num_2,0.4792907999944873,,21,10,2026-03-02_18h07.07.611,2026A_exp2,2022.2.4,60.02591919710257,
1000,1,4.9,0.0,1,0,11,11,22,,,,,90.95818299998064,91.59220109999296,91.59220109999296,92.09347669998533,315,45,92.09347669998533,92.09347669998533,92.09347669998533,92.09347669998533,92.09347669998533,92.09347669998533,92.09347669998533,92.09347669998533,92.09347669998533,92.45985869999276,92.45985869999276,92.45985869999276,92.45985869999276,92.45985869999276,92.45985869999276,92.45985869999276,92.45985869999276,92.45985869999276,0,1,[0.0007622999837622046],[0.3674399000010453],92.45985869999276,92.65993049999815,1000,92.65993049999815,1000,1000,1000,1000,0,num_3,0.6206769999989774,,21,10,2026-03-02_18h07.07.611,2026A_exp2,2022.2.4,60.02591919710257,
1000,1,6.1,0.0,1,0,12,12,30,,,,,93.31098339997698,93.96162970000296,93.96162970000296,94.46232009999221,315,45,94.46232009999221,94.46232009999221,94.46232009999221,94.46232009999221,94.46232009999221,94.46232009999221,94.46232009999221,94.46232009999221,94.46232009999221,94.82880009998917,94.82880009998917,94.82880009998917,94.82880009998917,94.82880009998917,94.82880009998917,94.82880009998917,94.82880009998917,94.82880009998917,0,1,[0.0009188000112771988],[0.3667657999903895],94.82880009998917,95.02942679999978,1000,95.02942679999978,1000,1000,1000,1000,0,num_3,0.4430914999975357,,21,10,2026-03-02_18h07.07.611,2026A_exp2,2022.2.4,60.02591919710257,
1000,1,0.0,4.9,1,0,13,13,79,,,,,95.49625089997426,96.12990579998586,96.12990579998586,96.63134110000101,315,315,96.63134110000101,96.63134110000101,96.63134110000101,96.63134110000101,96.63134110000101,96.63134110000101,96.63134110000101,96.63134110000101,96.63134110000101,96.99753279998549,96.99753279998549,96.99753279998549,96.99753279998549,96.99753279998549,96.99753279998549,96.99753279998549,96.99753279998549,96.99753279998549,23,0,,,96.99753279998549,97.19806080000126,1000,97.19806080000126,1000,1000,1000,1000,1,num_2,0.8421605000039563,,21,10,2026-03-02_18h07.07.611,2026A_exp2,2022.2.4,60.02591919710257,
1,0,4.9,0.0,1,0,14,14,38,,,,,98.06571729999268,98.71594609998283,98.71594609998283,99.20031429998926,45,315,99.20031429998926,99.20031429998926,99.20031429998926,99.20031429998926,99.20031429998926,99.20031429998926,99.20031429998926,99.20031429998926,99.20031429998926,99.56668029999128,99.56668029999128,99.56668029999128,99.56668029999128,99.56668029999128,99.56668029999128,99.56668029999128,99.56668029999128,99.56668029999128,0,1,[0.0007389999809674919],[0.36745190000510775],99.56668029999128,99.76695859999745,0.0,99.76695859999745,0,0.0,0,1,1000,num_1,0.8178961999947205,,21,10,2026-03-02_18h07.07.611,2026A_exp2,2022.2.4,60.02591919710257,
1000,1,0.0,6.1,1,0,15,15,88,,,,,100.60110969998641,101.23545859998558,101.23545859998558,101.73641109999153,45,45,101.73641109999153,101.73641109999153,101.73641109999153,101.73641109999153,101.73641109999153,101.73641109999153,101.73641109999153,101.73641109999153,101.73641109999153,102.1029313999752,102.1029313999752,102.1029313999752,102.1029313999752,102.1029313999752,102.1029313999752,102.1029313999752,102.1029313999752,102.1029313999752,0,1,[0.00096900001517497],[0.3670626000093762],102.1029313999752,102.30330390000017,1000,102.30330390000017,1000,1000,1000,1000,1,num_2,0.45756660000188276,,21,10,2026-03-02_18h07.07.611,2026A_exp2,2022.2.4,60.02591919710257,
1000,1,0.0,0.0,0,0,16,16,17,,,,,102.78709679999156,103.43742059997749,103.43742059997749,103.92196809998131,45,45,103.92196809998131,103.92196809998131,103.92196809998131,103.92196809998131,103.92196809998131,103.92196809998131,103.92196809998131,103.92196809998131,103.92196809998131,104.2879941999854,104.2879941999854,104.2879941999854,104.2879941999854,104.2879941999854,104.2879941999854,104.2879941999854,104.2879941999854,104.2879941999854,5,1,[0.0010817000002134591],[0.3005678000045009],104.2879941999854,104.48874049997539,1000,104.48874049997539,1000,1000,1000,1000,1,num_2,0.9358200999849942,,21,10,2026-03-02_18h07.07.611,2026A_exp2,2022.2.4,60.02591919710257,
1000,1,6.1,0.0,0,0,17,17,82,,,,,105.45598709999467,106.09009099999093,106.09009099999093,106.5912268999964,315,315,106.5912268999964,106.5912268999964,106.5912268999964,106.5912268999964,106.5912268999964,106.5912268999964,106.5912268999964,106.5912268999964,106.5912268999964,106.95746999999392,106.95746999999392,106.95746999999392,106.95746999999392,106.95746999999392,106.95746999999392,106.95746999999392,106.95746999999392,106.95746999999392,0,1,[0.000764199998229742],[0.36756749998312443],106.95746999999392,107.15824799999245,1000,107.15824799999245,1000,1000,1000,1000,0,num_3,0.5060953000211157,,21,10,2026-03-02_18h07.07.611,2026A_exp2,2022.2.4,60.02591919710257,
1000,1,0.0,0.0,1,0,18,18,33,,,,,107.69151779997628,108.32580229997984,108.32580229997984,108.82673169998452,315,45,108.82673169998452,108.82673169998452,108.82673169998452,108.82673169998452,108.82673169998452,108.82673169998452,108.82673169998452,108.82673169998452,108.82673169998452,109.19329979998292,109.19329979998292,109.19329979998292,109.19329979998292,109.19329979998292,109.19329979998292,109.19329979998292,109.19329979998292,109.19329979998292,0,1,[0.0007514999888371676],[0.3679769999871496],109.19329979998292,109.39327199998661,1000,109.39327199998661,1000,1000,1000,1000,0,num_3,0.783858600014355,,21,10,2026-03-02_18h07.07.611,2026A_exp2,2022.2.4,60.02591919710257,
1,0,4.9,0.0,0,0,19,19,58,,,,,110.19409689999884,110.84456009999849,110.84456009999849,111.34580559999449,315,315,111.34580559999449,111.34580559999449,111.34580559999449,111.34580559999449,111.34580559999449,111.34580559999449,111.34580559999449,111.34580559999449,111.34580559999449,111.71239909998258,111.71239909998258,111.71239909998258,111.71239909998258,111.71239909998258,111.71239909998258,111.71239909998258,111.71239909998258,111.71239909998258,8,2,"[0.08452500001294538, 0.3341447999991942]","[0.31738050002604723, 0.3506562000256963]",111.71239909998258,111.91276489998563,4.9,111.91276489998563,1,4.9,1,1,1000,num_4,0.7044064000074286,,21,10,2026-03-02_18h07.07.611,2026A_exp2,2022.2.4,60.02591919710257,
1000,1,6.1,0.0,1,0,20,20,75,,,,,112.64690459999838,113.28039429997443,113.28039429997443,113.78170989998034,315,315,113.78170989998034,113.78170989998034,113.78170989998034,113.78170989998034,113.78170989998034,113.78170989998034,113.78170989998034,113.78170989998034,113.78170989998034,114.1481114999915,114.1481114999915,114.1481114999915,114.1481114999915,114.1481114999915,114.1481114999915,114.1481114999915,114.1481114999915,114.1481114999915,0,1,[0.0009055999980773777],[0.36767030000919476],114.1481114999915,114.34871099999873,1000,114.34871099999873,1000,1000,1000,1000,0,num_3,0.5399524999957066,,21,10,2026-03-02_18h07.07.611,2026A_exp2,2022.2.4,60.02591919710257,
1000,1,3.7,0.0,1,0,21,21,48,,,,,114.91626199998427,115.5662536000018,115.5662536000018,116.06722080000327,315,45,116.06722080000327,116.06722080000327,116.06722080000327,116.06722080000327,116.06722080000327,116.06722080000327,116.06722080000327,116.06722080000327,116.06722080000327,116.41728219998186,116.41728219998186,116.41728219998186,116.41728219998186,116.41728219998186,116.41728219998186,116.41728219998186,116.41728219998186,116.41728219998186,0,1,[0.0007266000029630959],[0.35089240001980215],116.41728219998186,116.617236399994,1000,116.617236399994,1000,1000,1000,1000,0,num_3,0.4874509999935981,,21,10,2026-03-02_18h07.07.611,2026A_exp2,2022.2.4,60.02591919710257,
1000,1,6.1,0.0,1,0,22,22,16,,,,,117.13503579999087,117.76845589998993,117.76845589998993,118.26950379999471,45,45,118.26950379999471,118.26950379999471,118.26950379999471,118.26950379999471,118.26950379999471,118.26950379999471,118.26950379999471,118.26950379999471,118.26950379999471,118.63620509998873,118.63620509998873,118.63620509998873,118.63620509998873,118.63620509998873,118.63620509998873,118.63620509998873,118.63620509998873,118.63620509998873,0,1,[0.0007482000219170004],[0.3674693000211846],118.63620509998873,118.83619659999385,1000,118.83619659999385,1000,1000,1000,1000,0,num_3,0.48494349999236874,,21,10,2026-03-02_18h07.07.611,2026A_exp2,2022.2.4,60.02591919710257,
1000,1,6.1,0.0,0,0,23,23,14,,,,,119.35336009997991,119.98704879998695,119.98704879998695,120.48835939998389,45,315,120.48835939998389,120.48835939998389,120.48835939998389,120.48835939998389,120.48835939998389,120.48835939998389,120.48835939998389,120.48835939998389,120.48835939998389,120.85489759998745,120.85489759998745,120.85489759998745,120.85489759998745,120.85489759998745,120.85489759998745,120.85489759998745,120.85489759998745,120.85489759998745,0,1,[0.0007536000048276037],[0.36667320001288317],120.85489759998745,121.05492179997964,1000,121.05492179997964,1000,1000,1000,1000,0,num_3,0.441907500004163,,21,10,2026-03-02_18h07.07.611,2026A_exp2,2022.2.4,60.02591919710257,
1000,1,0.0,3.7,0,0,24,24,78,,,,,121.52232459999504,122.15615939997952,122.15615939997952,122.65699399998994,315,45,122.65699399998994,122.65699399998994,122.65699399998994,122.65699399998994,122.65699399998994,122.65699399998994,122.65699399998994,122.65699399998994,122.65699399998994,123.02362699998775,123.02362699998775,123.02362699998775,123.02362699998775,123.02362699998775,123.02362699998775,123.02362699998775,123.02362699998775,123.02362699998775,2,1,[0.03339699999196455],[0.367792399978498],123.02362699998775,123.22390389998327,1000,123.22390389998327,1000,1000,1000,1000,1,num_2,0.4890300999977626,,21,10,2026-03-02_18h07.07.611,2026A_exp2,2022.2.4,60.02591919710257,
0,0,6.1,3.7,1,0,25,25,49,,,,,123.74113169999328,124.39168999998947,124.39168999998947,124.87609769997653,315,315,124.87609769997653,124.87609769997653,124.87609769997653,124.87609769997653,124.87609769997653,124.87609769997653,124.87609769997653,124.87609769997653,124.87609769997653,125.24239839997608,125.24239839997608,125.24239839997608,125.24239839997608,125.24239839997608,125.24239839997608,125.24239839997608,125.24239839997608,125.24239839997608,0,1,[0.0008791000000201166],[0.367629999993369],125.24239839997608,125.44274040000164,6.1,125.44274040000164,1,6.1,1,1,1000,num_4,0.8220487000071444,,21,10,2026-03-02_18h07.07.611,2026A_exp2,2022.2.4,60.02591919710257,
1000,1,3.7,4.9,1,0,26,26,43,,,,,126.29408349998994,126.92749189998722,126.92749189998722,127.42855799998506,315,315,127.42855799998506,127.42855799998506,127.42855799998506,127.42855799998506,127.42855799998506,127.42855799998506,127.42855799998506,127.42855799998506,127.42855799998506,127.79524479998508,127.79524479998508,127.79524479998508,127.79524479998508,127.79524479998508,127.79524479998508,127.79524479998508,127.79524479998508,127.79524479998508,1,2,"[0.0008881999820005149, 0.31715219997568056]","[0.3006841999886092, 0.36741739997523837]",127.79524479998508,127.99533829998109,1000,127.99533829998109,1000,1000,1000,1000,1,num_2,0.5010239999974146,,21,10,2026-03-02_18h07.07.611,2026A_exp2,2022.2.4,60.02591919710257,
1,0,0.0,6.1,0,0,27,27,34,,,,,128.5125305999827,129.1632122999872,129.1632122999872,129.64738849998685,45,315,129.64738849998685,129.64738849998685,129.64738849998685,129.64738849998685,129.64738849998685,129.64738849998685,129.64738849998685,129.64738849998685,129.64738849998685,130.0138728999882,130.0138728999882,130.0138728999882,130.0138728999882,130.0138728999882,130.0138728999882,130.0138728999882,130.0138728999882,130.0138728999882,0,1,[0.0009009999921545386],[0.36712229999830015],130.0138728999882,130.2147880999837,0.0,130.2147880999837,0,0.0,0,1,1000,num_1,0.618288500001654,,21,10,2026-03-02_18h07.07.611,2026A_exp2,2022.2.4,60.02591919710257,
1,0,0.0,4.9,0,0,28,28,4,,,,,130.86469849999412,131.49894019999192,131.49894019999192,132.00012039998546,315,315,132.00012039998546,132.00012039998546,132.00012039998546,132.00012039998546,132.00012039998546,132.00012039998546,132.00012039998546,132.00012039998546,132.00012039998546,132.36682080000173,132.36682080000173,132.36682080000173,132.36682080000173,132.36682080000173,132.36682080000173,132.36682080000173,132.36682080000173,132.36682080000173,0,1,[0.0010084999958053231],[0.3664678999921307],132.36682080000173,132.5663596999948,0.0,132.5663596999948,0,0.0,0,1,1000,num_1,0.5301546999835409,,21,10,2026-03-02_18h07.07.611,2026A_exp2,2022.2.4,60.02591919710257,
0,0,0.0,6.1,0,0,29,29,7,,,,,133.11714769998798,133.751162999979,133.751162999979,134.25208109998493,45,315,134.25208109998493,134.25208109998493,134.25208109998493,134.25208109998493,134.25208109998493,134.25208109998493,134.25208109998493,134.25208109998493,134.25208109998493,134.61865049999324,134.61865049999324,134.61865049999324,134.61865049999324,134.61865049999324,134.61865049999324,134.61865049999324,134.61865049999324,134.61865049999324,0,1,[0.0007613999769091606],[0.36702710000099614],134.61865049999324,134.81903869999223,6.1,134.81903869999223,1,6.1,1,1,1000,num_4,0.5736403999908362,,21,10,2026-03-02_18h07.07.611,2026A_exp2,2022.2.4,60.02591919710257,
1000,1,3.7,4.9,1,0,30,30,44,,,,,135.4198150000011,136.0699119999772,136.0699119999772,136.55443829999422,315,315,136.55443829999422,136.55443829999422,136.55443829999422,136.55443829999422,136.55443829999422,136.55443829999422,136.55443829999422,136.55443829999422,136.55443829999422,136.92077579998295,136.92077579998295,136.92077579998295,136.92077579998295,136.92077579998295,136.92077579998295,136.92077579998295,136.92077579998295,136.92077579998295,21,1,[0.04937550000613555],[0.06596380000701174],136.92077579998295,137.12148799997522,1000,137.12148799997522,1000,1000,1000,1000,1,num_2,0.5511566000059247,,21,10,2026-03-02_18h07.07.611,2026A_exp2,2022.2.4,60.02591919710257,
1000,1,0.0,0.0,1,0,31,31,27,,,,,137.68820419997792,138.3389496000018,138.3389496000018,138.82328299997607,315,45,138.82328299997607,138.82328299997607,138.82328299997607,138.82328299997607,138.82328299997607,138.82328299997607,138.82328299997607,138.82328299997607,138.82328299997607,139.18985870000324,139.18985870000324,139.18985870000324,139.18985870000324,139.18985870000324,139.18985870000324,139.18985870000324,139.18985870000324,139.18985870000324,23,0,,,139.18985870000324,139.39020129997516,1000,139.39020129997516,1000,1000,1000,1000,1,num_2,0.9460959999996703,,21,10,2026-03-02_18h07.07.611,2026A_exp2,2022.2.4,60.02591919710257,
1000,1,0.0,0.0,1,0,32,32,12,,,,,140.3577364999801,141.00806589997956,141.00806589997956,141.5090939999791,315,315,141.5090939999791,141.5090939999791,141.5090939999791,141.5090939999791,141.5090939999791,141.5090939999791,141.5090939999791,141.5090939999791,141.5090939999791,141.8759502999892,141.8759502999892,141.8759502999892,141.8759502999892,141.8759502999892,141.8759502999892,141.8759502999892,141.8759502999892,141.8759502999892,0,1,[0.0009054999973159283],[0.36753139999927953],141.8759502999892,142.07610779997776,1000,142.07610779997776,1000,1000,1000,1000,1,num_2,0.7159986000042409,,21,10,2026-03-02_18h07.07.611,2026A_exp2,2022.2.4,60.02591919710257,
1000,1,6.1,6.1,1,0,33,33,77,,,,,142.8101049999823,143.44437969999854,143.44437969999854,143.94511969998712,315,45,143.94511969998712,143.94511969998712,143.94511969998712,143.94511969998712,143.94511969998712,143.94511969998712,143.94511969998712,143.94511969998712,143.94511969998712,144.31186960000196,144.31186960000196,144.31186960000196,144.31186960000196,144.31186960000196,144.31186960000196,144.31186960000196,144.31186960000196,144.31186960000196,23,0,,,144.31186960000196,144.5119401999982,1000,144.5119401999982,1000,1000,1000,1000,1,num_2,0.6562722999951802,,21,10,2026-03-02_18h07.07.611,2026A_exp2,2022.2.4,60.02591919710257,
1000,1,3.7,0.0,0,0,34,34,45,,,,,145.19597099997918,145.84663509999518,145.84663509999518,146.3308876999945,45,45,146.3308876999945,146.3308876999945,146.3308876999945,146.3308876999945,146.3308876999945,146.3308876999945,146.3308876999945,146.3308876999945,146.3308876999945,146.69741009999416,146.69741009999416,146.69741009999416,146.69741009999416,146.69741009999416,146.69741009999416,146.69741009999416,146.69741009999416,146.69741009999416,20,2,"[0.01734059999580495, 0.0501046999997925]","[0.0334255000052508, 0.08359090000158176]",146.69741009999416,146.8975947999861,1000,146.8975947999861,1000,1000,1000,1000,0,num_3,0.44717830000445247,,21,10,2026-03-02_18h07.07.611,2026A_exp2,2022.2.4,60.02591919710257,
1000,1,0.0,4.9,1,0,35,35,31,,,,,147.36483009997755,148.01538239998627,148.01538239998627,148.4998716999835,315,45,148.4998716999835,148.4998716999835,148.4998716999835,148.4998716999835,148.4998716999835,148.4998716999835,148.4998716999835,148.4998716999835,148.4998716999835,148.86626339997747,148.86626339997747,148.86626339997747,148.86626339997747,148.86626339997747,148.86626339997747,148.86626339997747,148.86626339997747,148.86626339997747,23,0,,,148.86626339997747,149.06635999999708,1000,149.06635999999708,1000,1000,1000,1000,1,num_2,0.3823436000093352,,21,10,2026-03-02_18h07.07.611,2026A_exp2,2022.2.4,60.02591919710257,
1000,1,3.7,0.0,0,0,36,36,57,,,,,149.46714500000235,150.11745510000037,150.11745510000037,150.61876849998953,315,45,150.61876849998953,150.61876849998953,150.61876849998953,150.61876849998953,150.61876849998953,150.61876849998953,150.61876849998953,150.61876849998953,150.61876849998953,150.9682715999952,150.9682715999952,150.9682715999952,150.9682715999952,150.9682715999952,150.9682715999952,150.9682715999952,150.9682715999952,150.9682715999952,22,0,,,150.9682715999952,151.16868709999835,1000,151.16868709999835,1000,1000,1000,1000,0,num_3,0.6956658000126481,,21,10,2026-03-02_18h07.07.611,2026A_exp2,2022.2.4,60.02591919710257,
1,0,0.0,0.0,1,0,37,37,87,,,,,151.8858809999947,152.51999499998055,152.51999499998055,153.03739169999608,45,315,153.03739169999608,153.03739169999608,153.03739169999608,153.03739169999608,153.03739169999608,153.03739169999608,153.03739169999608,153.03739169999608,153.03739169999608,153.38734419998946,153.38734419998946,153.38734419998946,153.38734419998946,153.38734419998946,153.38734419998946,153.38734419998946,153.38734419998946,153.38734419998946,22,0,,,153.38734419998946,153.5875829999859,0.0,153.5875829999859,0,0.0,0,1,1000,num_1,0.9408917000109795,,21,10,2026-03-02_18h07.07.611,2026A_exp2,2022.2.4,60.02591919710257,
1000,1,4.9,3.7,0,0,38,38,32,,,,,154.55520529998466,155.18914969998877,155.18914969998877,155.69029030000092,45,315,155.69029030000092,155.69029030000092,155.69029030000092,155.69029030000092,155.69029030000092,155.69029030000092,155.69029030000092,155.69029030000092,155.69029030000092,156.05662449999363,156.05662449999363,156.05662449999363,156.05662449999363,156.05662449999363,156.05662449999363,156.05662449999363,156.05662449999363,156.05662449999363,23,0,,,156.05662449999363,156.25686619998305,1000,156.25686619998305,1000,1000,1000,1000,0,num_3,0.6232432000106201,,21,10,2026-03-02_18h07.07.611,2026A_exp2,2022.2.4,60.02591919710257,
1000,1,0.0,0.0,0,0,39,39,85,,,,,156.90765419998206,157.55821019998984,157.55821019998984,158.05923349998193,315,315,158.05923349998193,158.05923349998193,158.05923349998193,158.05923349998193,158.05923349998193,158.05923349998193,158.05923349998193,158.05923349998193,158.05923349998193,158.40912840000237,158.40912840000237,158.40912840000237,158.40912840000237,158.40912840000237,158.40912840000237,158.40912840000237,158.40912840000237,158.40912840000237,22,0,,,158.40912840000237,158.6092952999752,1000,158.62604049997753,1000,1000,1000,1000,1,num_2,0.7427438999875449,,21,10,2026-03-02_18h07.07.611,2026A_exp2,2022.2.4,60.02591919710257,
1,0,3.7,3.7,0,0,40,40,13,,,,,159.39359419999528,160.04394589998992,160.04394589998992,160.52844959998038,45,45,160.52844959998038,160.52844959998038,160.52844959998038,160.52844959998038,160.52844959998038,160.52844959998038,160.52844959998038,160.52844959998038,160.52844959998038,160.89502809999976,160.89502809999976,160.89502809999976,160.89502809999976,160.89502809999976,160.89502809999976,160.89502809999976,160.89502809999976,160.89502809999976,23,0,,,160.89502809999976,161.09491799998796,3.7,161.09491799998796,1,3.7,1,1,1000,num_4,3.554313500004355,,21,10,2026-03-02_18h07.07.611,2026A_exp2,2022.2.4,60.02591919710257,
1000,1,0.0,0.0,0,0,41,41,74,,,,,164.6652740999998,165.30039349998697,165.30039349998697,165.8004105,45,45,165.8004105,165.8004105,165.8004105,165.8004105,165.8004105,165.8004105,165.8004105,165.8004105,165.8004105,166.1669133999967,166.1669133999967,166.1669133999967,166.1669133999967,166.1669133999967,166.1669133999967,166.1669133999967,166.1669133999967,166.1669133999967,23,0,,,166.1669133999967,166.36720529999002,1000,166.36720529999002,1000,1000,1000,1000,0,num_3,0.9134939999785274,,21,10,2026-03-02_18h07.07.611,2026A_exp2,2022.2.4,60.02591919710257,
1000,1,0.0,0.0,0,0,42,42,81,,,,,167.30188579999958,167.95228989998577,167.95228989998577,168.43632469998556,45,315,168.43632469998556,168.43632469998556,168.43632469998556,168.43632469998556,168.43632469998556,168.43632469998556,168.43632469998556,168.43632469998556,168.43632469998556,168.80286609998439,168.80286609998439,168.80286609998439,168.80286609998439,168.80286609998439,168.80286609998439,168.80286609998439,168.80286609998439,168.80286609998439,23,0,,,168.80286609998439,169.00306399998954,1000,169.00306399998954,1000,1000,1000,1000,0,num_3,1.0135055000137072,,21,10,2026-03-02_18h07.07.611,2026A_exp2,2022.2.4,60.02591919710257,
1,0,0.0,0.0,0,0,43,43,1,,,,,170.03740059997654,170.6880233999982,170.6880233999982,171.1890515999985,45,45,171.1890515999985,171.1890515999985,171.1890515999985,171.1890515999985,171.1890515999985,171.1890515999985,171.1890515999985,171.1890515999985,171.1890515999985,171.53890990000218,171.53890990000218,171.53890990000218,171.53890990000218,171.53890990000218,171.53890990000218,171.53890990000218,171.53890990000218,171.53890990000218,22,0,,,171.53890990000218,171.73905469998135,0.0,171.73905469998135,0,0.0,0,1,1000,num_1,0.6373260000254959,,21,10,2026-03-02_18h07.07.611,2026A_exp2,2022.2.4,60.02591919710257,
1000,1,6.1,0.0,1,0,44,44,69,,,,,172.40642829998978,173.04032679999364,173.04032679999364,173.54152509997948,45,45,173.54152509997948,173.54152509997948,173.54152509997948,173.54152509997948,173.54152509997948,173.54152509997948,173.54152509997948,173.54152509997948,173.54152509997948,173.9079051000008,173.9079051000008,173.9079051000008,173.9079051000008,173.9079051000008,173.9079051000008,173.9079051000008,173.9079051000008,173.9079051000008,23,0,,,173.9079051000008,174.10839039998245,1000,174.10839039998245,1000,1000,1000,1000,0,num_3,0.4523182999982964,,21,10,2026-03-02_18h07.07.611,2026A_exp2,2022.2.4,60.02591919710257,
1000,1,3.7,4.9,1,0,45,45,46,,,,,174.59199299998,175.24248960000114,175.24248960000114,175.7269567999756,45,315,175.7269567999756,175.7269567999756,175.7269567999756,175.7269567999756,175.7269567999756,175.7269567999756,175.7269567999756,175.7269567999756,175.7269567999756,176.09363009998924,176.09363009998924,176.09363009998924,176.09363009998924,176.09363009998924,176.09363009998924,176.09363009998924,176.09363009998924,176.09363009998924,23,0,,,176.09363009998924,176.2936468999833,1000,176.2936468999833,1000,1000,1000,1000,1,num_2,0.45912099999259226,,21,10,2026-03-02_18h07.07.611,2026A_exp2,2022.2.4,60.02591919710257,
1,0,6.1,0.0,0,0,46,46,56,,,,,176.77742069997475,177.41193740000017,177.41193740000017,177.912872099987,315,315,177.912872099987,177.912872099987,177.912872099987,177.912872099987,177.912872099987,177.912872099987,177.912872099987,177.912872099987,177.912872099987,178.27894979997654,178.27894979997654,178.27894979997654,178.27894979997654,178.27894979997654,178.27894979997654,178.27894979997654,178.27894979997654,178.27894979997654,19,2,"[0.1502727000042796, 0.1839985999977216]","[0.16710940000484698, 0.23376159998588264]",178.27894979997654,178.47911369998474,6.1,178.47911369998474,1,6.1,1,1,1000,num_4,0.7290376000164542,,21,10,2026-03-02_18h07.07.611,2026A_exp2,2022.2.4,60.02591919710257,
1,0,3.7,0.0,0,0,47,47,3,,,,,179.22989289998077,179.86405229999218,179.86405229999218,180.3655781999987,45,45,180.3655781999987,180.3655781999987,180.3655781999987,180.3655781999987,180.3655781999987,180.3655781999987,180.3655781999987,180.3655781999987,180.3655781999987,180.73130329998094,180.73130329998094,180.73130329998094,180.73130329998094,180.73130329998094,180.73130329998094,180.73130329998094,180.73130329998094,180.73130329998094,4,2,"[0.0007277000113390386, 0.31731199999921955]","[0.3005772000178695, 0.3507324999955017]",180.73130329998094,180.93168939999305,3.7,180.93168939999305,1,3.7,1,1,1000,num_4,1.2848927000013646,,21,10,2026-03-02_18h07.07.611,2026A_exp2,2022.2.4,60.02591919710257,
1,0,3.7,0.0,0,0,48,48,42,,,,,182.23292449998553,182.86725589999696,182.86725589999696,183.36811280000256,45,315,183.36811280000256,183.36811280000256,183.36811280000256,183.36811280000256,183.36811280000256,183.36811280000256,183.36811280000256,183.36811280000256,183.36811280000256,183.73530289999326,183.73530289999326,183.73530289999326,183.73530289999326,183.73530289999326,183.73530289999326,183.73530289999326,183.73530289999326,183.73530289999326,4,3,"[0.0008786999969743192, 0.15037759998813272, 0.35043530000257306]","[0.09994909999659285, 0.3339677999902051, 0.3677005000063218]",183.73530289999326,183.93481609999435,3.7,183.93481609999435,0,3.7,1,0,1000,num_1,4.306003899982898,,21,10,2026-03-02_18h07.07.611,2026A_exp2,2022.2.4,60.02591919710257,
0,0,4.9,0.0,1,0,49,49,25,,,,,188.27198900000076,188.90638239998952,188.90638239998952,189.40736489999108,315,45,189.40736489999108,189.40736489999108,189.40736489999108,189.40736489999108,189.40736489999108,189.40736489999108,189.40736489999108,189.40736489999108,189.40736489999108,189.77371929999208,189.77371929999208,189.77371929999208,189.77371929999208,189.77371929999208,189.77371929999208,189.77371929999208,189.77371929999208,189.77371929999208,3,2,"[0.0007617000082973391, 0.06747509998967871]","[0.01759259999380447, 0.36729019999620505]",189.77371929999208,189.97462249998352,4.9,189.97462249998352,1,4.9,1,1,1000,num_4,0.5778047000057995,,21,10,2026-03-02_18h07.07.611,2026A_exp2,2022.2.4,60.02591919710257,
1,0,0.0,0.0,1,0,50,50,6,,,,,190.57456319997436,191.22510759998113,191.22510759998113,191.70952089998173,315,315,191.70952089998173,191.70952089998173,191.70952089998173,191.70952089998173,191.70952089998173,191.70952089998173,191.70952089998173,191.70952089998173,191.70952089998173,192.07598939997843,192.07598939997843,192.07598939997843,192.07598939997843,192.07598939997843,192.07598939997843,192.07598939997843,192.07598939997843,192.07598939997843,23,0,,,192.07598939997843,192.27634309997666,0.0,192.27634309997666,0,0.0,0,1,1000,num_1,0.42809390000184067,,21,10,2026-03-02_18h07.07.611,2026A_exp2,2022.2.4,60.02591919710257,
1,0,0.0,6.1,0,0,51,51,60,,,,,192.72670780000044,193.36070469999686,193.36070469999686,193.86183979999623,315,45,193.86183979999623,193.86183979999623,193.86183979999623,193.86183979999623,193.86183979999623,193.86183979999623,193.86183979999623,193.86183979999623,193.86183979999623,194.22809349998715,194.22809349998715,194.22809349998715,194.22809349998715,194.22809349998715,194.22809349998715,194.22809349998715,194.22809349998715,194.22809349998715,23,0,,,194.22809349998715,194.4284173999913,0.0,194.4284173999913,0,0.0,0,1,1000,num_1,0.668235499993898,,21,10,2026-03-02_18h07.07.611,2026A_exp2,2022.2.4,60.02591919710257,
1000,1,4.9,0.0,0,0,52,52,54,,,,,195.12909390000277,195.7630255999975,195.7630255999975,196.26409219999914,45,45,196.26409219999914,196.26409219999914,196.26409219999914,196.26409219999914,196.26409219999914,196.26409219999914,196.26409219999914,196.26409219999914,196.26409219999914,196.63061480000033,196.63061480000033,196.63061480000033,196.63061480000033,196.63061480000033,196.63061480000033,196.63061480000033,196.63061480000033,196.63061480000033,23,0,,,196.63061480000033,196.83194289999665,1000,196.83194289999665,1000,1000,1000,1000,0,num_3,0.5845416999945883,,21,10,2026-03-02_18h07.07.611,2026A_exp2,2022.2.4,60.02591919710257,
1000,1,0.0,3.7,0,0,53,53,51,,,,,197.43153909998364,198.08196689997567,198.08196689997567,198.58340939998743,315,315,198.58340939998743,198.58340939998743,198.58340939998743,198.58340939998743,198.58340939998743,198.58340939998743,198.58340939998743,198.58340939998743,198.58340939998743,198.9495459999889,198.9495459999889,198.9495459999889,198.9495459999889,198.9495459999889,198.9495459999889,198.9495459999889,198.9495459999889,198.9495459999889,17,4,"[0.03309169999556616, 0.13307670000358485, 0.283122299995739, 0.3331465999945067]","[0.049434599990490824, 0.1499179000093136, 0.29981039999984205, 0.3664881000004243]",198.9495459999889,199.15003079999587,1000,199.15003079999587,1000,1000,1000,1000,1,num_2,0.4586217000032775,,21,10,2026-03-02_18h07.07.611,2026A_exp2,2022.2.4,60.02591919710257,
1000,1,0.0,3.7,1,0,54,54,47,,,,,199.63353789999383,200.26840309999534,200.26840309999534,200.76878289997694,45,45,200.76878289997694,200.76878289997694,200.76878289997694,200.76878289997694,200.76878289997694,200.76878289997694,200.76878289997694,200.76878289997694,200.76878289997694,201.1358594999765,201.1358594999765,201.1358594999765,201.1358594999765,201.1358594999765,201.1358594999765,201.1358594999765,201.1358594999765,201.1358594999765,23,0,,,201.1358594999765,201.33554869997897,1000,201.33554869997897,1000,1000,1000,1000,1,num_2,0.42551269999239594,,21,10,2026-03-02_18h07.07.611,2026A_exp2,2022.2.4,60.02591919710257,
1,0,0.0,6.1,1,0,55,55,52,,,,,201.78596339997603,202.43637509999098,202.43637509999098,202.92077549998066,45,315,202.92077549998066,202.92077549998066,202.92077549998066,202.92077549998066,202.92077549998066,202.92077549998066,202.92077549998066,202.92077549998066,202.92077549998066,203.2872446999827,203.2872446999827,203.2872446999827,203.2872446999827,203.2872446999827,203.2872446999827,203.2872446999827,203.2872446999827,203.2872446999827,23,0,,,203.2872446999827,203.48744929998065,6.1,203.48744929998065,1,6.1,1,1,1000,num_4,0.5610199999937322,,21,10,2026-03-02_18h07.07.611,2026A_exp2,2022.2.4,60.02591919710257,
1000,1,6.1,0.0,1,0,56,56,68,,,,,204.0714055999997,204.7052749999857,204.7052749999857,205.2063841999916,45,45,205.2063841999916,205.2063841999916,205.2063841999916,205.2063841999916,205.2063841999916,205.2063841999916,205.2063841999916,205.2063841999916,205.2063841999916,205.5728130999778,205.5728130999778,205.5728130999778,205.5728130999778,205.5728130999778,205.5728130999778,205.5728130999778,205.5728130999778,205.5728130999778,23,0,,,205.5728130999778,205.77310469999793,1000,205.77310469999793,1000,1000,1000,1000,0,num_3,0.5480421000102069,,21,10,2026-03-02_18h07.07.611,2026A_exp2,2022.2.4,60.02591919710257,
1000,1,3.7,6.1,0,0,57,57,84,,,,,206.3404806999897,206.99097549999715,206.99097549999715,207.492285299988,315,45,207.492285299988,207.492285299988,207.492285299988,207.492285299988,207.492285299988,207.492285299988,207.492285299988,207.492285299988,207.492285299988,207.8416915999842,207.8416915999842,207.8416915999842,207.8416915999842,207.8416915999842,207.8416915999842,207.8416915999842,207.8416915999842,207.8416915999842,22,0,,,207.8416915999842,208.04216630000155,1000,208.04216630000155,1000,1000,1000,1000,1,num_2,0.3664711999881547,,21,10,2026-03-02_18h07.07.611,2026A_exp2,2022.2.4,60.02591919710257,
1,0,3.7,0.0,1,0,58,58,19,,,,,208.42578319998574,209.076394099975,209.076394099975,209.56080969999311,45,45,209.56080969999311,209.56080969999311,209.56080969999311,209.56080969999311,209.56080969999311,209.56080969999311,209.56080969999311,209.56080969999311,209.56080969999311,209.92728379997425,209.92728379997425,209.92728379997425,209.92728379997425,209.92728379997425,209.92728379997425,209.92728379997425,209.92728379997425,209.92728379997425,23,0,,,209.92728379997425,210.1275434999843,0.0,210.1275434999843,0,0.0,0,1,1000,num_1,0.8407532999990508,,21,10,2026-03-02_18h07.07.611,2026A_exp2,2022.2.4,60.02591919710257,
1,0,6.1,0.0,0,0,59,59,70,,,,,210.99496509999153,211.6292412999901,211.6292412999901,212.13059329998214,45,315,212.13059329998214,212.13059329998214,212.13059329998214,212.13059329998214,212.13059329998214,212.13059329998214,212.13059329998214,212.13059329998214,212.13059329998214,212.49640589999035,212.49640589999035,212.49640589999035,212.49640589999035,212.49640589999035,212.49640589999035,212.49640589999035,212.49640589999035,212.49640589999035,9,2,"[0.0009506999922450632, 0.21741660000407137]","[0.1999925000127405, 0.25039400000241585]",212.49640589999035,212.69658150000032,6.1,212.69658150000032,1,6.1,1,1,1000,num_4,0.40793389998725615,,21,10,2026-03-02_18h07.07.611,2026A_exp2,2022.2.4,60.02591919710257,
1000,1,0.0,0.0,0,0,60,60,64,,,,,213.13065819998155,213.781069699995,213.781069699995,214.26546179997968,45,45,214.26546179997968,214.26546179997968,214.26546179997968,214.26546179997968,214.26546179997968,214.26546179997968,214.26546179997968,214.26546179997968,214.26546179997968,214.6318582999811,214.6318582999811,214.6318582999811,214.6318582999811,214.6318582999811,214.6318582999811,214.6318582999811,214.6318582999811,214.6318582999811,18,2,"[0.0008104000007733703, 0.21682750000036322]","[0.06709009999758564, 0.23344169999472797]",214.6318582999811,214.83196619999944,1000,214.83196619999944,1000,1000,1000,1000,0,num_3,0.8726674999925308,,21,10,2026-03-02_18h07.07.611,2026A_exp2,2022.2.4,60.02591919710257,
1,0,0.0,0.0,0,0,61,61,29,,,,,215.73308330000145,216.38393599999836,216.38393599999836,216.8682823999843,45,315,216.8682823999843,216.8682823999843,216.8682823999843,216.8682823999843,216.8682823999843,216.8682823999843,216.8682823999843,216.8682823999843,216.8682823999843,217.23453549999977,217.23453549999977,217.23453549999977,217.23453549999977,217.23453549999977,217.23453549999977,217.23453549999977,217.23453549999977,217.23453549999977,23,0,,,217.23453549999977,217.43473849998554,0.0,217.43473849998554,0,0.0,0,1,1000,num_1,0.4220828000106849,,21,10,2026-03-02_18h07.07.611,2026A_exp2,2022.2.4,60.02591919710257,
1000,1,0.0,0.0,0,0,62,62,18,,,,,217.88537039997755,218.51921810000204,218.51921810000204,219.02032459998736,315,315,219.02032459998736,219.02032459998736,219.02032459998736,219.02032459998736,219.02032459998736,219.02032459998736,219.02032459998736,219.02032459998736,219.02032459998736,219.3866428999754,219.3866428999754,219.3866428999754,219.3866428999754,219.3866428999754,219.3866428999754,219.3866428999754,219.3866428999754,219.3866428999754,23,0,,,219.3866428999754,219.58697269999539,1000,219.58697269999539,1000,1000,1000,1000,1,num_2,1.1821511999878567,,21,10,2026-03-02_18h07.07.611,2026A_exp2,2022.2.4,60.02591919710257,
1,0,0.0,6.1,0,0,63,63,11,,,,,220.78843929999857,221.43869260000065,221.43869260000065,221.93982139998116,315,45,221.93982139998116,221.93982139998116,221.93982139998116,221.93982139998116,221.93982139998116,221.93982139998116,221.93982139998116,221.93982139998116,221.93982139998116,222.2895789000031,222.2895789000031,222.2895789000031,222.2895789000031,222.2895789000031,222.2895789000031,222.2895789000031,222.2895789000031,222.2895789000031,19,1,[0.01774390001082793],[0.06696299999020994],222.2895789000031,222.4898617999861,0.0,222.4898617999861,0,0.0,0,1,1000,num_1,0.7345915000187233,,21,10,2026-03-02_18h07.07.611,2026A_exp2,2022.2.4,60.02591919710257,
1000,1,0.0,0.0,1,0,64,64,23,,,,,223.24025239999173,223.87448239998776,223.87448239998776,224.3755536999961,315,315,224.3755536999961,224.3755536999961,224.3755536999961,224.3755536999961,224.3755536999961,224.3755536999961,224.3755536999961,224.3755536999961,224.3755536999961,224.74201529999846,224.74201529999846,224.74201529999846,224.74201529999846,224.74201529999846,224.74201529999846,224.74201529999846,224.74201529999846,224.74201529999846,23,0,,,224.74201529999846,224.9423536999966,1000,224.9423536999966,1000,1000,1000,1000,0,num_3,0.8184298999840394,,21,10,2026-03-02_18h07.07.611,2026A_exp2,2022.2.4,60.02591919710257,
1000,1,4.9,6.1,1,0,65,65,28,,,,,225.7765528000018,226.42710739999893,226.42710739999893,226.91139329998987,45,315,226.91139329998987,226.91139329998987,226.91139329998987,226.91139329998987,226.91139329998987,226.91139329998987,226.91139329998987,226.91139329998987,226.91139329998987,227.27784239998437,227.27784239998437,227.27784239998437,227.27784239998437,227.27784239998437,227.27784239998437,227.27784239998437,227.27784239998437,227.27784239998437,23,0,,,227.27784239998437,227.4782516999985,1000,227.4782516999985,1000,1000,1000,1000,1,num_2,0.49828099997830577,,21,10,2026-03-02_18h07.07.611,2026A_exp2,2022.2.4,60.02591919710257,
1000,1,3.7,6.1,0,0,66,66,0,,,,,227.99531019999995,228.6461451999785,228.6461451999785,229.1470532999956,45,45,229.1470532999956,229.1470532999956,229.1470532999956,229.1470532999956,229.1470532999956,229.1470532999956,229.1470532999956,229.1470532999956,229.1470532999956,229.4968861999805,229.4968861999805,229.4968861999805,229.4968861999805,229.4968861999805,229.4968861999805,229.4968861999805,229.4968861999805,229.4968861999805,22,0,,,229.4968861999805,229.69703079998726,1000,229.69703079998726,1000,1000,1000,1000,1,num_2,0.4713163000124041,,21,10,2026-03-02_18h07.07.611,2026A_exp2,2022.2.4,60.02591919710257,
1000,1,0.0,0.0,0,0,67,67,80,,,,,230.19768439998734,230.8482098999957,230.8482098999957,231.34926609997638,45,45,231.34926609997638,231.34926609997638,231.34926609997638,231.34926609997638,231.34926609997638,231.34926609997638,231.34926609997638,231.34926609997638,231.34926609997638,231.69921890000114,231.69921890000114,231.69921890000114,231.69921890000114,231.69921890000114,231.69921890000114,231.69921890000114,231.69921890000114,231.69921890000114,18,1,[0.03390019998187199],[0.10043299998505972],231.69921890000114,231.89956079999683,1000,231.89956079999683,1000,1000,1000,1000,1,num_2,0.8213252999994438,,21,10,2026-03-02_18h07.07.611,2026A_exp2,2022.2.4,60.02591919710257,
1,0,0.0,3.7,1,0,68,68,41,,,,,232.7500982999918,233.40083109997795,233.40083109997795,233.88538949997746,315,315,233.88538949997746,233.88538949997746,233.88538949997746,233.88538949997746,233.88538949997746,233.88538949997746,233.88538949997746,233.88538949997746,233.88538949997746,234.25161129998742,234.25161129998742,234.25161129998742,234.25161129998742,234.25161129998742,234.25161129998742,234.25161129998742,234.25161129998742,234.25161129998742,23,0,,,234.25161129998742,234.45196649999707,3.7,234.45196649999707,1,3.7,1,1,1000,num_4,0.8610587999864947,,21,10,2026-03-02_18h07.07.611,2026A_exp2,2022.2.4,60.02591919710257,
1000,1,0.0,0.0,0,0,69,69,15,,,,,235.33610059999046,235.97003060000134,235.97003060000134,236.47101479998673,315,315,236.47101479998673,236.47101479998673,236.47101479998673,236.47101479998673,236.47101479998673,236.47101479998673,236.47101479998673,236.47101479998673,236.47101479998673,236.83743079999113,236.83743079999113,236.83743079999113,236.83743079999113,236.83743079999113,236.83743079999113,236.83743079999113,236.83743079999113,236.83743079999113,23,0,,,236.83743079999113,237.03771899998537,1000,237.03771899998537,1000,1000,1000,1000,1,num_2,0.7948947999975644,,21,10,2026-03-02_18h07.07.611,2026A_exp2,2022.2.4,60.02591919710257,
1,0,3.7,0.0,1,0,70,70,50,,,,,237.85537139998632,238.5058197999897,238.5058197999897,238.99027389998082,45,45,238.99027389998082,238.99027389998082,238.99027389998082,238.99027389998082,238.99027389998082,238.99027389998082,238.99027389998082,238.99027389998082,238.99027389998082,239.35657239999273,239.35657239999273,239.35657239999273,239.35657239999273,239.35657239999273,239.35657239999273,239.35657239999273,239.35657239999273,239.35657239999273,23,0,,,239.35657239999273,239.55702369997744,0.0,239.55702369997744,0,0.0,0,1,1000,num_1,0.684061699983431,,21,10,2026-03-02_18h07.07.611,2026A_exp2,2022.2.4,60.02591919710257,
1,0,0.0,4.9,1,0,71,71,21,,,,,240.25753939998685,240.90837759998976,240.90837759998976,241.39256589999422,45,45,241.39256589999422,241.39256589999422,241.39256589999422,241.39256589999422,241.39256589999422,241.39256589999422,241.39256589999422,241.39256589999422,241.39256589999422,241.75907239998924,241.75907239998924,241.75907239998924,241.75907239998924,241.75907239998924,241.75907239998924,241.75907239998924,241.75907239998924,241.75907239998924,23,0,,,241.75907239998924,241.9592117999855,4.9,241.9592117999855,1,4.9,1,1,1000,num_4,0.7211222999903839,,21,10,2026-03-02_18h07.07.611,2026A_exp2,2022.2.4,60.02591919710257,
1000,1,0.0,0.0,0,0,72,72,86,,,,,242.70997339999303,243.3439688999788,243.3439688999788,243.8452627999941,45,315,243.8452627999941,243.8452627999941,243.8452627999941,243.8452627999941,243.8452627999941,243.8452627999941,243.8452627999941,243.8452627999941,243.8452627999941,244.21147680000286,244.21147680000286,244.21147680000286,244.21147680000286,244.21147680000286,244.21147680000286,244.21147680000286,244.21147680000286,244.21147680000286,20,3,"[0.0503937000175938, 0.21715340000810102, 0.2842939000111073]","[0.06724709999980405, 0.23428720000083558, 0.30108640002436005]",244.21147680000286,244.41183939998155,1000,244.41183939998155,1000,1000,1000,1000,1,num_2,0.7484897999966051,,21,10,2026-03-02_18h07.07.611,2026A_exp2,2022.2.4,60.02591919710257,
1000,1,0.0,6.1,0,0,73,73,9,,,,,245.17923249999876,245.83000170000014,245.83000170000014,246.31390859998646,315,315,246.31390859998646,246.31390859998646,246.31390859998646,246.31390859998646,246.31390859998646,246.31390859998646,246.31390859998646,246.31390859998646,246.31390859998646,246.68057450000197,246.68057450000197,246.68057450000197,246.68057450000197,246.68057450000197,246.68057450000197,246.68057450000197,246.68057450000197,246.68057450000197,23,0,,,246.68057450000197,246.8809247999743,1000,246.8809247999743,1000,1000,1000,1000,1,num_2,0.5359164999972563,,21,10,2026-03-02_18h07.07.611,2026A_exp2,2022.2.4,60.02591919710257,
1,0,3.7,0.0,0,0,74,74,65,,,,,247.44809879999957,248.08211160000064,248.08211160000064,248.5831038999895,45,315,248.5831038999895,248.5831038999895,248.5831038999895,248.5831038999895,248.5831038999895,248.5831038999895,248.5831038999895,248.5831038999895,248.5831038999895,248.94926569997915,248.94926569997915,248.94926569997915,248.94926569997915,248.94926569997915,248.94926569997915,248.94926569997915,248.94926569997915,248.94926569997915,23,0,,,248.94926569997915,249.14965049998136,3.7,249.14965049998136,1,3.7,1,1,1000,num_4,0.7550267000042368,,21,10,2026-03-02_18h07.07.611,2026A_exp2,2022.2.4,60.02591919710257,
0,0,0.0,0.0,1,0,75,75,71,,,,,249.93416479998268,250.56822029998875,250.56822029998875,251.068976199982,45,45,251.068976199982,251.068976199982,251.068976199982,251.068976199982,251.068976199982,251.068976199982,251.068976199982,251.068976199982,251.068976199982,251.43545459999586,251.43545459999586,251.43545459999586,251.43545459999586,251.43545459999586,251.43545459999586,251.43545459999586,251.43545459999586,251.43545459999586,23,0,,,251.43545459999586,251.6358654999931,0.0,251.6358654999931,0,0.0,0,1,1000,num_1,0.4687343999976292,,21,10,2026-03-02_18h07.07.611,2026A_exp2,2022.2.4,60.02591919710257,
1000,1,4.9,6.1,0,0,76,76,20,,,,,252.1368819999916,252.7867706999823,252.7867706999823,253.27119109997875,315,315,253.27119109997875,253.27119109997875,253.27119109997875,253.27119109997875,253.27119109997875,253.27119109997875,253.27119109997875,253.27119109997875,253.27119109997875,253.6375745999976,253.6375745999976,253.6375745999976,253.6375745999976,253.6375745999976,253.6375745999976,253.6375745999976,253.6375745999976,253.6375745999976,23,0,,,253.6375745999976,253.83804879998206,1000,253.83804879998206,1000,1000,1000,1000,1,num_2,0.5386365999875125,,21,10,2026-03-02_18h07.07.611,2026A_exp2,2022.2.4,60.02591919710257,
1000,1,0.0,0.0,1,0,77,77,67,,,,,254.40504839998903,255.03910249998444,255.03910249998444,255.5401987999794,45,315,255.5401987999794,255.5401987999794,255.5401987999794,255.5401987999794,255.5401987999794,255.5401987999794,255.5401987999794,255.5401987999794,255.5401987999794,255.9062023999868,255.9062023999868,255.9062023999868,255.9062023999868,255.9062023999868,255.9062023999868,255.9062023999868,255.9062023999868,255.9062023999868,23,0,,,255.9062023999868,256.1069789999747,1000,256.1069789999747,1000,1000,1000,1000,0,num_3,1.0613338999974076,,21,10,2026-03-02_18h07.07.611,2026A_exp2,2022.2.4,60.02591919710257,
1000,1,3.7,0.0,0,0,78,78,2,,,,,257.1913238999841,257.82555859998683,257.82555859998683,258.326153299975,45,315,258.326153299975,258.326153299975,258.326153299975,258.326153299975,258.326153299975,258.326153299975,258.326153299975,258.326153299975,258.326153299975,258.6926468999882,258.6926468999882,258.6926468999882,258.6926468999882,258.6926468999882,258.6926468999882,258.6926468999882,258.6926468999882,258.6926468999882,23,0,,,258.6926468999882,258.89312470000004,1000,258.89312470000004,1000,1000,1000,1000,0,num_3,0.4277074999990873,,21,10,2026-03-02_18h07.07.611,2026A_exp2,2022.2.4,60.02591919710257,
0,0,0.0,3.7,1,0,79,79,10,,,,,259.3435545999964,259.993866099976,259.993866099976,260.47834959998727,45,315,260.47834959998727,260.47834959998727,260.47834959998727,260.47834959998727,260.47834959998727,260.47834959998727,260.47834959998727,260.47834959998727,260.47834959998727,260.8449493999942,260.8449493999942,260.8449493999942,260.8449493999942,260.8449493999942,260.8449493999942,260.8449493999942,260.8449493999942,260.8449493999942,23,0,,,260.8449493999942,261.04504329999327,0.0,261.04504329999327,0,0.0,0,1,1000,num_1,0.6436767000122927,,21,10,2026-03-02_18h07.07.611,2026A_exp2,2022.2.4,60.02591919710257,
1000,1,0.0,0.0,0,0,80,80,83,,,,,261.7123811999918,262.34649189998163,262.34649189998163,262.84751929997583,315,45,262.84751929997583,262.84751929997583,262.84751929997583,262.84751929997583,262.84751929997583,262.84751929997583,262.84751929997583,262.84751929997583,262.84751929997583,263.2139169999864,263.2139169999864,263.2139169999864,263.2139169999864,263.2139169999864,263.2139169999864,263.2139169999864,263.2139169999864,263.2139169999864,23,0,,,263.2139169999864,263.4143413999991,1000,263.4143413999991,1000,1000,1000,1000,0,num_3,1.0347571000165772,,21,10,2026-03-02_18h07.07.611,2026A_exp2,2022.2.4,60.02591919710257,
1000,1,0.0,4.9,1,0,81,81,59,,,,,264.4652635999955,265.11571620000177,265.11571620000177,265.6002225999837,45,315,265.6002225999837,265.6002225999837,265.6002225999837,265.6002225999837,265.6002225999837,265.6002225999837,265.6002225999837,265.6002225999837,265.6002225999837,265.9666658999922,265.9666658999922,265.9666658999922,265.9666658999922,265.9666658999922,265.9666658999922,265.9666658999922,265.9666658999922,265.9666658999922,23,0,,,265.9666658999922,266.1668926999846,1000,266.1668926999846,1000,1000,1000,1000,1,num_2,0.5460925999796018,,21,10,2026-03-02_18h07.07.611,2026A_exp2,2022.2.4,60.02591919710257,
1,0,3.7,6.1,0,0,82,82,55,,,,,266.73418059997493,267.3685873999784,267.3685873999784,267.8691351999878,45,45,267.8691351999878,267.8691351999878,267.8691351999878,267.8691351999878,267.8691351999878,267.8691351999878,267.8691351999878,267.8691351999878,267.8691351999878,268.23546179998084,268.23546179998084,268.23546179998084,268.23546179998084,268.23546179998084,268.23546179998084,268.23546179998084,268.23546179998084,268.23546179998084,23,0,,,268.23546179998084,268.43577959999675,3.7,268.43577959999675,0,3.7,1,0,1000,num_1,0.572876099991845,,21,10,2026-03-02_18h07.07.611,2026A_exp2,2022.2.4,60.02591919710257,
0,0,0.0,0.0,1,0,83,83,89,,,,,269.03633669999545,269.6703196000017,269.6703196000017,270.1716387999768,315,315,270.1716387999768,270.1716387999768,270.1716387999768,270.1716387999768,270.1716387999768,270.1716387999768,270.1716387999768,270.1716387999768,270.1716387999768,270.5378842999926,270.5378842999926,270.5378842999926,270.5378842999926,270.5378842999926,270.5378842999926,270.5378842999926,270.5378842999926,270.5378842999926,23,0,,,270.5378842999926,270.7381256999797,0.0,270.7381256999797,0,0.0,0,1,1000,num_1,0.4146384999912698,,21,10,2026-03-02_18h07.07.611,2026A_exp2,2022.2.4,60.02591919710257,
1,0,0.0,6.1,1,0,84,84,36,,,,,271.17177529999753,271.82246029999806,271.82246029999806,272.30693339998834,45,315,272.30693339998834,272.30693339998834,272.30693339998834,272.30693339998834,272.30693339998834,272.30693339998834,272.30693339998834,272.30693339998834,272.30693339998834,272.6732656999957,272.6732656999957,272.6732656999957,272.6732656999957,272.6732656999957,272.6732656999957,272.6732656999957,272.6732656999957,272.6732656999957,23,0,,,272.6732656999957,272.8734448000032,6.1,272.8734448000032,1,6.1,1,1,1000,num_4,0.40727950001019053,,21,10,2026-03-02_18h07.07.611,2026A_exp2,2022.2.4,60.02591919710257,
1,0,4.9,0.0,1,0,85,85,8,,,,,273.30733049998526,273.9413099999947,273.9413099999947,274.4424111999979,45,45,274.4424111999979,274.4424111999979,274.4424111999979,274.4424111999979,274.4424111999979,274.4424111999979,274.4424111999979,274.4424111999979,274.4424111999979,274.80878219997976,274.80878219997976,274.80878219997976,274.80878219997976,274.80878219997976,274.80878219997976,274.80878219997976,274.80878219997976,274.80878219997976,23,0,,,274.80878219997976,275.0089948999812,0.0,275.0089948999812,0,0.0,0,1,1000,num_1,0.5114020000037272,,21,10,2026-03-02_18h07.07.611,2026A_exp2,2022.2.4,60.02591919710257,
1,0,0.0,6.1,1,0,86,86,40,,,,,275.54283719998784,276.1767789000005,276.1767789000005,276.6778323999897,315,45,276.6778323999897,276.6778323999897,276.6778323999897,276.6778323999897,276.6778323999897,276.6778323999897,276.6778323999897,276.6778323999897,276.6778323999897,277.0442879999755,277.0442879999755,277.0442879999755,277.0442879999755,277.0442879999755,277.0442879999755,277.0442879999755,277.0442879999755,277.0442879999755,23,0,,,277.0442879999755,277.2442424999899,6.1,277.2442424999899,1,6.1,1,1,1000,num_4,0.3879605999973137,,21,10,2026-03-02_18h07.07.611,2026A_exp2,2022.2.4,60.02591919710257,
1,0,6.1,4.9,0,0,87,87,39,,,,,277.66158379998524,278.2956682999793,278.2956682999793,278.7971629999811,315,315,278.7971629999811,278.7971629999811,278.7971629999811,278.7971629999811,278.7971629999811,278.7971629999811,278.7971629999811,278.7971629999811,278.7971629999811,279.16305049997754,279.16305049997754,279.16305049997754,279.16305049997754,279.16305049997754,279.16305049997754,279.16305049997754,279.16305049997754,279.16305049997754,23,0,,,279.16305049997754,279.36355979999644,6.1,279.36355979999644,1,6.1,1,1,1000,num_4,0.4445826000010129,,21,10,2026-03-02_18h07.07.611,2026A_exp2,2022.2.4,60.02591919710257,
1000,1,4.9,0.0,1,0,88,88,5,,,,,279.8304897999915,280.46488289997797,280.46488289997797,280.96560559998034,315,45,280.96560559998034,280.96560559998034,280.96560559998034,280.96560559998034,280.96560559998034,280.96560559998034,280.96560559998034,280.96560559998034,280.96560559998034,281.33191290000104,281.33191290000104,281.33191290000104,281.33191290000104,281.33191290000104,281.33191290000104,281.33191290000104,281.33191290000104,281.33191290000104,23,0,,,281.33191290000104,281.53226379997795,1000,281.53226379997795,1000,1000,1000,1000,0,num_3,0.6844860999844968,,21,10,2026-03-02_18h07.07.611,2026A_exp2,2022.2.4,60.02591919710257,
1,0,0.0,3.7,0,0,89,89,61,,,,,282.2330280999886,282.8836400999862,282.8836400999862,283.3680678999808,315,45,283.3680678999808,283.3680678999808,283.3680678999808,283.3680678999808,283.3680678999808,283.3680678999808,283.3680678999808,283.3680678999808,283.3680678999808,283.7345873999875,283.7345873999875,283.7345873999875,283.7345873999875,283.7345873999875,283.7345873999875,283.7345873999875,283.7345873999875,283.7345873999875,23,0,,,283.7345873999875,283.9346021999954,0.0,283.9346021999954,0,0.0,0,1,1000,num_1,0.6420469000004232,,21,10,2026-03-02_18h07.07.611,2026A_exp2,2022.2.4,60.02591919710257,
,,,,,,,,,,,,,,,,,,,,,,,,,,,,,,,,,,,,,,,,,,,,,,,,,,,,284.6079338999989,,,,,,,
