validity,detectorcomp,contrastCW,contrastCCW,precueCWorCCW,block_80trials.thisRepN,block_80trials.thisTrialN,block_80trials.thisN,block_80trials.thisIndex,etRecord.started,etRecord.stopped,text.started,text.stopped,text_4.started,text_4.stopped,text_6.started,text_6.stopped,oriCW,oriCCW,roi_2.started,grating_UR.started,grating_UL.started,grating_LR.started,grating_LL.started,noise_UR.started,noise_UL.started,noise_LR.started,noise_LL.started,roi_2.stopped,grating_UR.stopped,grating_UL.stopped,grating_LR.stopped,grating_LL.stopped,noise_UR.stopped,noise_UL.stopped,noise_LR.stopped,noise_LL.stopped,outframe,roi_2.numLooks,roi_2.timesOn,roi_2.timesOff,text_2.started,text_2.stopped,probedcontrast,key_resp.started,respdetect,relevantContrast,correctDetect,TorFdetect,respCWorCCW,key_resp.keys,key_resp.rt,feedback_display_.started,participantNo,blockNo,date,expName,psychopyVersion,frameRate,
1,0,3.7,0.0,0,0,0,0,7,4.730001091957092e-05,4.730001091957092e-05,49.10787980002351,51.1102777000051,51.1102777000051,51.74405480013229,51.74405480013229,52.265232800040394,315,45,52.265232800040394,52.265232800040394,52.265232800040394,52.265232800040394,52.265232800040394,52.265232800040394,52.265232800040394,52.265232800040394,52.265232800040394,52.611579900141805,52.611579900141805,52.611579900141805,52.611579900141805,52.611579900141805,52.611579900141805,52.611579900141805,52.611579900141805,52.611579900141805,23,0,,,52.611579900141805,52.81178560014814,3.7,52.81178560014814,1,3.7,1,1,1000,num_4,0.7271263001020998,,32,7,2026-03-12_15h44.35.736,2026A_exp2,2022.2.4,59.94211989490536,
0,0,3.7,3.7,1,0,1,1,62,,,,,53.562476800056174,54.19643560005352,54.19643560005352,54.69752970011905,315,45,54.69752970011905,54.69752970011905,54.69752970011905,54.69752970011905,54.69752970011905,54.69752970011905,54.69752970011905,54.69752970011905,54.69752970011905,55.06406500004232,55.06406500004232,55.06406500004232,55.06406500004232,55.06406500004232,55.06406500004232,55.06406500004232,55.06406500004232,55.06406500004232,23,0,,,55.06406500004232,55.264253800036386,3.7,55.264253800036386,0,3.7,1,0,1000,num_1,0.6983459000475705,,32,7,2026-03-12_15h44.35.736,2026A_exp2,2022.2.4,59.94211989490536,
1000,1,4.9,0.0,0,0,2,2,12,,,,,55.98178710020147,56.63775520003401,56.63775520003401,57.14367870008573,45,45,57.14367870008573,57.14367870008573,57.14367870008573,57.14367870008573,57.14367870008573,57.14367870008573,57.14367870008573,57.14367870008573,57.14367870008573,57.49981680000201,57.49981680000201,57.49981680000201,57.49981680000201,57.49981680000201,57.49981680000201,57.49981680000201,57.49981680000201,57.49981680000201,23,0,,,57.49981680000201,57.704701100010425,1000,57.704701100010425,1000,1000,1000,1000,0,num_3,0.538119199918583,,32,7,2026-03-12_15h44.35.736,2026A_exp2,2022.2.4,59.94211989490536,
1,0,6.1,6.1,0,0,3,3,89,,,,,58.267398399999365,58.91773820016533,58.91773820016533,59.41895690001547,315,45,59.41895690001547,59.41895690001547,59.41895690001547,59.41895690001547,59.41895690001547,59.41895690001547,59.41895690001547,59.41895690001547,59.41895690001547,59.78544880007394,59.78544880007394,59.78544880007394,59.78544880007394,59.78544880007394,59.78544880007394,59.78544880007394,59.78544880007394,59.78544880007394,23,0,,,59.78544880007394,59.985664000036195,6.1,59.985664000036195,1,6.1,1,1,1000,num_4,0.7454336998052895,,32,7,2026-03-12_15h44.35.736,2026A_exp2,2022.2.4,59.94211989490536,
1000,1,4.9,0.0,0,0,4,4,45,,,,,60.75315930019133,61.403790900018066,61.403790900018066,61.888186200056225,45,45,61.888186200056225,61.888186200056225,61.888186200056225,61.888186200056225,61.888186200056225,61.888186200056225,61.888186200056225,61.888186200056225,61.888186200056225,62.254581400193274,62.254581400193274,62.254581400193274,62.254581400193274,62.254581400193274,62.254581400193274,62.254581400193274,62.254581400193274,62.254581400193274,23,0,,,62.254581400193274,62.456564699998125,1000,62.456564699998125,1000,1000,1000,1000,0,num_3,0.43393580010160804,,32,7,2026-03-12_15h44.35.736,2026A_exp2,2022.2.4,59.94211989490536,
1,0,3.7,3.7,0,0,5,5,8,,,,,62.92197740008123,63.572520800167695,63.572520800167695,64.07358389999717,315,45,64.07358389999717,64.07358389999717,64.07358389999717,64.07358389999717,64.07358389999717,64.07358389999717,64.07358389999717,64.07358389999717,64.07358389999717,64.4400868001394,64.4400868001394,64.4400868001394,64.4400868001394,64.4400868001394,64.4400868001394,64.4400868001394,64.4400868001394,64.4400868001394,23,0,,,64.4400868001394,64.64004930015653,3.7,64.64004930015653,1,3.7,1,1,1000,num_4,0.5706977001391351,,32,7,2026-03-12_15h44.35.736,2026A_exp2,2022.2.4,59.94211989490536,
1,0,4.9,6.1,0,0,6,6,29,,,,,65.24102170020342,65.87570250011049,65.87570250011049,66.3755664001219,315,315,66.3755664001219,66.3755664001219,66.3755664001219,66.3755664001219,66.3755664001219,66.3755664001219,66.3755664001219,66.3755664001219,66.3755664001219,66.74211160000414,66.74211160000414,66.74211160000414,66.74211160000414,66.74211160000414,66.74211160000414,66.74211160000414,66.74211160000414,66.74211160000414,23,0,,,66.74211160000414,66.94210840016603,4.9,66.94210840016603,1,4.9,1,1,1000,num_4,1.100758400047198,,32,7,2026-03-12_15h44.35.736,2026A_exp2,2022.2.4,59.94211989490536,
1000,1,0.0,0.0,1,0,7,7,68,,,,,68.06038450007327,68.71060180012137,68.71060180012137,69.19524050015025,45,45,69.19524050015025,69.19524050015025,69.19524050015025,69.19524050015025,69.19524050015025,69.19524050015025,69.19524050015025,69.19524050015025,69.19524050015025,69.56173050007783,69.56173050007783,69.56173050007783,69.56173050007783,69.56173050007783,69.56173050007783,69.56173050007783,69.56173050007783,69.56173050007783,23,0,,,69.56173050007783,69.76247910014354,1000,69.76247910014354,1000,1000,1000,1000,1,num_2,0.463652899954468,,32,7,2026-03-12_15h44.35.736,2026A_exp2,2022.2.4,59.94211989490536,
1,0,3.7,0.0,0,0,8,8,3,,,,,70.24579060007818,70.89618810010143,70.89618810010143,71.38298180000857,45,45,71.38298180000857,71.38298180000857,71.38298180000857,71.38298180000857,71.38298180000857,71.38298180000857,71.38298180000857,71.38298180000857,71.38298180000857,71.74723480013199,71.74723480013199,71.74723480013199,71.74723480013199,71.74723480013199,71.74723480013199,71.74723480013199,71.74723480013199,71.74723480013199,23,0,,,71.74723480013199,71.94729760009795,3.7,71.94729760009795,1,3.7,1,1,1000,num_4,0.45480929990299046,,32,7,2026-03-12_15h44.35.736,2026A_exp2,2022.2.4,59.94211989490536,
1000,1,3.7,4.9,0,0,9,9,25,,,,,72.43109960015863,73.06498540006578,73.06498540006578,73.5663191000931,315,315,73.5663191000931,73.5663191000931,73.5663191000931,73.5663191000931,73.5663191000931,73.5663191000931,73.5663191000931,73.5663191000931,73.5663191000931,73.93257519998588,73.93257519998588,73.93257519998588,73.93257519998588,73.93257519998588,73.93257519998588,73.93257519998588,73.93257519998588,73.93257519998588,23,0,,,73.93257519998588,74.13294250005856,1000,74.13294250005856,1000,1000,1000,1000,0,num_3,0.5175346999894828,,32,7,2026-03-12_15h44.35.736,2026A_exp2,2022.2.4,59.94211989490536,
1000,1,0.0,3.7,0,0,10,10,50,,,,,74.66712160012685,75.3173240001779,75.3173240001779,75.81840500002727,45,315,75.81840500002727,75.81840500002727,75.81840500002727,75.81840500002727,75.81840500002727,75.81840500002727,75.81840500002727,75.81840500002727,75.81840500002727,76.18519280012697,76.18519280012697,76.18519280012697,76.18519280012697,76.18519280012697,76.18519280012697,76.18519280012697,76.18519280012697,76.18519280012697,23,0,,,76.18519280012697,76.38633340015076,1000,76.38633340015076,1000,1000,1000,1000,0,num_3,0.375840499997139,,32,7,2026-03-12_15h44.35.736,2026A_exp2,2022.2.4,59.94211989490536,
1,0,0.0,0.0,0,0,11,11,11,,,,,76.78569589997642,77.4361772001721,77.4361772001721,77.92064930009656,315,315,77.92064930009656,77.92064930009656,77.92064930009656,77.92064930009656,77.92064930009656,77.92064930009656,77.92064930009656,77.92064930009656,77.92064930009656,78.28730500000529,78.28730500000529,78.28730500000529,78.28730500000529,78.28730500000529,78.28730500000529,78.28730500000529,78.28730500000529,78.28730500000529,23,0,,,78.28730500000529,78.48709599999711,0.0,78.48709599999711,1,0.0,0,0,1000,num_4,0.6510646999813616,,32,7,2026-03-12_15h44.35.736,2026A_exp2,2022.2.4,59.94211989490536,
1,0,4.9,3.7,1,0,12,12,71,,,,,79.15450459998101,79.80513830017298,79.80513830017298,80.30640740017407,45,315,80.30640740017407,80.30640740017407,80.30640740017407,80.30640740017407,80.30640740017407,80.30640740017407,80.30640740017407,80.30640740017407,80.30640740017407,80.65841030003503,80.65841030003503,80.65841030003503,80.65841030003503,80.65841030003503,80.65841030003503,80.65841030003503,80.65841030003503,80.65841030003503,22,0,,,80.65841030003503,80.87282579997554,3.7,80.87282579997554,0,3.7,1,0,1000,num_1,0.5455449000000954,,32,7,2026-03-12_15h44.35.736,2026A_exp2,2022.2.4,59.94211989490536,
1,0,6.1,0.0,1,0,13,13,17,,,,,81.44011380011216,82.0740730999969,82.0740730999969,82.57568950019777,315,315,82.57568950019777,82.57568950019777,82.57568950019777,82.57568950019777,82.57568950019777,82.57568950019777,82.57568950019777,82.57568950019777,82.57568950019777,82.94152810005471,82.94152810005471,82.94152810005471,82.94152810005471,82.94152810005471,82.94152810005471,82.94152810005471,82.94152810005471,82.94152810005471,23,0,,,82.94152810005471,83.14193839998916,0.0,83.14193839998916,0,0.0,0,1,1000,num_1,1.1968432001303881,,32,7,2026-03-12_15h44.35.736,2026A_exp2,2022.2.4,59.94211989490536,
1,0,6.1,3.7,1,0,14,14,83,,,,,84.3598195000086,84.99379139998928,84.99379139998928,85.4947828000877,315,315,85.4947828000877,85.4947828000877,85.4947828000877,85.4947828000877,85.4947828000877,85.4947828000877,85.4947828000877,85.4947828000877,85.4947828000877,85.86130700004287,85.86130700004287,85.86130700004287,85.86130700004287,85.86130700004287,85.86130700004287,85.86130700004287,85.86130700004287,85.86130700004287,23,0,,,85.86130700004287,86.06194050004706,3.7,86.06194050004706,0,3.7,1,0,1000,num_1,0.7403657999821007,,32,7,2026-03-12_15h44.35.736,2026A_exp2,2022.2.4,59.94211989490536,
1,0,0.0,0.0,0,0,15,15,6,,,,,86.8288118999917,87.46296150004491,87.46296150004491,87.96401890018024,45,45,87.96401890018024,87.96401890018024,87.96401890018024,87.96401890018024,87.96401890018024,87.96401890018024,87.96401890018024,87.96401890018024,87.96401890018024,88.33039920008741,88.33039920008741,88.33039920008741,88.33039920008741,88.33039920008741,88.33039920008741,88.33039920008741,88.33039920008741,88.33039920008741,23,0,,,88.33039920008741,88.530742400093,0.0,88.530742400093,1,0.0,0,0,1000,num_4,0.5110220001079142,,32,7,2026-03-12_15h44.35.736,2026A_exp2,2022.2.4,59.94211989490536,
0,0,0.0,0.0,1,0,16,16,80,,,,,89.06448330008425,89.71528660017066,89.71528660017066,90.19957559998147,45,45,90.19957559998147,90.19957559998147,90.19957559998147,90.19957559998147,90.19957559998147,90.19957559998147,90.19957559998147,90.19957559998147,90.19957559998147,90.56621850002557,90.56621850002557,90.56621850002557,90.56621850002557,90.56621850002557,90.56621850002557,90.56621850002557,90.56621850002557,90.56621850002557,23,0,,,90.56621850002557,90.76652669999748,0.0,90.76652669999748,0,0.0,0,1,1000,num_1,0.7236951999366283,,32,7,2026-03-12_15h44.35.736,2026A_exp2,2022.2.4,59.94211989490536,
1,0,0.0,0.0,1,0,17,17,59,,,,,91.517404000042,92.15081580006517,92.15081580006517,92.65203260001726,45,45,92.65203260001726,92.65203260001726,92.65203260001726,92.65203260001726,92.65203260001726,92.65203260001726,92.65203260001726,92.65203260001726,92.65203260001726,93.01874379999936,93.01874379999936,93.01874379999936,93.01874379999936,93.01874379999936,93.01874379999936,93.01874379999936,93.01874379999936,93.01874379999936,23,0,,,93.01874379999936,93.21864049998112,0.0,93.21864049998112,1,0.0,0,0,1000,num_4,0.44733429979532957,,32,7,2026-03-12_15h44.35.736,2026A_exp2,2022.2.4,59.94211989490536,
1000,1,0.0,3.7,1,0,18,18,1,,,,,93.68577049998567,94.32019520015456,94.32019520015456,94.8210846001748,315,315,94.8210846001748,94.8210846001748,94.8210846001748,94.8210846001748,94.8210846001748,94.8210846001748,94.8210846001748,94.8210846001748,94.8210846001748,95.18722120020539,95.18722120020539,95.18722120020539,95.18722120020539,95.18722120020539,95.18722120020539,95.18722120020539,95.18722120020539,95.18722120020539,23,0,,,95.18722120020539,95.38770080008544,1000,95.38770080008544,1000,1000,1000,1000,1,num_2,0.3902082000859082,,32,7,2026-03-12_15h44.35.736,2026A_exp2,2022.2.4,59.94211989490536,
1,0,0.0,0.0,0,0,19,19,39,,,,,95.80503260018304,96.4558352001477,96.4558352001477,96.94036950008012,315,45,96.94036950008012,96.94036950008012,96.94036950008012,96.94036950008012,96.94036950008012,96.94036950008012,96.94036950008012,96.94036950008012,96.94036950008012,97.30598310008645,97.30598310008645,97.30598310008645,97.30598310008645,97.30598310008645,97.30598310008645,97.30598310008645,97.30598310008645,97.30598310008645,23,0,,,97.30598310008645,97.5062361001037,0.0,97.5062361001037,1,0.0,0,0,1000,num_4,0.5443663001060486,,32,7,2026-03-12_15h44.35.736,2026A_exp2,2022.2.4,59.94211989490536,
1000,1,3.7,0.0,1,0,20,20,78,,,,,98.073483500164,98.70738680008799,98.70738680008799,99.2083888000343,315,315,99.2083888000343,99.2083888000343,99.2083888000343,99.2083888000343,99.2083888000343,99.2083888000343,99.2083888000343,99.2083888000343,99.2083888000343,99.5751603001263,99.5751603001263,99.5751603001263,99.5751603001263,99.5751603001263,99.5751603001263,99.5751603001263,99.5751603001263,99.5751603001263,23,0,,,99.5751603001263,99.77514789998531,1000,99.77514789998531,1000,1000,1000,1000,1,num_2,0.755487099988386,,32,7,2026-03-12_15h44.35.736,2026A_exp2,2022.2.4,59.94211989490536,
1,0,0.0,3.7,0,0,21,21,31,,,,,100.55949440016411,101.20987970009446,101.20987970009446,101.69420400005765,315,315,101.69420400005765,101.69420400005765,101.69420400005765,101.69420400005765,101.69420400005765,101.69420400005765,101.69420400005765,101.69420400005765,101.69420400005765,102.06082670018077,102.06082670018077,102.06082670018077,102.06082670018077,102.06082670018077,102.06082670018077,102.06082670018077,102.06082670018077,102.06082670018077,23,0,,,102.06082670018077,102.26083440007642,0.0,102.26083440007642,1,0.0,0,0,1000,num_4,0.5571999999228865,,32,7,2026-03-12_15h44.35.736,2026A_exp2,2022.2.4,59.94211989490536,
1000,1,0.0,4.9,0,0,22,22,23,,,,,102.8449358001817,103.4787987000309,103.4787987000309,103.98007780010812,45,45,103.98007780010812,103.98007780010812,103.98007780010812,103.98007780010812,103.98007780010812,103.98007780010812,103.98007780010812,103.98007780010812,103.98007780010812,104.34651230019517,104.34651230019517,104.34651230019517,104.34651230019517,104.34651230019517,104.34651230019517,104.34651230019517,104.34651230019517,104.34651230019517,23,0,,,104.34651230019517,104.54666850017384,1000,104.54666850017384,1000,1000,1000,1000,1,num_2,0.5999835999682546,,32,7,2026-03-12_15h44.35.736,2026A_exp2,2022.2.4,59.94211989490536,
1,0,3.7,6.1,1,0,23,23,75,,,,,105.16509790020064,105.81442250008695,105.81442250008695,106.29906060011126,315,315,106.29906060011126,106.29906060011126,106.29906060011126,106.29906060011126,106.29906060011126,106.29906060011126,106.29906060011126,106.29906060011126,106.29906060011126,106.66532390005887,106.66532390005887,106.66532390005887,106.66532390005887,106.66532390005887,106.66532390005887,106.66532390005887,106.66532390005887,106.66532390005887,23,0,,,106.66532390005887,106.86538189998828,6.1,106.86538189998828,1,6.1,1,1,1000,num_4,0.4725363999605179,,32,7,2026-03-12_15h44.35.736,2026A_exp2,2022.2.4,59.94211989490536,
1000,1,4.9,0.0,1,0,24,24,74,,,,,107.36600310006179,108.00000390014611,108.00000390014611,108.50139100011438,315,315,108.50139100011438,108.50139100011438,108.50139100011438,108.50139100011438,108.50139100011438,108.50139100011438,108.50139100011438,108.50139100011438,108.50139100011438,108.86747579998337,108.86747579998337,108.86747579998337,108.86747579998337,108.86747579998337,108.86747579998337,108.86747579998337,108.86747579998337,108.86747579998337,23,0,,,108.86747579998337,109.0681356000714,1000,109.0681356000714,1000,1000,1000,1000,0,num_3,0.5025855000130832,,32,7,2026-03-12_15h44.35.736,2026A_exp2,2022.2.4,59.94211989490536,
1,0,6.1,3.7,1,0,25,25,16,,,,,109.60165840014815,110.23574080015533,110.23574080015533,110.73690150002949,315,315,110.73690150002949,110.73690150002949,110.73690150002949,110.73690150002949,110.73690150002949,110.73690150002949,110.73690150002949,110.73690150002949,110.73690150002949,111.10355630004779,111.10355630004779,111.10355630004779,111.10355630004779,111.10355630004779,111.10355630004779,111.10355630004779,111.10355630004779,111.10355630004779,23,0,,,111.10355630004779,111.30359030002728,3.7,111.30359030002728,0,3.7,1,0,1000,num_1,1.5067310000304133,,32,7,2026-03-12_15h44.35.736,2026A_exp2,2022.2.4,59.94211989490536,
1000,1,3.7,0.0,0,0,26,26,55,,,,,112.83818840002641,113.4720207999926,113.4720207999926,113.97365669999272,45,315,113.97365669999272,113.97365669999272,113.97365669999272,113.97365669999272,113.97365669999272,113.97365669999272,113.97365669999272,113.97365669999272,113.97365669999272,114.33994990005158,114.33994990005158,114.33994990005158,114.33994990005158,114.33994990005158,114.33994990005158,114.33994990005158,114.33994990005158,114.33994990005158,23,0,,,114.33994990005158,114.5402783001773,1000,114.5402783001773,1000,1000,1000,1000,0,num_3,0.3021439998410642,,32,7,2026-03-12_15h44.35.736,2026A_exp2,2022.2.4,59.94211989490536,
1,0,4.9,4.9,1,0,27,27,18,,,,,114.87368520000018,115.50745790009387,115.50745790009387,116.00863100006245,45,45,116.00863100006245,116.00863100006245,116.00863100006245,116.00863100006245,116.00863100006245,116.00863100006245,116.00863100006245,116.00863100006245,116.00863100006245,116.37502080015838,116.37502080015838,116.37502080015838,116.37502080015838,116.37502080015838,116.37502080015838,116.37502080015838,116.37502080015838,116.37502080015838,23,0,,,116.37502080015838,116.57559170015156,4.9,116.57559170015156,1,4.9,1,1,1000,num_4,0.4901970000937581,,32,7,2026-03-12_15h44.35.736,2026A_exp2,2022.2.4,59.94211989490536,
1,0,0.0,4.9,1,0,28,28,73,,,,,117.09239560016431,117.72640809998848,117.72640809998848,118.22737600002438,315,45,118.22737600002438,118.22737600002438,118.22737600002438,118.22737600002438,118.22737600002438,118.22737600002438,118.22737600002438,118.22737600002438,118.22737600002438,118.59388090018183,118.59388090018183,118.59388090018183,118.59388090018183,118.59388090018183,118.59388090018183,118.59388090018183,118.59388090018183,118.59388090018183,23,0,,,118.59388090018183,118.79393580020405,4.9,118.79393580020405,1,4.9,1,1,1000,num_4,0.36899819993413985,,32,7,2026-03-12_15h44.35.736,2026A_exp2,2022.2.4,59.94211989490536,
1,0,0.0,3.7,1,0,29,29,30,,,,,119.19460220006295,119.82849820004776,119.82849820004776,120.32961950008757,45,45,120.32961950008757,120.32961950008757,120.32961950008757,120.32961950008757,120.32961950008757,120.32961950008757,120.32961950008757,120.32961950008757,120.32961950008757,120.69599160016514,120.69599160016514,120.69599160016514,120.69599160016514,120.69599160016514,120.69599160016514,120.69599160016514,120.69599160016514,120.69599160016514,23,0,,,120.69599160016514,120.89623890002258,3.7,120.89623890002258,1,3.7,1,1,1000,num_4,0.39443839993327856,,32,7,2026-03-12_15h44.35.736,2026A_exp2,2022.2.4,59.94211989490536,
1000,1,6.1,6.1,1,0,30,30,53,,,,,121.31324889999814,121.94769469997846,121.94769469997846,122.44842780008912,315,315,122.44842780008912,122.44842780008912,122.44842780008912,122.44842780008912,122.44842780008912,122.44842780008912,122.44842780008912,122.44842780008912,122.44842780008912,122.81486040004529,122.81486040004529,122.81486040004529,122.81486040004529,122.81486040004529,122.81486040004529,122.81486040004529,122.81486040004529,122.81486040004529,23,0,,,122.81486040004529,123.01513530011289,1000,123.01513530011289,1000,1000,1000,1000,1,num_2,0.6272660000249743,,32,7,2026-03-12_15h44.35.736,2026A_exp2,2022.2.4,59.94211989490536,
1000,1,4.9,0.0,1,0,31,31,56,,,,,123.66577169997618,124.31645540008321,124.31645540008321,124.80080650001764,45,315,124.80080650001764,124.80080650001764,124.80080650001764,124.80080650001764,124.80080650001764,124.80080650001764,124.80080650001764,124.80080650001764,124.80080650001764,125.1672387002036,125.1672387002036,125.1672387002036,125.1672387002036,125.1672387002036,125.1672387002036,125.1672387002036,125.1672387002036,125.1672387002036,23,0,,,125.1672387002036,125.36816280009225,1000,125.36816280009225,1000,1000,1000,1000,0,num_3,0.3376076999120414,,32,7,2026-03-12_15h44.35.736,2026A_exp2,2022.2.4,59.94211989490536,
1000,1,0.0,3.7,1,0,32,32,82,,,,,125.73475480009802,126.36935290019028,126.36935290019028,126.87025890010409,45,315,126.87025890010409,126.87025890010409,126.87025890010409,126.87025890010409,126.87025890010409,126.87025890010409,126.87025890010409,126.87025890010409,126.87025890010409,127.23599020019174,127.23599020019174,127.23599020019174,127.23599020019174,127.23599020019174,127.23599020019174,127.23599020019174,127.23599020019174,127.23599020019174,23,0,,,127.23599020019174,127.43631260003895,1000,127.43631260003895,1000,1000,1000,1000,1,num_2,0.44630439998582006,,32,7,2026-03-12_15h44.35.736,2026A_exp2,2022.2.4,59.94211989490536,
1000,1,0.0,0.0,1,0,33,33,44,,,,,127.90349060017616,128.55399460019544,128.55399460019544,129.0549135999754,45,315,129.0549135999754,129.0549135999754,129.0549135999754,129.0549135999754,129.0549135999754,129.0549135999754,129.0549135999754,129.0549135999754,129.0549135999754,129.40465430007316,129.40465430007316,129.40465430007316,129.40465430007316,129.40465430007316,129.40465430007316,129.40465430007316,129.40465430007316,129.40465430007316,22,0,,,129.40465430007316,129.6054398000706,1000,129.6054398000706,1000,1000,1000,1000,1,num_2,0.596978300018236,,32,7,2026-03-12_15h44.35.736,2026A_exp2,2022.2.4,59.94211989490536,
1000,1,3.7,0.0,1,0,34,34,38,,,,,130.2223533000797,130.87268900009803,130.87268900009803,131.35751390014775,45,45,131.35751390014775,131.35751390014775,131.35751390014775,131.35751390014775,131.35751390014775,131.35751390014775,131.35751390014775,131.35751390014775,131.35751390014775,131.7236074001994,131.7236074001994,131.7236074001994,131.7236074001994,131.7236074001994,131.7236074001994,131.7236074001994,131.7236074001994,131.7236074001994,23,0,,,131.7236074001994,131.9244481001515,1000,131.9244481001515,1000,1000,1000,1000,0,num_3,0.26192139997147024,,32,7,2026-03-12_15h44.35.736,2026A_exp2,2022.2.4,59.94211989490536,
1,0,0.0,0.0,1,0,35,35,20,,,,,132.2076044001151,132.858114000177,132.858114000177,133.34256830019876,315,45,133.34256830019876,133.34256830019876,133.34256830019876,133.34256830019876,133.34256830019876,133.34256830019876,133.34256830019876,133.34256830019876,133.34256830019876,133.7088763001375,133.7088763001375,133.7088763001375,133.7088763001375,133.7088763001375,133.7088763001375,133.7088763001375,133.7088763001375,133.7088763001375,23,0,,,133.7088763001375,133.90928690019064,0.0,133.90928690019064,1,0.0,0,0,1000,num_4,0.9328928999602795,,32,7,2026-03-12_15h44.35.736,2026A_exp2,2022.2.4,59.94211989490536,
0,0,6.1,4.9,1,0,36,36,42,,,,,134.86025839997455,135.49411870003678,135.49411870003678,135.99629500019364,315,45,135.99629500019364,135.99629500019364,135.99629500019364,135.99629500019364,135.99629500019364,135.99629500019364,135.99629500019364,135.99629500019364,135.99629500019364,136.36165029997937,136.36165029997937,136.36165029997937,136.36165029997937,136.36165029997937,136.36165029997937,136.36165029997937,136.36165029997937,136.36165029997937,23,0,,,136.36165029997937,136.56217340007424,6.1,136.56217340007424,1,6.1,1,1,1000,num_4,0.8157667999621481,,32,7,2026-03-12_15h44.35.736,2026A_exp2,2022.2.4,59.94211989490536,
1,0,0.0,0.0,0,0,37,37,22,,,,,137.39604929997586,138.0298956001643,138.0298956001643,138.53112290007994,315,45,138.53112290007994,138.53112290007994,138.53112290007994,138.53112290007994,138.53112290007994,138.53112290007994,138.53112290007994,138.53112290007994,138.53112290007994,138.89739180007018,138.89739180007018,138.89739180007018,138.89739180007018,138.89739180007018,138.89739180007018,138.89739180007018,138.89739180007018,138.89739180007018,23,0,,,138.89739180007018,139.09792149998248,0.0,139.09792149998248,0,0.0,0,1,1000,num_1,1.000472899992019,,32,7,2026-03-12_15h44.35.736,2026A_exp2,2022.2.4,59.94211989490536,
1,0,3.7,0.0,0,0,38,38,10,,,,,140.11544160009362,140.75035650003701,140.75035650003701,141.25054170005023,45,45,141.25054170005023,141.25054170005023,141.25054170005023,141.25054170005023,141.25054170005023,141.25054170005023,141.25054170005023,141.25054170005023,141.25054170005023,141.6170830000192,141.6170830000192,141.6170830000192,141.6170830000192,141.6170830000192,141.6170830000192,141.6170830000192,141.6170830000192,141.6170830000192,23,0,,,141.6170830000192,141.81713220011443,3.7,141.81713220011443,1,3.7,1,1,1000,num_4,0.5050042998045683,,32,7,2026-03-12_15h44.35.736,2026A_exp2,2022.2.4,59.94211989490536,
1,0,3.7,0.0,0,0,39,39,9,,,,,142.35103650018573,142.98514120001346,142.98514120001346,143.4860720001161,45,45,143.4860720001161,143.4860720001161,143.4860720001161,143.4860720001161,143.4860720001161,143.4860720001161,143.4860720001161,143.4860720001161,143.4860720001161,143.85261280019768,143.85261280019768,143.85261280019768,143.85261280019768,143.85261280019768,143.85261280019768,143.85261280019768,143.85261280019768,143.85261280019768,23,0,,,143.85261280019768,144.0528361001052,3.7,144.0528361001052,1,3.7,1,1,1000,num_4,0.6292773999739438,,32,7,2026-03-12_15h44.35.736,2026A_exp2,2022.2.4,59.94211989490536,
1,0,0.0,0.0,0,0,40,40,61,,,,,144.70386360003613,145.35412400006317,145.35412400006317,145.8553301000502,45,315,145.8553301000502,145.8553301000502,145.8553301000502,145.8553301000502,145.8553301000502,145.8553301000502,145.8553301000502,145.8553301000502,145.8553301000502,146.20482380012982,146.20482380012982,146.20482380012982,146.20482380012982,146.20482380012982,146.20482380012982,146.20482380012982,146.20482380012982,146.20482380012982,22,0,,,146.20482380012982,146.40522549999878,0.0,146.40522549999878,1,0.0,0,0,1000,num_4,0.6052395000588149,,32,7,2026-03-12_15h44.35.736,2026A_exp2,2022.2.4,59.94211989490536,
1,0,6.1,0.0,0,0,41,41,77,,,,,147.0391311000567,147.6730282001663,147.6730282001663,148.17400930006988,315,45,148.17400930006988,148.17400930006988,148.17400930006988,148.17400930006988,148.17400930006988,148.17400930006988,148.17400930006988,148.17400930006988,148.17400930006988,148.54034030018374,148.54034030018374,148.54034030018374,148.54034030018374,148.54034030018374,148.54034030018374,148.54034030018374,148.54034030018374,148.54034030018374,23,0,,,148.54034030018374,148.74086240003817,6.1,148.74086240003817,1,6.1,1,1,1000,num_4,0.6934865000657737,,32,7,2026-03-12_15h44.35.736,2026A_exp2,2022.2.4,59.94211989490536,
1,0,0.0,0.0,0,0,42,42,32,,,,,149.45826500002295,150.09226090018637,150.09226090018637,150.59320780006237,315,45,150.59320780006237,150.59320780006237,150.59320780006237,150.59320780006237,150.59320780006237,150.59320780006237,150.59320780006237,150.59320780006237,150.59320780006237,150.95989250019193,150.95989250019193,150.95989250019193,150.95989250019193,150.95989250019193,150.95989250019193,150.95989250019193,150.95989250019193,150.95989250019193,23,0,,,150.95989250019193,151.15974270016886,0.0,151.15974270016886,1,0.0,0,0,1000,num_4,0.994658799842,,32,7,2026-03-12_15h44.35.736,2026A_exp2,2022.2.4,59.94211989490536,
1000,1,3.7,0.0,0,0,43,43,81,,,,,152.17763270018622,152.8281980000902,152.8281980000902,153.32933880016208,315,315,153.32933880016208,153.32933880016208,153.32933880016208,153.32933880016208,153.32933880016208,153.32933880016208,153.32933880016208,153.32933880016208,153.32933880016208,153.67889169999398,153.67889169999398,153.67889169999398,153.67889169999398,153.67889169999398,153.67889169999398,153.67889169999398,153.67889169999398,153.67889169999398,22,0,,,153.67889169999398,153.87935140007176,1000,153.87935140007176,1000,1000,1000,1000,1,num_2,0.8184730000793934,,32,7,2026-03-12_15h44.35.736,2026A_exp2,2022.2.4,59.94211989490536,
1000,1,0.0,4.9,1,0,44,44,72,,,,,154.71347890002653,155.3639348000288,155.3639348000288,155.8486529001966,315,45,155.8486529001966,155.8486529001966,155.8486529001966,155.8486529001966,155.8486529001966,155.8486529001966,155.8486529001966,155.8486529001966,155.8486529001966,156.21477930014953,156.21477930014953,156.21477930014953,156.21477930014953,156.21477930014953,156.21477930014953,156.21477930014953,156.21477930014953,156.21477930014953,23,0,,,156.21477930014953,156.4151140002068,1000,156.4151140002068,1000,1000,1000,1000,1,num_2,0.12305279984138906,,32,7,2026-03-12_15h44.35.736,2026A_exp2,2022.2.4,59.94211989490536,
1000,1,0.0,4.9,1,0,45,45,57,,,,,156.5655455000233,157.21625250019133,157.21625250019133,157.70043080020696,315,45,157.70043080020696,157.70043080020696,157.70043080020696,157.70043080020696,157.70043080020696,157.70043080020696,157.70043080020696,157.70043080020696,157.70043080020696,158.06816580006853,158.06816580006853,158.06816580006853,158.06816580006853,158.06816580006853,158.06816580006853,158.06816580006853,158.06816580006853,158.06816580006853,23,0,,,158.06816580006853,158.28366200020537,1000,158.28366200020537,1000,1000,1000,1000,1,num_2,0.23114779987372458,,32,7,2026-03-12_15h44.35.736,2026A_exp2,2022.2.4,59.94211989490536,
0,0,0.0,4.9,1,0,46,46,0,,,,,158.53407620009966,159.18457580008544,159.18457580008544,159.6692109000869,315,45,159.6692109000869,159.6692109000869,159.6692109000869,159.6692109000869,159.6692109000869,159.6692109000869,159.6692109000869,159.6692109000869,159.6692109000869,160.03594680014066,160.03594680014066,160.03594680014066,160.03594680014066,160.03594680014066,160.03594680014066,160.03594680014066,160.03594680014066,160.03594680014066,23,0,,,160.03594680014066,160.23578860005364,0.0,160.23578860005364,0,0.0,0,1,1000,num_1,0.5190727000590414,,32,7,2026-03-12_15h44.35.736,2026A_exp2,2022.2.4,59.94211989490536,
1000,1,3.7,0.0,1,0,47,47,52,,,,,160.78674740018323,161.4370659000706,161.4370659000706,161.93823630013503,315,315,161.93823630013503,161.93823630013503,161.93823630013503,161.93823630013503,161.93823630013503,161.93823630013503,161.93823630013503,161.93823630013503,161.93823630013503,162.2876897000242,162.2876897000242,162.2876897000242,162.2876897000242,162.2876897000242,162.2876897000242,162.2876897000242,162.2876897000242,162.2876897000242,22,0,,,162.2876897000242,162.48799260007218,1000,162.50461320020258,1000,1000,1000,1000,0,num_3,0.7301725000143051,,32,7,2026-03-12_15h44.35.736,2026A_exp2,2022.2.4,59.94211989490536,
1000,1,3.7,0.0,1,0,48,48,19,,,,,163.2554250000976,163.9058815999888,163.9058815999888,164.4070932001341,315,315,164.4070932001341,164.4070932001341,164.4070932001341,164.4070932001341,164.4070932001341,164.4070932001341,164.4070932001341,164.4070932001341,164.4070932001341,164.756721700076,164.756721700076,164.756721700076,164.756721700076,164.756721700076,164.756721700076,164.756721700076,164.756721700076,164.756721700076,22,0,,,164.756721700076,164.95705810002983,1000,164.95705810002983,1000,1000,1000,1000,1,num_2,0.5729400999844074,,32,7,2026-03-12_15h44.35.736,2026A_exp2,2022.2.4,59.94211989490536,
1000,1,0.0,0.0,1,0,49,49,35,,,,,165.55763120017946,166.20824070018716,166.20824070018716,166.6926306001842,45,45,166.6926306001842,166.6926306001842,166.6926306001842,166.6926306001842,166.6926306001842,166.6926306001842,166.6926306001842,166.6926306001842,166.6926306001842,167.05902909999713,167.05902909999713,167.05902909999713,167.05902909999713,167.05902909999713,167.05902909999713,167.05902909999713,167.05902909999713,167.05902909999713,23,0,,,167.05902909999713,167.259827000089,1000,167.259827000089,1000,1000,1000,1000,1,num_2,0.20647540013305843,,32,7,2026-03-12_15h44.35.736,2026A_exp2,2022.2.4,59.94211989490536,
1,0,0.0,0.0,1,0,50,50,66,,,,,167.49293200019747,168.14341989997774,168.14341989997774,168.6446754001081,315,45,168.6446754001081,168.6446754001081,168.6446754001081,168.6446754001081,168.6446754001081,168.6446754001081,168.6446754001081,168.6446754001081,168.6446754001081,168.99432090017945,168.99432090017945,168.99432090017945,168.99432090017945,168.99432090017945,168.99432090017945,168.99432090017945,168.99432090017945,168.99432090017945,22,0,,,168.99432090017945,169.1944228000939,0.0,169.21113140019588,1,0.0,0,0,1000,num_4,0.5110329000744969,,32,7,2026-03-12_15h44.35.736,2026A_exp2,2022.2.4,59.94211989490536,
1000,1,3.7,6.1,1,0,51,51,43,,,,,169.7450550000649,170.37887770007364,170.37887770007364,170.88087079999968,315,315,170.88087079999968,170.88087079999968,170.88087079999968,170.88087079999968,170.88087079999968,170.88087079999968,170.88087079999968,170.88087079999968,170.88087079999968,171.24688750016503,171.24688750016503,171.24688750016503,171.24688750016503,171.24688750016503,171.24688750016503,171.24688750016503,171.24688750016503,171.24688750016503,23,0,,,171.24688750016503,171.44684270001017,1000,171.44684270001017,1000,1000,1000,1000,1,num_2,0.5152038000524044,,32,7,2026-03-12_15h44.35.736,2026A_exp2,2022.2.4,59.94211989490536,
1000,1,6.1,4.9,1,0,52,52,86,,,,,171.98090220009908,172.63943330012262,172.63943330012262,173.1322682001628,45,45,173.1322682001628,173.1322682001628,173.1322682001628,173.1322682001628,173.1322682001628,173.1322682001628,173.1322682001628,173.1322682001628,173.1322682001628,173.49917570012622,173.49917570012622,173.49917570012622,173.49917570012622,173.49917570012622,173.49917570012622,173.49917570012622,173.49917570012622,173.49917570012622,23,0,,,173.49917570012622,173.7009517000988,1000,173.7009517000988,1000,1000,1000,1000,0,num_3,0.3496366001199931,,32,7,2026-03-12_15h44.35.736,2026A_exp2,2022.2.4,59.94211989490536,
1000,1,6.1,4.9,1,0,53,53,15,,,,,174.06656910013407,174.7168926000595,174.7168926000595,175.21809510001913,45,45,175.21809510001913,175.21809510001913,175.21809510001913,175.21809510001913,175.21809510001913,175.21809510001913,175.21809510001913,175.21809510001913,175.21809510001913,175.58460790012032,175.58460790012032,175.58460790012032,175.58460790012032,175.58460790012032,175.58460790012032,175.58460790012032,175.58460790012032,175.58460790012032,23,0,,,175.58460790012032,175.78476080019027,1000,175.78476080019027,1000,1000,1000,1000,0,num_3,0.3622017998714,,32,7,2026-03-12_15h44.35.736,2026A_exp2,2022.2.4,59.94211989490536,
1,0,4.9,4.9,0,0,54,54,28,,,,,176.16823610011488,176.8190502000507,176.8190502000507,177.31994060007855,45,315,177.31994060007855,177.31994060007855,177.31994060007855,177.31994060007855,177.31994060007855,177.31994060007855,177.31994060007855,177.31994060007855,177.31994060007855,177.68661670014262,177.68661670014262,177.68661670014262,177.68661670014262,177.68661670014262,177.68661670014262,177.68661670014262,177.68661670014262,177.68661670014262,23,0,,,177.68661670014262,177.88678330020048,4.9,177.88678330020048,1,4.9,1,1,1000,num_4,0.4758922001346946,,32,7,2026-03-12_15h44.35.736,2026A_exp2,2022.2.4,59.94211989490536,
1000,1,0.0,6.1,0,0,55,55,27,,,,,178.38723940006457,179.038009500131,179.038009500131,179.52247490012087,45,315,179.52247490012087,179.52247490012087,179.52247490012087,179.52247490012087,179.52247490012087,179.52247490012087,179.52247490012087,179.52247490012087,179.52247490012087,179.88890310004354,179.88890310004354,179.88890310004354,179.88890310004354,179.88890310004354,179.88890310004354,179.88890310004354,179.88890310004354,179.88890310004354,23,0,,,179.88890310004354,180.0911765000783,1000,180.0911765000783,1000,1000,1000,1000,0,num_3,0.551715100184083,,32,7,2026-03-12_15h44.35.736,2026A_exp2,2022.2.4,59.94211989490536,
1,0,0.0,0.0,1,0,56,56,58,,,,,180.67280250019394,181.32354810019024,181.32354810019024,181.82474690000527,45,45,181.82474690000527,181.82474690000527,181.82474690000527,181.82474690000527,181.82474690000527,181.82474690000527,181.82474690000527,181.82474690000527,181.82474690000527,182.19113550009206,182.19113550009206,182.19113550009206,182.19113550009206,182.19113550009206,182.19113550009206,182.19113550009206,182.19113550009206,182.19113550009206,23,0,,,182.19113550009206,182.39121150015853,0.0,182.39121150015853,1,0.0,0,0,1000,num_4,0.49999099993146956,,32,7,2026-03-12_15h44.35.736,2026A_exp2,2022.2.4,59.94211989490536,
1000,1,6.1,6.1,0,0,57,57,87,,,,,182.90910200006329,183.55926060001366,183.55926060001366,184.06020830012858,315,45,184.06020830012858,184.06020830012858,184.06020830012858,184.06020830012858,184.06020830012858,184.06020830012858,184.06020830012858,184.06020830012858,184.06020830012858,184.42673510010354,184.42673510010354,184.42673510010354,184.42673510010354,184.42673510010354,184.42673510010354,184.42673510010354,184.42673510010354,184.42673510010354,23,0,,,184.42673510010354,184.62873640004545,1000,184.62873640004545,1000,1000,1000,1000,0,num_3,0.39813190000131726,,32,7,2026-03-12_15h44.35.736,2026A_exp2,2022.2.4,59.94211989490536,
1000,1,0.0,0.0,0,0,58,58,24,,,,,185.04400140000507,185.69440770009533,185.69440770009533,186.1956582001876,315,45,186.1956582001876,186.1956582001876,186.1956582001876,186.1956582001876,186.1956582001876,186.1956582001876,186.1956582001876,186.1956582001876,186.1956582001876,186.56223780009896,186.56223780009896,186.56223780009896,186.56223780009896,186.56223780009896,186.56223780009896,186.56223780009896,186.56223780009896,186.56223780009896,23,0,,,186.56223780009896,186.76438560010865,1000,186.76438560010865,1000,1000,1000,1000,1,num_2,0.5671534999273717,,32,7,2026-03-12_15h44.35.736,2026A_exp2,2022.2.4,59.94211989490536,
1000,1,0.0,0.0,0,0,59,59,13,,,,,187.36312540015206,188.01347590005025,188.01347590005025,188.51479980000295,315,45,188.51479980000295,188.51479980000295,188.51479980000295,188.51479980000295,188.51479980000295,188.51479980000295,188.51479980000295,188.51479980000295,188.51479980000295,188.88102150009945,188.88102150009945,188.88102150009945,188.88102150009945,188.88102150009945,188.88102150009945,188.88102150009945,188.88102150009945,188.88102150009945,23,0,,,188.88102150009945,189.08346210001037,1000,189.08346210001037,1000,1000,1000,1000,0,num_3,0.30247920006513596,,32,7,2026-03-12_15h44.35.736,2026A_exp2,2022.2.4,59.94211989490536,
1,0,4.9,6.1,1,0,60,60,36,,,,,189.41489830007777,190.0770283001475,190.0770283001475,190.56711519998498,315,45,190.56711519998498,190.56711519998498,190.56711519998498,190.56711519998498,190.56711519998498,190.56711519998498,190.56711519998498,190.56711519998498,190.56711519998498,190.93321360019036,190.93321360019036,190.93321360019036,190.93321360019036,190.93321360019036,190.93321360019036,190.93321360019036,190.93321360019036,190.93321360019036,23,0,,,190.93321360019036,191.1335168001242,6.1,191.1335168001242,1,6.1,1,1,1000,num_4,0.5092052000109106,,32,7,2026-03-12_15h44.35.736,2026A_exp2,2022.2.4,59.94211989490536,
0,0,4.9,6.1,1,0,61,61,70,,,,,191.66710650012828,192.3179535001982,192.3179535001982,192.80244660004973,315,315,192.80244660004973,192.80244660004973,192.80244660004973,192.80244660004973,192.80244660004973,192.80244660004973,192.80244660004973,192.80244660004973,192.80244660004973,193.1687861001119,193.1687861001119,193.1687861001119,193.1687861001119,193.1687861001119,193.1687861001119,193.1687861001119,193.1687861001119,193.1687861001119,23,0,,,193.1687861001119,193.3690755001735,4.9,193.3690755001735,1,4.9,1,1,1000,num_4,0.6104330997914076,,32,7,2026-03-12_15h44.35.736,2026A_exp2,2022.2.4,59.94211989490536,
0,0,4.9,0.0,1,0,62,62,26,,,,,194.00436000013724,194.65425130003132,194.65425130003132,195.1629900999833,315,45,195.1629900999833,195.1629900999833,195.1629900999833,195.1629900999833,195.1629900999833,195.1629900999833,195.1629900999833,195.1629900999833,195.1629900999833,195.52131640003063,195.52131640003063,195.52131640003063,195.52131640003063,195.52131640003063,195.52131640003063,195.52131640003063,195.52131640003063,195.52131640003063,23,0,,,195.52131640003063,195.72124120010994,4.9,195.72124120010994,1,4.9,1,1,1000,num_4,1.2247355999425054,,32,7,2026-03-12_15h44.35.736,2026A_exp2,2022.2.4,59.94211989490536,
1,0,0.0,6.1,1,0,63,63,5,,,,,196.97241300018504,197.6231985001359,197.6231985001359,198.10767890000716,45,45,198.10767890000716,198.10767890000716,198.10767890000716,198.10767890000716,198.10767890000716,198.10767890000716,198.10767890000716,198.10767890000716,198.10767890000716,198.47417180007324,198.47417180007324,198.47417180007324,198.47417180007324,198.47417180007324,198.47417180007324,198.47417180007324,198.47417180007324,198.47417180007324,23,0,,,198.47417180007324,198.67431570007466,6.1,198.67431570007466,1,6.1,1,1,1000,num_4,0.6564623999875039,,32,7,2026-03-12_15h44.35.736,2026A_exp2,2022.2.4,59.94211989490536,
1000,1,6.1,0.0,0,0,64,64,21,,,,,199.3582517001778,200.00902790017426,200.00902790017426,200.49335140013136,315,45,200.49335140013136,200.49335140013136,200.49335140013136,200.49335140013136,200.49335140013136,200.49335140013136,200.49335140013136,200.49335140013136,200.49335140013136,200.85979280015454,200.85979280015454,200.85979280015454,200.85979280015454,200.85979280015454,200.85979280015454,200.85979280015454,200.85979280015454,200.85979280015454,23,0,,,200.85979280015454,201.06205640011467,1000,201.06205640011467,1000,1000,1000,1000,0,num_3,0.4838648000732064,,32,7,2026-03-12_15h44.35.736,2026A_exp2,2022.2.4,59.94211989490536,
1,0,0.0,3.7,0,0,65,65,64,,,,,201.57703190017492,202.22803070000373,202.22803070000373,202.7288383000996,315,45,202.7288383000996,202.7288383000996,202.7288383000996,202.7288383000996,202.7288383000996,202.7288383000996,202.7288383000996,202.7288383000996,202.7288383000996,203.0786747999955,203.0786747999955,203.0786747999955,203.0786747999955,203.0786747999955,203.0786747999955,203.0786747999955,203.0786747999955,203.0786747999955,22,0,,,203.0786747999955,203.27896020002663,0.0,203.27896020002663,1,0.0,0,0,1000,num_4,0.5629682999569923,,32,7,2026-03-12_15h44.35.736,2026A_exp2,2022.2.4,59.94211989490536,
0,0,0.0,4.9,0,0,66,66,65,,,,,203.86262760008685,204.51336280000396,204.51336280000396,204.9977653999813,315,315,204.9977653999813,204.9977653999813,204.9977653999813,204.9977653999813,204.9977653999813,204.9977653999813,204.9977653999813,204.9977653999813,204.9977653999813,205.36437060008757,205.36437060008757,205.36437060008757,205.36437060008757,205.36437060008757,205.36437060008757,205.36437060008757,205.36437060008757,205.36437060008757,23,0,,,205.36437060008757,205.5643983001355,4.9,205.5643983001355,0,4.9,1,0,1000,num_1,0.677703500026837,,32,7,2026-03-12_15h44.35.736,2026A_exp2,2022.2.4,59.94211989490536,
1000,1,3.7,3.7,1,0,67,67,54,,,,,206.26521610002965,206.91589340008795,206.91589340008795,207.40018040011637,45,45,207.40018040011637,207.40018040011637,207.40018040011637,207.40018040011637,207.40018040011637,207.40018040011637,207.40018040011637,207.40018040011637,207.40018040011637,207.76676949998364,207.76676949998364,207.76676949998364,207.76676949998364,207.76676949998364,207.76676949998364,207.76676949998364,207.76676949998364,207.76676949998364,23,0,,,207.76676949998364,207.96892030001618,1000,207.96892030001618,1000,1000,1000,1000,1,num_2,0.3848547001834959,,32,7,2026-03-12_15h44.35.736,2026A_exp2,2022.2.4,59.94211989490536,
1,0,0.0,3.7,0,0,68,68,76,,,,,208.38398040016182,209.0346849001944,209.0346849001944,209.53579280013219,315,315,209.53579280013219,209.53579280013219,209.53579280013219,209.53579280013219,209.53579280013219,209.53579280013219,209.53579280013219,209.53579280013219,209.53579280013219,209.9022139001172,209.9022139001172,209.9022139001172,209.9022139001172,209.9022139001172,209.9022139001172,209.9022139001172,209.9022139001172,209.9022139001172,23,0,,,209.9022139001172,210.10236760019325,0.0,210.10236760019325,1,0.0,0,0,1000,num_4,0.4926401001866907,,32,7,2026-03-12_15h44.35.736,2026A_exp2,2022.2.4,59.94211989490536,
1,0,0.0,4.9,1,0,69,69,41,,,,,210.6195438001305,211.27044490003027,211.27044490003027,211.75443550013006,315,45,211.75443550013006,211.75443550013006,211.75443550013006,211.75443550013006,211.75443550013006,211.75443550013006,211.75443550013006,211.75443550013006,211.75443550013006,212.12101920018904,212.12101920018904,212.12101920018904,212.12101920018904,212.12101920018904,212.12101920018904,212.12101920018904,212.12101920018904,212.12101920018904,23,0,,,212.12101920018904,212.32133020018227,4.9,212.32133020018227,1,4.9,1,1,1000,num_4,0.48961009993217885,,32,7,2026-03-12_15h44.35.736,2026A_exp2,2022.2.4,59.94211989490536,
1,0,6.1,6.1,1,0,70,70,49,,,,,212.83834640006535,213.4891480000224,213.4891480000224,213.9735846000258,315,315,213.9735846000258,213.9735846000258,213.9735846000258,213.9735846000258,213.9735846000258,213.9735846000258,213.9735846000258,213.9735846000258,213.9735846000258,214.33995240018703,214.33995240018703,214.33995240018703,214.33995240018703,214.33995240018703,214.33995240018703,214.33995240018703,214.33995240018703,214.33995240018703,23,0,,,214.33995240018703,214.54008920001797,6.1,214.54008920001797,0,6.1,1,0,1000,num_1,0.6383517999202013,,32,7,2026-03-12_15h44.35.736,2026A_exp2,2022.2.4,59.94211989490536,
0,0,0.0,0.0,1,0,71,71,14,,,,,215.2072866000235,215.8578527001664,215.8578527001664,216.34261130006053,315,45,216.34261130006053,216.34261130006053,216.34261130006053,216.34261130006053,216.34261130006053,216.34261130006053,216.34261130006053,216.34261130006053,216.34261130006053,216.70907870004885,216.70907870004885,216.70907870004885,216.70907870004885,216.70907870004885,216.70907870004885,216.70907870004885,216.70907870004885,216.70907870004885,23,0,,,216.70907870004885,216.90909510012716,0.0,216.90909510012716,0,0.0,0,1,1000,num_1,0.8373463999014348,,32,7,2026-03-12_15h44.35.736,2026A_exp2,2022.2.4,59.94211989490536,
1,0,4.9,0.0,0,0,72,72,47,,,,,217.77653919998556,218.42735270014964,218.42735270014964,218.91171790007502,45,315,218.91171790007502,218.91171790007502,218.91171790007502,218.91171790007502,218.91171790007502,218.91171790007502,218.91171790007502,218.91171790007502,218.91171790007502,219.27821010001935,219.27821010001935,219.27821010001935,219.27821010001935,219.27821010001935,219.27821010001935,219.27821010001935,219.27821010001935,219.27821010001935,23,0,,,219.27821010001935,219.4783853001427,4.9,219.4783853001427,1,4.9,1,1,1000,num_4,0.6998837999999523,,32,7,2026-03-12_15h44.35.736,2026A_exp2,2022.2.4,59.94211989490536,
1000,1,4.9,3.7,0,0,73,73,40,,,,,220.1956494001206,220.84650970017537,220.84650970017537,221.33095380011946,315,45,221.33095380011946,221.33095380011946,221.33095380011946,221.33095380011946,221.33095380011946,221.33095380011946,221.33095380011946,221.33095380011946,221.33095380011946,221.69733280013315,221.69733280013315,221.69733280013315,221.69733280013315,221.69733280013315,221.69733280013315,221.69733280013315,221.69733280013315,221.69733280013315,23,0,,,221.69733280013315,221.89892580010928,1000,221.89892580010928,1000,1000,1000,1000,1,num_2,0.7989544998854399,,32,7,2026-03-12_15h44.35.736,2026A_exp2,2022.2.4,59.94211989490536,
1000,1,0.0,0.0,0,0,74,74,79,,,,,222.71497760014609,223.3655710001476,223.3655710001476,223.86668760003522,315,45,223.86668760003522,223.86668760003522,223.86668760003522,223.86668760003522,223.86668760003522,223.86668760003522,223.86668760003522,223.86668760003522,223.86668760003522,224.21648790012114,224.21648790012114,224.21648790012114,224.21648790012114,224.21648790012114,224.21648790012114,224.21648790012114,224.21648790012114,224.21648790012114,17,1,[0.0012936999555677176],[0.08305869996547699],224.21648790012114,224.4185437001288,1000,224.4185437001288,1000,1000,1000,1000,0,num_3,1.4960963998455554,,32,7,2026-03-12_15h44.35.736,2026A_exp2,2022.2.4,59.94211989490536,
1000,1,4.9,0.0,1,0,75,75,84,,,,,225.93476160010323,226.58551990007982,226.58551990007982,227.08671619999222,45,315,227.08671619999222,227.08671619999222,227.08671619999222,227.08671619999222,227.08671619999222,227.08671619999222,227.08671619999222,227.08671619999222,227.08671619999222,227.4529139001388,227.4529139001388,227.4529139001388,227.4529139001388,227.4529139001388,227.4529139001388,227.4529139001388,227.4529139001388,227.4529139001388,23,0,,,227.4529139001388,227.6550656000618,1000,227.6550656000618,1000,1000,1000,1000,0,num_3,0.29974539997056127,,32,7,2026-03-12_15h44.35.736,2026A_exp2,2022.2.4,59.94211989490536,
0,0,0.0,6.1,1,0,76,76,46,,,,,227.97022070013918,228.62092970008962,228.62092970008962,229.12207820010372,45,315,229.12207820010372,229.12207820010372,229.12207820010372,229.12207820010372,229.12207820010372,229.12207820010372,229.12207820010372,229.12207820010372,229.12207820010372,229.48847990017384,229.48847990017384,229.48847990017384,229.48847990017384,229.48847990017384,229.48847990017384,229.48847990017384,229.48847990017384,229.48847990017384,23,0,,,229.48847990017384,229.6886987001635,0.0,229.6886987001635,0,0.0,0,1,1000,num_1,0.5456656999886036,,32,7,2026-03-12_15h44.35.736,2026A_exp2,2022.2.4,59.94211989490536,
1,0,0.0,0.0,1,0,77,77,4,,,,,230.25570370000787,230.90662060002796,230.90662060002796,231.39070200012065,45,45,231.39070200012065,231.39070200012065,231.39070200012065,231.39070200012065,231.39070200012065,231.39070200012065,231.39070200012065,231.39070200012065,231.39070200012065,231.75739230006002,231.75739230006002,231.75739230006002,231.75739230006002,231.75739230006002,231.75739230006002,231.75739230006002,231.75739230006002,231.75739230006002,23,0,,,231.75739230006002,231.9576442001853,0.0,231.9576442001853,1,0.0,0,0,1000,num_4,0.4127199000213295,,32,7,2026-03-12_15h44.35.736,2026A_exp2,2022.2.4,59.94211989490536,
1000,1,0.0,0.0,1,0,78,78,34,,,,,232.3911594999954,233.0420919000171,233.0420919000171,233.54264860018156,315,315,233.54264860018156,233.54264860018156,233.54264860018156,233.54264860018156,233.54264860018156,233.54264860018156,233.54264860018156,233.54264860018156,233.54264860018156,233.8928211000748,233.8928211000748,233.8928211000748,233.8928211000748,233.8928211000748,233.8928211000748,233.8928211000748,233.8928211000748,233.8928211000748,23,0,,,233.8928211000748,234.10724640008993,1000,234.10724640008993,1000,1000,1000,1000,1,num_2,0.43962029996328056,,32,7,2026-03-12_15h44.35.736,2026A_exp2,2022.2.4,59.94211989490536,
1000,1,4.9,0.0,0,0,79,79,37,,,,,234.57695620018058,235.22734450013377,235.22734450013377,235.73677360010333,45,45,235.73677360010333,235.73677360010333,235.73677360010333,235.73677360010333,235.73677360010333,235.73677360010333,235.73677360010333,235.73677360010333,235.73677360010333,236.0949228000827,236.0949228000827,236.0949228000827,236.0949228000827,236.0949228000827,236.0949228000827,236.0949228000827,236.0949228000827,236.0949228000827,23,0,,,236.0949228000827,236.30075650010258,1000,236.30075650010258,1000,1000,1000,1000,0,num_3,0.1417261001188308,,32,7,2026-03-12_15h44.35.736,2026A_exp2,2022.2.4,59.94211989490536,
1,0,6.1,0.0,0,0,80,80,51,,,,,236.46215160004795,237.1126161001157,237.1126161001157,237.61386899999343,45,315,237.61386899999343,237.61386899999343,237.61386899999343,237.61386899999343,237.61386899999343,237.61386899999343,237.61386899999343,237.61386899999343,237.61386899999343,237.98014600016177,237.98014600016177,237.98014600016177,237.98014600016177,237.98014600016177,237.98014600016177,237.98014600016177,237.98014600016177,237.98014600016177,23,0,,,237.98014600016177,238.1804659999907,6.1,238.1804659999907,1,6.1,1,1,1000,num_4,0.49378679995425045,,32,7,2026-03-12_15h44.35.736,2026A_exp2,2022.2.4,59.94211989490536,
1,0,0.0,0.0,0,0,81,81,85,,,,,238.6975544001907,239.35035150009207,239.35035150009207,239.8493349000346,315,315,239.8493349000346,239.8493349000346,239.8493349000346,239.8493349000346,239.8493349000346,239.8493349000346,239.8493349000346,239.8493349000346,239.8493349000346,240.21587539999746,240.21587539999746,240.21587539999746,240.21587539999746,240.21587539999746,240.21587539999746,240.21587539999746,240.21587539999746,240.21587539999746,23,0,,,240.21587539999746,240.4182893000543,0.0,240.4182893000543,1,0.0,0,0,1000,num_4,0.4965822999365628,,32,7,2026-03-12_15h44.35.736,2026A_exp2,2022.2.4,59.94211989490536,
0,0,6.1,6.1,1,0,82,82,48,,,,,240.93303840002045,241.5783667000942,241.5783667000942,242.07040480012074,315,45,242.07040480012074,242.07040480012074,242.07040480012074,242.07040480012074,242.07040480012074,242.07040480012074,242.07040480012074,242.07040480012074,242.07040480012074,242.4346721000038,242.4346721000038,242.4346721000038,242.4346721000038,242.4346721000038,242.4346721000038,242.4346721000038,242.4346721000038,242.4346721000038,23,0,,,242.4346721000038,242.6349897000473,6.1,242.6349897000473,1,6.1,1,1,1000,num_4,0.6082005999051034,,32,7,2026-03-12_15h44.35.736,2026A_exp2,2022.2.4,59.94211989490536,
1000,1,0.0,0.0,1,0,83,83,63,,,,,243.26911800005473,243.9194932000246,243.9194932000246,244.4206652001012,45,315,244.4206652001012,244.4206652001012,244.4206652001012,244.4206652001012,244.4206652001012,244.4206652001012,244.4206652001012,244.4206652001012,244.4206652001012,244.78695400012657,244.78695400012657,244.78695400012657,244.78695400012657,244.78695400012657,244.78695400012657,244.78695400012657,244.78695400012657,244.78695400012657,23,0,,,244.78695400012657,244.98908090009354,1000,244.98908090009354,1000,1000,1000,1000,1,num_2,1.1016863000113517,,32,7,2026-03-12_15h44.35.736,2026A_exp2,2022.2.4,59.94211989490536,
1000,1,0.0,0.0,1,0,84,84,88,,,,,246.1217373001855,246.7557445000857,246.7557445000857,247.25673240004107,315,45,247.25673240004107,247.25673240004107,247.25673240004107,247.25673240004107,247.25673240004107,247.25673240004107,247.25673240004107,247.25673240004107,247.25673240004107,247.6232479000464,247.6232479000464,247.6232479000464,247.6232479000464,247.6232479000464,247.6232479000464,247.6232479000464,247.6232479000464,247.6232479000464,23,0,,,247.6232479000464,247.82511069998145,1000,247.82511069998145,1000,1000,1000,1000,1,num_2,0.39277960010804236,,32,7,2026-03-12_15h44.35.736,2026A_exp2,2022.2.4,59.94211989490536,
1000,1,6.1,0.0,0,0,85,85,69,,,,,248.24044720013626,248.8911510000471,248.8911510000471,249.39233479998074,315,45,249.39233479998074,249.39233479998074,249.39233479998074,249.39233479998074,249.39233479998074,249.39233479998074,249.39233479998074,249.39233479998074,249.39233479998074,249.75842349999584,249.75842349999584,249.75842349999584,249.75842349999584,249.75842349999584,249.75842349999584,249.75842349999584,249.75842349999584,249.75842349999584,23,0,,,249.75842349999584,249.96067479997873,1000,249.96067479997873,1000,1000,1000,1000,0,num_3,0.24151620012708008,,32,7,2026-03-12_15h44.35.736,2026A_exp2,2022.2.4,59.94211989490536,
1000,1,0.0,3.7,1,0,86,86,67,,,,,250.22572290012613,250.87636990007013,250.87636990007013,251.37765990011394,45,315,251.37765990011394,251.37765990011394,251.37765990011394,251.37765990011394,251.37765990011394,251.37765990011394,251.37765990011394,251.37765990011394,251.37765990011394,251.7438794001937,251.7438794001937,251.7438794001937,251.7438794001937,251.7438794001937,251.7438794001937,251.7438794001937,251.7438794001937,251.7438794001937,23,0,,,251.7438794001937,251.9463104000315,1000,251.9463104000315,1000,1000,1000,1000,0,num_3,0.46471790014766157,,32,7,2026-03-12_15h44.35.736,2026A_exp2,2022.2.4,59.94211989490536,
1000,1,0.0,0.0,0,0,87,87,2,,,,,252.42835900001228,253.0785390001256,253.0785390001256,253.5629748001229,315,315,253.5629748001229,253.5629748001229,253.5629748001229,253.5629748001229,253.5629748001229,253.5629748001229,253.5629748001229,253.5629748001229,253.5629748001229,253.9293103001546,253.9293103001546,253.9293103001546,253.9293103001546,253.9293103001546,253.9293103001546,253.9293103001546,253.9293103001546,253.9293103001546,23,0,,,253.9293103001546,254.13142850017175,1000,254.13142850017175,1000,1000,1000,1000,0,num_3,0.4554679000284523,,32,7,2026-03-12_15h44.35.736,2026A_exp2,2022.2.4,59.94211989490536,
1,0,3.7,3.7,0,0,88,88,60,,,,,254.61341460002586,255.26418050006032,255.26418050006032,255.76516230008565,315,315,255.76516230008565,255.76516230008565,255.76516230008565,255.76516230008565,255.76516230008565,255.76516230008565,255.76516230008565,255.76516230008565,255.76516230008565,256.131741899997,256.131741899997,256.131741899997,256.131741899997,256.131741899997,256.131741899997,256.131741899997,256.131741899997,256.131741899997,23,0,,,256.131741899997,256.3319226000458,3.7,256.3319226000458,1,3.7,1,1,1000,num_4,0.6232555001042783,,32,7,2026-03-12_15h44.35.736,2026A_exp2,2022.2.4,59.94211989490536,
0,0,0.0,4.9,1,0,89,89,33,,,,,256.9828211001586,257.6332733000163,257.6332733000163,258.1176090000663,45,45,258.1176090000663,258.1176090000663,258.1176090000663,258.1176090000663,258.1176090000663,258.1176090000663,258.1176090000663,258.1176090000663,258.1176090000663,258.4841535000596,258.4841535000596,258.4841535000596,258.4841535000596,258.4841535000596,258.4841535000596,258.4841535000596,258.4841535000596,258.4841535000596,23,0,,,258.4841535000596,258.68425400019623,0.0,258.68425400019623,0,0.0,0,1,1000,num_1,0.870290599996224,,32,7,2026-03-12_15h44.35.736,2026A_exp2,2022.2.4,59.94211989490536,
,,,,,,,,,,,,,,,,,,,,,,,,,,,,,,,,,,,,,,,,,,,,,,,,,,,,259.59293310018256,,,,,,,
