validity,detectorcomp,contrastCW,contrastCCW,precueCWorCCW,block_80trials.thisRepN,block_80trials.thisTrialN,block_80trials.thisN,block_80trials.thisIndex,etRecord.started,etRecord.stopped,text.started,text.stopped,text_4.started,text_4.stopped,text_6.started,text_6.stopped,oriCW,oriCCW,roi_2.started,grating_UR.started,grating_UL.started,grating_LR.started,grating_LL.started,noise_UR.started,noise_UL.started,noise_LR.started,noise_LL.started,roi_2.stopped,grating_UR.stopped,grating_UL.stopped,grating_LR.stopped,grating_LL.stopped,noise_UR.stopped,noise_UL.stopped,noise_LR.stopped,noise_LL.stopped,outframe,roi_2.numLooks,roi_2.timesOn,roi_2.timesOff,text_2.started,text_2.stopped,probedcontrast,key_resp.started,respdetect,relevantContrast,correctDetect,TorFdetect,respCWorCCW,key_resp.keys,key_resp.rt,feedback_display_.started,participantNo,blockNo,date,expName,psychopyVersion,frameRate,
0,0,3.7,3.7,1,0,0,0,62,3.100000321865082e-05,3.100000321865082e-05,53.67466800007969,55.67788249999285,55.67788249999285,56.31122700008564,56.31122700008564,56.838976399973035,315,315,56.838976399973035,56.838976399973035,56.838976399973035,56.838976399973035,56.838976399973035,56.838976399973035,56.838976399973035,56.838976399973035,56.838976399973035,57.17864220007323,57.17864220007323,57.17864220007323,57.17864220007323,57.17864220007323,57.17864220007323,57.17864220007323,57.17864220007323,57.17864220007323,23,0,,,57.17864220007323,57.37891440000385,3.7,57.37891440000385,1,3.7,1,1,1000,num_4,0.7122179998550564,,32,15,2026-03-12_16h30.42.992,2026A_exp2,2022.2.4,60.05201710375006,
1000,1,0.0,3.7,1,0,1,1,1,,,,,58.11296000005677,58.76363860000856,58.76363860000856,59.26465880009346,45,45,59.26465880009346,59.26465880009346,59.26465880009346,59.26465880009346,59.26465880009346,59.26465880009346,59.26465880009346,59.26465880009346,59.26465880009346,59.61443760013208,59.61443760013208,59.61443760013208,59.61443760013208,59.61443760013208,59.61443760013208,59.61443760013208,59.61443760013208,59.61443760013208,22,0,,,59.61443760013208,59.819652900099754,1000,59.819652900099754,1000,1000,1000,1000,1,num_2,0.5026717998553067,,32,15,2026-03-12_16h30.42.992,2026A_exp2,2022.2.4,60.05201710375006,
1,0,0.0,6.1,1,0,2,2,5,,,,,60.34856860013679,60.99922659993172,60.99922659993172,61.50035020010546,45,45,61.50035020010546,61.50035020010546,61.50035020010546,61.50035020010546,61.50035020010546,61.50035020010546,61.50035020010546,61.50035020010546,61.50035020010546,61.866769100073725,61.866769100073725,61.866769100073725,61.866769100073725,61.866769100073725,61.866769100073725,61.866769100073725,61.866769100073725,61.866769100073725,23,0,,,61.866769100073725,62.06698610004969,6.1,62.06698610004969,1,6.1,1,1,1000,num_4,0.4637422999367118,,32,15,2026-03-12_16h30.42.992,2026A_exp2,2022.2.4,60.05201710375006,
1000,1,4.9,0.0,0,0,3,3,12,,,,,62.55079760006629,63.20142830000259,63.20142830000259,63.70258309994824,45,315,63.70258309994824,63.70258309994824,63.70258309994824,63.70258309994824,63.70258309994824,63.70258309994824,63.70258309994824,63.70258309994824,63.70258309994824,64.0523449999746,64.0523449999746,64.0523449999746,64.0523449999746,64.0523449999746,64.0523449999746,64.0523449999746,64.0523449999746,64.0523449999746,22,0,,,64.0523449999746,64.25412820000201,1000,64.25412820000201,1000,1000,1000,1000,0,num_3,0.38899289979599416,,32,15,2026-03-12_16h30.42.992,2026A_exp2,2022.2.4,60.05201710375006,
1,0,0.0,0.0,1,0,4,4,20,,,,,64.66966939996928,65.32014720002189,65.32014720002189,65.82125260005705,315,315,65.82125260005705,65.82125260005705,65.82125260005705,65.82125260005705,65.82125260005705,65.82125260005705,65.82125260005705,65.82125260005705,65.82125260005705,66.18757980014198,66.18757980014198,66.18757980014198,66.18757980014198,66.18757980014198,66.18757980014198,66.18757980014198,66.18757980014198,66.18757980014198,23,0,,,66.18757980014198,66.38800209993497,0.0,66.38800209993497,0,0.0,0,1,1000,num_1,0.7826910999137908,,32,15,2026-03-12_16h30.42.992,2026A_exp2,2022.2.4,60.05201710375006,
1000,1,0.0,4.9,1,0,5,5,57,,,,,67.18882800010033,67.83896249998361,67.83896249998361,68.3239091001451,315,315,68.3239091001451,68.3239091001451,68.3239091001451,68.3239091001451,68.3239091001451,68.3239091001451,68.3239091001451,68.3239091001451,68.3239091001451,68.6902826000005,68.6902826000005,68.6902826000005,68.6902826000005,68.6902826000005,68.6902826000005,68.6902826000005,68.6902826000005,68.6902826000005,23,0,,,68.6902826000005,68.89253620011732,1000,68.89253620011732,1000,1000,1000,1000,1,num_2,0.49479769985191524,,32,15,2026-03-12_16h30.42.992,2026A_exp2,2022.2.4,60.05201710375006,
1000,1,4.9,3.7,0,0,6,6,40,,,,,69.40749539993703,70.05820300010964,70.05820300010964,70.55937610007823,315,45,70.55937610007823,70.55937610007823,70.55937610007823,70.55937610007823,70.55937610007823,70.55937610007823,70.55937610007823,70.55937610007823,70.55937610007823,70.92585809994489,70.92585809994489,70.92585809994489,70.92585809994489,70.92585809994489,70.92585809994489,70.92585809994489,70.92585809994489,70.92585809994489,14,3,"[0.08345889998599887, 0.2004297999665141, 0.3670024999883026]","[0.18359070015139878, 0.2337060000281781, 0.36700750002637506]",70.92585809994489,71.1283027001191,1000,71.1283027001191,1000,1000,1000,1000,0,num_3,0.5860317000187933,,32,15,2026-03-12_16h30.42.992,2026A_exp2,2022.2.4,60.05201710375006,
1,0,0.0,0.0,0,0,7,7,6,,,,,71.74321420001797,72.39391100010835,72.39391100010835,72.89493430010043,45,315,72.89493430010043,72.89493430010043,72.89493430010043,72.89493430010043,72.89493430010043,72.89493430010043,72.89493430010043,72.89493430010043,72.89493430010043,73.26141349994577,73.26141349994577,73.26141349994577,73.26141349994577,73.26141349994577,73.26141349994577,73.26141349994577,73.26141349994577,73.26141349994577,23,0,,,73.26141349994577,73.46162299998105,0.0,73.46162299998105,1,0.0,0,0,1000,num_4,1.0458683997858316,,32,15,2026-03-12_16h30.42.992,2026A_exp2,2022.2.4,60.05201710375006,
0,0,0.0,4.9,1,0,8,8,0,,,,,74.5292040000204,75.18002460012212,75.18002460012212,75.66448880010284,315,45,75.66448880010284,75.66448880010284,75.66448880010284,75.66448880010284,75.66448880010284,75.66448880010284,75.66448880010284,75.66448880010284,75.66448880010284,76.03068000008352,76.03068000008352,76.03068000008352,76.03068000008352,76.03068000008352,76.03068000008352,76.03068000008352,76.03068000008352,76.03068000008352,0,1,[0.001223500119522214],[0.3674332001246512],76.03068000008352,76.23107690014876,0.0,76.23107690014876,0,0.0,0,1,1000,num_1,0.6198336998932064,,32,15,2026-03-12_16h30.42.992,2026A_exp2,2022.2.4,60.05201710375006,
1,0,0.0,3.7,0,0,9,9,31,,,,,76.88167680008337,77.53248580009677,77.53248580009677,78.01675730012357,315,315,78.01675730012357,78.01675730012357,78.01675730012357,78.01675730012357,78.01675730012357,78.01675730012357,78.01675730012357,78.01675730012357,78.01675730012357,78.38329089991748,78.38329089991748,78.38329089991748,78.38329089991748,78.38329089991748,78.38329089991748,78.38329089991748,78.38329089991748,78.38329089991748,0,1,[0.0011085998266935349],[0.36726159998215735],78.38329089991748,78.58329740003683,0.0,78.58329740003683,0,0.0,0,1,1000,num_1,0.5792917998041958,,32,15,2026-03-12_16h30.42.992,2026A_exp2,2022.2.4,60.05201710375006,
1000,1,4.9,0.0,0,0,10,10,45,,,,,79.18392829992808,79.83454179996625,79.83454179996625,80.31920869997703,315,315,80.31920869997703,80.31920869997703,80.31920869997703,80.31920869997703,80.31920869997703,80.31920869997703,80.31920869997703,80.31920869997703,80.31920869997703,80.68557490012608,80.68557490012608,80.68557490012608,80.68557490012608,80.68557490012608,80.68557490012608,80.68557490012608,80.68557490012608,80.68557490012608,2,3,"[0.001232299953699112, 0.26672469987533987, 0.30039180000312626]","[0.2503547999076545, 0.28331119986250997, 0.3672574998345226]",80.68557490012608,80.88785280007869,1000,80.88785280007869,1000,1000,1000,1000,0,num_3,0.6671633999794722,,32,15,2026-03-12_16h30.42.992,2026A_exp2,2022.2.4,60.05201710375006,
1000,1,0.0,3.7,1,0,11,11,67,,,,,81.58653810014948,82.23732960014604,82.23732960014604,82.73810780001804,315,315,82.73810780001804,82.73810780001804,82.73810780001804,82.73810780001804,82.73810780001804,82.73810780001804,82.73810780001804,82.73810780001804,82.73810780001804,83.1047221000772,83.1047221000772,83.1047221000772,83.1047221000772,83.1047221000772,83.1047221000772,83.1047221000772,83.1047221000772,83.1047221000772,23,0,,,83.1047221000772,83.30698510003276,1000,83.30698510003276,1000,1000,1000,1000,1,num_2,0.3757329999934882,,32,15,2026-03-12_16h30.42.992,2026A_exp2,2022.2.4,60.05201710375006,
1000,1,0.0,0.0,0,0,12,12,2,,,,,83.70512700011022,84.3558305001352,84.3558305001352,84.85715529997833,315,45,84.85715529997833,84.85715529997833,84.85715529997833,84.85715529997833,84.85715529997833,84.85715529997833,84.85715529997833,84.85715529997833,84.85715529997833,85.223567500012,85.223567500012,85.223567500012,85.223567500012,85.223567500012,85.223567500012,85.223567500012,85.223567500012,85.223567500012,23,0,,,85.223567500012,85.42569950013421,1000,85.42569950013421,1000,1000,1000,1000,1,num_2,0.504458999959752,,32,15,2026-03-12_16h30.42.992,2026A_exp2,2022.2.4,60.05201710375006,
1,0,0.0,0.0,0,0,13,13,61,,,,,85.95752710010856,86.60791800008155,86.60791800008155,87.10896480013616,315,315,87.10896480013616,87.10896480013616,87.10896480013616,87.10896480013616,87.10896480013616,87.10896480013616,87.10896480013616,87.10896480013616,87.10896480013616,87.47540710004978,87.47540710004978,87.47540710004978,87.47540710004978,87.47540710004978,87.47540710004978,87.47540710004978,87.47540710004978,87.47540710004978,23,0,,,87.47540710004978,87.67549529997632,0.0,87.67549529997632,1,0.0,0,0,1000,num_4,0.5831960998475552,,32,15,2026-03-12_16h30.42.992,2026A_exp2,2022.2.4,60.05201710375006,
1,0,0.0,3.7,1,0,14,14,30,,,,,88.27645340003073,88.91046399995685,88.91046399995685,89.41146910004318,315,45,89.41146910004318,89.41146910004318,89.41146910004318,89.41146910004318,89.41146910004318,89.41146910004318,89.41146910004318,89.41146910004318,89.41146910004318,89.7779479001183,89.7779479001183,89.7779479001183,89.7779479001183,89.7779479001183,89.7779479001183,89.7779479001183,89.7779479001183,89.7779479001183,7,1,[0.0012451999355107546],[0.26715940004214644],89.7779479001183,89.97803930006921,3.7,89.97803930006921,1,3.7,1,1,1000,num_4,0.4808475999161601,,32,15,2026-03-12_16h30.42.992,2026A_exp2,2022.2.4,60.05201710375006,
1,0,0.0,4.9,1,0,15,15,41,,,,,90.47851369995624,91.12931190012023,91.12931190012023,91.63045640010387,45,45,91.63045640010387,91.63045640010387,91.63045640010387,91.63045640010387,91.63045640010387,91.63045640010387,91.63045640010387,91.63045640010387,91.63045640010387,91.98019229993224,91.98019229993224,91.98019229993224,91.98019229993224,91.98019229993224,91.98019229993224,91.98019229993224,91.98019229993224,91.98019229993224,22,0,,,91.98019229993224,92.18037299998105,4.9,92.18037299998105,1,4.9,1,1,1000,num_4,0.47033669985830784,,32,15,2026-03-12_16h30.42.992,2026A_exp2,2022.2.4,60.05201710375006,
1000,1,3.7,0.0,1,0,16,16,38,,,,,92.68074530013837,93.33143980009481,93.33143980009481,93.81592710013501,45,45,93.81592710013501,93.81592710013501,93.81592710013501,93.81592710013501,93.81592710013501,93.81592710013501,93.81592710013501,93.81592710013501,93.81592710013501,94.18243509996682,94.18243509996682,94.18243509996682,94.18243509996682,94.18243509996682,94.18243509996682,94.18243509996682,94.18243509996682,94.18243509996682,22,1,[0.0011899000965058804],[0.017322800122201443],94.18243509996682,94.38466740003787,1000,94.38466740003787,1000,1000,1000,1000,0,num_3,0.370452799834311,,32,15,2026-03-12_16h30.42.992,2026A_exp2,2022.2.4,60.05201710375006,
1000,1,0.0,0.0,1,0,17,17,44,,,,,94.78329170006327,95.43356780009344,95.43356780009344,95.93470209999941,315,45,95.93470209999941,95.93470209999941,95.93470209999941,95.93470209999941,95.93470209999941,95.93470209999941,95.93470209999941,95.93470209999941,95.93470209999941,96.30115250009112,96.30115250009112,96.30115250009112,96.30115250009112,96.30115250009112,96.30115250009112,96.30115250009112,96.30115250009112,96.30115250009112,0,1,[0.0012165999505668879],[0.3672869000583887],96.30115250009112,96.50335999997333,1000,96.50335999997333,1000,1000,1000,1000,0,num_3,0.5238873998168856,,32,15,2026-03-12_16h30.42.992,2026A_exp2,2022.2.4,60.05201710375006,
1000,1,0.0,0.0,1,0,18,18,88,,,,,97.051855500089,97.70265830005519,97.70265830005519,98.20361339999363,315,45,98.20361339999363,98.20361339999363,98.20361339999363,98.20361339999363,98.20361339999363,98.20361339999363,98.20361339999363,98.20361339999363,98.20361339999363,98.5701138000004,98.5701138000004,98.5701138000004,98.5701138000004,98.5701138000004,98.5701138000004,98.5701138000004,98.5701138000004,98.5701138000004,22,1,[0.18365020002238452],[0.200452100019902],98.5701138000004,98.77195889991708,1000,98.77195889991708,1000,1000,1000,1000,0,num_3,0.4632623998913914,,32,15,2026-03-12_16h30.42.992,2026A_exp2,2022.2.4,60.05201710375006,
1,0,0.0,4.9,1,0,19,19,73,,,,,99.25401660008356,99.90484620002098,99.90484620002098,100.40590550005436,45,315,100.40590550005436,100.40590550005436,100.40590550005436,100.40590550005436,100.40590550005436,100.40590550005436,100.40590550005436,100.40590550005436,100.40590550005436,100.77239049994387,100.77239049994387,100.77239049994387,100.77239049994387,100.77239049994387,100.77239049994387,100.77239049994387,100.77239049994387,100.77239049994387,19,2,"[0.1669101999141276, 0.20048390002921224]","[0.1835739000234753, 0.2502982998266816]",100.77239049994387,100.97244990011677,4.9,100.97244990011677,1,4.9,1,1,1000,num_4,0.4465572996996343,,32,15,2026-03-12_16h30.42.992,2026A_exp2,2022.2.4,60.05201710375006,
1000,1,6.1,0.0,0,0,20,20,21,,,,,101.43951970012859,102.09032510011457,102.09032510011457,102.59110100008547,45,45,102.59110100008547,102.59110100008547,102.59110100008547,102.59110100008547,102.59110100008547,102.59110100008547,102.59110100008547,102.59110100008547,102.59110100008547,102.95788300014101,102.95788300014101,102.95788300014101,102.95788300014101,102.95788300014101,102.95788300014101,102.95788300014101,102.95788300014101,102.95788300014101,0,1,[0.0012615998275578022],[0.36597689986228943],102.95788300014101,103.15983240003698,1000,103.15983240003698,1000,1000,1000,1000,0,num_3,0.3864952998701483,,32,15,2026-03-12_16h30.42.992,2026A_exp2,2022.2.4,60.05201710375006,
1000,1,6.1,6.1,0,0,21,21,87,,,,,103.57503259996884,104.22583280014805,104.22583280014805,104.7102012000978,45,45,104.7102012000978,104.7102012000978,104.7102012000978,104.7102012000978,104.7102012000978,104.7102012000978,104.7102012000978,104.7102012000978,104.7102012000978,105.0766473999247,105.0766473999247,105.0766473999247,105.0766473999247,105.0766473999247,105.0766473999247,105.0766473999247,105.0766473999247,105.0766473999247,21,1,[0.3003038000315428],[0.3337185999844223],105.0766473999247,105.27849230007268,1000,105.27849230007268,1000,1000,1000,1000,1,num_2,0.9091190998442471,,32,15,2026-03-12_16h30.42.992,2026A_exp2,2022.2.4,60.05201710375006,
1,0,3.7,0.0,0,0,22,22,10,,,,,106.21160569996573,106.86177670001052,106.86177670001052,107.36289360001683,45,45,107.36289360001683,107.36289360001683,107.36289360001683,107.36289360001683,107.36289360001683,107.36289360001683,107.36289360001683,107.36289360001683,107.36289360001683,107.72921369993128,107.72921369993128,107.72921369993128,107.72921369993128,107.72921369993128,107.72921369993128,107.72921369993128,107.72921369993128,107.72921369993128,23,0,,,107.72921369993128,107.92944300011732,3.7,107.92944300011732,1,3.7,1,1,1000,num_4,0.5138181999791414,,32,15,2026-03-12_16h30.42.992,2026A_exp2,2022.2.4,60.05201710375006,
1,0,3.7,0.0,0,0,23,23,7,,,,,108.46323250001296,109.11407050001435,109.11407050001435,109.5985644001048,315,315,109.5985644001048,109.5985644001048,109.5985644001048,109.5985644001048,109.5985644001048,109.5985644001048,109.5985644001048,109.5985644001048,109.5985644001048,109.96487349993549,109.96487349993549,109.96487349993549,109.96487349993549,109.96487349993549,109.96487349993549,109.96487349993549,109.96487349993549,109.96487349993549,20,2,"[0.23412269982509315, 0.3005032998044044]","[0.2674054999370128, 0.31746169994585216]",109.96487349993549,110.16491980012506,3.7,110.16491980012506,1,3.7,1,1,1000,num_4,0.6066093000117689,,32,15,2026-03-12_16h30.42.992,2026A_exp2,2022.2.4,60.05201710375006,
0,0,0.0,4.9,0,0,24,24,65,,,,,110.79904039995745,111.44971930002794,111.44971930002794,111.95079379994422,45,45,111.95079379994422,111.95079379994422,111.95079379994422,111.95079379994422,111.95079379994422,111.95079379994422,111.95079379994422,111.95079379994422,111.95079379994422,112.30051869992167,112.30051869992167,112.30051869992167,112.30051869992167,112.30051869992167,112.30051869992167,112.30051869992167,112.30051869992167,112.30051869992167,22,0,,,112.30051869992167,112.50067290011793,4.9,112.50067290011793,1,4.9,1,1,1000,num_4,0.7898832997307181,,32,15,2026-03-12_16h30.42.992,2026A_exp2,2022.2.4,60.05201710375006,
1,0,0.0,0.0,0,0,25,25,32,,,,,113.31806670012884,113.96886170003563,113.96886170003563,114.45332180010155,45,315,114.45332180010155,114.45332180010155,114.45332180010155,114.45332180010155,114.45332180010155,114.45332180010155,114.45332180010155,114.45332180010155,114.45332180010155,114.81975960009731,114.81975960009731,114.81975960009731,114.81975960009731,114.81975960009731,114.81975960009731,114.81975960009731,114.81975960009731,114.81975960009731,19,4,"[0.03351680003106594, 0.11694189999252558, 0.16706030000932515, 0.26711850007995963]","[0.0501763999927789, 0.13357409997843206, 0.1836680001579225, 0.2836704000364989]",114.81975960009731,115.01985600008629,0.0,115.01985600008629,0,0.0,0,1,1000,num_1,0.551182699855417,,32,15,2026-03-12_16h30.42.992,2026A_exp2,2022.2.4,60.05201710375006,
0,0,4.9,0.0,1,0,26,26,26,,,,,115.58701579994522,116.2376792000141,116.2376792000141,116.73889530007727,315,45,116.73889530007727,116.73889530007727,116.73889530007727,116.73889530007727,116.73889530007727,116.73889530007727,116.73889530007727,116.73889530007727,116.73889530007727,117.0884557000827,117.0884557000827,117.0884557000827,117.0884557000827,117.0884557000827,117.0884557000827,117.0884557000827,117.0884557000827,117.0884557000827,19,3,"[0.10084480000659823, 0.15057540009729564, 0.333672100212425]","[0.1173698001075536, 0.16715670004487038, 0.3507575001567602]",117.0884557000827,117.28886580001563,4.9,117.3052131999284,1,4.9,1,1,1000,num_4,0.6014123999048024,,32,15,2026-03-12_16h30.42.992,2026A_exp2,2022.2.4,60.05201710375006,
1,0,0.0,0.0,0,0,27,27,22,,,,,117.93902410008013,118.57309009996243,118.57309009996243,119.07455160003155,315,315,119.07455160003155,119.07455160003155,119.07455160003155,119.07455160003155,119.07455160003155,119.07455160003155,119.07455160003155,119.07455160003155,119.07455160003155,119.44081680011004,119.44081680011004,119.44081680011004,119.44081680011004,119.44081680011004,119.44081680011004,119.44081680011004,119.44081680011004,119.44081680011004,15,5,"[0.050214799819514155, 0.11694449977949262, 0.1835944999475032, 0.2512374999932945, 0.28374699992127717]","[0.06700469995848835, 0.13372269994579256, 0.23393299989402294, 0.26704179984517395, 0.31690209987573326]",119.44081680011004,119.6408923000563,0.0,119.6408923000563,1,0.0,0,0,1000,num_4,0.37724240007810295,,32,15,2026-03-12_16h30.42.992,2026A_exp2,2022.2.4,60.05201710375006,
1,0,6.1,3.7,1,0,28,28,83,,,,,120.0416300999932,120.69193520001136,120.69193520001136,121.17650069994852,45,315,121.17650069994852,121.17650069994852,121.17650069994852,121.17650069994852,121.17650069994852,121.17650069994852,121.17650069994852,121.17650069994852,121.17650069994852,121.54273530002683,121.54273530002683,121.54273530002683,121.54273530002683,121.54273530002683,121.54273530002683,121.54273530002683,121.54273530002683,121.54273530002683,20,2,"[0.0007110000587999821, 0.23357899999246]","[0.017538100015372038, 0.25024199998006225]",121.54273530002683,121.7431042001117,3.7,121.7431042001117,0,3.7,1,0,1000,num_1,0.7395629999227822,,32,15,2026-03-12_16h30.42.992,2026A_exp2,2022.2.4,60.05201710375006,
1000,1,3.7,0.0,1,0,29,29,78,,,,,122.51119960006326,123.16104039992206,123.16104039992206,123.66229310003109,45,45,123.66229310003109,123.66229310003109,123.66229310003109,123.66229310003109,123.66229310003109,123.66229310003109,123.66229310003109,123.66229310003109,123.66229310003109,124.01189070008695,124.01189070008695,124.01189070008695,124.01189070008695,124.01189070008695,124.01189070008695,124.01189070008695,124.01189070008695,124.01189070008695,14,2,"[0.13387429993599653, 0.30040279985405505]","[0.20055489987134933, 0.35171529999934137]",124.01189070008695,124.21229450008832,1000,124.22886399994604,1000,1000,1000,1000,0,num_3,0.7261505997739732,,32,15,2026-03-12_16h30.42.992,2026A_exp2,2022.2.4,60.05201710375006,
1000,1,0.0,6.1,0,0,30,30,27,,,,,124.97961840010248,125.63015510002151,125.63015510002151,126.11461520008743,45,315,126.11461520008743,126.11461520008743,126.11461520008743,126.11461520008743,126.11461520008743,126.11461520008743,126.11461520008743,126.11461520008743,126.11461520008743,126.4809963000007,126.4809963000007,126.4809963000007,126.4809963000007,126.4809963000007,126.4809963000007,126.4809963000007,126.4809963000007,126.4809963000007,10,4,"[0.0009065999183803797, 0.06685209996066988, 0.16692639980465174, 0.250317599857226]","[0.0504916999489069, 0.11697409977205098, 0.21701219980604947, 0.31680209981277585]",126.4809963000007,126.68131639994681,1000,126.68131639994681,1000,1000,1000,1000,1,num_2,0.2891502999700606,,32,15,2026-03-12_16h30.42.992,2026A_exp2,2022.2.4,60.05201710375006,
1000,1,6.1,6.1,1,0,31,31,53,,,,,126.99861910007894,127.64886680012569,127.64886680012569,128.1333670001477,315,45,128.1333670001477,128.1333670001477,128.1333670001477,128.1333670001477,128.1333670001477,128.1333670001477,128.1333670001477,128.1333670001477,128.1333670001477,128.49967780010775,128.49967780010775,128.49967780010775,128.49967780010775,128.49967780010775,128.49967780010775,128.49967780010775,128.49967780010775,128.49967780010775,22,1,[0.0008946999441832304],[0.016837599920108914],128.49967780010775,128.7001406000927,1000,128.7001406000927,1000,1000,1000,1000,1,num_2,0.28618449973873794,,32,15,2026-03-12_16h30.42.992,2026A_exp2,2022.2.4,60.05201710375006,
1000,1,6.1,4.9,1,0,32,32,86,,,,,129.0170154001098,129.66779140010476,129.66779140010476,130.15237589995377,45,45,130.15237589995377,130.15237589995377,130.15237589995377,130.15237589995377,130.15237589995377,130.15237589995377,130.15237589995377,130.15237589995377,130.15237589995377,130.5182594000362,130.5182594000362,130.5182594000362,130.5182594000362,130.5182594000362,130.5182594000362,130.5182594000362,130.5182594000362,130.5182594000362,20,3,"[0.05048019997775555, 0.09967250004410744, 0.3663667000364512]","[0.06673320010304451, 0.11620540008880198, 0.3663697000592947]",130.5182594000362,130.71886060014367,1000,130.71886060014367,1000,1000,1000,1000,1,num_2,0.3481700997799635,,32,15,2026-03-12_16h30.42.992,2026A_exp2,2022.2.4,60.05201710375006,
1,0,4.9,3.7,1,0,33,33,71,,,,,131.08570139994845,131.73634280008264,131.73634280008264,132.22157389996573,315,315,132.22157389996573,132.22157389996573,132.22157389996573,132.22157389996573,132.22157389996573,132.22157389996573,132.22157389996573,132.22157389996573,132.22157389996573,132.58760170009919,132.58760170009919,132.58760170009919,132.58760170009919,132.58760170009919,132.58760170009919,132.58760170009919,132.58760170009919,132.58760170009919,22,1,[0.03399859997443855],[0.050033000065013766],132.58760170009919,132.78720060014166,3.7,132.78720060014166,0,3.7,1,0,1000,num_1,0.7908726998139173,,32,15,2026-03-12_16h30.42.992,2026A_exp2,2022.2.4,60.05201710375006,
1,0,6.1,0.0,0,0,34,34,51,,,,,133.60489160008729,134.23905110009946,134.23905110009946,134.73988320003264,315,45,134.73988320003264,134.73988320003264,134.73988320003264,134.73988320003264,134.73988320003264,134.73988320003264,134.73988320003264,134.73988320003264,134.73988320003264,135.10690809995867,135.10690809995867,135.10690809995867,135.10690809995867,135.10690809995867,135.10690809995867,135.10690809995867,135.10690809995867,135.10690809995867,19,3,"[0.0009053999092429876, 0.1334840999916196, 0.3004059998784214]","[0.033348599914461374, 0.15014599985443056, 0.3170815999619663]",135.10690809995867,135.3066674999427,6.1,135.3066674999427,1,6.1,1,1,1000,num_4,0.5039743997622281,,32,15,2026-03-12_16h30.42.992,2026A_exp2,2022.2.4,60.05201710375006,
1000,1,3.7,6.1,1,0,35,35,43,,,,,135.84041599999182,136.4744597999379,136.4744597999379,136.97625790000893,315,45,136.97625790000893,136.97625790000893,136.97625790000893,136.97625790000893,136.97625790000893,136.97625790000893,136.97625790000893,136.97625790000893,136.97625790000893,137.34174120007083,137.34174120007083,137.34174120007083,137.34174120007083,137.34174120007083,137.34174120007083,137.34174120007083,137.34174120007083,137.34174120007083,17,3,"[0.2007275999058038, 0.2692599999718368, 0.3171867998316884]","[0.21756179980002344, 0.2842853998299688, 0.36709919990971684]",137.34174120007083,137.54237839998677,1000,137.54237839998677,1000,1000,1000,1000,1,num_2,0.4205478997901082,,32,15,2026-03-12_16h30.42.992,2026A_exp2,2022.2.4,60.05201710375006,
1000,1,0.0,0.0,1,0,36,36,34,,,,,137.9927262000274,138.6434899000451,138.6434899000451,139.12836150010116,45,315,139.12836150010116,139.12836150010116,139.12836150010116,139.12836150010116,139.12836150010116,139.12836150010116,139.12836150010116,139.12836150010116,139.12836150010116,139.4940325000789,139.4940325000789,139.4940325000789,139.4940325000789,139.4940325000789,139.4940325000789,139.4940325000789,139.4940325000789,139.4940325000789,17,3,"[0.0008801999501883984, 0.24998800014145672, 0.299997900146991]","[0.03328690002672374, 0.2833142001181841, 0.33338119997642934]",139.4940325000789,139.6945758999791,1000,139.6945758999791,1000,1000,1000,1000,0,num_3,0.7161710998043418,,32,15,2026-03-12_16h30.42.992,2026A_exp2,2022.2.4,60.05201710375006,
1,0,0.0,0.0,0,0,37,37,11,,,,,140.4292777001392,141.0789840000216,141.0789840000216,141.56340899993666,45,45,141.56340899993666,141.56340899993666,141.56340899993666,141.56340899993666,141.56340899993666,141.56340899993666,141.56340899993666,141.56340899993666,141.56340899993666,141.9299161999952,141.9299161999952,141.9299161999952,141.9299161999952,141.9299161999952,141.9299161999952,141.9299161999952,141.9299161999952,141.9299161999952,14,4,"[0.03374500013887882, 0.08438250003382564, 0.13387629995122552, 0.26711410004645586]","[0.06730889994651079, 0.11731760017573833, 0.1505192001350224, 0.35054010013118386]",141.9299161999952,142.13013230008073,0.0,142.13013230008073,0,0.0,0,1,1000,num_1,0.8160883998498321,,32,15,2026-03-12_16h30.42.992,2026A_exp2,2022.2.4,60.05201710375006,
1000,1,3.7,0.0,1,0,38,38,19,,,,,142.96423009992577,143.59813980013132,143.59813980013132,144.1003157000523,45,315,144.1003157000523,144.1003157000523,144.1003157000523,144.1003157000523,144.1003157000523,144.1003157000523,144.1003157000523,144.1003157000523,144.1003157000523,144.46568710007705,144.46568710007705,144.46568710007705,144.46568710007705,144.46568710007705,144.46568710007705,144.46568710007705,144.46568710007705,144.46568710007705,23,0,,,144.46568710007705,144.66643520002253,1000,144.66643520002253,1000,1000,1000,1000,0,num_3,1.104134899796918,,32,15,2026-03-12_16h30.42.992,2026A_exp2,2022.2.4,60.05201710375006,
1000,1,4.9,0.0,1,0,39,39,84,,,,,145.80049709999003,146.4347966001369,146.4347966001369,146.93595189996995,315,315,146.93595189996995,146.93595189996995,146.93595189996995,146.93595189996995,146.93595189996995,146.93595189996995,146.93595189996995,146.93595189996995,146.93595189996995,147.30216159997508,147.30216159997508,147.30216159997508,147.30216159997508,147.30216159997508,147.30216159997508,147.30216159997508,147.30216159997508,147.30216159997508,22,1,[0.13363309996202588],[0.15016660001128912],147.30216159997508,147.5022013001144,1000,147.5022013001144,1000,1000,1000,1000,0,num_3,0.6843029998708516,,32,15,2026-03-12_16h30.42.992,2026A_exp2,2022.2.4,60.05201710375006,
1000,1,0.0,0.0,0,0,40,40,24,,,,,148.202825400047,148.85353730013594,148.85353730013594,149.33766540000215,315,315,149.33766540000215,149.33766540000215,149.33766540000215,149.33766540000215,149.33766540000215,149.33766540000215,149.33766540000215,149.33766540000215,149.33766540000215,149.70417240005918,149.70417240005918,149.70417240005918,149.70417240005918,149.70417240005918,149.70417240005918,149.70417240005918,149.70417240005918,149.70417240005918,23,0,,,149.70417240005918,149.90444690012373,1000,149.90444690012373,1000,1000,1000,1000,1,num_2,1.8180845999158919,,32,15,2026-03-12_16h30.42.992,2026A_exp2,2022.2.4,60.05201710375006,
1000,1,0.0,0.0,0,0,41,41,13,,,,,151.73962000012398,152.39024320011958,152.39024320011958,152.87460190011188,315,315,152.87460190011188,152.87460190011188,152.87460190011188,152.87460190011188,152.87460190011188,152.87460190011188,152.87460190011188,152.87460190011188,152.87460190011188,153.24104800005443,153.24104800005443,153.24104800005443,153.24104800005443,153.24104800005443,153.24104800005443,153.24104800005443,153.24104800005443,153.24104800005443,20,3,"[0.050224300008267164, 0.21724469983018935, 0.3340731000062078]","[0.06693359999917448, 0.2338586999103427, 0.3506292998790741]",153.24104800005443,153.4417316999752,1000,153.4417316999752,1000,1000,1000,1000,1,num_2,1.2968103997409344,,32,15,2026-03-12_16h30.42.992,2026A_exp2,2022.2.4,60.05201710375006,
0,0,6.1,4.9,1,0,42,42,42,,,,,154.75955800013617,155.40998929995112,155.40998929995112,155.89455500012264,45,45,155.89455500012264,155.89455500012264,155.89455500012264,155.89455500012264,155.89455500012264,155.89455500012264,155.89455500012264,155.89455500012264,155.89455500012264,156.2607881000731,156.2607881000731,156.2607881000731,156.2607881000731,156.2607881000731,156.2607881000731,156.2607881000731,156.2607881000731,156.2607881000731,19,2,"[0.2851275000721216, 0.3339826001320034]","[0.3170186001807451, 0.3673675002064556]",156.2607881000731,156.4609497000929,6.1,156.4609497000929,0,6.1,1,0,1000,num_1,1.9900493999011815,,32,15,2026-03-12_16h30.42.992,2026A_exp2,2022.2.4,60.05201710375006,
1,0,3.7,6.1,1,0,43,43,75,,,,,158.47998870001175,159.13066749996506,159.13066749996506,159.63159899995662,315,315,159.63159899995662,159.63159899995662,159.63159899995662,159.63159899995662,159.63159899995662,159.63159899995662,159.63159899995662,159.63159899995662,159.63159899995662,159.9979288999457,159.9979288999457,159.9979288999457,159.9979288999457,159.9979288999457,159.9979288999457,159.9979288999457,159.9979288999457,159.9979288999457,23,0,,,159.9979288999457,160.1980483001098,6.1,160.1980483001098,1,6.1,1,1,1000,num_4,0.5245302999392152,,32,15,2026-03-12_16h30.42.992,2026A_exp2,2022.2.4,60.05201710375006,
1000,1,4.9,0.0,1,0,44,44,56,,,,,160.74865299998783,161.38255980005488,161.38255980005488,161.8853337999899,315,45,161.8853337999899,161.8853337999899,161.8853337999899,161.8853337999899,161.8853337999899,161.8853337999899,161.8853337999899,161.8853337999899,161.8853337999899,162.25012330012396,162.25012330012396,162.25012330012396,162.25012330012396,162.25012330012396,162.25012330012396,162.25012330012396,162.25012330012396,162.25012330012396,23,0,,,162.25012330012396,162.45034300000407,1000,162.45034300000407,1000,1000,1000,1000,0,num_3,0.44044929975643754,,32,15,2026-03-12_16h30.42.992,2026A_exp2,2022.2.4,60.05201710375006,
1000,1,4.9,0.0,0,0,45,45,37,,,,,162.91780980001204,163.56814999994822,163.56814999994822,164.06907359999605,45,45,164.06907359999605,164.06907359999605,164.06907359999605,164.06907359999605,164.06907359999605,164.06907359999605,164.06907359999605,164.06907359999605,164.06907359999605,164.43556359992363,164.43556359992363,164.43556359992363,164.43556359992363,164.43556359992363,164.43556359992363,164.43556359992363,164.43556359992363,164.43556359992363,22,1,[0.03383760014548898],[0.05059600016102195],164.43556359992363,164.63831960014068,1000,164.63831960014068,1000,1000,1000,1000,0,num_3,0.5243599999230355,,32,15,2026-03-12_16h30.42.992,2026A_exp2,2022.2.4,60.05201710375006,
0,0,0.0,4.9,1,0,46,46,33,,,,,165.18662089994177,165.83707280014642,165.83707280014642,166.32139550009742,45,315,166.32139550009742,166.32139550009742,166.32139550009742,166.32139550009742,166.32139550009742,166.32139550009742,166.32139550009742,166.32139550009742,166.32139550009742,166.6880272999406,166.6880272999406,166.6880272999406,166.6880272999406,166.6880272999406,166.6880272999406,166.6880272999406,166.6880272999406,166.6880272999406,22,1,[0.01729139988310635],[0.03340469999238849],166.6880272999406,166.88807410001755,0.0,166.88807410001755,0,0.0,0,1,1000,num_1,0.6106151998974383,,32,15,2026-03-12_16h30.42.992,2026A_exp2,2022.2.4,60.05201710375006,
1,0,0.0,0.0,1,0,47,47,59,,,,,167.5221421001479,168.15628300001845,168.15628300001845,168.65727959992364,315,315,168.65727959992364,168.65727959992364,168.65727959992364,168.65727959992364,168.65727959992364,168.65727959992364,168.65727959992364,168.65727959992364,168.65727959992364,169.023504300043,169.023504300043,169.023504300043,169.023504300043,169.023504300043,169.023504300043,169.023504300043,169.023504300043,169.023504300043,22,1,[0.2168457000516355],[0.23365850001573563],169.023504300043,169.22372180013917,0.0,169.22372180013917,0,0.0,0,1,1000,num_1,0.8992855998221785,,32,15,2026-03-12_16h30.42.992,2026A_exp2,2022.2.4,60.05201710375006,
1,0,0.0,0.0,0,0,48,48,39,,,,,170.14145609992556,170.77577350009233,170.77577350009233,171.27664609998465,45,45,171.27664609998465,171.27664609998465,171.27664609998465,171.27664609998465,171.27664609998465,171.27664609998465,171.27664609998465,171.27664609998465,171.27664609998465,171.64319610013627,171.64319610013627,171.64319610013627,171.64319610013627,171.64319610013627,171.64319610013627,171.64319610013627,171.64319610013627,171.64319610013627,23,0,,,171.64319610013627,171.8431764000561,0.0,171.8431764000561,0,0.0,0,1,1000,num_1,0.9916227997746319,,32,15,2026-03-12_16h30.42.992,2026A_exp2,2022.2.4,60.05201710375006,
1,0,6.1,6.1,1,0,49,49,49,,,,,172.86088950000703,173.49468080000952,173.49468080000952,173.995867599966,45,45,173.995867599966,173.995867599966,173.995867599966,173.995867599966,173.995867599966,173.995867599966,173.995867599966,173.995867599966,173.995867599966,174.36218519997783,174.36218519997783,174.36218519997783,174.36218519997783,174.36218519997783,174.36218519997783,174.36218519997783,174.36218519997783,174.36218519997783,23,0,,,174.36218519997783,174.56245560012758,6.1,174.56245560012758,1,6.1,1,1,1000,num_4,0.47183609986677766,,32,15,2026-03-12_16h30.42.992,2026A_exp2,2022.2.4,60.05201710375006,
0,0,0.0,0.0,1,0,50,50,14,,,,,175.06285069999285,175.69685019995086,175.69685019995086,176.1979086000938,315,315,176.1979086000938,176.1979086000938,176.1979086000938,176.1979086000938,176.1979086000938,176.1979086000938,176.1979086000938,176.1979086000938,176.1979086000938,176.56504920008592,176.56504920008592,176.56504920008592,176.56504920008592,176.56504920008592,176.56504920008592,176.56504920008592,176.56504920008592,176.56504920008592,23,0,,,176.56504920008592,176.76488330005668,0.0,176.76488330005668,1,0.0,0,0,1000,num_4,0.7176390998065472,,32,15,2026-03-12_16h30.42.992,2026A_exp2,2022.2.4,60.05201710375006,
1000,1,3.7,0.0,0,0,51,51,81,,,,,177.49934370000847,178.1494825000409,178.1494825000409,178.6357726000715,315,45,178.6357726000715,178.6357726000715,178.6357726000715,178.6357726000715,178.6357726000715,178.6357726000715,178.6357726000715,178.6357726000715,178.6357726000715,179.01706630014814,179.01706630014814,179.01706630014814,179.01706630014814,179.01706630014814,179.01706630014814,179.01706630014814,179.01706630014814,179.01706630014814,24,0,,,179.01706630014814,179.21707649994642,1000,179.21707649994642,1000,1000,1000,1000,1,num_2,1.0497774998657405,,32,15,2026-03-12_16h30.42.992,2026A_exp2,2022.2.4,60.05201710375006,
1,0,6.1,0.0,1,0,52,52,17,,,,,180.28491399995983,180.91885729995556,180.91885729995556,181.41995600005612,45,315,181.41995600005612,181.41995600005612,181.41995600005612,181.41995600005612,181.41995600005612,181.41995600005612,181.41995600005612,181.41995600005612,181.41995600005612,181.7862394999247,181.7862394999247,181.7862394999247,181.7862394999247,181.7862394999247,181.7862394999247,181.7862394999247,181.7862394999247,181.7862394999247,23,0,,,181.7862394999247,181.9864050000906,0.0,181.9864050000906,0,0.0,0,1,1000,num_1,0.9525905998889357,,32,15,2026-03-12_16h30.42.992,2026A_exp2,2022.2.4,60.05201710375006,
0,0,4.9,6.1,1,0,53,53,70,,,,,182.97095709992573,183.60480400011875,183.60480400011875,184.10601050010882,315,315,184.10601050010882,184.10601050010882,184.10601050010882,184.10601050010882,184.10601050010882,184.10601050010882,184.10601050010882,184.10601050010882,184.10601050010882,184.47295830002986,184.47295830002986,184.47295830002986,184.47295830002986,184.47295830002986,184.47295830002986,184.47295830002986,184.47295830002986,184.47295830002986,17,5,"[0.00085609988309443, 0.13387079979293048, 0.16718789981678128, 0.20088639995083213, 0.31725909980013967]","[0.0338037998881191, 0.15136659983545542, 0.1839693000074476, 0.21739689982496202, 0.3340213999617845]",184.47295830002986,184.672497499967,4.9,184.672497499967,1,4.9,1,1,1000,num_4,0.8103301997762173,,32,15,2026-03-12_16h30.42.992,2026A_exp2,2022.2.4,60.05201710375006,
1000,1,0.0,0.0,1,0,54,54,68,,,,,185.5067078000866,186.15741210011765,186.15741210011765,186.64190010004677,315,315,186.64190010004677,186.64190010004677,186.64190010004677,186.64190010004677,186.64190010004677,186.64190010004677,186.64190010004677,186.64190010004677,186.64190010004677,187.00825610011816,187.00825610011816,187.00825610011816,187.00825610011816,187.00825610011816,187.00825610011816,187.00825610011816,187.00825610011816,187.00825610011816,20,1,[0.0007424000650644302],[0.03352000005543232],187.00825610011816,187.20866829995066,1000,187.20866829995066,1000,1000,1000,1000,0,num_3,0.6738054999150336,,32,15,2026-03-12_16h30.42.992,2026A_exp2,2022.2.4,60.05201710375006,
1,0,6.1,6.1,0,0,55,55,89,,,,,187.9093142999336,188.559774100082,188.559774100082,189.04446549993008,315,45,189.04446549993008,189.04446549993008,189.04446549993008,189.04446549993008,189.04446549993008,189.04446549993008,189.04446549993008,189.04446549993008,189.04446549993008,189.4109470001422,189.4109470001422,189.4109470001422,189.4109470001422,189.4109470001422,189.4109470001422,189.4109470001422,189.4109470001422,189.4109470001422,15,3,"[0.1335422999691218, 0.18289749999530613, 0.3499123000074178]","[0.16626349999569356, 0.24964970001019537, 0.3673340000677854]",189.4109470001422,189.61092280014418,6.1,189.61092280014418,1,6.1,1,1,1000,num_4,0.6393583996687084,,32,15,2026-03-12_16h30.42.992,2026A_exp2,2022.2.4,60.05201710375006,
1000,1,3.7,3.7,1,0,56,56,54,,,,,190.2780780000612,190.91236950014718,190.91236950014718,191.4133014001418,45,45,191.4133014001418,191.4133014001418,191.4133014001418,191.4133014001418,191.4133014001418,191.4133014001418,191.4133014001418,191.4133014001418,191.4133014001418,191.77964730001986,191.77964730001986,191.77964730001986,191.77964730001986,191.77964730001986,191.77964730001986,191.77964730001986,191.77964730001986,191.77964730001986,16,2,"[0.21703789988532662, 0.3337008999660611]","[0.3005500000435859, 0.36690400005318224]",191.77964730001986,191.98029510001652,1000,191.98029510001652,1000,1000,1000,1000,0,num_3,1.2306947000324726,,32,15,2026-03-12_16h30.42.992,2026A_exp2,2022.2.4,60.05201710375006,
1000,1,6.1,0.0,0,0,57,57,69,,,,,193.23120320006274,193.88170980010182,193.88170980010182,194.36662550014444,315,45,194.36662550014444,194.36662550014444,194.36662550014444,194.36662550014444,194.36662550014444,194.36662550014444,194.36662550014444,194.36662550014444,194.36662550014444,194.73244530009106,194.73244530009106,194.73244530009106,194.73244530009106,194.73244530009106,194.73244530009106,194.73244530009106,194.73244530009106,194.73244530009106,17,6,"[0.000989000080153346, 0.06671119993552566, 0.13303419994190335, 0.21658200002275407, 0.3168411001097411, 0.3666181000880897]","[0.017559000058099627, 0.08319250005297363, 0.14986480004154146, 0.23340660007670522, 0.3334383999463171, 0.3666209001094103]",194.73244530009106,194.93283509998582,1000,194.93283509998582,1000,1000,1000,1000,0,num_3,0.47734809992834926,,32,15,2026-03-12_16h30.42.992,2026A_exp2,2022.2.4,60.05201710375006,
0,0,0.0,0.0,1,0,58,58,80,,,,,195.43353880010545,196.08393390011042,196.08393390011042,196.56866360013373,315,315,196.56866360013373,196.56866360013373,196.56866360013373,196.56866360013373,196.56866360013373,196.56866360013373,196.56866360013373,196.56866360013373,196.56866360013373,196.9346595001407,196.9346595001407,196.9346595001407,196.9346595001407,196.9346595001407,196.9346595001407,196.9346595001407,196.9346595001407,196.9346595001407,23,0,,,196.9346595001407,197.13528480008245,0.0,197.13528480008245,1,0.0,0,0,1000,num_4,1.011461699847132,,32,15,2026-03-12_16h30.42.992,2026A_exp2,2022.2.4,60.05201710375006,
1000,1,0.0,0.0,1,0,59,59,35,,,,,198.1693693001289,198.80388209992088,198.80388209992088,199.3047801000066,315,45,199.3047801000066,199.3047801000066,199.3047801000066,199.3047801000066,199.3047801000066,199.3047801000066,199.3047801000066,199.3047801000066,199.3047801000066,199.67071420000866,199.67071420000866,199.67071420000866,199.67071420000866,199.67071420000866,199.67071420000866,199.67071420000866,199.67071420000866,199.67071420000866,23,0,,,199.67071420000866,199.87108139996417,1000,199.87108139996417,1000,1000,1000,1000,0,num_3,0.7239419999532402,,32,15,2026-03-12_16h30.42.992,2026A_exp2,2022.2.4,60.05201710375006,
1,0,4.9,4.9,0,0,60,60,28,,,,,200.62181450007483,201.2724679999519,201.2724679999519,201.7737133000046,315,45,201.7737133000046,201.7737133000046,201.7737133000046,201.7737133000046,201.7737133000046,201.7737133000046,201.7737133000046,201.7737133000046,201.7737133000046,202.12426579999737,202.12426579999737,202.12426579999737,202.12426579999737,202.12426579999737,202.12426579999737,202.12426579999737,202.12426579999737,202.12426579999737,19,2,"[0.20027330005541444, 0.2837738001253456]","[0.2170126000419259, 0.3005882001016289]",202.12426579999737,202.32356799999252,4.9,202.32356799999252,1,4.9,1,1,1000,num_4,0.6313821999356151,,32,15,2026-03-12_16h30.42.992,2026A_exp2,2022.2.4,60.05201710375006,
1,0,4.9,6.1,1,0,61,61,36,,,,,202.97428430011496,203.6260480999481,203.6260480999481,204.10959529993124,315,45,204.10959529993124,204.10959529993124,204.10959529993124,204.10959529993124,204.10959529993124,204.10959529993124,204.10959529993124,204.10959529993124,204.10959529993124,204.47567500011064,204.47567500011064,204.47567500011064,204.47567500011064,204.47567500011064,204.47567500011064,204.47567500011064,204.47567500011064,204.47567500011064,17,3,"[0.06731579988263547, 0.20016680005937815, 0.3673133000265807]","[0.10138330003246665, 0.25032390002161264, 0.36731710005551577]",204.47567500011064,204.67601189995185,6.1,204.67601189995185,0,6.1,1,0,1000,num_1,0.9509729999117553,,32,15,2026-03-12_16h30.42.992,2026A_exp2,2022.2.4,60.05201710375006,
1000,1,0.0,4.9,0,0,62,62,23,,,,,205.64394120010547,206.2942148000002,206.2942148000002,206.77894280012697,315,45,206.77894280012697,206.77894280012697,206.77894280012697,206.77894280012697,206.77894280012697,206.77894280012697,206.77894280012697,206.77894280012697,206.77894280012697,207.14544210000895,207.14544210000895,207.14544210000895,207.14544210000895,207.14544210000895,207.14544210000895,207.14544210000895,207.14544210000895,207.14544210000895,11,3,"[0.0007631999906152487, 0.10076329996809363, 0.23351119994185865]","[0.050040300004184246, 0.18396289995871484, 0.3002388998866081]",207.14544210000895,207.3454341001343,1000,207.3454341001343,1000,1000,1000,1000,1,num_2,0.5846266997978091,,32,15,2026-03-12_16h30.42.992,2026A_exp2,2022.2.4,60.05201710375006,
1000,1,0.0,4.9,1,0,63,63,72,,,,,207.94599359994754,208.5965017999988,208.5965017999988,209.09758289996535,315,315,209.09758289996535,209.09758289996535,209.09758289996535,209.09758289996535,209.09758289996535,209.09758289996535,209.09758289996535,209.09758289996535,209.09758289996535,209.4473500000313,209.4473500000313,209.4473500000313,209.4473500000313,209.4473500000313,209.4473500000313,209.4473500000313,209.4473500000313,209.4473500000313,18,5,"[0.017511199926957488, 0.05042289989069104, 0.08391639986075461, 0.15100479987449944, 0.18431629985570908]","[0.03404979989863932, 0.06707519991323352, 0.10056230006739497, 0.16775589995086193, 0.20109339989721775]",209.4473500000313,209.64813480013981,1000,209.64813480013981,1000,1000,1000,1000,1,num_2,0.44266960001550615,,32,15,2026-03-12_16h30.42.992,2026A_exp2,2022.2.4,60.05201710375006,
1000,1,3.7,4.9,0,0,64,64,25,,,,,210.1147044999525,210.76536200009286,210.76536200009286,211.25001670001075,315,45,211.25001670001075,211.25001670001075,211.25001670001075,211.25001670001075,211.25001670001075,211.25001670001075,211.25001670001075,211.25001670001075,211.25001670001075,211.61629369994625,211.61629369994625,211.61629369994625,211.61629369994625,211.61629369994625,211.61629369994625,211.61629369994625,211.61629369994625,211.61629369994625,23,0,,,211.61629369994625,211.81660880008712,1000,211.81660880008712,1000,1000,1000,1000,0,num_3,0.4583912999369204,,32,15,2026-03-12_16h30.42.992,2026A_exp2,2022.2.4,60.05201710375006,
1,0,0.0,3.7,0,0,65,65,76,,,,,212.30035250005312,212.95226050005294,212.95226050005294,213.4520157999359,315,315,213.4520157999359,213.4520157999359,213.4520157999359,213.4520157999359,213.4520157999359,213.4520157999359,213.4520157999359,213.4520157999359,213.4520157999359,213.8020371000748,213.8020371000748,213.8020371000748,213.8020371000748,213.8020371000748,213.8020371000748,213.8020371000748,213.8020371000748,213.8020371000748,22,0,,,213.8020371000748,214.00205090013333,0.0,214.00205090013333,1,0.0,0,0,1000,num_4,0.6808614998590201,,32,15,2026-03-12_16h30.42.992,2026A_exp2,2022.2.4,60.05201710375006,
1,0,0.0,0.0,1,0,66,66,58,,,,,214.70260989991948,215.3533081000205,215.3533081000205,215.83774590003304,315,45,215.83774590003304,215.83774590003304,215.83774590003304,215.83774590003304,215.83774590003304,215.83774590003304,215.83774590003304,215.83774590003304,215.83774590003304,216.2040999000892,216.2040999000892,216.2040999000892,216.2040999000892,216.2040999000892,216.2040999000892,216.2040999000892,216.2040999000892,216.2040999000892,0,1,[0.0007680000271648169],[0.36743299989029765],216.2040999000892,216.40441630012356,0.0,216.40441630012356,0,0.0,0,1,1000,num_1,1.1737862997688353,,32,15,2026-03-12_16h30.42.992,2026A_exp2,2022.2.4,60.05201710375006,
1,0,3.7,0.0,0,0,67,67,3,,,,,217.60569450003095,218.25637240009382,218.25637240009382,218.74065180006437,45,45,218.74065180006437,218.74065180006437,218.74065180006437,218.74065180006437,218.74065180006437,218.74065180006437,218.74065180006437,218.74065180006437,218.74065180006437,219.10737770004198,219.10737770004198,219.10737770004198,219.10737770004198,219.10737770004198,219.10737770004198,219.10737770004198,219.10737770004198,219.10737770004198,21,2,"[0.017091199988499284, 0.06654940010048449]","[0.04993300000205636, 0.08340859995223582]",219.10737770004198,219.30727800005116,3.7,219.30727800005116,1,3.7,1,1,1000,num_4,0.5753567998763174,,32,15,2026-03-12_16h30.42.992,2026A_exp2,2022.2.4,60.05201710375006,
1,0,0.0,0.0,1,0,68,68,66,,,,,219.9078492000699,220.54207350010984,220.54207350010984,221.04395440011285,315,315,221.04395440011285,221.04395440011285,221.04395440011285,221.04395440011285,221.04395440011285,221.04395440011285,221.04395440011285,221.04395440011285,221.04395440011285,221.40986580005847,221.40986580005847,221.40986580005847,221.40986580005847,221.40986580005847,221.40986580005847,221.40986580005847,221.40986580005847,221.40986580005847,20,2,"[0.2170457998290658, 0.3172629999462515]","[0.2338107000105083, 0.3507956999819726]",221.40986580005847,221.6097794000525,0.0,221.6097794000525,0,0.0,0,1,1000,num_1,1.0322923997882754,,32,15,2026-03-12_16h30.42.992,2026A_exp2,2022.2.4,60.05201710375006,
1000,1,0.0,0.0,0,0,69,69,79,,,,,222.66097369999625,223.31146800005808,223.31146800005808,223.79581429995596,315,45,223.79581429995596,223.79581429995596,223.79581429995596,223.79581429995596,223.79581429995596,223.79581429995596,223.79581429995596,223.79581429995596,223.79581429995596,224.16242470010184,224.16242470010184,224.16242470010184,224.16242470010184,224.16242470010184,224.16242470010184,224.16242470010184,224.16242470010184,224.16242470010184,15,4,"[0.1334873999003321, 0.21696279989555478, 0.30043380009010434, 0.36711909994482994]","[0.1833259998820722, 0.25038230000063777, 0.3334882000926882, 0.3671238000970334]",224.16242470010184,224.36417950014584,1000,224.36417950014584,1000,1000,1000,1000,1,num_2,0.934257699875161,,32,15,2026-03-12_16h30.42.992,2026A_exp2,2022.2.4,60.05201710375006,
1,0,4.9,6.1,0,0,70,70,29,,,,,225.3134616999887,225.9641667001415,225.9641667001415,226.46533240005374,315,315,226.46533240005374,226.46533240005374,226.46533240005374,226.46533240005374,226.46533240005374,226.46533240005374,226.46533240005374,226.46533240005374,226.46533240005374,226.83132140012458,226.83132140012458,226.83132140012458,226.83132140012458,226.83132140012458,226.83132140012458,226.83132140012458,226.83132140012458,226.83132140012458,10,4,"[0.0012001001741737127, 0.15026760008186102, 0.2670967001467943, 0.3506010000128299]","[0.10021669999696314, 0.16704950015991926, 0.33391500008292496, 0.36734080011956394]",226.83132140012458,227.03181060007773,4.9,227.03181060007773,0,4.9,1,0,1000,num_1,2.1705533997155726,,32,15,2026-03-12_16h30.42.992,2026A_exp2,2022.2.4,60.05201710375006,
1,0,6.1,3.7,1,0,71,71,16,,,,,229.23395180003718,229.88472259999253,229.88472259999253,230.3857623001095,315,45,230.3857623001095,230.3857623001095,230.3857623001095,230.3857623001095,230.3857623001095,230.3857623001095,230.3857623001095,230.3857623001095,230.3857623001095,230.7356762001291,230.7356762001291,230.7356762001291,230.7356762001291,230.7356762001291,230.7356762001291,230.7356762001291,230.7356762001291,230.7356762001291,22,0,,,230.7356762001291,230.93572239996865,3.7,230.93572239996865,1,3.7,1,1,1000,num_4,0.7065842999145389,,32,15,2026-03-12_16h30.42.992,2026A_exp2,2022.2.4,60.05201710375006,
1,0,4.9,0.0,0,0,72,72,47,,,,,231.66972350003198,232.32055369997397,232.32055369997397,232.80485590011813,45,315,232.80485590011813,232.80485590011813,232.80485590011813,232.80485590011813,232.80485590011813,232.80485590011813,232.80485590011813,232.80485590011813,232.80485590011813,233.17128310003318,233.17128310003318,233.17128310003318,233.17128310003318,233.17128310003318,233.17128310003318,233.17128310003318,233.17128310003318,233.17128310003318,23,0,,,233.17128310003318,233.37161809997633,4.9,233.37161809997633,1,4.9,1,1,1000,num_4,0.9596551000140607,,32,15,2026-03-12_16h30.42.992,2026A_exp2,2022.2.4,60.05201710375006,
1000,1,6.1,4.9,1,0,73,73,15,,,,,234.35575140011497,235.0065093000885,235.0065093000885,235.49087930005044,315,315,235.49087930005044,235.49087930005044,235.49087930005044,235.49087930005044,235.49087930005044,235.49087930005044,235.49087930005044,235.49087930005044,235.49087930005044,235.85736040002666,235.85736040002666,235.85736040002666,235.85736040002666,235.85736040002666,235.85736040002666,235.85736040002666,235.85736040002666,235.85736040002666,23,0,,,235.85736040002666,236.05934130004607,1000,236.05934130004607,1000,1000,1000,1000,0,num_3,0.5913464997429401,,32,15,2026-03-12_16h30.42.992,2026A_exp2,2022.2.4,60.05201710375006,
1,0,3.7,3.7,0,0,74,74,8,,,,,236.67504559992813,237.32535569998436,237.32535569998436,237.82649140013382,315,45,237.82649140013382,237.82649140013382,237.82649140013382,237.82649140013382,237.82649140013382,237.82649140013382,237.82649140013382,237.82649140013382,237.82649140013382,238.17656729998998,238.17656729998998,238.17656729998998,238.17656729998998,238.17656729998998,238.17656729998998,238.17656729998998,238.17656729998998,238.17656729998998,22,0,,,238.17656729998998,238.37653460004367,3.7,238.37653460004367,1,3.7,1,1,1000,num_4,0.7222404999192804,,32,15,2026-03-12_16h30.42.992,2026A_exp2,2022.2.4,60.05201710375006,
1,0,0.0,0.0,0,0,75,75,85,,,,,239.1285948001314,239.7779145000968,239.7779145000968,240.2790789999999,45,315,240.2790789999999,240.2790789999999,240.2790789999999,240.2790789999999,240.2790789999999,240.2790789999999,240.2790789999999,240.2790789999999,240.2790789999999,240.62880940013565,240.62880940013565,240.62880940013565,240.62880940013565,240.62880940013565,240.62880940013565,240.62880940013565,240.62880940013565,240.62880940013565,22,0,,,240.62880940013565,240.82901290012524,0.0,240.82901290012524,0,0.0,0,1,1000,num_1,1.597498499788344,,32,15,2026-03-12_16h30.42.992,2026A_exp2,2022.2.4,60.05201710375006,
1,0,3.7,3.7,0,0,76,76,60,,,,,242.44716900005005,243.09803120000288,243.09803120000288,243.59903199994005,45,315,243.59903199994005,243.59903199994005,243.59903199994005,243.59903199994005,243.59903199994005,243.59903199994005,243.59903199994005,243.59903199994005,243.59903199994005,243.94879120006226,243.94879120006226,243.94879120006226,243.94879120006226,243.94879120006226,243.94879120006226,243.94879120006226,243.94879120006226,243.94879120006226,22,0,,,243.94879120006226,244.14891550014727,3.7,244.14891550014727,1,3.7,1,1,1000,num_4,0.886233399854973,,32,15,2026-03-12_16h30.42.992,2026A_exp2,2022.2.4,60.05201710375006,
1000,1,0.0,3.7,1,0,77,77,82,,,,,245.06645609997213,245.71731400000863,245.71731400000863,246.21843390003778,315,45,246.21843390003778,246.21843390003778,246.21843390003778,246.21843390003778,246.21843390003778,246.21843390003778,246.21843390003778,246.21843390003778,246.21843390003778,246.56800980004482,246.56800980004482,246.56800980004482,246.56800980004482,246.56800980004482,246.56800980004482,246.56800980004482,246.56800980004482,246.56800980004482,22,0,,,246.56800980004482,246.77005059993826,1000,246.77005059993826,1000,1000,1000,1000,1,num_2,0.7291841998230666,,32,15,2026-03-12_16h30.42.992,2026A_exp2,2022.2.4,60.05201710375006,
1000,1,4.9,0.0,1,0,78,78,74,,,,,247.51899380004033,248.16973270010203,248.16973270010203,248.67080039996654,45,315,248.67080039996654,248.67080039996654,248.67080039996654,248.67080039996654,248.67080039996654,248.67080039996654,248.67080039996654,248.67080039996654,248.67080039996654,249.0372822000645,249.0372822000645,249.0372822000645,249.0372822000645,249.0372822000645,249.0372822000645,249.0372822000645,249.0372822000645,249.0372822000645,23,0,,,249.0372822000645,249.2376795001328,1000,249.2376795001328,1000,1000,1000,1000,0,num_3,0.4053672000300139,,32,15,2026-03-12_16h30.42.992,2026A_exp2,2022.2.4,60.05201710375006,
1,0,0.0,0.0,1,0,79,79,4,,,,,249.67105270014144,250.32186989998445,250.32186989998445,250.82290440006182,315,315,250.82290440006182,250.82290440006182,250.82290440006182,250.82290440006182,250.82290440006182,250.82290440006182,250.82290440006182,250.82290440006182,250.82290440006182,251.18939150008373,251.18939150008373,251.18939150008373,251.18939150008373,251.18939150008373,251.18939150008373,251.18939150008373,251.18939150008373,251.18939150008373,23,0,,,251.18939150008373,251.38947169994935,0.0,251.38947169994935,0,0.0,0,1,1000,num_1,0.8135492997244,,32,15,2026-03-12_16h30.42.992,2026A_exp2,2022.2.4,60.05201710375006,
1000,1,0.0,3.7,0,0,80,80,50,,,,,252.2237909999676,252.87448260001838,252.87448260001838,253.35886940010823,315,315,253.35886940010823,253.35886940010823,253.35886940010823,253.35886940010823,253.35886940010823,253.35886940010823,253.35886940010823,253.35886940010823,253.35886940010823,253.7251023000572,253.7251023000572,253.7251023000572,253.7251023000572,253.7251023000572,253.7251023000572,253.7251023000572,253.7251023000572,253.7251023000572,23,0,,,253.7251023000572,253.92736790003255,1000,253.92736790003255,1000,1000,1000,1000,1,num_2,0.699385599931702,,32,15,2026-03-12_16h30.42.992,2026A_exp2,2022.2.4,60.05201710375006,
1000,1,3.7,0.0,0,0,81,81,55,,,,,254.64294019993395,255.29356259992346,255.29356259992346,255.7946240999736,315,315,255.7946240999736,255.7946240999736,255.7946240999736,255.7946240999736,255.7946240999736,255.7946240999736,255.7946240999736,255.7946240999736,255.7946240999736,256.1610538000241,256.1610538000241,256.1610538000241,256.1610538000241,256.1610538000241,256.1610538000241,256.1610538000241,256.1610538000241,256.1610538000241,16,3,"[0.06635729991830885, 0.20036150002852082, 0.3170956999529153]","[0.08316290006041527, 0.26691549993120134, 0.35057160002179444]",256.1610538000241,256.3637061000336,1000,256.3637061000336,1000,1000,1000,1000,0,num_3,0.45539309992454946,,32,15,2026-03-12_16h30.42.992,2026A_exp2,2022.2.4,60.05201710375006,
1000,1,0.0,0.0,1,0,82,82,63,,,,,256.8449621000327,257.49570810003206,257.49570810003206,257.99673220003024,45,45,257.99673220003024,257.99673220003024,257.99673220003024,257.99673220003024,257.99673220003024,257.99673220003024,257.99673220003024,257.99673220003024,257.99673220003024,258.36308529996313,258.36308529996313,258.36308529996313,258.36308529996313,258.36308529996313,258.36308529996313,258.36308529996313,258.36308529996313,258.36308529996313,22,1,[0.2674682999495417],[0.2843448999337852],258.36308529996313,258.5651265999768,1000,258.5651265999768,1000,1000,1000,1000,0,num_3,0.7014415997546166,,32,15,2026-03-12_16h30.42.992,2026A_exp2,2022.2.4,60.05201710375006,
1,0,0.0,3.7,0,0,83,83,64,,,,,259.2984589000698,259.94803680013865,259.94803680013865,260.449180399999,45,45,260.449180399999,260.449180399999,260.449180399999,260.449180399999,260.449180399999,260.449180399999,260.449180399999,260.449180399999,260.449180399999,260.8157307000365,260.8157307000365,260.8157307000365,260.8157307000365,260.8157307000365,260.8157307000365,260.8157307000365,260.8157307000365,260.8157307000365,19,4,"[0.017364100087434053, 0.11698360019363463, 0.18382440018467605, 0.31708430009894073]","[0.033483400009572506, 0.1337292999960482, 0.2003856000956148, 0.3338264999911189]",260.8157307000365,261.01590070012026,0.0,261.01590070012026,0,0.0,0,1,1000,num_1,1.0502328998409212,,32,15,2026-03-12_16h30.42.992,2026A_exp2,2022.2.4,60.05201710375006,
0,0,0.0,6.1,1,0,84,84,46,,,,,262.0833028999623,262.7342316999566,262.7342316999566,263.2186142001301,315,45,263.2186142001301,263.2186142001301,263.2186142001301,263.2186142001301,263.2186142001301,263.2186142001301,263.2186142001301,263.2186142001301,263.2186142001301,263.5851044000592,263.5851044000592,263.5851044000592,263.5851044000592,263.5851044000592,263.5851044000592,263.5851044000592,263.5851044000592,263.5851044000592,23,0,,,263.5851044000592,263.7851853000466,0.0,263.7851853000466,0,0.0,0,1,1000,num_1,0.5772919999435544,,32,15,2026-03-12_16h30.42.992,2026A_exp2,2022.2.4,60.05201710375006,
0,0,6.1,6.1,1,0,85,85,48,,,,,264.38580970000476,265.036528600147,265.036528600147,265.52102730004117,45,315,265.52102730004117,265.52102730004117,265.52102730004117,265.52102730004117,265.52102730004117,265.52102730004117,265.52102730004117,265.52102730004117,265.52102730004117,265.8873410001397,265.8873410001397,265.8873410001397,265.8873410001397,265.8873410001397,265.8873410001397,265.8873410001397,265.8873410001397,265.8873410001397,23,0,,,265.8873410001397,266.0874942999799,6.1,266.0874942999799,0,6.1,1,0,1000,num_1,0.9067479998338968,,32,15,2026-03-12_16h30.42.992,2026A_exp2,2022.2.4,60.05201710375006,
1,0,4.9,4.9,1,0,86,86,18,,,,,267.0215660999529,267.6725791001227,267.6725791001227,268.15687860012986,315,315,268.15687860012986,268.15687860012986,268.15687860012986,268.15687860012986,268.15687860012986,268.15687860012986,268.15687860012986,268.15687860012986,268.15687860012986,268.52339860005304,268.52339860005304,268.52339860005304,268.52339860005304,268.52339860005304,268.52339860005304,268.52339860005304,268.52339860005304,268.52339860005304,23,0,,,268.52339860005304,268.7235161000863,4.9,268.7235161000863,1,4.9,1,1,1000,num_4,0.7437488997820765,,32,15,2026-03-12_16h30.42.992,2026A_exp2,2022.2.4,60.05201710375006,
1,0,6.1,0.0,0,0,87,87,77,,,,,269.49085259996355,270.1417054000776,270.1417054000776,270.62617709999904,315,45,270.62617709999904,270.62617709999904,270.62617709999904,270.62617709999904,270.62617709999904,270.62617709999904,270.62617709999904,270.62617709999904,270.62617709999904,270.9925518000964,270.9925518000964,270.9925518000964,270.9925518000964,270.9925518000964,270.9925518000964,270.9925518000964,270.9925518000964,270.9925518000964,13,3,"[0.0010548001155257225, 0.11708540003746748, 0.1671941999811679]","[0.06682200008071959, 0.1504387001041323, 0.25058550015091896]",270.9925518000964,271.1928914000746,6.1,271.1928914000746,1,6.1,1,1,1000,num_4,0.6745498997624964,,32,15,2026-03-12_16h30.42.992,2026A_exp2,2022.2.4,60.05201710375006,
1,0,3.7,0.0,0,0,88,88,9,,,,,271.89334390009753,272.5441062001046,272.5441062001046,273.0284214001149,315,315,273.0284214001149,273.0284214001149,273.0284214001149,273.0284214001149,273.0284214001149,273.0284214001149,273.0284214001149,273.0284214001149,273.0284214001149,273.3948693999555,273.3948693999555,273.3948693999555,273.3948693999555,273.3948693999555,273.3948693999555,273.3948693999555,273.3948693999555,273.3948693999555,7,3,"[0.0012320999521762133, 0.20035950001329184, 0.25081449979916215]","[0.16701709991320968, 0.2337566998321563, 0.3171240999363363]",273.3948693999555,273.59505459992215,3.7,273.59505459992215,1,3.7,1,1,1000,num_4,0.5681256998796016,,32,15,2026-03-12_16h30.42.992,2026A_exp2,2022.2.4,60.05201710375006,
1000,1,3.7,0.0,1,0,89,89,52,,,,,274.1789214001037,274.8296650000848,274.8296650000848,275.33069139998406,315,45,275.33069139998406,275.33069139998406,275.33069139998406,275.33069139998406,275.33069139998406,275.33069139998406,275.33069139998406,275.33069139998406,275.33069139998406,275.68045870005153,275.68045870005153,275.68045870005153,275.68045870005153,275.68045870005153,275.68045870005153,275.68045870005153,275.68045870005153,275.68045870005153,17,5,"[0.0012783999554812908, 0.11696680006571114, 0.1504834999796003, 0.2503705001436174, 0.3337839001324028]","[0.017265500035136938, 0.1337991999462247, 0.16708789998665452, 0.2672316001262516, 0.3504727999679744]",275.68045870005153,275.8824897001032,1000,275.8824897001032,1000,1000,1000,1000,0,num_3,0.568150999955833,,32,15,2026-03-12_16h30.42.992,2026A_exp2,2022.2.4,60.05201710375006,
,,,,,,,,,,,,,,,,,,,,,,,,,,,,,,,,,,,,,,,,,,,,,,,,,,,,276.48504259996116,,,,,,,
