validity,detectorcomp,contrastCW,contrastCCW,precueCWorCCW,block_80trials.thisRepN,block_80trials.thisTrialN,block_80trials.thisN,block_80trials.thisIndex,etRecord.started,etRecord.stopped,text.started,text.stopped,text_4.started,text_4.stopped,text_6.started,text_6.stopped,oriCW,oriCCW,roi_2.started,grating_UR.started,grating_UL.started,grating_LR.started,grating_LL.started,noise_UR.started,noise_UL.started,noise_LR.started,noise_LL.started,roi_2.stopped,grating_UR.stopped,grating_UL.stopped,grating_LR.stopped,grating_LL.stopped,noise_UR.stopped,noise_UL.stopped,noise_LR.stopped,noise_LL.stopped,outframe,roi_2.numLooks,roi_2.timesOn,roi_2.timesOff,text_2.started,text_2.stopped,probedcontrast,key_resp.started,respdetect,relevantContrast,correctDetect,TorFdetect,respCWorCCW,key_resp.keys,key_resp.rt,feedback_display_.started,participantNo,blockNo,date,expName,psychopyVersion,frameRate,
1,0,0.0,0.0,1,0,0,0,56,3.300001844763756e-05,3.300001844763756e-05,59.74644339992665,61.75054539996199,61.75054539996199,62.382765599992126,62.382765599992126,62.90049170004204,315,45,62.90049170004204,62.90049170004204,62.90049170004204,62.90049170004204,62.90049170004204,62.90049170004204,62.90049170004204,62.90049170004204,62.90049170004204,63.25018319999799,63.25018319999799,63.25018319999799,63.25018319999799,63.25018319999799,63.25018319999799,63.25018319999799,63.25018319999799,63.25018319999799,21,2,"[0.06734149996191263, 0.20102899987250566]","[0.08382379985414445, 0.2175827999599278]",63.25018319999799,63.45052820001729,0.0,63.45052820001729,0,0.0,0,1,1000,num_1,3.7824705000966787,,35,6,2026-03-13_13h49.24.742,2026A_exp2,2022.2.4,59.88368191499607,
1,0,4.9,0.0,0,0,1,1,14,,,,,67.2544452000875,67.90488959988579,67.90488959988579,68.38935630000196,315,45,68.38935630000196,68.38935630000196,68.38935630000196,68.38935630000196,68.38935630000196,68.38935630000196,68.38935630000196,68.38935630000196,68.38935630000196,68.75565929990262,68.75565929990262,68.75565929990262,68.75565929990262,68.75565929990262,68.75565929990262,68.75565929990262,68.75565929990262,68.75565929990262,14,3,"[0.1669089999049902, 0.2502225998323411, 0.3668014998547733]","[0.20020299986936152, 0.35007749986834824, 0.36680540000088513]",68.75565929990262,68.956034099916,4.9,68.956034099916,0,4.9,1,0,1000,num_1,0.8372452999465168,,35,6,2026-03-13_13h49.24.742,2026A_exp2,2022.2.4,59.88368191499607,
1000,1,0.0,3.7,1,0,2,2,86,,,,,69.8235700998921,70.47422129986808,70.47422129986808,70.95866349991411,315,45,70.95866349991411,70.95866349991411,70.95866349991411,70.95866349991411,70.95866349991411,70.95866349991411,70.95866349991411,70.95866349991411,70.95866349991411,71.32501029991545,71.32501029991545,71.32501029991545,71.32501029991545,71.32501029991545,71.32501029991545,71.32501029991545,71.32501029991545,71.32501029991545,7,3,"[0.0011424000840634108, 0.11700000008568168, 0.21708640013821423]","[0.06696690013632178, 0.18365900008939207, 0.35071110003627837]",71.32501029991545,71.52988669998012,1000,71.52988669998012,1000,1000,1000,1000,1,num_2,0.6627536001615226,,35,6,2026-03-13_13h49.24.742,2026A_exp2,2022.2.4,59.88368191499607,
1000,1,6.1,0.0,1,0,3,3,71,,,,,72.20915729994886,72.86002840008587,72.86002840008587,73.37646820000373,315,45,73.37646820000373,73.37646820000373,73.37646820000373,73.37646820000373,73.37646820000373,73.37646820000373,73.37646820000373,73.37646820000373,73.37646820000373,73.72756620007567,73.72756620007567,73.72756620007567,73.72756620007567,73.72756620007567,73.72756620007567,73.72756620007567,73.72756620007567,73.72756620007567,0,1,[0.004290400072932243],[0.36559329996816814],73.72756620007567,73.94347559986636,1000,73.94347559986636,1000,1000,1000,1000,0,num_3,0.5130563999991864,,35,6,2026-03-13_13h49.24.742,2026A_exp2,2022.2.4,59.88368191499607,
1000,1,0.0,0.0,1,0,4,4,27,,,,,74.47804519999772,75.1288795999717,75.1288795999717,75.62991150002927,45,45,75.62991150002927,75.62991150002927,75.62991150002927,75.62991150002927,75.62991150002927,75.62991150002927,75.62991150002927,75.62991150002927,75.62991150002927,75.97987210005522,75.97987210005522,75.97987210005522,75.97987210005522,75.97987210005522,75.97987210005522,75.97987210005522,75.97987210005522,75.97987210005522,5,4,"[0.0011928998865187168, 0.06647349987179041, 0.09995489986613393, 0.28257709997706115]","[0.03322279988788068, 0.08324209996499121, 0.26594060007482767, 0.3496596999466419]",75.97987210005522,76.17996519990265,1000,76.19646040000953,1000,1000,1000,1000,1,num_2,0.6359880999661982,,35,6,2026-03-13_13h49.24.742,2026A_exp2,2022.2.4,59.88368191499607,
1,0,0.0,6.1,0,0,5,5,3,,,,,76.86394990002736,77.51441120007075,77.51441120007075,78.01573049998842,45,315,78.01573049998842,78.01573049998842,78.01573049998842,78.01573049998842,78.01573049998842,78.01573049998842,78.01573049998842,78.01573049998842,78.01573049998842,78.38211930007674,78.38211930007674,78.38211930007674,78.38211930007674,78.38211930007674,78.38211930007674,78.38211930007674,78.38211930007674,78.38211930007674,8,4,"[0.033441900042817, 0.08353990013711154, 0.18342670006677508, 0.2836496001109481]","[0.06688350019976497, 0.1669955002143979, 0.25016740011051297, 0.3503711000084877]",78.38211930007674,78.58236230001785,0.0,78.58236230001785,0,0.0,0,1,1000,num_1,0.8979802001267672,,35,6,2026-03-13_13h49.24.742,2026A_exp2,2022.2.4,59.88368191499607,
1,0,6.1,0.0,1,0,6,6,23,,,,,79.49977250001393,80.1505658000242,80.1505658000242,80.63499509985559,45,315,80.63499509985559,80.63499509985559,80.63499509985559,80.63499509985559,80.63499509985559,80.63499509985559,80.63499509985559,80.63499509985559,80.63499509985559,81.00136479991488,81.00136479991488,81.00136479991488,81.00136479991488,81.00136479991488,81.00136479991488,81.00136479991488,81.00136479991488,81.00136479991488,10,6,"[0.0012246998958289623, 0.08349179988726974, 0.16704909992404282, 0.23370749992318451, 0.28331089997664094, 0.3168366998434067]","[0.06683599995449185, 0.11680069984868169, 0.2170190999750048, 0.26705939997918904, 0.3002363999839872, 0.33316270005889237]",81.00136479991488,81.2016892998945,0.0,81.2016892998945,0,0.0,0,1,1000,num_1,0.9115699999965727,,35,6,2026-03-13_13h49.24.742,2026A_exp2,2022.2.4,59.88368191499607,
1,0,0.0,0.0,1,0,7,7,24,,,,,82.13574160006829,82.78653379995376,82.78653379995376,83.27104029990733,315,315,83.27104029990733,83.27104029990733,83.27104029990733,83.27104029990733,83.27104029990733,83.27104029990733,83.27104029990733,83.27104029990733,83.27104029990733,83.63742140005343,83.63742140005343,83.63742140005343,83.63742140005343,83.63742140005343,83.63742140005343,83.63742140005343,83.63742140005343,83.63742140005343,14,6,"[0.0334880999289453, 0.08335400000214577, 0.1671519000083208, 0.2171873999759555, 0.25051749986596406, 0.3339309999719262]","[0.06696219998411834, 0.10009109997190535, 0.18381619988940656, 0.2339619998820126, 0.26711470005102456, 0.36728909984230995]",83.63742140005343,83.83757520001382,0.0,83.83757520001382,0,0.0,0,1,1000,num_1,0.6444069999270141,,35,6,2026-03-13_13h49.24.742,2026A_exp2,2022.2.4,59.88368191499607,
1000,1,6.1,0.0,1,0,8,8,61,,,,,84.50713990000077,85.15550530003384,85.15550530003384,85.65658700000495,315,45,85.65658700000495,85.65658700000495,85.65658700000495,85.65658700000495,85.65658700000495,85.65658700000495,85.65658700000495,85.65658700000495,85.65658700000495,86.02310459990986,86.02310459990986,86.02310459990986,86.02310459990986,86.02310459990986,86.02310459990986,86.02310459990986,86.02310459990986,86.02310459990986,12,5,"[0.03342899982817471, 0.08344349986873567, 0.13355679996311665, 0.21690130000934005, 0.2995602998416871]","[0.050221099983900785, 0.1168108000420034, 0.18362829997204244, 0.25048739998601377, 0.3665727998595685]",86.02310459990986,86.22514920006506,1000,86.22514920006506,1000,1000,1000,1000,0,num_3,0.5833938999567181,,35,6,2026-03-13_13h49.24.742,2026A_exp2,2022.2.4,59.88368191499607,
1,0,3.7,4.9,0,0,9,9,70,,,,,86.8238061000593,87.47454199986532,87.47454199986532,87.97549619991332,45,45,87.97549619991332,87.97549619991332,87.97549619991332,87.97549619991332,87.97549619991332,87.97549619991332,87.97549619991332,87.97549619991332,87.97549619991332,88.34208590001799,88.34208590001799,88.34208590001799,88.34208590001799,88.34208590001799,88.34208590001799,88.34208590001799,88.34208590001799,88.34208590001799,21,1,[0.20028079999610782],[0.23364860005676746],88.34208590001799,88.54227690002881,3.7,88.54227690002881,1,3.7,1,1,1000,num_4,1.6347890000324696,,35,6,2026-03-13_13h49.24.742,2026A_exp2,2022.2.4,59.88368191499607,
1000,1,4.9,6.1,1,0,10,10,4,,,,,90.19378639990464,90.84455349994823,90.84455349994823,91.3288642000407,45,315,91.3288642000407,91.3288642000407,91.3288642000407,91.3288642000407,91.3288642000407,91.3288642000407,91.3288642000407,91.3288642000407,91.3288642000407,91.69539620005526,91.69539620005526,91.69539620005526,91.69539620005526,91.69539620005526,91.69539620005526,91.69539620005526,91.69539620005526,91.69539620005526,10,3,"[0.10023469990119338, 0.2169534000568092, 0.2837112001143396]","[0.20010000001639128, 0.2500404000747949, 0.3672515000216663]",91.69539620005526,91.89736649999395,1000,91.89736649999395,1000,1000,1000,1000,1,num_2,0.4723345001693815,,35,6,2026-03-13_13h49.24.742,2026A_exp2,2022.2.4,59.88368191499607,
1,0,4.9,0.0,0,0,11,11,19,,,,,92.39596539991908,93.0467678999994,93.0467678999994,93.54772959998809,45,45,93.54772959998809,93.54772959998809,93.54772959998809,93.54772959998809,93.54772959998809,93.54772959998809,93.54772959998809,93.54772959998809,93.54772959998809,93.91431599995121,93.91431599995121,93.91431599995121,93.91431599995121,93.91431599995121,93.91431599995121,93.91431599995121,93.91431599995121,93.91431599995121,7,5,"[0.017120500095188618, 0.05027369991876185, 0.1853954999241978, 0.28533599991351366, 0.33553009992465377]","[0.03362019988708198, 0.15025780000723898, 0.2687697000801563, 0.3187841000035405, 0.3689319998957217]",93.91431599995121,94.12118880008347,4.9,94.12118880008347,1,4.9,1,1,1000,num_4,1.3590670998673886,,35,6,2026-03-13_13h49.24.742,2026A_exp2,2022.2.4,59.88368191499607,
1000,1,0.0,0.0,1,0,12,12,78,,,,,95.49905149987899,96.14979190006852,96.14979190006852,96.65099389990792,45,315,96.65099389990792,96.65099389990792,96.65099389990792,96.65099389990792,96.65099389990792,96.65099389990792,96.65099389990792,96.65099389990792,96.65099389990792,97.01743640005589,97.01743640005589,97.01743640005589,97.01743640005589,97.01743640005589,97.01743640005589,97.01743640005589,97.01743640005589,97.01743640005589,23,0,,,97.01743640005589,97.21925069997087,1000,97.21925069997087,1000,1000,1000,1000,0,num_3,0.5731376002077013,,35,6,2026-03-13_13h49.24.742,2026A_exp2,2022.2.4,59.88368191499607,
1000,1,0.0,6.1,0,0,13,13,5,,,,,97.81811299989931,98.46891819988377,98.46891819988377,98.97000209987164,45,315,98.97000209987164,98.97000209987164,98.97000209987164,98.97000209987164,98.97000209987164,98.97000209987164,98.97000209987164,98.97000209987164,98.97000209987164,99.33634330006316,99.33634330006316,99.33634330006316,99.33634330006316,99.33634330006316,99.33634330006316,99.33634330006316,99.33634330006316,99.33634330006316,22,1,[0.08370830002240837],[0.10016300017014146],99.33634330006316,99.53633049991913,1000,99.53633049991913,1000,1000,1000,1000,1,num_2,0.49669809988699853,,35,6,2026-03-13_13h49.24.742,2026A_exp2,2022.2.4,59.88368191499607,
1,0,0.0,0.0,1,0,14,14,60,,,,,100.05365110002458,100.70446679997258,100.70446679997258,101.20555489999242,315,45,101.20555489999242,101.20555489999242,101.20555489999242,101.20555489999242,101.20555489999242,101.20555489999242,101.20555489999242,101.20555489999242,101.20555489999242,101.57199619989842,101.57199619989842,101.57199619989842,101.57199619989842,101.57199619989842,101.57199619989842,101.57199619989842,101.57199619989842,101.57199619989842,20,3,"[0.0012905998155474663, 0.08352779992856085, 0.31711039994843304]","[0.017471199855208397, 0.10042399982921779, 0.33379870001226664]",101.57199619989842,101.77221550000831,0.0,101.77221550000831,0,0.0,0,1,1000,num_1,1.2683629000093788,,35,6,2026-03-13_13h49.24.742,2026A_exp2,2022.2.4,59.88368191499607,
0,0,0.0,6.1,0,0,15,15,12,,,,,103.05728309997357,103.70740960002877,103.70740960002877,104.19193069986068,45,315,104.19193069986068,104.19193069986068,104.19193069986068,104.19193069986068,104.19193069986068,104.19193069986068,104.19193069986068,104.19193069986068,104.19193069986068,104.55826870002784,104.55826870002784,104.55826870002784,104.55826870002784,104.55826870002784,104.55826870002784,104.55826870002784,104.55826870002784,104.55826870002784,13,4,"[0.01764630014076829, 0.167189400177449, 0.284013100201264, 0.36736260005272925]","[0.08379840012639761, 0.2004911000840366, 0.3340527000837028, 0.3673675002064556]",104.55826870002784,104.75854569999501,6.1,104.75854569999501,0,6.1,1,0,1000,num_1,0.6425592000596225,,35,6,2026-03-13_13h49.24.742,2026A_exp2,2022.2.4,59.88368191499607,
0,0,4.9,6.1,0,0,16,16,1,,,,,105.42585100000724,106.07602380006574,106.07602380006574,106.5609122000169,45,315,106.5609122000169,106.5609122000169,106.5609122000169,106.5609122000169,106.5609122000169,106.5609122000169,106.5609122000169,106.5609122000169,106.5609122000169,106.9272022000514,106.9272022000514,106.9272022000514,106.9272022000514,106.9272022000514,106.9272022000514,106.9272022000514,106.9272022000514,106.9272022000514,12,5,"[0.03350939997471869, 0.11699200002476573, 0.2337214001454413, 0.26710860012099147, 0.350602800026536]","[0.06695060012862086, 0.1834377001505345, 0.2504712000954896, 0.3338537001982331, 0.3672434000764042]",106.9272022000514,107.12749250000343,6.1,107.12749250000343,1,6.1,1,1,1000,num_4,0.5692837999667972,,35,6,2026-03-13_13h49.24.742,2026A_exp2,2022.2.4,59.88368191499607,
1000,1,0.0,3.7,0,0,17,17,21,,,,,107.72798480000347,108.37864329991862,108.37864329991862,108.86325050005689,45,45,108.86325050005689,108.86325050005689,108.86325050005689,108.86325050005689,108.86325050005689,108.86325050005689,108.86325050005689,108.86325050005689,108.86325050005689,109.22967009991407,109.22967009991407,109.22967009991407,109.22967009991407,109.22967009991407,109.22967009991407,109.22967009991407,109.22967009991407,109.22967009991407,12,4,"[0.03339899983257055, 0.1337028997950256, 0.16699099983088672, 0.23368989978916943]","[0.066825499990955, 0.15046339994296432, 0.20026579988189042, 0.333701099967584]",109.22967009991407,109.43158570001833,1000,109.43158570001833,1000,1000,1000,1000,0,num_3,0.7205082001164556,,35,6,2026-03-13_13h49.24.742,2026A_exp2,2022.2.4,59.88368191499607,
1000,1,0.0,0.0,1,0,18,18,37,,,,,110.18190540000796,110.83114979998209,110.83114979998209,111.33223449997604,45,45,111.33223449997604,111.33223449997604,111.33223449997604,111.33223449997604,111.33223449997604,111.33223449997604,111.33223449997604,111.33223449997604,111.33223449997604,111.68326249998063,111.68326249998063,111.68326249998063,111.68326249998063,111.68326249998063,111.68326249998063,111.68326249998063,111.68326249998063,111.68326249998063,11,6,"[0.032517699990421534, 0.08308549993671477, 0.11631840001791716, 0.17046709987334907, 0.22077509993687272, 0.3543058999348432]","[0.049496900057420135, 0.09973989985883236, 0.13302179984748363, 0.18733319989405572, 0.3210855999495834, 0.35432290006428957]",111.68326249998063,111.91063619987108,1000,111.91063619987108,1000,1000,1000,1000,1,num_2,0.37937640002928674,,35,6,2026-03-13_13h49.24.742,2026A_exp2,2022.2.4,59.88368191499607,
1,0,0.0,6.1,1,0,19,19,17,,,,,112.31608540005982,112.95002779993229,112.95002779993229,113.45114660006948,45,45,113.45114660006948,113.45114660006948,113.45114660006948,113.45114660006948,113.45114660006948,113.45114660006948,113.45114660006948,113.45114660006948,113.45114660006948,113.81759059987962,113.81759059987962,113.81759059987962,113.81759059987962,113.81759059987962,113.81759059987962,113.81759059987962,113.81759059987962,113.81759059987962,10,6,"[0.0012339998502284288, 0.0501184999011457, 0.1168189998716116, 0.20030079991556704, 0.3003008998930454, 0.33386019989848137]","[0.03344010002911091, 0.06675140000879765, 0.1835391998756677, 0.2671074999962002, 0.31717179995030165, 0.35039009992033243]",113.81759059987962,114.0177110999357,6.1,114.0177110999357,1,6.1,1,1,1000,num_4,0.7433952998835593,,35,6,2026-03-13_13h49.24.742,2026A_exp2,2022.2.4,59.88368191499607,
1,0,3.7,3.7,0,0,20,20,69,,,,,114.7851803000085,115.43579409993254,115.43579409993254,115.92017779988237,45,45,115.92017779988237,115.92017779988237,115.92017779988237,115.92017779988237,115.92017779988237,115.92017779988237,115.92017779988237,115.92017779988237,115.92017779988237,116.28668299992569,116.28668299992569,116.28668299992569,116.28668299992569,116.28668299992569,116.28668299992569,116.28668299992569,116.28668299992569,116.28668299992569,5,5,"[0.0012093998957425356, 0.06687860004603863, 0.18364960001781583, 0.2496009999886155, 0.33392759994603693]","[0.0335120998788625, 0.16696579987183213, 0.23312440002337098, 0.31700609996914864, 0.3671468000393361]",116.28668299992569,116.48686719988473,3.7,116.48686719988473,0,3.7,1,0,1000,num_1,1.3373503999318928,,35,6,2026-03-13_13h49.24.742,2026A_exp2,2022.2.4,59.88368191499607,
1000,1,0.0,3.7,1,0,21,21,81,,,,,117.85473260004073,118.50601630005985,118.50601630005985,118.98989530000836,45,45,118.98989530000836,118.98989530000836,118.98989530000836,118.98989530000836,118.98989530000836,118.98989530000836,118.98989530000836,118.98989530000836,118.98989530000836,119.35644920007326,119.35644920007326,119.35644920007326,119.35644920007326,119.35644920007326,119.35644920007326,119.35644920007326,119.35644920007326,119.35644920007326,9,5,"[0.0010559000074863434, 0.06708949990570545, 0.16721139987930655, 0.26728140003979206, 0.33396319998428226]","[0.050517099909484386, 0.13395519996993244, 0.21732409996911883, 0.28393279993906617, 0.36736769997514784]",119.35644920007326,119.55856999987736,1000,119.55856999987736,1000,1000,1000,1000,0,num_3,0.5550985001027584,,35,6,2026-03-13_13h49.24.742,2026A_exp2,2022.2.4,59.88368191499607,
1000,1,0.0,4.9,1,0,22,22,51,,,,,120.14044139999896,120.79123630002141,120.79123630002141,121.29211380006745,45,45,121.29211380006745,121.29211380006745,121.29211380006745,121.29211380006745,121.29211380006745,121.29211380006745,121.29211380006745,121.29211380006745,121.29211380006745,121.65883029997349,121.65883029997349,121.65883029997349,121.65883029997349,121.65883029997349,121.65883029997349,121.65883029997349,121.65883029997349,121.65883029997349,11,4,"[0.10031570005230606, 0.25053959991782904, 0.30072989990003407, 0.3505768000613898]","[0.2171457998920232, 0.2672582999803126, 0.3339996999129653, 0.3671478000469506]",121.65883029997349,121.86085109994747,1000,121.86085109994747,1000,1000,1000,1000,1,num_2,0.7963021998293698,,35,6,2026-03-13_13h49.24.742,2026A_exp2,2022.2.4,59.88368191499607,
0,0,4.9,4.9,0,0,23,23,88,,,,,122.67655189987272,123.32705569989048,123.32705569989048,123.8114219000563,315,315,123.8114219000563,123.8114219000563,123.8114219000563,123.8114219000563,123.8114219000563,123.8114219000563,123.8114219000563,123.8114219000563,123.8114219000563,124.17793989996426,124.17793989996426,124.17793989996426,124.17793989996426,124.17793989996426,124.17793989996426,124.17793989996426,124.17793989996426,124.17793989996426,13,7,"[0.0012084001209586859, 0.03345940005965531, 0.08351650019176304, 0.16711860010400414, 0.25053120008669794, 0.3173109001945704, 0.3506004000082612]","[0.01741630001924932, 0.050271900137886405, 0.11695530009455979, 0.20024630008265376, 0.2670221000444144, 0.3339319000951946, 0.36723230010829866]",124.17793989996426,124.37810470000841,4.9,124.37810470000841,0,4.9,1,0,1000,num_1,1.5180712998844683,,35,6,2026-03-13_13h49.24.742,2026A_exp2,2022.2.4,59.88368191499607,
1,0,6.1,3.7,0,0,24,24,79,,,,,125.91283289995044,126.56361790001392,126.56361790001392,127.04792129993439,315,45,127.04792129993439,127.04792129993439,127.04792129993439,127.04792129993439,127.04792129993439,127.04792129993439,127.04792129993439,127.04792129993439,127.04792129993439,127.4143193999771,127.4143193999771,127.4143193999771,127.4143193999771,127.4143193999771,127.4143193999771,127.4143193999771,127.4143193999771,127.4143193999771,8,6,"[0.0012268000282347202, 0.03352389996871352, 0.08341860002838075, 0.21713300002738833, 0.2671433000359684, 0.3171647998970002]","[0.017211399972438812, 0.06680259993299842, 0.1835954999551177, 0.2503545000217855, 0.2836754999589175, 0.36707559996284544]",127.4143193999771,127.6279279999435,6.1,127.6279279999435,0,6.1,1,0,1000,num_1,0.7896092000883073,,35,6,2026-03-13_13h49.24.742,2026A_exp2,2022.2.4,59.88368191499607,
1000,1,0.0,0.0,1,0,25,25,8,,,,,128.44861799990758,129.09944029990584,129.09944029990584,129.60062989988364,315,45,129.60062989988364,129.60062989988364,129.60062989988364,129.60062989988364,129.60062989988364,129.60062989988364,129.60062989988364,129.60062989988364,129.60062989988364,129.96705029997975,129.96705029997975,129.96705029997975,129.96705029997975,129.96705029997975,129.96705029997975,129.96705029997975,129.96705029997975,129.96705029997975,11,5,"[0.03344030003063381, 0.13360369997099042, 0.23366309981793165, 0.30046139983460307, 0.35049770004116]","[0.11705140001140535, 0.1670376998372376, 0.2504040999338031, 0.33386849984526634, 0.36723929992876947]",129.96705029997975,130.16893779998645,1000,130.16893779998645,1000,1000,1000,1000,0,num_3,0.5442171001341194,,35,6,2026-03-13_13h49.24.742,2026A_exp2,2022.2.4,59.88368191499607,
1,0,0.0,0.0,1,0,26,26,42,,,,,130.73427739995532,131.38500020001084,131.38500020001084,131.88624299992807,45,315,131.88624299992807,131.88624299992807,131.88624299992807,131.88624299992807,131.88624299992807,131.88624299992807,131.88624299992807,131.88624299992807,131.88624299992807,132.2524868999608,132.2524868999608,132.2524868999608,132.2524868999608,132.2524868999608,132.2524868999608,132.2524868999608,132.2524868999608,132.2524868999608,14,7,"[0.0012042999733239412, 0.05018640006892383, 0.10023049986921251, 0.13373870006762445, 0.20034780004061759, 0.30056010000407696, 0.33389910007826984]","[0.03355369996279478, 0.06690669991075993, 0.11691270000301301, 0.15023049991577864, 0.21709219994954765, 0.31710839993320405, 0.3672785998787731]",132.2524868999608,132.4527094999794,0.0,132.4527094999794,0,0.0,0,1,1000,num_1,1.0447062000166625,,35,6,2026-03-13_13h49.24.742,2026A_exp2,2022.2.4,59.88368191499607,
1000,1,0.0,4.9,0,0,27,27,50,,,,,133.52042030007578,134.17129969992675,134.17129969992675,134.655695799971,315,315,134.655695799971,134.655695799971,134.655695799971,134.655695799971,134.655695799971,134.655695799971,134.655695799971,134.655695799971,134.655695799971,135.02197319990955,135.02197319990955,135.02197319990955,135.02197319990955,135.02197319990955,135.02197319990955,135.02197319990955,135.02197319990955,135.02197319990955,8,6,"[0.0011865999549627304, 0.11686840001493692, 0.15035180002450943, 0.23374549997970462, 0.30037149996496737, 0.333781799999997]","[0.0332122000399977, 0.13356490014120936, 0.2168469000607729, 0.283710699994117, 0.3171709000598639, 0.3671202000696212]",135.02197319990955,135.2238882998936,1000,135.2238882998936,1000,1000,1000,1000,1,num_2,0.43317620013840497,,35,6,2026-03-13_13h49.24.742,2026A_exp2,2022.2.4,59.88368191499607,
1,0,3.7,3.7,1,0,28,28,11,,,,,135.67267220001668,136.323669699952,136.323669699952,136.82439059996977,315,315,136.82439059996977,136.82439059996977,136.82439059996977,136.82439059996977,136.82439059996977,136.82439059996977,136.82439059996977,136.82439059996977,136.82439059996977,137.19091330002993,137.19091330002993,137.19091330002993,137.19091330002993,137.19091330002993,137.19091330002993,137.19091330002993,137.19091330002993,137.19091330002993,10,4,"[0.03336010011844337, 0.10018500010482967, 0.3000960999634117, 0.3500072001479566]","[0.06674839998595417, 0.2337068000342697, 0.31725089997053146, 0.3665925001259893]",137.19091330002993,137.39106469997205,3.7,137.39106469997205,0,3.7,1,0,1000,num_1,0.7772425001021475,,35,6,2026-03-13_13h49.24.742,2026A_exp2,2022.2.4,59.88368191499607,
1,0,0.0,0.0,0,0,29,29,87,,,,,138.19174969987944,138.8424676998984,138.8424676998984,139.32683809986338,315,45,139.32683809986338,139.32683809986338,139.32683809986338,139.32683809986338,139.32683809986338,139.32683809986338,139.32683809986338,139.32683809986338,139.32683809986338,139.69334729993716,139.69334729993716,139.69334729993716,139.69334729993716,139.69334729993716,139.69334729993716,139.69334729993716,139.69334729993716,139.69334729993716,14,3,"[0.08357940008863807, 0.23370409989729524, 0.31713419989682734]","[0.1669870000332594, 0.25046809995546937, 0.3505140000488609]",139.69334729993716,139.89360579987988,0.0,139.89360579987988,0,0.0,0,1,1000,num_1,0.5148113998584449,,35,6,2026-03-13_13h49.24.742,2026A_exp2,2022.2.4,59.88368191499607,
1,0,0.0,4.9,1,0,30,30,44,,,,,140.42729460005648,141.07849529990926,141.07849529990926,141.56266329996288,315,315,141.56266329996288,141.56266329996288,141.56266329996288,141.56266329996288,141.56266329996288,141.56266329996288,141.56266329996288,141.56266329996288,141.56266329996288,141.9289958998561,141.9289958998561,141.9289958998561,141.9289958998561,141.9289958998561,141.9289958998561,141.9289958998561,141.9289958998561,141.9289958998561,10,5,"[0.033751700073480606, 0.08389350003562868, 0.1172722999472171, 0.25070689991116524, 0.33412900008261204]","[0.0671781999990344, 0.10053719999268651, 0.23408440011553466, 0.2673847998958081, 0.3674639998935163]",141.9289958998561,142.129180500051,4.9,142.129180500051,1,4.9,1,1,1000,num_4,0.5833441000431776,,35,6,2026-03-13_13h49.24.742,2026A_exp2,2022.2.4,59.88368191499607,
1000,1,4.9,6.1,0,0,31,31,49,,,,,142.72963369986974,143.38042819988914,143.38042819988914,143.86476169992238,45,315,143.86476169992238,143.86476169992238,143.86476169992238,143.86476169992238,143.86476169992238,143.86476169992238,143.86476169992238,143.86476169992238,143.86476169992238,144.2313025998883,144.2313025998883,144.2313025998883,144.2313025998883,144.2313025998883,144.2313025998883,144.2313025998883,144.2313025998883,144.2313025998883,10,6,"[0.03361749998293817, 0.11707530007697642, 0.18385570007376373, 0.23382439999841154, 0.2838272999506444, 0.36717330012470484]","[0.10029500001110137, 0.16712320013903081, 0.2171589001081884, 0.2672363999299705, 0.30060499999672174, 0.36717800004407763]",144.2313025998883,144.43339550006203,1000,144.43339550006203,1000,1000,1000,1000,1,num_2,0.430805399781093,,35,6,2026-03-13_13h49.24.742,2026A_exp2,2022.2.4,59.88368191499607,
1000,1,4.9,3.7,0,0,32,32,26,,,,,144.8818103999365,145.53257789998315,145.53257789998315,146.03369539999403,315,315,146.03369539999403,146.03369539999403,146.03369539999403,146.03369539999403,146.03369539999403,146.03369539999403,146.03369539999403,146.03369539999403,146.03369539999403,146.400353099918,146.400353099918,146.400353099918,146.400353099918,146.400353099918,146.400353099918,146.400353099918,146.400353099918,146.400353099918,12,3,"[0.15045180008746684, 0.25039560021832585, 0.31647090008482337]","[0.23376450012438, 0.2834760001860559, 0.36661980021744967]",146.400353099918,146.60215819999576,1000,146.60215819999576,1000,1000,1000,1000,0,num_3,0.4706759999971837,,35,6,2026-03-13_13h49.24.742,2026A_exp2,2022.2.4,59.88368191499607,
1,0,3.7,6.1,0,0,33,33,74,,,,,147.100841099862,147.75148879992776,147.75148879992776,148.25262849987485,45,315,148.25262849987485,148.25262849987485,148.25262849987485,148.25262849987485,148.25262849987485,148.25262849987485,148.25262849987485,148.25262849987485,148.25262849987485,148.61904129991308,148.61904129991308,148.61904129991308,148.61904129991308,148.61904129991308,148.61904129991308,148.61904129991308,148.61904129991308,148.61904129991308,15,4,"[0.13346550008282065, 0.18354130000807345, 0.2670225999318063, 0.3672370999120176]","[0.15020429994910955, 0.20048619993031025, 0.35044299997389317, 0.3672416000626981]",148.61904129991308,148.81912739994004,3.7,148.81912739994004,0,3.7,1,0,1000,num_1,0.7175384000875056,,35,6,2026-03-13_13h49.24.742,2026A_exp2,2022.2.4,59.88368191499607,
1,0,4.9,0.0,1,0,34,34,52,,,,,149.55309240007773,150.20398019999266,150.20398019999266,150.68841849989258,315,45,150.68841849989258,150.68841849989258,150.68841849989258,150.68841849989258,150.68841849989258,150.68841849989258,150.68841849989258,150.68841849989258,150.68841849989258,151.0548157999292,151.0548157999292,151.0548157999292,151.0548157999292,151.0548157999292,151.0548157999292,151.0548157999292,151.0548157999292,151.0548157999292,19,2,"[0.13370270002633333, 0.28368969983421266]","[0.2004112999420613, 0.30037579988129437]",151.0548157999292,151.25499589997344,0.0,151.25499589997344,0,0.0,0,1,1000,num_1,0.6824033001903445,,35,6,2026-03-13_13h49.24.742,2026A_exp2,2022.2.4,59.88368191499607,
1,0,0.0,4.9,0,0,35,35,48,,,,,151.95571270002984,152.6062928000465,152.6062928000465,153.09064249997027,45,45,153.09064249997027,153.09064249997027,153.09064249997027,153.09064249997027,153.09064249997027,153.09064249997027,153.09064249997027,153.09064249997027,153.09064249997027,153.45697569986805,153.45697569986805,153.45697569986805,153.45697569986805,153.45697569986805,153.45697569986805,153.45697569986805,153.45697569986805,153.45697569986805,13,5,"[0.03345480002462864, 0.15015839994885027, 0.21687879995442927, 0.2670279999729246, 0.35030299983918667]","[0.10011309990659356, 0.18357959995046258, 0.23360249982215464, 0.3003272998612374, 0.3669586000032723]",153.45697569986805,153.65721930004656,0.0,153.65721930004656,0,0.0,0,1,1000,num_1,0.3758739000186324,,35,6,2026-03-13_13h49.24.742,2026A_exp2,2022.2.4,59.88368191499607,
1,0,4.9,0.0,0,0,36,36,47,,,,,154.0579061000608,154.70849399990402,154.70849399990402,155.19285469991155,315,45,155.19285469991155,155.19285469991155,155.19285469991155,155.19285469991155,155.19285469991155,155.19285469991155,155.19285469991155,155.19285469991155,155.19285469991155,155.55921330000274,155.55921330000274,155.55921330000274,155.55921330000274,155.55921330000274,155.55921330000274,155.55921330000274,155.55921330000274,155.55921330000274,18,3,"[0.001199999824166298, 0.11699279979802668, 0.36701299995183945]","[0.017292300006374717, 0.16707809991203249, 0.3670175999868661]",155.55921330000274,155.75945169990882,4.9,155.75945169990882,0,4.9,1,0,1000,num_1,0.5209260999690741,,35,6,2026-03-13_13h49.24.742,2026A_exp2,2022.2.4,59.88368191499607,
0,0,4.9,3.7,1,0,37,37,13,,,,,156.3099831000436,156.96066290000454,156.96066290000454,157.44496569992043,45,45,157.44496569992043,157.44496569992043,157.44496569992043,157.44496569992043,157.44496569992043,157.44496569992043,157.44496569992043,157.44496569992043,157.44496569992043,157.81137509993277,157.81137509993277,157.81137509993277,157.81137509993277,157.81137509993277,157.81137509993277,157.81137509993277,157.81137509993277,157.81137509993277,14,5,"[0.0334307998418808, 0.08359960000962019, 0.16702859988436103, 0.2170034998562187, 0.33362779999151826]","[0.05021789995953441, 0.10028749983757734, 0.18383899983018637, 0.2503209998831153, 0.3667744998820126]",157.81137509993277,158.0118124000728,4.9,158.0118124000728,1,4.9,1,1,1000,num_4,0.3329036000650376,,35,6,2026-03-13_13h49.24.742,2026A_exp2,2022.2.4,59.88368191499607,
0,0,0.0,0.0,0,0,38,38,10,,,,,158.36198160005733,159.01266220002435,159.01266220002435,159.51353070000187,315,45,159.51353070000187,159.51353070000187,159.51353070000187,159.51353070000187,159.51353070000187,159.51353070000187,159.51353070000187,159.51353070000187,159.51353070000187,159.86381180002354,159.86381180002354,159.86381180002354,159.86381180002354,159.86381180002354,159.86381180002354,159.86381180002354,159.86381180002354,159.86381180002354,18,3,"[0.08329989993944764, 0.16672380012460053, 0.3189117999281734]","[0.11666229995898902, 0.18370920000597835, 0.33523320010863245]",159.86381180002354,160.07517379987985,0.0,160.07517379987985,0,0.0,0,1,1000,num_1,0.3743346999399364,,35,6,2026-03-13_13h49.24.742,2026A_exp2,2022.2.4,59.88368191499607,
1,0,4.9,4.9,1,0,39,39,32,,,,,160.4807348998729,161.1315228000749,161.1315228000749,161.61595429992303,315,45,161.61595429992303,161.61595429992303,161.61595429992303,161.61595429992303,161.61595429992303,161.61595429992303,161.61595429992303,161.61595429992303,161.61595429992303,161.98208039999008,161.98208039999008,161.98208039999008,161.98208039999008,161.98208039999008,161.98208039999008,161.98208039999008,161.98208039999008,161.98208039999008,2,3,"[0.0011879000812768936, 0.18573999986983836, 0.31712680007331073]","[0.16888409992679954, 0.30083519988693297, 0.36721870000474155]",161.98208039999008,162.18246460007504,4.9,162.18246460007504,1,4.9,1,1,1000,num_4,0.3544420001562685,,35,6,2026-03-13_13h49.24.742,2026A_exp2,2022.2.4,59.88368191499607,
1,0,6.1,4.9,1,0,40,40,38,,,,,162.56608869996853,163.21688920003362,163.21688920003362,163.70125829987228,315,45,163.70125829987228,163.70125829987228,163.70125829987228,163.70125829987228,163.70125829987228,163.70125829987228,163.70125829987228,163.70125829987228,163.70125829987228,164.0675409999676,164.0675409999676,164.0675409999676,164.0675409999676,164.0675409999676,164.0675409999676,164.0675409999676,164.0675409999676,164.0675409999676,21,2,"[0.08318720012903214, 0.31726470007561147]","[0.10005240002647042, 0.33384139998815954]",164.0675409999676,164.26799159985967,4.9,164.26799159985967,1,4.9,1,1,1000,num_4,0.30021369992755353,,35,6,2026-03-13_13h49.24.742,2026A_exp2,2022.2.4,59.88368191499607,
1,0,6.1,0.0,1,0,41,41,29,,,,,164.5848840000108,165.2355001999531,165.2355001999531,165.7200919999741,45,315,165.7200919999741,165.7200919999741,165.7200919999741,165.7200919999741,165.7200919999741,165.7200919999741,165.7200919999741,165.7200919999741,165.7200919999741,166.08650729991496,166.08650729991496,166.08650729991496,166.08650729991496,166.08650729991496,166.08650729991496,166.08650729991496,166.08650729991496,166.08650729991496,8,6,"[0.001198899932205677, 0.03367109992541373, 0.08362819999456406, 0.13368849991820753, 0.2835969999432564, 0.31718769995495677]","[0.017459699884057045, 0.06716139987111092, 0.10022379993461072, 0.23365919990465045, 0.30029729986563325, 0.36715589999221265]",166.08650729991496,166.28672219999135,0.0,166.28672219999135,0,0.0,0,1,1000,num_1,0.6907265998888761,,35,6,2026-03-13_13h49.24.742,2026A_exp2,2022.2.4,59.88368191499607,
1000,1,3.7,0.0,0,0,42,42,28,,,,,167.0037795000244,167.65466080000624,167.65466080000624,168.13905130000785,315,45,168.13905130000785,168.13905130000785,168.13905130000785,168.13905130000785,168.13905130000785,168.13905130000785,168.13905130000785,168.13905130000785,168.13905130000785,168.50556580000557,168.50556580000557,168.50556580000557,168.50556580000557,168.50556580000557,168.50556580000557,168.50556580000557,168.50556580000557,168.50556580000557,14,5,"[0.03351280000060797, 0.09961119992658496, 0.16714200004935265, 0.23359650000929832, 0.3172009999398142]","[0.049472799990326166, 0.13332539983093739, 0.18373110005632043, 0.3002698998898268, 0.3338085999712348]",168.50556580000557,168.70738629996777,1000,168.70738629996777,1000,1000,1000,1000,0,num_3,0.5577325001358986,,35,6,2026-03-13_13h49.24.742,2026A_exp2,2022.2.4,59.88368191499607,
1,0,0.0,0.0,1,0,43,43,66,,,,,169.28966509993188,169.94038000004366,169.94038000004366,170.44130129995756,45,315,170.44130129995756,170.44130129995756,170.44130129995756,170.44130129995756,170.44130129995756,170.44130129995756,170.44130129995756,170.44130129995756,170.44130129995756,170.80776720005088,170.80776720005088,170.80776720005088,170.80776720005088,170.80776720005088,170.80776720005088,170.80776720005088,170.80776720005088,170.80776720005088,23,0,,,170.80776720005088,171.00797889987007,0.0,171.00797889987007,0,0.0,0,1,1000,num_1,0.8404565001837909,,35,6,2026-03-13_13h49.24.742,2026A_exp2,2022.2.4,59.88368191499607,
1,0,0.0,0.0,0,0,44,44,31,,,,,171.87551809987053,172.5095408000052,172.5095408000052,173.01069570006803,45,315,173.01069570006803,173.01069570006803,173.01069570006803,173.01069570006803,173.01069570006803,173.01069570006803,173.01069570006803,173.01069570006803,173.01069570006803,173.37700679991394,173.37700679991394,173.37700679991394,173.37700679991394,173.37700679991394,173.37700679991394,173.37700679991394,173.37700679991394,173.37700679991394,18,3,"[0.1670752998907119, 0.33390469988808036, 0.36702740006148815]","[0.233724300051108, 0.3503125000279397, 0.36703189997933805]",173.37700679991394,173.57715829997323,0.0,173.57715829997323,0,0.0,0,1,1000,num_1,0.6952931000851095,,35,6,2026-03-13_13h49.24.742,2026A_exp2,2022.2.4,59.88368191499607,
1000,1,0.0,6.1,1,0,45,45,40,,,,,174.29459790000692,174.94529389985837,174.94529389985837,175.42987049999647,315,45,175.42987049999647,175.42987049999647,175.42987049999647,175.42987049999647,175.42987049999647,175.42987049999647,175.42987049999647,175.42987049999647,175.42987049999647,175.79607410007156,175.79607410007156,175.79607410007156,175.79607410007156,175.79607410007156,175.79607410007156,175.79607410007156,175.79607410007156,175.79607410007156,17,3,"[0.01702530006878078, 0.04921280010603368, 0.14986469992436469]","[0.03249919996596873, 0.08267719997093081, 0.19982039998285472]",175.79607410007156,175.99651760002598,1000,175.99651760002598,1000,1000,1000,1000,1,num_2,0.5562291999813169,,35,6,2026-03-13_13h49.24.742,2026A_exp2,2022.2.4,59.88368191499607,
1,0,0.0,6.1,1,0,46,46,39,,,,,176.58014920004643,177.21417089994065,177.21417089994065,177.71541509986855,45,315,177.71541509986855,177.71541509986855,177.71541509986855,177.71541509986855,177.71541509986855,177.71541509986855,177.71541509986855,177.71541509986855,177.71541509986855,178.08191860001534,178.08191860001534,178.08191860001534,178.08191860001534,178.08191860001534,178.08191860001534,178.08191860001534,178.08191860001534,178.08191860001534,21,1,[0.2006190000101924],[0.2339333000127226],178.08191860001534,178.28200570004992,6.1,178.28200570004992,1,6.1,1,1,1000,num_4,0.4383411000017077,,35,6,2026-03-13_13h49.24.742,2026A_exp2,2022.2.4,59.88368191499607,
1000,1,4.9,0.0,0,0,47,47,82,,,,,178.74897999991663,179.39978559990413,179.39978559990413,179.88408320001327,45,45,179.88408320001327,179.88408320001327,179.88408320001327,179.88408320001327,179.88408320001327,179.88408320001327,179.88408320001327,179.88408320001327,179.88408320001327,180.25070309988223,180.25070309988223,180.25070309988223,180.25070309988223,180.25070309988223,180.25070309988223,180.25070309988223,180.25070309988223,180.25070309988223,18,4,"[0.03363099996931851, 0.18330209981650114, 0.26716939988546073, 0.3337150998413563]","[0.06701649981550872, 0.20014079986140132, 0.28371079987846315, 0.35040949983522296]",180.25070309988223,180.45251420000568,1000,180.45251420000568,1000,1000,1000,1000,0,num_3,0.40388059988617897,,35,6,2026-03-13_13h49.24.742,2026A_exp2,2022.2.4,59.88368191499607,
1000,1,6.1,3.7,0,0,48,48,43,,,,,180.8843618000392,181.53489269991405,181.53489269991405,182.03623449988663,45,45,182.03623449988663,182.03623449988663,182.03623449988663,182.03623449988663,182.03623449988663,182.03623449988663,182.03623449988663,182.03623449988663,182.03623449988663,182.4028020000551,182.4028020000551,182.4028020000551,182.4028020000551,182.4028020000551,182.4028020000551,182.4028020000551,182.4028020000551,182.4028020000551,20,3,"[0.01717360015027225, 0.06691640010103583, 0.16682630009017885]","[0.03324900008738041, 0.08341410011053085, 0.18380250013433397]",182.4028020000551,182.6042450000532,1000,182.6042450000532,1000,1000,1000,1000,1,num_2,0.5243102998938411,,35,6,2026-03-13_13h49.24.742,2026A_exp2,2022.2.4,59.88368191499607,
1,0,6.1,0.0,0,0,49,49,58,,,,,183.15356069989502,183.804219200043,183.804219200043,184.3053462000098,315,315,184.3053462000098,184.3053462000098,184.3053462000098,184.3053462000098,184.3053462000098,184.3053462000098,184.3053462000098,184.3053462000098,184.3053462000098,184.67172509990633,184.67172509990633,184.67172509990633,184.67172509990633,184.67172509990633,184.67172509990633,184.67172509990633,184.67172509990633,184.67172509990633,17,3,"[0.0012202998623251915, 0.08355970005504787, 0.20038529997691512]","[0.050133900018408895, 0.11692860000766814, 0.21698720008134842]",184.67172509990633,184.87185460003093,6.1,184.87185460003093,0,6.1,1,0,1000,num_1,0.7053026999346912,,35,6,2026-03-13_13h49.24.742,2026A_exp2,2022.2.4,59.88368191499607,
1000,1,0.0,3.7,0,0,50,50,18,,,,,185.60587319987826,186.25658480008133,186.25658480008133,186.74096129997633,45,45,186.74096129997633,186.74096129997633,186.74096129997633,186.74096129997633,186.74096129997633,186.74096129997633,186.74096129997633,186.74096129997633,186.74096129997633,187.10750989988446,187.10750989988446,187.10750989988446,187.10750989988446,187.10750989988446,187.10750989988446,187.10750989988446,187.10750989988446,187.10750989988446,23,0,,,187.10750989988446,187.30938609992154,1000,187.30938609992154,1000,1000,1000,1000,1,num_2,0.731259899912402,,35,6,2026-03-13_13h49.24.742,2026A_exp2,2022.2.4,59.88368191499607,
0,0,3.7,0.0,0,0,51,51,16,,,,,188.05816600006074,188.70905359997414,188.70905359997414,189.2102479999885,315,45,189.2102479999885,189.2102479999885,189.2102479999885,189.2102479999885,189.2102479999885,189.2102479999885,189.2102479999885,189.2102479999885,189.2102479999885,189.5766388999764,189.5766388999764,189.5766388999764,189.5766388999764,189.5766388999764,189.5766388999764,189.5766388999764,189.5766388999764,189.5766388999764,19,2,"[0.20050929998978972, 0.300494700204581]","[0.25042900000698864, 0.31721790018491447]",189.5766388999764,189.77687389985658,0.0,189.77687389985658,0,0.0,0,1,1000,num_1,0.7363548001740128,,35,6,2026-03-13_13h49.24.742,2026A_exp2,2022.2.4,59.88368191499607,
0,0,0.0,6.1,1,0,52,52,84,,,,,190.54409009986557,191.19490449992009,191.19490449992009,191.67928380006924,315,315,191.67928380006924,191.67928380006924,191.67928380006924,191.67928380006924,191.67928380006924,191.67928380006924,191.67928380006924,191.67928380006924,191.67928380006924,192.04580169986002,192.04580169986002,192.04580169986002,192.04580169986002,192.04580169986002,192.04580169986002,192.04580169986002,192.04580169986002,192.04580169986002,21,1,[0.26721780002117157],[0.30029449984431267],192.04580169986002,192.24559369985946,0.0,192.24559369985946,0,0.0,0,1,1000,num_1,0.795378599781543,,35,6,2026-03-13_13h49.24.742,2026A_exp2,2022.2.4,59.88368191499607,
1,0,0.0,0.0,0,0,53,53,75,,,,,193.0633366999682,193.7139677000232,193.7139677000232,194.19852979993448,45,315,194.19852979993448,194.19852979993448,194.19852979993448,194.19852979993448,194.19852979993448,194.19852979993448,194.19852979993448,194.19852979993448,194.19852979993448,194.56479079998098,194.56479079998098,194.56479079998098,194.56479079998098,194.56479079998098,194.56479079998098,194.56479079998098,194.56479079998098,194.56479079998098,18,4,"[0.03339310013689101, 0.25042150006629527, 0.2837137000169605, 0.3338024001568556]","[0.06674810010008514, 0.266689500072971, 0.3000642000697553, 0.3504347000271082]",194.56479079998098,194.76502149994485,0.0,194.76502149994485,0,0.0,0,1,1000,num_1,0.724251699866727,,35,6,2026-03-13_13h49.24.742,2026A_exp2,2022.2.4,59.88368191499607,
1000,1,0.0,0.0,0,0,54,54,33,,,,,195.51588719990104,196.166609399952,196.166609399952,196.65077619999647,315,315,196.65077619999647,196.65077619999647,196.65077619999647,196.65077619999647,196.65077619999647,196.65077619999647,196.65077619999647,196.65077619999647,196.65077619999647,197.0174304000102,197.0174304000102,197.0174304000102,197.0174304000102,197.0174304000102,197.0174304000102,197.0174304000102,197.0174304000102,197.0174304000102,21,2,"[0.2838344001211226, 0.3672126999590546]","[0.3003984000533819, 0.36721709999255836]",197.0174304000102,197.21923470008187,1000,197.21923470008187,1000,1000,1000,1000,0,num_3,0.9970863000489771,,35,6,2026-03-13_13h49.24.742,2026A_exp2,2022.2.4,59.88368191499607,
1000,1,0.0,0.0,1,0,55,55,72,,,,,198.23522339994088,198.8859750998672,198.8859750998672,199.38695539999753,45,315,199.38695539999753,199.38695539999753,199.38695539999753,199.38695539999753,199.38695539999753,199.38695539999753,199.38695539999753,199.38695539999753,199.38695539999753,199.75346209993586,199.75346209993586,199.75346209993586,199.75346209993586,199.75346209993586,199.75346209993586,199.75346209993586,199.75346209993586,199.75346209993586,15,5,"[0.08355580014176667, 0.11696070013567805, 0.166983500123024, 0.2836941999848932, 0.36711320001631975]","[0.10033900011330843, 0.15020109992474318, 0.20036419993266463, 0.3171387000475079, 0.36711989995092154]",199.75346209993586,199.9595659999177,1000,199.9595659999177,1000,1000,1000,1000,1,num_2,0.42473089997656643,,35,6,2026-03-13_13h49.24.742,2026A_exp2,2022.2.4,59.88368191499607,
0,0,0.0,0.0,0,0,56,56,20,,,,,200.4039785999339,201.0548125000205,201.0548125000205,201.55587989999913,45,315,201.55587989999913,201.55587989999913,201.55587989999913,201.55587989999913,201.55587989999913,201.55587989999913,201.55587989999913,201.55587989999913,201.55587989999913,201.92231000005268,201.92231000005268,201.92231000005268,201.92231000005268,201.92231000005268,201.92231000005268,201.92231000005268,201.92231000005268,201.92231000005268,14,1,[0.033684900030493736],[0.18370459997095168],201.92231000005268,202.12242239993066,0.0,202.12242239993066,0,0.0,0,1,1000,num_1,0.6064775998238474,,35,6,2026-03-13_13h49.24.742,2026A_exp2,2022.2.4,59.88368191499607,
1,0,4.9,0.0,0,0,57,57,57,,,,,202.75636109989136,203.40701050008647,203.40701050008647,203.89142429991625,315,315,203.89142429991625,203.89142429991625,203.89142429991625,203.89142429991625,203.89142429991625,203.89142429991625,203.89142429991625,203.89142429991625,203.89142429991625,204.2580363000743,204.2580363000743,204.2580363000743,204.2580363000743,204.2580363000743,204.2580363000743,204.2580363000743,204.2580363000743,204.2580363000743,9,3,"[0.0172408998478204, 0.13363709999248385, 0.3170505999587476]","[0.1166709999088198, 0.2337112999521196, 0.36720199999399483]",204.2580363000743,204.4582541999407,4.9,204.4582541999407,1,4.9,1,1,1000,num_4,0.415218299953267,,35,6,2026-03-13_13h49.24.742,2026A_exp2,2022.2.4,59.88368191499607,
1000,1,4.9,4.9,1,0,58,58,67,,,,,204.89169389987364,205.5258561000228,205.5258561000228,206.02697589993477,45,315,206.02697589993477,206.02697589993477,206.02697589993477,206.02697589993477,206.02697589993477,206.02697589993477,206.02697589993477,206.02697589993477,206.02697589993477,206.39343299996108,206.39343299996108,206.39343299996108,206.39343299996108,206.39343299996108,206.39343299996108,206.39343299996108,206.39343299996108,206.39343299996108,18,3,"[0.0011911001056432724, 0.033647100208327174, 0.30062430002726614]","[0.017229400109499693, 0.06702090008184314, 0.33399910014122725]",206.39343299996108,206.59551599994302,1000,206.59551599994302,1000,1000,1000,1000,1,num_2,0.7255122000351548,,35,6,2026-03-13_13h49.24.742,2026A_exp2,2022.2.4,59.88368191499607,
1000,1,3.7,3.7,1,0,59,59,25,,,,,207.3443501999136,207.9950598999858,207.9950598999858,208.49611059995368,45,315,208.49611059995368,208.49611059995368,208.49611059995368,208.49611059995368,208.49611059995368,208.49611059995368,208.49611059995368,208.49611059995368,208.49611059995368,208.86262580007315,208.86262580007315,208.86262580007315,208.86262580007315,208.86262580007315,208.86262580007315,208.86262580007315,208.86262580007315,208.86262580007315,23,0,,,208.86262580007315,209.0644121998921,1000,209.0644121998921,1000,1000,1000,1000,1,num_2,0.47252029995433986,,35,6,2026-03-13_13h49.24.742,2026A_exp2,2022.2.4,59.88368191499607,
1000,1,4.9,6.1,0,0,60,60,59,,,,,209.56316679995507,210.21398849994875,210.21398849994875,210.71508109988645,315,315,210.71508109988645,210.71508109988645,210.71508109988645,210.71508109988645,210.71508109988645,210.71508109988645,210.71508109988645,210.71508109988645,210.71508109988645,211.081418100046,211.081418100046,211.081418100046,211.081418100046,211.081418100046,211.081418100046,211.081418100046,211.081418100046,211.081418100046,13,6,"[0.10017520003020763, 0.13361539994366467, 0.2338377998676151, 0.2672778000123799, 0.3003887999802828, 0.3671099999919534]","[0.11690309992991388, 0.20031860005110502, 0.25013369997031987, 0.28382420004345477, 0.3335488000884652, 0.36711520003154874]",211.081418100046,211.28341749985702,1000,211.28341749985702,1000,1000,1000,1000,1,num_2,0.4455732998903841,,35,6,2026-03-13_13h49.24.742,2026A_exp2,2022.2.4,59.88368191499607,
0,0,6.1,0.0,0,0,61,61,65,,,,,211.7488048998639,212.39946600003168,212.39946600003168,212.88374869991094,45,315,212.88374869991094,212.88374869991094,212.88374869991094,212.88374869991094,212.88374869991094,212.88374869991094,212.88374869991094,212.88374869991094,212.88374869991094,213.2501890999265,213.2501890999265,213.2501890999265,213.2501890999265,213.2501890999265,213.2501890999265,213.2501890999265,213.2501890999265,213.2501890999265,20,3,"[0.0012064001057296991, 0.06695230002515018, 0.10038439999334514]","[0.017240199958905578, 0.08352100010961294, 0.11663920013234019]",213.2501890999265,213.45051250001416,0.0,213.45051250001416,0,0.0,0,1,1000,num_1,0.8299722999799997,,35,6,2026-03-13_13h49.24.742,2026A_exp2,2022.2.4,59.88368191499607,
1,0,0.0,3.7,0,0,62,62,34,,,,,214.30159819987603,214.95203759986907,214.95203759986907,215.43648899998516,315,315,215.43648899998516,215.43648899998516,215.43648899998516,215.43648899998516,215.43648899998516,215.43648899998516,215.43648899998516,215.43648899998516,215.43648899998516,215.80284140002914,215.80284140002914,215.80284140002914,215.80284140002914,215.80284140002914,215.80284140002914,215.80284140002914,215.80284140002914,215.80284140002914,9,9,"[0.0012197000905871391, 0.050242200028151274, 0.08376340009272099, 0.13373990007676184, 0.20058370009064674, 0.25079980003647506, 0.3006748999468982, 0.33400409994646907, 0.3673801999539137]","[0.03344059991650283, 0.06706120003946126, 0.11673959996551275, 0.1835914000403136, 0.21694930014200509, 0.28360039996914566, 0.3173023001290858, 0.350703600095585, 0.36738539999350905]",215.80284140002914,216.00312220002525,0.0,216.00312220002525,1,0.0,0,0,1000,num_4,1.174527799943462,,35,6,2026-03-13_13h49.24.742,2026A_exp2,2022.2.4,59.88368191499607,
1,0,6.1,0.0,1,0,63,63,41,,,,,217.20406919997185,217.85494480002671,217.85494480002671,218.3393280999735,315,315,218.3393280999735,218.3393280999735,218.3393280999735,218.3393280999735,218.3393280999735,218.3393280999735,218.3393280999735,218.3393280999735,218.3393280999735,218.70572469988838,218.70572469988838,218.70572469988838,218.70572469988838,218.70572469988838,218.70572469988838,218.70572469988838,218.70572469988838,218.70572469988838,16,3,"[0.050279999850317836, 0.15015629981644452, 0.26712019997648895]","[0.10021489998325706, 0.18363039987161756, 0.3005091999657452]",218.70572469988838,218.90584179991856,0.0,218.90584179991856,0,0.0,0,1,1000,num_1,0.5428267000243068,,35,6,2026-03-13_13h49.24.742,2026A_exp2,2022.2.4,59.88368191499607,
1000,1,0.0,6.1,0,0,64,64,85,,,,,219.47291480004787,220.10719610005617,220.10719610005617,220.60819819988683,315,45,220.60819819988683,220.60819819988683,220.60819819988683,220.60819819988683,220.60819819988683,220.60819819988683,220.60819819988683,220.60819819988683,220.60819819988683,220.9747733999975,220.9747733999975,220.9747733999975,220.9747733999975,220.9747733999975,220.9747733999975,220.9747733999975,220.9747733999975,220.9747733999975,18,2,"[0.21742989984340966, 0.30070669995620847]","[0.2505912999622524, 0.3674653999041766]",220.9747733999975,221.1766472000163,1000,221.1766472000163,1000,1000,1000,1000,1,num_2,0.7442043998744339,,35,6,2026-03-13_13h49.24.742,2026A_exp2,2022.2.4,59.88368191499607,
1,0,0.0,0.0,0,0,65,65,64,,,,,221.9426158000715,222.5930236999411,222.5930236999411,223.0773849999532,315,315,223.0773849999532,223.0773849999532,223.0773849999532,223.0773849999532,223.0773849999532,223.0773849999532,223.0773849999532,223.0773849999532,223.0773849999532,223.4438239999581,223.4438239999581,223.4438239999581,223.4438239999581,223.4438239999581,223.4438239999581,223.4438239999581,223.4438239999581,223.4438239999581,22,1,[0.017265200149267912],[0.033396300161257386],223.4438239999581,223.64394579990767,0.0,223.64394579990767,0,0.0,0,1,1000,num_1,0.412999999942258,,35,6,2026-03-13_13h49.24.742,2026A_exp2,2022.2.4,59.88368191499607,
1000,1,4.9,3.7,1,0,66,66,46,,,,,224.0776964998804,224.72834889986552,224.72834889986552,225.21277009998448,45,45,225.21277009998448,225.21277009998448,225.21277009998448,225.21277009998448,225.21277009998448,225.21277009998448,225.21277009998448,225.21277009998448,225.21277009998448,225.57930439990014,225.57930439990014,225.57930439990014,225.57930439990014,225.57930439990014,225.57930439990014,225.57930439990014,225.57930439990014,225.57930439990014,11,6,"[0.0011962000280618668, 0.05009300005622208, 0.1168281000573188, 0.2003462000284344, 0.26708900020457804, 0.33381820004433393]","[0.017205300042405725, 0.1002137002069503, 0.1335137002170086, 0.21692070015706122, 0.3171083000488579, 0.3671232000924647]",225.57930439990014,225.78122400003485,1000,225.78122400003485,1000,1000,1000,1000,1,num_2,0.4190293999854475,,35,6,2026-03-13_13h49.24.742,2026A_exp2,2022.2.4,59.88368191499607,
1,0,6.1,0.0,1,0,67,67,53,,,,,226.22981199994683,226.8814731000457,226.8814731000457,227.38175019994378,315,45,227.38175019994378,227.38175019994378,227.38175019994378,227.38175019994378,227.38175019994378,227.38175019994378,227.38175019994378,227.38175019994378,227.38175019994378,227.74814949999563,227.74814949999563,227.74814949999563,227.74814949999563,227.74814949999563,227.74814949999563,227.74814949999563,227.74814949999563,227.74814949999563,13,6,"[0.017486999975517392, 0.06708110007457435, 0.16699360008351505, 0.21719440002925694, 0.3172726999036968, 0.3673316999338567]","[0.03339400002732873, 0.13333690003491938, 0.18375819991342723, 0.25038759992457926, 0.33392370003275573, 0.3673360999673605]",227.74814949999563,227.94839429995045,0.0,227.94839429995045,0,0.0,0,1,1000,num_1,0.5810038999188691,,35,6,2026-03-13_13h49.24.742,2026A_exp2,2022.2.4,59.88368191499607,
1,0,6.1,0.0,0,0,68,68,22,,,,,228.5488094999455,229.19962369999848,229.19962369999848,229.68389529990964,315,315,229.68389529990964,229.68389529990964,229.68389529990964,229.68389529990964,229.68389529990964,229.68389529990964,229.68389529990964,229.68389529990964,229.68389529990964,230.05034690001048,230.05034690001048,230.05034690001048,230.05034690001048,230.05034690001048,230.05034690001048,230.05034690001048,230.05034690001048,230.05034690001048,18,5,"[0.001218699850142002, 0.05008079996332526, 0.11690269992686808, 0.16686269990168512, 0.20025080000050366]","[0.01714769983664155, 0.06677539995871484, 0.1336591998115182, 0.18355429987423122, 0.2169739999808371]",230.05034690001048,230.25063319993205,6.1,230.25063319993205,1,6.1,1,1,1000,num_4,1.3909612998832017,,35,6,2026-03-13_13h49.24.742,2026A_exp2,2022.2.4,59.88368191499607,
1000,1,4.9,4.9,0,0,69,69,36,,,,,231.66859270003624,232.31942040007561,232.31942040007561,232.82028679992072,45,45,232.82028679992072,232.82028679992072,232.82028679992072,232.82028679992072,232.82028679992072,232.82028679992072,232.82028679992072,232.82028679992072,232.82028679992072,233.18687189999036,233.18687189999036,233.18687189999036,233.18687189999036,233.18687189999036,233.18687189999036,233.18687189999036,233.18687189999036,233.18687189999036,10,6,"[0.0011868998408317566, 0.10011360002681613, 0.13356159999966621, 0.16694339993409812, 0.2669235998764634, 0.3337104998063296]","[0.08355689980089664, 0.11657579988241196, 0.15010249987244606, 0.20026049995794892, 0.2838155999779701, 0.36711300001479685]",233.18687189999036,233.3891992000863,1000,233.3891992000863,1000,1000,1000,1000,1,num_2,0.7564497001003474,,35,6,2026-03-13_13h49.24.742,2026A_exp2,2022.2.4,59.88368191499607,
1,0,0.0,4.9,1,0,70,70,2,,,,,234.17107330006547,234.8219107000623,234.8219107000623,235.3229795000516,45,45,235.3229795000516,235.3229795000516,235.3229795000516,235.3229795000516,235.3229795000516,235.3229795000516,235.3229795000516,235.3229795000516,235.3229795000516,235.67266330006532,235.67266330006532,235.67266330006532,235.67266330006532,235.67266330006532,235.67266330006532,235.67266330006532,235.67266330006532,235.67266330006532,3,3,"[0.001221999991685152, 0.06679650000296533, 0.20035870000720024]","[0.04991700011305511, 0.16659709997475147, 0.35019430005922914]",235.67266330006532,235.87288399995305,4.9,235.88966390001588,0,4.9,1,0,1000,num_1,1.0386860999278724,,35,6,2026-03-13_13h49.24.742,2026A_exp2,2022.2.4,59.88368191499607,
1,0,0.0,0.0,1,0,71,71,77,,,,,236.95749659999274,237.6080704999622,237.6080704999622,238.10903689987026,315,45,238.10903689987026,238.10903689987026,238.10903689987026,238.10903689987026,238.10903689987026,238.10903689987026,238.10903689987026,238.10903689987026,238.10903689987026,238.45884649991058,238.45884649991058,238.45884649991058,238.45884649991058,238.45884649991058,238.45884649991058,238.45884649991058,238.45884649991058,238.45884649991058,22,1,[0.35032469988800585],[0.3503290999215096],238.45884649991058,238.65901129995473,0.0,238.65901129995473,0,0.0,0,1,1000,num_1,0.9342257000971586,,35,6,2026-03-13_13h49.24.742,2026A_exp2,2022.2.4,59.88368191499607,
0,0,0.0,6.1,0,0,72,72,30,,,,,239.60980880004354,240.26057239994407,240.26057239994407,240.7618273999542,315,45,240.7618273999542,240.7618273999542,240.7618273999542,240.7618273999542,240.7618273999542,240.7618273999542,240.7618273999542,240.7618273999542,240.7618273999542,241.11148129985668,241.11148129985668,241.11148129985668,241.11148129985668,241.11148129985668,241.11148129985668,241.11148129985668,241.11148129985668,241.11148129985668,22,0,,,241.11148129985668,241.31164449988864,6.1,241.31164449988864,1,6.1,1,1,1000,num_4,1.06511429999955,,35,6,2026-03-13_13h49.24.742,2026A_exp2,2022.2.4,59.88368191499607,
1000,1,4.9,6.1,0,0,73,73,35,,,,,242.39589669997804,243.04676959989592,243.04676959989592,243.53108199988492,45,315,243.53108199988492,243.53108199988492,243.53108199988492,243.53108199988492,243.53108199988492,243.53108199988492,243.53108199988492,243.53108199988492,243.53108199988492,243.89745599986054,243.89745599986054,243.89745599986054,243.89745599986054,243.89745599986054,243.89745599986054,243.89745599986054,243.89745599986054,243.89745599986054,22,1,[0.050175700103864074],[0.0668348001781851],243.89745599986054,244.09955829987302,1000,244.09955829987302,1000,1000,1000,1000,1,num_2,0.42969999997876585,,35,6,2026-03-13_13h49.24.742,2026A_exp2,2022.2.4,59.88368191499607,
1,0,4.9,3.7,0,0,74,74,89,,,,,244.54814000008628,245.19878049986437,245.19878049986437,245.69998489995487,45,45,245.69998489995487,245.69998489995487,245.69998489995487,245.69998489995487,245.69998489995487,245.69998489995487,245.69998489995487,245.69998489995487,245.69998489995487,246.06626780005172,246.06626780005172,246.06626780005172,246.06626780005172,246.06626780005172,246.06626780005172,246.06626780005172,246.06626780005172,246.06626780005172,6,6,"[0.0012014999520033598, 0.050351299811154604, 0.11710509983822703, 0.1838908998761326, 0.23390170000493526, 0.2672951999120414]","[0.017558999825268984, 0.1005432999227196, 0.16713189985603094, 0.21720209997147322, 0.25049160001799464, 0.36745679983869195]",246.06626780005172,246.26662979996763,4.9,246.26662979996763,0,4.9,1,0,1000,num_1,0.7259481998626143,,35,6,2026-03-13_13h49.24.742,2026A_exp2,2022.2.4,59.88368191499607,
1,0,0.0,4.9,0,0,75,75,9,,,,,247.0183482998982,247.6679171998985,247.6679171998985,248.15250759990886,315,315,248.15250759990886,248.15250759990886,248.15250759990886,248.15250759990886,248.15250759990886,248.15250759990886,248.15250759990886,248.15250759990886,248.15250759990886,248.51888950006105,248.51888950006105,248.51888950006105,248.51888950006105,248.51888950006105,248.51888950006105,248.51888950006105,248.51888950006105,248.51888950006105,9,5,"[0.0012675998732447624, 0.11701139993965626, 0.16699899989180267, 0.23368890001438558, 0.35056659998372197]","[0.06686090002767742, 0.15033219987526536, 0.2168562998995185, 0.3005768000148237, 0.3671071999706328]",248.51888950006105,248.71914569986984,0.0,248.71914569986984,0,0.0,0,1,1000,num_1,0.7302324001211673,,35,6,2026-03-13_13h49.24.742,2026A_exp2,2022.2.4,59.88368191499607,
1,0,3.7,0.0,1,0,76,76,55,,,,,249.46967549994588,250.1206139998976,250.1206139998976,250.6349577999208,315,45,250.6349577999208,250.6349577999208,250.6349577999208,250.6349577999208,250.6349577999208,250.6349577999208,250.6349577999208,250.6349577999208,250.6349577999208,250.98780100001022,250.98780100001022,250.98780100001022,250.98780100001022,250.98780100001022,250.98780100001022,250.98780100001022,250.98780100001022,250.98780100001022,8,7,"[0.003794899908825755, 0.046338099986314774, 0.09712329995818436, 0.13028549985028803, 0.19743900001049042, 0.29760369984433055, 0.3311375000048429]","[0.030639200005680323, 0.06751520000398159, 0.11376750003546476, 0.18062529992312193, 0.2641095998696983, 0.3143867999315262, 0.36436369991861284]",250.98780100001022,251.1882843999192,0.0,251.1882843999192,0,0.0,0,1,1000,num_1,0.8451892999000847,,35,6,2026-03-13_13h49.24.742,2026A_exp2,2022.2.4,59.88368191499607,
1,0,4.9,6.1,1,0,77,77,62,,,,,252.0558044000063,252.70644270000048,252.70644270000048,253.20737209985964,315,45,253.20737209985964,253.20737209985964,253.20737209985964,253.20737209985964,253.20737209985964,253.20737209985964,253.20737209985964,253.20737209985964,253.20737209985964,253.5572013000492,253.5572013000492,253.5572013000492,253.5572013000492,253.5572013000492,253.5572013000492,253.5572013000492,253.5572013000492,253.5572013000492,6,3,"[0.033271800028160214, 0.11695250007323921, 0.25011210003867745]","[0.06687059998512268, 0.23323410004377365, 0.3504490000195801]",253.5572013000492,253.75743789994158,6.1,253.75743789994158,1,6.1,1,1,1000,num_4,0.37947720009833574,,35,6,2026-03-13_13h49.24.742,2026A_exp2,2022.2.4,59.88368191499607,
1,0,0.0,3.7,1,0,78,78,83,,,,,254.1576509999577,254.8084072000347,254.8084072000347,255.29416209994815,315,315,255.29416209994815,255.29416209994815,255.29416209994815,255.29416209994815,255.29416209994815,255.29416209994815,255.29416209994815,255.29416209994815,255.29416209994815,255.65889919991605,255.65889919991605,255.65889919991605,255.65889919991605,255.65889919991605,255.65889919991605,255.65889919991605,255.65889919991605,255.65889919991605,9,2,"[0.09921730007044971, 0.2159893000498414]","[0.18248470011167228, 0.3659494000021368]",255.65889919991605,255.85949379997328,3.7,255.85949379997328,1,3.7,1,1,1000,num_4,0.6848238001111895,,35,6,2026-03-13_13h49.24.742,2026A_exp2,2022.2.4,59.88368191499607,
1000,1,0.0,0.0,1,0,79,79,80,,,,,256.57665449986234,257.22740480001085,257.22740480001085,257.7117403000593,315,45,257.7117403000593,257.7117403000593,257.7117403000593,257.7117403000593,257.7117403000593,257.7117403000593,257.7117403000593,257.7117403000593,257.7117403000593,258.0781904000323,258.0781904000323,258.0781904000323,258.0781904000323,258.0781904000323,258.0781904000323,258.0781904000323,258.0781904000323,258.0781904000323,20,2,"[0.10061109997332096, 0.3339966000057757]","[0.11722470005042851, 0.3675196000840515]",258.0781904000323,258.2787456000224,1000,258.2787456000224,1000,1000,1000,1000,1,num_2,0.666088400175795,,35,6,2026-03-13_13h49.24.742,2026A_exp2,2022.2.4,59.88368191499607,
1000,1,3.7,0.0,1,0,80,80,54,,,,,258.96276580006815,259.61301440000534,259.61301440000534,260.09753610007465,45,45,260.09753610007465,260.09753610007465,260.09753610007465,260.09753610007465,260.09753610007465,260.09753610007465,260.09753610007465,260.09753610007465,260.09753610007465,260.4639300000854,260.4639300000854,260.4639300000854,260.4639300000854,260.4639300000854,260.4639300000854,260.4639300000854,260.4639300000854,260.4639300000854,18,4,"[0.13357730000279844, 0.2002144001889974, 0.23360580019652843, 0.35010470007546246]","[0.1500395000912249, 0.21683490020222962, 0.2502478000242263, 0.36710910010151565]",260.4639300000854,260.6645621000789,1000,260.6645621000789,1000,1000,1000,1000,1,num_2,0.4720054001081735,,35,6,2026-03-13_13h49.24.742,2026A_exp2,2022.2.4,59.88368191499607,
1,0,0.0,0.0,1,0,81,81,68,,,,,261.1649625999853,261.8153959000483,261.8153959000483,262.3166197000537,315,315,262.3166197000537,262.3166197000537,262.3166197000537,262.3166197000537,262.3166197000537,262.3166197000537,262.3166197000537,262.3166197000537,262.3166197000537,262.683030199958,262.683030199958,262.683030199958,262.683030199958,262.683030199958,262.683030199958,262.683030199958,262.683030199958,262.683030199958,12,7,"[0.033448300091549754, 0.10013310005888343, 0.13349070004187524, 0.21703459997661412, 0.2503744999412447, 0.3004709000233561, 0.3337862000335008]","[0.06648229993879795, 0.11666700011119246, 0.16660190001130104, 0.23373320000246167, 0.2834185999818146, 0.31704590003937483, 0.36681949999183416]",262.683030199958,262.8833079999313,0.0,262.8833079999313,0,0.0,0,1,1000,num_1,0.5013875998556614,,35,6,2026-03-13_13h49.24.742,2026A_exp2,2022.2.4,59.88368191499607,
1,0,3.7,0.0,0,0,82,82,15,,,,,263.40050089987926,264.05113040003926,264.05113040003926,264.55214480008,45,315,264.55214480008,264.55214480008,264.55214480008,264.55214480008,264.55214480008,264.55214480008,264.55214480008,264.55214480008,264.55214480008,264.9019728000276,264.9019728000276,264.9019728000276,264.9019728000276,264.9019728000276,264.9019728000276,264.9019728000276,264.9019728000276,264.9019728000276,10,7,"[0.01740600005723536, 0.08375540003180504, 0.1169813999440521, 0.16719569987617433, 0.2171871999744326, 0.3172891999129206, 0.35059849987737834]","[0.06695759994909167, 0.09998869989067316, 0.15041400003246963, 0.2005338000599295, 0.26693539996631444, 0.3339102999307215, 0.3506034000311047]",264.9019728000276,265.10214189998806,3.7,265.10214189998806,0,3.7,1,0,1000,num_1,0.9387834998778999,,35,6,2026-03-13_13h49.24.742,2026A_exp2,2022.2.4,59.88368191499607,
1000,1,0.0,0.0,1,0,83,83,63,,,,,266.06968229985796,266.720432800008,266.720432800008,267.2047462000046,45,315,267.2047462000046,267.2047462000046,267.2047462000046,267.2047462000046,267.2047462000046,267.2047462000046,267.2047462000046,267.2047462000046,267.2047462000046,267.571271300083,267.571271300083,267.571271300083,267.571271300083,267.571271300083,267.571271300083,267.571271300083,267.571271300083,267.571271300083,17,4,"[0.15105030010454357, 0.20094410004094243, 0.23444150015711784, 0.3011739000212401]","[0.18441520002670586, 0.2177697999868542, 0.2676654001697898, 0.31784440018236637]",267.571271300083,267.77288699988276,1000,267.77288699988276,1000,1000,1000,1000,1,num_2,0.7236492000520229,,35,6,2026-03-13_13h49.24.742,2026A_exp2,2022.2.4,59.88368191499607,
1,0,6.1,3.7,1,0,84,84,45,,,,,268.5223359998781,269.172884499887,269.172884499887,269.67904109996744,315,45,269.67904109996744,269.67904109996744,269.67904109996744,269.67904109996744,269.67904109996744,269.67904109996744,269.67904109996744,269.67904109996744,269.67904109996744,270.04041530005634,270.04041530005634,270.04041530005634,270.04041530005634,270.04041530005634,270.04041530005634,270.04041530005634,270.04041530005634,270.04041530005634,14,4,"[0.020416600164026022, 0.11488370015285909, 0.21546180010773242, 0.3322761000599712]","[0.04847090016119182, 0.16510350001044571, 0.24890280002728105, 0.3656838999595493]",270.04041530005634,270.24057439994067,3.7,270.24057439994067,0,3.7,1,0,1000,num_1,0.48816419998183846,,35,6,2026-03-13_13h49.24.742,2026A_exp2,2022.2.4,59.88368191499607,
1000,1,0.0,3.7,1,0,85,85,7,,,,,270.7579184998758,271.4081917000003,271.4081917000003,271.90966530004516,315,45,271.90966530004516,271.90966530004516,271.90966530004516,271.90966530004516,271.90966530004516,271.90966530004516,271.90966530004516,271.90966530004516,271.90966530004516,272.25933549995534,272.25933549995534,272.25933549995534,272.25933549995534,272.25933549995534,272.25933549995534,272.25933549995534,272.25933549995534,272.25933549995534,9,4,"[0.0007402999326586723, 0.11700759991072118, 0.1840146998874843, 0.300796200055629]","[0.10012009995989501, 0.15072760009206831, 0.23377220006659627, 0.33411099994555116]",272.25933549995534,272.4605882000178,1000,272.4761981999036,1000,1000,1000,1000,1,num_2,0.46866500005126,,35,6,2026-03-13_13h49.24.742,2026A_exp2,2022.2.4,59.88368191499607,
1,0,3.7,0.0,1,0,86,86,73,,,,,272.9601250998676,273.6105712999124,273.6105712999124,274.1118000999559,315,45,274.1118000999559,274.1118000999559,274.1118000999559,274.1118000999559,274.1118000999559,274.1118000999559,274.1118000999559,274.1118000999559,274.1118000999559,274.47817560005933,274.47817560005933,274.47817560005933,274.47817560005933,274.47817560005933,274.47817560005933,274.47817560005933,274.47817560005933,274.47817560005933,8,5,"[0.017541599925607443, 0.08360680006444454, 0.11695619998499751, 0.2506073000840843, 0.28383459988981485]","[0.050265399971976876, 0.10014019999653101, 0.2003496999386698, 0.26680879993364215, 0.36722170002758503]",274.47817560005933,274.67835509986617,0.0,274.67835509986617,0,0.0,0,1,1000,num_1,0.6502573001198471,,35,6,2026-03-13_13h49.24.742,2026A_exp2,2022.2.4,59.88368191499607,
1000,1,3.7,3.7,0,0,87,87,76,,,,,275.34559120004997,275.99611920001917,275.99611920001917,276.48071909998544,45,315,276.48071909998544,276.48071909998544,276.48071909998544,276.48071909998544,276.48071909998544,276.48071909998544,276.48071909998544,276.48071909998544,276.48071909998544,276.8472718000412,276.8472718000412,276.8472718000412,276.8472718000412,276.8472718000412,276.8472718000412,276.8472718000412,276.8472718000412,276.8472718000412,15,6,"[0.01728440006263554, 0.06683100014925003, 0.133564000017941, 0.1669672999996692, 0.25048980000428855, 0.3337754001840949]","[0.033154900185763836, 0.08329880004748702, 0.14995340001769364, 0.21668760012835264, 0.2670365001540631, 0.3504763999953866]",276.8472718000412,277.0493564000353,1000,277.0493564000353,1000,1000,1000,1000,1,num_2,0.4243365000002086,,35,6,2026-03-13_13h49.24.742,2026A_exp2,2022.2.4,59.88368191499607,
0,0,3.7,0.0,1,0,88,88,0,,,,,277.4977893999312,278.148586000083,278.148586000083,278.6495525999926,315,45,278.6495525999926,278.6495525999926,278.6495525999926,278.6495525999926,278.6495525999926,278.6495525999926,278.6495525999926,278.6495525999926,278.6495525999926,279.0160272999201,279.0160272999201,279.0160272999201,279.0160272999201,279.0160272999201,279.0160272999201,279.0160272999201,279.0160272999201,279.0160272999201,3,4,"[0.001196499913930893, 0.10030309995636344, 0.1335414000786841, 0.35051489993929863]","[0.08347579999826849, 0.11670119990594685, 0.33354809996671975, 0.3672444000840187]",279.0160272999201,279.2162305000238,3.7,279.2162305000238,0,3.7,1,0,1000,num_1,0.4566391999833286,,35,6,2026-03-13_13h49.24.742,2026A_exp2,2022.2.4,59.88368191499607,
1000,1,4.9,4.9,0,0,89,89,6,,,,,279.6997157000005,280.3340052999556,280.3340052999556,280.8350571000483,45,315,280.8350571000483,280.8350571000483,280.8350571000483,280.8350571000483,280.8350571000483,280.8350571000483,280.8350571000483,280.8350571000483,280.8350571000483,281.20161879993975,281.20161879993975,281.20161879993975,281.20161879993975,281.20161879993975,281.20161879993975,281.20161879993975,281.20161879993975,281.20161879993975,10,6,"[0.01722980011254549, 0.11715289996936917, 0.1505822001490742, 0.20046190009452403, 0.23391159996390343, 0.3004904000554234]","[0.10009970003739, 0.13355410005897284, 0.18398790014907718, 0.21713120001368225, 0.2839846999850124, 0.31736730015836656]",281.20161879993975,281.4035102999769,1000,281.4035102999769,1000,1000,1000,1000,1,num_2,0.6048863001633435,,35,6,2026-03-13_13h49.24.742,2026A_exp2,2022.2.4,59.88368191499607,
,,,,,,,,,,,,,,,,,,,,,,,,,,,,,,,,,,,,,,,,,,,,,,,,,,,,282.04434460005723,,,,,,,
