validity,detectorcomp,contrastCW,contrastCCW,precueCWorCCW,block_80trials.thisRepN,block_80trials.thisTrialN,block_80trials.thisN,block_80trials.thisIndex,etRecord.started,etRecord.stopped,text.started,text.stopped,text_4.started,text_4.stopped,text_6.started,text_6.stopped,oriCW,oriCCW,roi_2.started,grating_UR.started,grating_UL.started,grating_LR.started,grating_LL.started,noise_UR.started,noise_UL.started,noise_LR.started,noise_LL.started,roi_2.stopped,grating_UR.stopped,grating_UL.stopped,grating_LR.stopped,grating_LL.stopped,noise_UR.stopped,noise_UL.stopped,noise_LR.stopped,noise_LL.stopped,outframe,roi_2.numLooks,roi_2.timesOn,roi_2.timesOff,text_2.started,text_2.stopped,probedcontrast,key_resp.started,respdetect,relevantContrast,correctDetect,TorFdetect,respCWorCCW,key_resp.keys,key_resp.rt,feedback_display_.started,participantNo,blockNo,date,expName,psychopyVersion,frameRate,
1000,1,4.9,0.0,0,0,0,0,41,3.879982978105545e-05,3.879982978105545e-05,99.86437980015762,101.86695199995302,101.86695199995302,102.50119010009803,102.50119010009803,103.02114260010421,315,45,103.02114260010421,103.02114260010421,103.02114260010421,103.02114260010421,103.02114260010421,103.02114260010421,103.02114260010421,103.02114260010421,103.02114260010421,103.36862910003401,103.36862910003401,103.36862910003401,103.36862910003401,103.36862910003401,103.36862910003401,103.36862910003401,103.36862910003401,103.36862910003401,23,0,,,103.36862910003401,103.5718261001166,1000,103.5718261001166,1000,1000,1000,1000,1,num_2,0.918348099803552,,35,4,2026-03-13_13h31.35.054,2026A_exp2,2022.2.4,59.97558998639589,
1000,1,0.0,6.1,1,0,1,1,43,,,,,104.52006560005248,105.1705348000396,105.1705348000396,105.67175290011801,315,45,105.67175290011801,105.67175290011801,105.67175290011801,105.67175290011801,105.67175290011801,105.67175290011801,105.67175290011801,105.67175290011801,105.67175290011801,106.03799820016138,106.03799820016138,106.03799820016138,106.03799820016138,106.03799820016138,106.03799820016138,106.03799820016138,106.03799820016138,106.03799820016138,16,3,"[0.15028940001502633, 0.21701310016214848, 0.26675950014032423]","[0.16718230000697076, 0.25006310013122857, 0.3335936001967639]",106.03799820016138,106.24051870009862,1000,106.24051870009862,1000,1000,1000,1000,1,num_2,0.6267013000324368,,35,4,2026-03-13_13h31.35.054,2026A_exp2,2022.2.4,59.97558998639589,
1,0,0.0,4.9,0,0,2,2,73,,,,,106.88904549996369,107.53953279997222,107.53953279997222,108.04075659997761,45,315,108.04075659997761,108.04075659997761,108.04075659997761,108.04075659997761,108.04075659997761,108.04075659997761,108.04075659997761,108.04075659997761,108.04075659997761,108.40706899994984,108.40706899994984,108.40706899994984,108.40706899994984,108.40706899994984,108.40706899994984,108.40706899994984,108.40706899994984,108.40706899994984,2,3,"[0.0011617999989539385, 0.15078940009698272, 0.26753569999709725]","[0.13391919992864132, 0.2508159999269992, 0.3676623001229018]",108.40706899994984,108.60733120003715,0.0,108.60733120003715,0,0.0,0,1,1000,num_1,1.83508969983086,,35,4,2026-03-13_13h31.35.054,2026A_exp2,2022.2.4,59.97558998639589,
1000,1,0.0,0.0,0,0,3,3,7,,,,,110.45929160015658,111.1098803000059,111.1098803000059,111.5943464001175,45,315,111.5943464001175,111.5943464001175,111.5943464001175,111.5943464001175,111.5943464001175,111.5943464001175,111.5943464001175,111.5943464001175,111.5943464001175,111.96062669996172,111.96062669996172,111.96062669996172,111.96062669996172,111.96062669996172,111.96062669996172,111.96062669996172,111.96062669996172,111.96062669996172,4,4,"[0.0011998999398201704, 0.1502344999462366, 0.26703549991361797, 0.31706460006535053]","[0.13365780003368855, 0.233742400072515, 0.3003706999588758, 0.367185499984771]",111.96062669996172,112.19449450005777,1000,112.19449450005777,1000,1000,1000,1000,1,num_2,1.5679593000095338,,35,4,2026-03-13_13h31.35.054,2026A_exp2,2022.2.4,59.97558998639589,
1,0,6.1,4.9,1,0,4,4,64,,,,,113.77931210002862,114.42981730005704,114.42981730005704,114.93094560015015,45,45,114.93094560015015,114.93094560015015,114.93094560015015,114.93094560015015,114.93094560015015,114.93094560015015,114.93094560015015,114.93094560015015,114.93094560015015,115.29730960004963,115.29730960004963,115.29730960004963,115.29730960004963,115.29730960004963,115.29730960004963,115.29730960004963,115.29730960004963,115.29730960004963,16,2,"[0.11753799999132752, 0.3013045999687165]","[0.20063779992051423, 0.3179715999867767]",115.29730960004963,115.49757330003195,4.9,115.49757330003195,0,4.9,1,0,1000,num_1,4.416357399895787,,35,4,2026-03-13_13h31.35.054,2026A_exp2,2022.2.4,59.97558998639589,
1000,1,3.7,0.0,0,0,5,5,76,,,,,119.93536780006252,120.58598099998198,120.58598099998198,121.07041450007819,45,315,121.07041450007819,121.07041450007819,121.07041450007819,121.07041450007819,121.07041450007819,121.07041450007819,121.07041450007819,121.07041450007819,121.07041450007819,121.43688539997675,121.43688539997675,121.43688539997675,121.43688539997675,121.43688539997675,121.43688539997675,121.43688539997675,121.43688539997675,121.43688539997675,9,5,"[0.0011926000006496906, 0.0503632000181824, 0.16710309986956418, 0.26718349987640977, 0.3173389998264611]","[0.03314309986308217, 0.08360929996706545, 0.2504793999250978, 0.30050210002809763, 0.3673570998944342]",121.43688539997675,121.63896070001647,1000,121.63896070001647,1000,1000,1000,1000,0,num_3,1.4435299998149276,,35,4,2026-03-13_13h31.35.054,2026A_exp2,2022.2.4,59.97558998639589,
1000,1,6.1,0.0,1,0,6,6,29,,,,,123.10524740000255,123.75585520011373,123.75585520011373,124.25710889999755,315,45,124.25710889999755,124.25710889999755,124.25710889999755,124.25710889999755,124.25710889999755,124.25710889999755,124.25710889999755,124.25710889999755,124.25710889999755,124.62340539996512,124.62340539996512,124.62340539996512,124.62340539996512,124.62340539996512,124.62340539996512,124.62340539996512,124.62340539996512,124.62340539996512,15,6,"[0.0013200000394135714, 0.0668490999378264, 0.1837798000779003, 0.2504813999403268, 0.3166499000508338, 0.35009859991259873]","[0.01709039998240769, 0.0835831998847425, 0.20031139999628067, 0.30019099987111986, 0.33322979998774827, 0.36699109990149736]",124.62340539996512,124.82530839997344,1000,124.82530839997344,1000,1000,1000,1000,1,num_2,0.6581144998781383,,35,4,2026-03-13_13h31.35.054,2026A_exp2,2022.2.4,59.97558998639589,
1,0,4.9,0.0,1,0,7,7,65,,,,,125.50746700004674,126.15818469994701,126.15818469994701,126.65951839997433,45,315,126.65951839997433,126.65951839997433,126.65951839997433,126.65951839997433,126.65951839997433,126.65951839997433,126.65951839997433,126.65951839997433,126.65951839997433,127.02567680017091,127.02567680017091,127.02567680017091,127.02567680017091,127.02567680017091,127.02567680017091,127.02567680017091,127.02567680017091,127.02567680017091,5,4,"[0.0007090000435709953, 0.10048230015672743, 0.18393150018528104, 0.31751590012572706]","[0.06698700017295778, 0.15058480016887188, 0.30084830010309815, 0.36756140016950667]",127.02567680017091,127.22599050006829,0.0,127.22599050006829,0,0.0,0,1,1000,num_1,1.7131368999835104,,35,4,2026-03-13_13h31.35.054,2026A_exp2,2022.2.4,59.97558998639589,
1,0,0.0,3.7,1,0,8,8,14,,,,,128.96084289997816,129.61161090014502,129.61161090014502,130.096083200071,315,315,130.096083200071,130.096083200071,130.096083200071,130.096083200071,130.096083200071,130.096083200071,130.096083200071,130.096083200071,130.096083200071,130.46257430012338,130.46257430012338,130.46257430012338,130.46257430012338,130.46257430012338,130.46257430012338,130.46257430012338,130.46257430012338,130.46257430012338,7,3,"[0.0012544000055640936, 0.11643339996226132, 0.28368869982659817]","[0.08322719996795058, 0.20023179985582829, 0.3671514999587089]",130.46257430012338,130.66270920005627,3.7,130.66270920005627,0,3.7,1,0,1000,num_1,0.7399400998838246,,35,4,2026-03-13_13h31.35.054,2026A_exp2,2022.2.4,59.97558998639589,
0,0,6.1,4.9,0,0,9,9,22,,,,,131.43028630013578,132.0804497001227,132.0804497001227,132.56502109998837,45,45,132.56502109998837,132.56502109998837,132.56502109998837,132.56502109998837,132.56502109998837,132.56502109998837,132.56502109998837,132.56502109998837,132.56502109998837,132.9312122000847,132.9312122000847,132.9312122000847,132.9312122000847,132.9312122000847,132.9312122000847,132.9312122000847,132.9312122000847,132.9312122000847,5,4,"[0.0007156000938266516, 0.08347130008041859, 0.2169847001787275, 0.3334872000850737]","[0.06696730013936758, 0.18374030012637377, 0.3002290001604706, 0.36691940017044544]",132.9312122000847,133.1313929001335,4.9,133.1313929001335,1,4.9,1,1,1000,num_4,0.6313524998258799,,35,4,2026-03-13_13h31.35.054,2026A_exp2,2022.2.4,59.97558998639589,
1,0,0.0,3.7,1,0,10,10,35,,,,,133.78222880000249,134.43277870002203,134.43277870002203,134.91819470003247,315,315,134.91819470003247,134.91819470003247,134.91819470003247,134.91819470003247,134.91819470003247,134.91819470003247,134.91819470003247,134.91819470003247,134.91819470003247,135.283683600137,135.283683600137,135.283683600137,135.283683600137,135.283683600137,135.283683600137,135.283683600137,135.283683600137,135.283683600137,19,4,"[0.018474899930879474, 0.08408819977194071, 0.24970529996789992, 0.36667639994993806]","[0.033251099986955523, 0.10099619999527931, 0.26637299987487495, 0.36667909985408187]",135.283683600137,135.483953300165,3.7,135.483953300165,0,3.7,1,0,1000,num_1,0.6383729998487979,,35,4,2026-03-13_13h31.35.054,2026A_exp2,2022.2.4,59.97558998639589,
1000,1,3.7,4.9,0,0,11,11,45,,,,,136.15161169995554,136.78527170000598,136.78527170000598,137.28647120017558,45,45,137.28647120017558,137.28647120017558,137.28647120017558,137.28647120017558,137.28647120017558,137.28647120017558,137.28647120017558,137.28647120017558,137.28647120017558,137.65308940014802,137.65308940014802,137.65308940014802,137.65308940014802,137.65308940014802,137.65308940014802,137.65308940014802,137.65308940014802,137.65308940014802,17,4,"[0.06723679997958243, 0.150552999926731, 0.21749399998225272, 0.2505716998130083]","[0.08463669987395406, 0.1671144999563694, 0.23397459997795522, 0.30065259989351034]",137.65308940014802,137.85308789997362,1000,137.85308789997362,1000,1000,1000,1000,0,num_3,0.6381566000636667,,35,4,2026-03-13_13h31.35.054,2026A_exp2,2022.2.4,59.97558998639589,
1,0,6.1,0.0,0,0,12,12,21,,,,,138.52057940000668,139.17117510014214,139.17117510014214,139.67226679995656,315,45,139.67226679995656,139.67226679995656,139.67226679995656,139.67226679995656,139.67226679995656,139.67226679995656,139.67226679995656,139.67226679995656,139.67226679995656,140.03877420001663,140.03877420001663,140.03877420001663,140.03877420001663,140.03877420001663,140.03877420001663,140.03877420001663,140.03877420001663,140.03877420001663,22,1,[0.033441999927163124],[0.05020829988643527],140.03877420001663,140.2389291001018,6.1,140.2389291001018,0,6.1,1,0,1000,num_1,0.9071620998438448,,35,4,2026-03-13_13h31.35.054,2026A_exp2,2022.2.4,59.97558998639589,
1000,1,4.9,0.0,1,0,13,13,77,,,,,141.17320560012013,141.82380779995583,141.82380779995583,142.308351600077,315,45,142.308351600077,142.308351600077,142.308351600077,142.308351600077,142.308351600077,142.308351600077,142.308351600077,142.308351600077,142.308351600077,142.6747624001,142.6747624001,142.6747624001,142.6747624001,142.6747624001,142.6747624001,142.6747624001,142.6747624001,142.6747624001,18,4,"[0.08346750005148351, 0.15012739994563162, 0.18350040004588664, 0.28355740010738373]","[0.10020309989340603, 0.16693930001929402, 0.2168475000653416, 0.3001973000355065]",142.6747624001,142.87680480000563,1000,142.87680480000563,1000,1000,1000,1000,0,num_3,0.5899336999282241,,35,4,2026-03-13_13h31.35.054,2026A_exp2,2022.2.4,59.97558998639589,
0,0,6.1,0.0,0,0,14,14,74,,,,,143.49242869997397,144.14288410008885,144.14288410008885,144.64412830001675,315,315,144.64412830001675,144.64412830001675,144.64412830001675,144.64412830001675,144.64412830001675,144.64412830001675,144.64412830001675,144.64412830001675,144.64412830001675,144.9937813000288,144.9937813000288,144.9937813000288,144.9937813000288,144.9937813000288,144.9937813000288,144.9937813000288,144.9937813000288,144.9937813000288,8,5,"[0.0011982000432908535, 0.08338620001450181, 0.15023029991425574, 0.18356009991839528, 0.3505259999074042]","[0.04979699989780784, 0.13354099984280765, 0.16689100000075996, 0.3003255999647081, 0.3505313000641763]",144.9937813000288,145.19425800000317,0.0,145.19425800000317,0,0.0,0,1,1000,num_1,0.9037946998141706,,35,4,2026-03-13_13h31.35.054,2026A_exp2,2022.2.4,59.97558998639589,
1000,1,0.0,0.0,1,0,15,15,85,,,,,146.12818240001798,146.77870370005257,146.77870370005257,147.26317659998313,315,315,147.26317659998313,147.26317659998313,147.26317659998313,147.26317659998313,147.26317659998313,147.26317659998313,147.26317659998313,147.26317659998313,147.26317659998313,147.629711400019,147.629711400019,147.629711400019,147.629711400019,147.629711400019,147.629711400019,147.629711400019,147.629711400019,147.629711400019,20,2,"[0.001209600130096078, 0.18369289999827743]","[0.03336190013214946, 0.20044790022075176]",147.629711400019,147.83185890014283,1000,147.83185890014283,1000,1000,1000,1000,0,num_3,0.6667922998312861,,35,4,2026-03-13_13h31.35.054,2026A_exp2,2022.2.4,59.97558998639589,
1,0,6.1,3.7,1,0,16,16,51,,,,,148.51385230012238,149.1646567999851,149.1646567999851,149.66585210012272,315,315,149.66585210012272,149.66585210012272,149.66585210012272,149.66585210012272,149.66585210012272,149.66585210012272,149.66585210012272,149.66585210012272,149.66585210012272,150.0320437999908,150.0320437999908,150.0320437999908,150.0320437999908,150.0320437999908,150.0320437999908,150.0320437999908,150.0320437999908,150.0320437999908,14,5,"[0.06723510008305311, 0.18410840001888573, 0.25065629999153316, 0.30075259995646775, 0.3675637000706047]","[0.1339156001340598, 0.200756800128147, 0.2840698999352753, 0.3340793000534177, 0.3675687999930233]",150.0320437999908,150.23229470010847,3.7,150.23229470010847,0,3.7,1,0,1000,num_1,0.8022552998736501,,35,4,2026-03-13_13h31.35.054,2026A_exp2,2022.2.4,59.97558998639589,
0,0,4.9,3.7,0,0,17,17,28,,,,,151.06637020013295,151.71715919999406,151.71715919999406,152.20165559998713,45,315,152.20165559998713,152.20165559998713,152.20165559998713,152.20165559998713,152.20165559998713,152.20165559998713,152.20165559998713,152.20165559998713,152.20165559998713,152.56791640003212,152.56791640003212,152.56791640003212,152.56791640003212,152.56791640003212,152.56791640003212,152.56791640003212,152.56791640003212,152.56791640003212,18,4,"[0.05021200003102422, 0.11687520006671548, 0.2170311000663787, 0.28385000000707805]","[0.06685000006109476, 0.1502263001166284, 0.2337696000467986, 0.3005321000237018]",152.56791640003212,152.76823020004667,3.7,152.76823020004667,0,3.7,1,0,1000,num_1,0.9460262998472899,,35,4,2026-03-13_13h31.35.054,2026A_exp2,2022.2.4,59.97558998639589,
1000,1,4.9,3.7,0,0,18,18,40,,,,,153.73579040006734,154.3698321999982,154.3698321999982,154.87094200006686,315,315,154.87094200006686,154.87094200006686,154.87094200006686,154.87094200006686,154.87094200006686,154.87094200006686,154.87094200006686,154.87094200006686,154.87094200006686,155.23718210007064,155.23718210007064,155.23718210007064,155.23718210007064,155.23718210007064,155.23718210007064,155.23718210007064,155.23718210007064,155.23718210007064,18,5,"[0.0336175998672843, 0.08352359989657998, 0.1670285000000149, 0.23393339989706874, 0.2835468999110162]","[0.050040500005707145, 0.10041019995696843, 0.18346509989351034, 0.2505179999861866, 0.300069099990651]",155.23718210007064,155.44310520007275,1000,155.44310520007275,1000,1000,1000,1000,1,num_2,1.5352270998992026,,35,4,2026-03-13_13h31.35.054,2026A_exp2,2022.2.4,59.97558998639589,
1000,1,6.1,3.7,0,0,19,19,75,,,,,157.00563060003333,157.6562133000698,157.6562133000698,158.15756190009415,315,45,158.15756190009415,158.15756190009415,158.15756190009415,158.15756190009415,158.15756190009415,158.15756190009415,158.15756190009415,158.15756190009415,158.15756190009415,158.52393830008805,158.52393830008805,158.52393830008805,158.52393830008805,158.52393830008805,158.52393830008805,158.52393830008805,158.52393830008805,158.52393830008805,22,1,[0.3503358999732882],[0.36677670013159513],158.52393830008805,158.72613300010562,1000,158.72613300010562,1000,1000,1000,1000,0,num_3,0.6039660000242293,,35,4,2026-03-13_13h31.35.054,2026A_exp2,2022.2.4,59.97558998639589,
1,0,6.1,0.0,1,0,20,20,89,,,,,159.35781700001098,160.00880670011975,160.00880670011975,160.49324950017035,45,315,160.49324950017035,160.49324950017035,160.49324950017035,160.49324950017035,160.49324950017035,160.49324950017035,160.49324950017035,160.49324950017035,160.49324950017035,160.8596216000151,160.8596216000151,160.8596216000151,160.8596216000151,160.8596216000151,160.8596216000151,160.8596216000151,160.8596216000151,160.8596216000151,22,1,[0.16678039985708892],[0.18355209985747933],160.8596216000151,161.05974459997378,0.0,161.05974459997378,0,0.0,0,1,1000,num_1,0.6388302997220308,,35,4,2026-03-13_13h31.35.054,2026A_exp2,2022.2.4,59.97558998639589,
1,0,6.1,4.9,1,0,21,21,11,,,,,161.7269401999656,162.37772610015236,162.37772610015236,162.87877810001373,45,315,162.87877810001373,162.87877810001373,162.87877810001373,162.87877810001373,162.87877810001373,162.87877810001373,162.87877810001373,162.87877810001373,162.87877810001373,163.24535650014877,163.24535650014877,163.24535650014877,163.24535650014877,163.24535650014877,163.24535650014877,163.24535650014877,163.24535650014877,163.24535650014877,23,0,,,163.24535650014877,163.4455286001321,4.9,163.4455286001321,0,4.9,1,0,1000,num_1,0.7732619997113943,,35,4,2026-03-13_13h31.35.054,2026A_exp2,2022.2.4,59.97558998639589,
1000,1,3.7,0.0,0,0,22,22,56,,,,,164.24665880016983,164.8968394000549,164.8968394000549,165.38135120016523,45,315,165.38135120016523,165.38135120016523,165.38135120016523,165.38135120016523,165.38135120016523,165.38135120016523,165.38135120016523,165.38135120016523,165.38135120016523,165.74779170006514,165.74779170006514,165.74779170006514,165.74779170006514,165.74779170006514,165.74779170006514,165.74779170006514,165.74779170006514,165.74779170006514,14,5,"[0.0008092001080513, 0.08393290010280907, 0.11732749990187585, 0.20062829996459186, 0.334313299972564]","[0.017416900023818016, 0.10080699995160103, 0.13399349991232157, 0.23411879991181195, 0.3678148000035435]",165.74779170006514,165.94950620015152,1000,165.94950620015152,1000,1000,1000,1000,0,num_3,0.532559199957177,,35,4,2026-03-13_13h31.35.054,2026A_exp2,2022.2.4,59.97558998639589,
1,0,0.0,0.0,0,0,23,23,24,,,,,166.49848160007969,167.14924830012023,167.14924830012023,167.65025519998744,45,315,167.65025519998744,167.65025519998744,167.65025519998744,167.65025519998744,167.65025519998744,167.65025519998744,167.65025519998744,167.65025519998744,167.65025519998744,168.00003670016304,168.00003670016304,168.00003670016304,168.00003670016304,168.00003670016304,168.00003670016304,168.00003670016304,168.00003670016304,168.00003670016304,2,2,"[0.0012125999201089144, 0.03364620008505881]","[0.01745339995250106, 0.3501224999781698]",168.00003670016304,168.2001003001351,0.0,168.21679900004528,0,0.0,0,1,1000,num_1,1.36989719979465,,35,4,2026-03-13_13h31.35.054,2026A_exp2,2022.2.4,59.97558998639589,
1,0,0.0,0.0,1,0,24,24,42,,,,,169.61822429997846,170.26902380003594,170.26902380003594,170.75341580016539,315,45,170.75341580016539,170.75341580016539,170.75341580016539,170.75341580016539,170.75341580016539,170.75341580016539,170.75341580016539,170.75341580016539,170.75341580016539,171.11980960005894,171.11980960005894,171.11980960005894,171.11980960005894,171.11980960005894,171.11980960005894,171.11980960005894,171.11980960005894,171.11980960005894,21,2,"[0.21699159988202155, 0.2837843999732286]","[0.23362909979186952, 0.3005658998154104]",171.11980960005894,171.32010699994862,0.0,171.32010699994862,0,0.0,0,1,1000,num_1,0.7628867998719215,,35,4,2026-03-13_13h31.35.054,2026A_exp2,2022.2.4,59.97558998639589,
1000,1,3.7,6.1,1,0,25,25,48,,,,,172.10403389995918,172.75476619997062,172.75476619997062,173.23929800000042,315,315,173.23929800000042,173.23929800000042,173.23929800000042,173.23929800000042,173.23929800000042,173.23929800000042,173.23929800000042,173.23929800000042,173.23929800000042,173.6056600001175,173.6056600001175,173.6056600001175,173.6056600001175,173.6056600001175,173.6056600001175,173.6056600001175,173.6056600001175,173.6056600001175,22,1,[0.15034679998643696],[0.1670547998510301],173.6056600001175,173.80815350008197,1000,173.80815350008197,1000,1000,1000,1000,1,num_2,0.6904179998673499,,35,4,2026-03-13_13h31.35.054,2026A_exp2,2022.2.4,59.97558998639589,
1,0,6.1,0.0,0,0,26,26,82,,,,,174.52316620014608,175.17383420001715,175.17383420001715,175.67488069995306,315,45,175.67488069995306,175.67488069995306,175.67488069995306,175.67488069995306,175.67488069995306,175.67488069995306,175.67488069995306,175.67488069995306,175.67488069995306,176.04142979998142,176.04142979998142,176.04142979998142,176.04142979998142,176.04142979998142,176.04142979998142,176.04142979998142,176.04142979998142,176.04142979998142,19,3,"[0.0012014000676572323, 0.08347370009869337, 0.11688480013981462]","[0.03335199994035065, 0.10029500001110137, 0.13354650000110269]",176.04142979998142,176.2415190001484,6.1,176.2415190001484,1,6.1,1,1,1000,num_4,0.8171301998663694,,35,4,2026-03-13_13h31.35.054,2026A_exp2,2022.2.4,59.97558998639589,
1000,1,0.0,3.7,0,0,27,27,46,,,,,177.0757616001647,177.72637769998983,177.72637769998983,178.21080860006623,45,45,178.21080860006623,178.21080860006623,178.21080860006623,178.21080860006623,178.21080860006623,178.21080860006623,178.21080860006623,178.21080860006623,178.21080860006623,178.57732719997875,178.57732719997875,178.57732719997875,178.57732719997875,178.57732719997875,178.57732719997875,178.57732719997875,178.57732719997875,178.57732719997875,23,0,,,178.57732719997875,178.77927729999647,1000,178.77927729999647,1000,1000,1000,1000,0,num_3,0.6147047998383641,,35,4,2026-03-13_13h31.35.054,2026A_exp2,2022.2.4,59.97558998639589,
1000,1,6.1,0.0,1,0,28,28,83,,,,,179.4114186000079,180.06215939996764,180.06215939996764,180.56322410004213,315,315,180.56322410004213,180.56322410004213,180.56322410004213,180.56322410004213,180.56322410004213,180.56322410004213,180.56322410004213,180.56322410004213,180.56322410004213,180.9294853999745,180.9294853999745,180.9294853999745,180.9294853999745,180.9294853999745,180.9294853999745,180.9294853999745,180.9294853999745,180.9294853999745,23,0,,,180.9294853999745,181.13176660006866,1000,181.13176660006866,1000,1000,1000,1000,1,num_2,0.6145358998328447,,35,4,2026-03-13_13h31.35.054,2026A_exp2,2022.2.4,59.97558998639589,
1,0,0.0,0.0,0,0,29,29,88,,,,,181.7636921000667,182.41454260004684,182.41454260004684,182.9156772000715,45,45,182.9156772000715,182.9156772000715,182.9156772000715,182.9156772000715,182.9156772000715,182.9156772000715,182.9156772000715,182.9156772000715,182.9156772000715,183.26536000007764,183.26536000007764,183.26536000007764,183.26536000007764,183.26536000007764,183.26536000007764,183.26536000007764,183.26536000007764,183.26536000007764,15,4,"[0.16696480009704828, 0.20045370003208518, 0.2672254000790417, 0.35065350006334484]","[0.18373150005936623, 0.2503689001314342, 0.3339915999677032, 0.35065799998119473]",183.26536000007764,183.46541590010747,0.0,183.48226910014637,0,0.0,0,1,1000,num_1,1.0317118999082595,,35,4,2026-03-13_13h31.35.054,2026A_exp2,2022.2.4,59.97558998639589,
1000,1,3.7,3.7,0,0,30,30,72,,,,,184.5331307000015,185.1839028999675,185.1839028999675,185.6683962000534,45,315,185.6683962000534,185.6683962000534,185.6683962000534,185.6683962000534,185.6683962000534,185.6683962000534,185.6683962000534,185.6683962000534,185.6683962000534,186.03478410001844,186.03478410001844,186.03478410001844,186.03478410001844,186.03478410001844,186.03478410001844,186.03478410001844,186.03478410001844,186.03478410001844,20,2,"[0.0011962000280618668, 0.050377799896523356]","[0.03378949989564717, 0.06692339992150664]",186.03478410001844,186.23490909999236,1000,186.23490909999236,1000,1000,1000,1000,0,num_3,0.7040699999779463,,35,4,2026-03-13_13h31.35.054,2026A_exp2,2022.2.4,59.97558998639589,
1,0,6.1,0.0,0,0,31,31,47,,,,,186.95518749998882,187.60304399998859,187.60304399998859,188.10392710007727,45,45,188.10392710007727,188.10392710007727,188.10392710007727,188.10392710007727,188.10392710007727,188.10392710007727,188.10392710007727,188.10392710007727,188.10392710007727,188.47054320015013,188.47054320015013,188.47054320015013,188.47054320015013,188.47054320015013,188.47054320015013,188.47054320015013,188.47054320015013,188.47054320015013,11,7,"[0.001478400081396103, 0.033230300061404705, 0.0666340000461787, 0.11654249997809529, 0.1832196000032127, 0.23337969998829067, 0.3167616000864655]","[0.01698260009288788, 0.0498133001383394, 0.08326370012946427, 0.13336169999092817, 0.21681120013818145, 0.26684330007992685, 0.3668553000316024]",188.47054320015013,188.67077170009725,6.1,188.67077170009725,1,6.1,1,1,1000,num_4,0.5957760999444872,,35,4,2026-03-13_13h31.35.054,2026A_exp2,2022.2.4,59.97558998639589,
1,0,3.7,4.9,1,0,32,32,18,,,,,189.28802200010978,189.92197320004925,189.92197320004925,190.42326040007174,315,315,190.42326040007174,190.42326040007174,190.42326040007174,190.42326040007174,190.42326040007174,190.42326040007174,190.42326040007174,190.42326040007174,190.42326040007174,190.78911960008554,190.78911960008554,190.78911960008554,190.78911960008554,190.78911960008554,190.78911960008554,190.78911960008554,190.78911960008554,190.78911960008554,22,1,[0.15085169998928905],[0.16781240003183484],190.78911960008554,190.98962580016814,4.9,190.98962580016814,1,4.9,1,1,1000,num_4,0.6127696998883039,,35,4,2026-03-13_13h31.35.054,2026A_exp2,2022.2.4,59.97558998639589,
1000,1,3.7,3.7,0,0,33,33,63,,,,,191.6233729000669,192.27433060016483,192.27433060016483,192.75885330000892,45,315,192.75885330000892,192.75885330000892,192.75885330000892,192.75885330000892,192.75885330000892,192.75885330000892,192.75885330000892,192.75885330000892,192.75885330000892,193.12524740002118,193.12524740002118,193.12524740002118,193.12524740002118,193.12524740002118,193.12524740002118,193.12524740002118,193.12524740002118,193.12524740002118,23,0,,,193.12524740002118,193.32727889996022,1000,193.32727889996022,1000,1000,1000,1000,1,num_2,0.9477657999377698,,35,4,2026-03-13_13h31.35.054,2026A_exp2,2022.2.4,59.97558998639589,
1000,1,0.0,4.9,0,0,34,34,26,,,,,194.2928764000535,194.94346940005198,194.94346940005198,195.4448524999898,45,45,195.4448524999898,195.4448524999898,195.4448524999898,195.4448524999898,195.4448524999898,195.4448524999898,195.4448524999898,195.4448524999898,195.4448524999898,195.81121039995924,195.81121039995924,195.81121039995924,195.81121039995924,195.81121039995924,195.81121039995924,195.81121039995924,195.81121039995924,195.81121039995924,23,0,,,195.81121039995924,196.0127218000125,1000,196.0127218000125,1000,1000,1000,1000,1,num_2,0.5652421999257058,,35,4,2026-03-13_13h31.35.054,2026A_exp2,2022.2.4,59.97558998639589,
1,0,4.9,3.7,0,0,35,35,44,,,,,196.59521330008283,197.2460062999744,197.2460062999744,197.74694740003906,45,45,197.74694740003906,197.74694740003906,197.74694740003906,197.74694740003906,197.74694740003906,197.74694740003906,197.74694740003906,197.74694740003906,197.74694740003906,198.11345990002155,198.11345990002155,198.11345990002155,198.11345990002155,198.11345990002155,198.11345990002155,198.11345990002155,198.11345990002155,198.11345990002155,23,0,,,198.11345990002155,198.31372780003585,4.9,198.31372780003585,1,4.9,1,1,1000,num_4,0.8813619997818023,,35,4,2026-03-13_13h31.35.054,2026A_exp2,2022.2.4,59.97558998639589,
0,0,0.0,0.0,1,0,36,36,2,,,,,199.21445020008832,199.85827850014903,199.85827850014903,200.3547569999937,315,45,200.3547569999937,200.3547569999937,200.3547569999937,200.3547569999937,200.3547569999937,200.3547569999937,200.3547569999937,200.3547569999937,200.3547569999937,200.71604750002734,200.71604750002734,200.71604750002734,200.71604750002734,200.71604750002734,200.71604750002734,200.71604750002734,200.71604750002734,200.71604750002734,19,3,"[0.022361099952831864, 0.19849599990993738, 0.3160310999955982]","[0.035495399963110685, 0.21527529996819794, 0.3325537999626249]",200.71604750002734,200.91632920014672,0.0,200.91632920014672,0,0.0,0,1,1000,num_1,1.4377384998369962,,35,4,2026-03-13_13h31.35.054,2026A_exp2,2022.2.4,59.97558998639589,
1,0,0.0,3.7,1,0,37,37,32,,,,,202.38431350002065,203.03501969994977,203.03501969994977,203.51958660013042,45,315,203.51958660013042,203.51958660013042,203.51958660013042,203.51958660013042,203.51958660013042,203.51958660013042,203.51958660013042,203.51958660013042,203.51958660013042,203.88593140011653,203.88593140011653,203.88593140011653,203.88593140011653,203.88593140011653,203.88593140011653,203.88593140011653,203.88593140011653,203.88593140011653,23,0,,,203.88593140011653,204.0862317001447,3.7,204.0862317001447,1,3.7,1,1,1000,num_4,0.5325305997394025,,35,4,2026-03-13_13h31.35.054,2026A_exp2,2022.2.4,59.97558998639589,
1,0,4.9,0.0,0,0,38,38,53,,,,,204.6366502000019,205.28723030001856,205.28723030001856,205.77183870016597,315,315,205.77183870016597,205.77183870016597,205.77183870016597,205.77183870016597,205.77183870016597,205.77183870016597,205.77183870016597,205.77183870016597,205.77183870016597,206.138208999997,206.138208999997,206.138208999997,206.138208999997,206.138208999997,206.138208999997,206.138208999997,206.138208999997,206.138208999997,23,0,,,206.138208999997,206.33846030011773,4.9,206.33846030011773,0,4.9,1,0,1000,num_1,0.48026979994028807,,35,4,2026-03-13_13h31.35.054,2026A_exp2,2022.2.4,59.97558998639589,
1,0,0.0,6.1,1,0,39,39,33,,,,,206.83884189999662,207.48956400016323,207.48956400016323,207.97406160016544,45,45,207.97406160016544,207.97406160016544,207.97406160016544,207.97406160016544,207.97406160016544,207.97406160016544,207.97406160016544,207.97406160016544,207.97406160016544,208.34049770003185,208.34049770003185,208.34049770003185,208.34049770003185,208.34049770003185,208.34049770003185,208.34049770003185,208.34049770003185,208.34049770003185,19,3,"[0.06701359990984201, 0.25045339995995164, 0.30051499977707863]","[0.10040199989452958, 0.26723059988580644, 0.31723459996283054]",208.34049770003185,208.54056009999476,6.1,208.54056009999476,1,6.1,1,1,1000,num_4,0.34170009987428784,,35,4,2026-03-13_13h31.35.054,2026A_exp2,2022.2.4,59.97558998639589,
1000,1,4.9,4.9,1,0,40,40,68,,,,,208.9074580001179,209.558318000054,209.558318000054,210.0425973001402,45,315,210.0425973001402,210.0425973001402,210.0425973001402,210.0425973001402,210.0425973001402,210.0425973001402,210.0425973001402,210.0425973001402,210.0425973001402,210.4091507999692,210.4091507999692,210.4091507999692,210.4091507999692,210.4091507999692,210.4091507999692,210.4091507999692,210.4091507999692,210.4091507999692,18,4,"[0.001575100002810359, 0.04987059999257326, 0.21673170011490583, 0.3502822001464665]","[0.0172989999409765, 0.06647010007873178, 0.2500955001451075, 0.36703329998999834]",210.4091507999692,210.61108159995638,1000,210.61108159995638,1000,1000,1000,1000,1,num_2,0.7035876999143511,,35,4,2026-03-13_13h31.35.054,2026A_exp2,2022.2.4,59.97558998639589,
1000,1,0.0,3.7,1,0,41,41,84,,,,,211.34351920010522,211.99402820016257,211.99402820016257,212.49511440005153,315,315,212.49511440005153,212.49511440005153,212.49511440005153,212.49511440005153,212.49511440005153,212.49511440005153,212.49511440005153,212.49511440005153,212.49511440005153,212.8448795999866,212.8448795999866,212.8448795999866,212.8448795999866,212.8448795999866,212.8448795999866,212.8448795999866,212.8448795999866,212.8448795999866,22,0,,,212.8448795999866,213.0474729000125,1000,213.0474729000125,1000,1000,1000,1000,1,num_2,0.707517399918288,,35,4,2026-03-13_13h31.35.054,2026A_exp2,2022.2.4,59.97558998639589,
0,0,0.0,0.0,0,0,42,42,59,,,,,213.77908780006692,214.4296993999742,214.4296993999742,214.93097700015642,45,45,214.93097700015642,214.93097700015642,214.93097700015642,214.93097700015642,214.93097700015642,214.93097700015642,214.93097700015642,214.93097700015642,214.93097700015642,215.29735530004837,215.29735530004837,215.29735530004837,215.29735530004837,215.29735530004837,215.29735530004837,215.29735530004837,215.29735530004837,215.29735530004837,23,0,,,215.29735530004837,215.4976560000796,0.0,215.4976560000796,0,0.0,0,1,1000,num_1,0.7371807000599802,,35,4,2026-03-13_13h31.35.054,2026A_exp2,2022.2.4,59.97558998639589,
1,0,0.0,6.1,1,0,43,43,31,,,,,216.2649654999841,216.91564260004088,216.91564260004088,217.39970920002088,315,45,217.39970920002088,217.39970920002088,217.39970920002088,217.39970920002088,217.39970920002088,217.39970920002088,217.39970920002088,217.39970920002088,217.39970920002088,217.7664350999985,217.7664350999985,217.7664350999985,217.7664350999985,217.7664350999985,217.7664350999985,217.7664350999985,217.7664350999985,217.7664350999985,17,3,"[0.03337340010330081, 0.08367790002375841, 0.23438809998333454]","[0.06679549999535084, 0.11714820004999638, 0.2509202999062836]",217.7664350999985,217.96675839996897,6.1,217.96675839996897,1,6.1,1,1,1000,num_4,0.5558161998633295,,35,4,2026-03-13_13h31.35.054,2026A_exp2,2022.2.4,59.97558998639589,
1000,1,0.0,4.9,0,0,44,44,61,,,,,218.55043600010686,219.20114400004968,219.20114400004968,219.685651200125,315,315,219.685651200125,219.685651200125,219.685651200125,219.685651200125,219.685651200125,219.685651200125,219.685651200125,219.685651200125,219.685651200125,220.05210780003108,220.05210780003108,220.05210780003108,220.05210780003108,220.05210780003108,220.05210780003108,220.05210780003108,220.05210780003108,220.05210780003108,13,7,"[0.03355919988825917, 0.10042849997989833, 0.13351260009221733, 0.1667158999480307, 0.2167871999554336, 0.26676440006121993, 0.3005226000677794]","[0.0832819000352174, 0.11703659989871085, 0.14976559998467565, 0.2000756999477744, 0.23344280011951923, 0.2832168999593705, 0.3169899000786245]",220.05210780003108,220.25400580000132,1000,220.25400580000132,1000,1000,1000,1000,1,num_2,0.7649632997345179,,35,4,2026-03-13_13h31.35.054,2026A_exp2,2022.2.4,59.97558998639589,
1000,1,6.1,0.0,1,0,45,45,57,,,,,221.03640610002913,221.68712240015157,221.68712240015157,222.18889550003223,45,315,222.18889550003223,222.18889550003223,222.18889550003223,222.18889550003223,222.18889550003223,222.18889550003223,222.18889550003223,222.18889550003223,222.18889550003223,222.5379294999875,222.5379294999875,222.5379294999875,222.5379294999875,222.5379294999875,222.5379294999875,222.5379294999875,222.5379294999875,222.5379294999875,22,0,,,222.5379294999875,222.74042150005698,1000,222.74042150005698,1000,1000,1000,1000,0,num_3,0.502165799960494,,35,4,2026-03-13_13h31.35.054,2026A_exp2,2022.2.4,59.97558998639589,
1,0,0.0,6.1,0,0,46,46,0,,,,,223.2718275000807,223.92254079994746,223.92254079994746,224.42372020008042,45,45,224.42372020008042,224.42372020008042,224.42372020008042,224.42372020008042,224.42372020008042,224.42372020008042,224.42372020008042,224.42372020008042,224.42372020008042,224.7901127000805,224.7901127000805,224.7901127000805,224.7901127000805,224.7901127000805,224.7901127000805,224.7901127000805,224.7901127000805,224.7901127000805,23,0,,,224.7901127000805,224.99044300010428,0.0,224.99044300010428,0,0.0,0,1,1000,num_1,0.7484924998134375,,35,4,2026-03-13_13h31.35.054,2026A_exp2,2022.2.4,59.97558998639589,
1,0,3.7,0.0,0,0,47,47,87,,,,,225.75757460016757,226.40865290001966,226.40865290001966,226.89295010012574,315,45,226.89295010012574,226.89295010012574,226.89295010012574,226.89295010012574,226.89295010012574,226.89295010012574,226.89295010012574,226.89295010012574,226.89295010012574,227.2592086000368,227.2592086000368,227.2592086000368,227.2592086000368,227.2592086000368,227.2592086000368,227.2592086000368,227.2592086000368,227.2592086000368,23,0,,,227.2592086000368,227.45947740017436,3.7,227.45947740017436,0,3.7,1,0,1000,num_1,0.7514726999215782,,35,4,2026-03-13_13h31.35.054,2026A_exp2,2022.2.4,59.97558998639589,
1,0,0.0,6.1,1,0,48,48,36,,,,,228.22692820010707,228.87759810010903,228.87759810010903,229.37872430006973,315,315,229.37872430006973,229.37872430006973,229.37872430006973,229.37872430006973,229.37872430006973,229.37872430006973,229.37872430006973,229.37872430006973,229.37872430006973,229.72841099998914,229.72841099998914,229.72841099998914,229.72841099998914,229.72841099998914,229.72841099998914,229.72841099998914,229.72841099998914,229.72841099998914,22,0,,,229.72841099998914,229.92855389998294,6.1,229.92855389998294,1,6.1,1,1,1000,num_4,0.7217915998771787,,35,4,2026-03-13_13h31.35.054,2026A_exp2,2022.2.4,59.97558998639589,
1,0,0.0,0.0,0,0,49,49,79,,,,,230.67927810014226,231.3300520000048,231.3300520000048,231.83108190004714,45,45,231.83108190004714,231.83108190004714,231.83108190004714,231.83108190004714,231.83108190004714,231.83108190004714,231.83108190004714,231.83108190004714,231.83108190004714,232.18076370004565,232.18076370004565,232.18076370004565,232.18076370004565,232.18076370004565,232.18076370004565,232.18076370004565,232.18076370004565,232.18076370004565,22,0,,,232.18076370004565,232.38102019997314,0.0,232.38102019997314,0,0.0,0,1,1000,num_1,0.7659974000416696,,35,4,2026-03-13_13h31.35.054,2026A_exp2,2022.2.4,59.97558998639589,
1000,1,3.7,0.0,1,0,50,50,19,,,,,233.16507190000266,233.81595720001496,233.81595720001496,234.30049500009045,315,45,234.30049500009045,234.30049500009045,234.30049500009045,234.30049500009045,234.30049500009045,234.30049500009045,234.30049500009045,234.30049500009045,234.30049500009045,234.66657830006443,234.66657830006443,234.66657830006443,234.66657830006443,234.66657830006443,234.66657830006443,234.66657830006443,234.66657830006443,234.66657830006443,23,0,,,234.66657830006443,234.86869399994612,1000,234.86869399994612,1000,1000,1000,1000,1,num_2,0.9336445000953972,,35,4,2026-03-13_13h31.35.054,2026A_exp2,2022.2.4,59.97558998639589,
1000,1,0.0,4.9,1,0,51,51,66,,,,,235.81815730012022,236.4685913999565,236.4685913999565,236.95286520011723,315,315,236.95286520011723,236.95286520011723,236.95286520011723,236.95286520011723,236.95286520011723,236.95286520011723,236.95286520011723,236.95286520011723,236.95286520011723,237.3193471999839,237.3193471999839,237.3193471999839,237.3193471999839,237.3193471999839,237.3193471999839,237.3193471999839,237.3193471999839,237.3193471999839,0,1,[0.0012151000555604696],[0.3672879000660032],237.3193471999839,237.5216008001007,1000,237.5216008001007,1000,1000,1000,1000,1,num_2,0.7049904998857528,,35,4,2026-03-13_13h31.35.054,2026A_exp2,2022.2.4,59.97558998639589,
1,0,3.7,6.1,0,0,52,52,52,,,,,238.25358090014197,238.90433249995112,238.90433249995112,239.40533010009676,315,45,239.40533010009676,239.40533010009676,239.40533010009676,239.40533010009676,239.40533010009676,239.40533010009676,239.40533010009676,239.40533010009676,239.40533010009676,239.77149720001034,239.77149720001034,239.77149720001034,239.77149720001034,239.77149720001034,239.77149720001034,239.77149720001034,239.77149720001034,239.77149720001034,16,4,"[0.03335920022800565, 0.06670230021700263, 0.18354060011915863, 0.23355790018104017]","[0.050082300091162324, 0.11688320012763143, 0.21700880001299083, 0.2504513000603765]",239.77149720001034,239.971718700137,3.7,239.971718700137,0,3.7,1,0,1000,num_1,0.7186197000555694,,35,4,2026-03-13_13h31.35.054,2026A_exp2,2022.2.4,59.97558998639589,
1,0,3.7,3.7,1,0,53,53,30,,,,,240.7224737999495,241.35632370016538,241.35632370016538,241.85753230005503,315,45,241.85753230005503,241.85753230005503,241.85753230005503,241.85753230005503,241.85753230005503,241.85753230005503,241.85753230005503,241.85753230005503,241.85753230005503,242.22399590001442,242.22399590001442,242.22399590001442,242.22399590001442,242.22399590001442,242.22399590001442,242.22399590001442,242.22399590001442,242.22399590001442,19,4,"[0.08356420020572841, 0.15063600009307265, 0.2671261001378298, 0.33374680019915104]","[0.10032150009647012, 0.16729850019328296, 0.28380590002052486, 0.3509358000010252]",242.22399590001442,242.42413510009646,3.7,242.42413510009646,0,3.7,1,0,1000,num_1,0.6181000999640673,,35,4,2026-03-13_13h31.35.054,2026A_exp2,2022.2.4,59.97558998639589,
1000,1,3.7,6.1,1,0,54,54,58,,,,,243.07483389996924,243.70884940004908,243.70884940004908,244.21005240012892,315,315,244.21005240012892,244.21005240012892,244.21005240012892,244.21005240012892,244.21005240012892,244.21005240012892,244.21005240012892,244.21005240012892,244.21005240012892,244.5762420000974,244.5762420000974,244.5762420000974,244.5762420000974,244.5762420000974,244.5762420000974,244.5762420000974,244.5762420000974,244.5762420000974,23,0,,,244.5762420000974,244.77662699995562,1000,244.77662699995562,1000,1000,1000,1000,1,num_2,0.9135583997704089,,35,4,2026-03-13_13h31.35.054,2026A_exp2,2022.2.4,59.97558998639589,
0,0,0.0,3.7,0,0,55,55,34,,,,,245.71095800003968,246.3614254000131,246.3614254000131,246.8458656000439,45,45,246.8458656000439,246.8458656000439,246.8458656000439,246.8458656000439,246.8458656000439,246.8458656000439,246.8458656000439,246.8458656000439,246.8458656000439,247.21223130007274,247.21223130007274,247.21223130007274,247.21223130007274,247.21223130007274,247.21223130007274,247.21223130007274,247.21223130007274,247.21223130007274,23,0,,,247.21223130007274,247.4124690000899,3.7,247.4124690000899,0,3.7,1,0,1000,num_1,0.40585159976035357,,35,4,2026-03-13_13h31.35.054,2026A_exp2,2022.2.4,59.97558998639589,
1,0,0.0,0.0,1,0,56,56,69,,,,,247.84622090007178,248.4802960001398,248.4802960001398,248.98150150012225,45,45,248.98150150012225,248.98150150012225,248.98150150012225,248.98150150012225,248.98150150012225,248.98150150012225,248.98150150012225,248.98150150012225,248.98150150012225,249.3479443001561,249.3479443001561,249.3479443001561,249.3479443001561,249.3479443001561,249.3479443001561,249.3479443001561,249.3479443001561,249.3479443001561,23,0,,,249.3479443001561,249.54813860007562,0.0,249.54813860007562,1,0.0,0,0,1000,num_4,0.6779916998930275,,35,4,2026-03-13_13h31.35.054,2026A_exp2,2022.2.4,59.97558998639589,
0,0,4.9,0.0,1,0,57,57,67,,,,,250.24891720013693,250.89959669997916,250.89959669997916,251.38397520012222,45,315,251.38397520012222,251.38397520012222,251.38397520012222,251.38397520012222,251.38397520012222,251.38397520012222,251.38397520012222,251.38397520012222,251.38397520012222,251.75044930004515,251.75044930004515,251.75044930004515,251.75044930004515,251.75044930004515,251.75044930004515,251.75044930004515,251.75044930004515,251.75044930004515,23,0,,,251.75044930004515,251.95064190006815,4.9,251.95064190006815,1,4.9,1,1,1000,num_4,0.859534699935466,,35,4,2026-03-13_13h31.35.054,2026A_exp2,2022.2.4,59.97558998639589,
1,0,3.7,4.9,1,0,58,58,20,,,,,252.8349331000354,253.46877430006862,253.46877430006862,253.96994099998847,315,45,253.96994099998847,253.96994099998847,253.96994099998847,253.96994099998847,253.96994099998847,253.96994099998847,253.96994099998847,253.96994099998847,253.96994099998847,254.33639100007713,254.33639100007713,254.33639100007713,254.33639100007713,254.33639100007713,254.33639100007713,254.33639100007713,254.33639100007713,254.33639100007713,21,2,"[0.20047190017066896, 0.3673539999872446]","[0.21712330006994307, 0.36735980003140867]",254.33639100007713,254.53670269995928,4.9,254.53670269995928,1,4.9,1,1,1000,num_4,0.45037139975465834,,35,4,2026-03-13_13h31.35.054,2026A_exp2,2022.2.4,59.97558998639589,
1000,1,0.0,0.0,0,0,59,59,17,,,,,255.0035310999956,255.6544085999485,255.6544085999485,256.1553712000605,315,315,256.1553712000605,256.1553712000605,256.1553712000605,256.1553712000605,256.1553712000605,256.1553712000605,256.1553712000605,256.1553712000605,256.1553712000605,256.5052359001711,256.5052359001711,256.5052359001711,256.5052359001711,256.5052359001711,256.5052359001711,256.5052359001711,256.5052359001711,256.5052359001711,22,0,,,256.5052359001711,256.7071007001214,1000,256.7071007001214,1000,1000,1000,1000,1,num_2,0.8396586996968836,,35,4,2026-03-13_13h31.35.054,2026A_exp2,2022.2.4,59.97558998639589,
1,0,6.1,0.0,1,0,60,60,80,,,,,257.57292090007104,258.2236252001021,258.2236252001021,258.724819800118,45,315,258.724819800118,258.724819800118,258.724819800118,258.724819800118,258.724819800118,258.724819800118,258.724819800118,258.724819800118,258.724819800118,259.09120690007694,259.09120690007694,259.09120690007694,259.09120690007694,259.09120690007694,259.09120690007694,259.09120690007694,259.09120690007694,259.09120690007694,23,0,,,259.09120690007694,259.29130970011465,0.0,259.29130970011465,0,0.0,0,1,1000,num_1,1.2151246997527778,,35,4,2026-03-13_13h31.35.054,2026A_exp2,2022.2.4,59.97558998639589,
1000,1,0.0,0.0,0,0,61,61,86,,,,,260.52574910013936,261.1766407999676,261.1766407999676,261.6784119999502,315,45,261.6784119999502,261.6784119999502,261.6784119999502,261.6784119999502,261.6784119999502,261.6784119999502,261.6784119999502,261.6784119999502,261.6784119999502,262.0274506001733,262.0274506001733,262.0274506001733,262.0274506001733,262.0274506001733,262.0274506001733,262.0274506001733,262.0274506001733,262.0274506001733,22,1,[0.004437800031155348],[0.03298810007981956],262.0274506001733,262.22767900000326,1000,262.22767900000326,1000,1000,1000,1000,1,num_2,0.6390799998771399,,35,4,2026-03-13_13h31.35.054,2026A_exp2,2022.2.4,59.97558998639589,
1000,1,0.0,0.0,1,0,62,62,78,,,,,262.89482900011353,263.54571270011365,263.54571270011365,264.0465549000073,315,45,264.0465549000073,264.0465549000073,264.0465549000073,264.0465549000073,264.0465549000073,264.0465549000073,264.0465549000073,264.0465549000073,264.0465549000073,264.41311409999616,264.41311409999616,264.41311409999616,264.41311409999616,264.41311409999616,264.41311409999616,264.41311409999616,264.41311409999616,264.41311409999616,22,1,[0.3338697000872344],[0.35052819992415607],264.41311409999616,264.61526140011847,1000,264.61526140011847,1000,1000,1000,1000,1,num_2,1.2911308999173343,,35,4,2026-03-13_13h31.35.054,2026A_exp2,2022.2.4,59.97558998639589,
1000,1,0.0,4.9,0,0,63,63,60,,,,,265.9315737001598,266.58193049998954,266.58193049998954,267.08313719998114,315,315,267.08313719998114,267.08313719998114,267.08313719998114,267.08313719998114,267.08313719998114,267.08313719998114,267.08313719998114,267.08313719998114,267.08313719998114,267.43281659996137,267.43281659996137,267.43281659996137,267.43281659996137,267.43281659996137,267.43281659996137,267.43281659996137,267.43281659996137,267.43281659996137,22,0,,,267.43281659996137,267.6350361001678,1000,267.6494320000056,1000,1000,1000,1000,1,num_2,0.6012689997442067,,35,4,2026-03-13_13h31.35.054,2026A_exp2,2022.2.4,59.97558998639589,
0,0,3.7,0.0,0,0,64,64,62,,,,,268.26699000014924,268.91771770012565,268.91771770012565,269.41878619999625,315,45,269.41878619999625,269.41878619999625,269.41878619999625,269.41878619999625,269.41878619999625,269.41878619999625,269.41878619999625,269.41878619999625,269.41878619999625,269.78518490004353,269.78518490004353,269.78518490004353,269.78518490004353,269.78518490004353,269.78518490004353,269.78518490004353,269.78518490004353,269.78518490004353,23,0,,,269.78518490004353,269.9853390001226,0.0,269.9853390001226,0,0.0,0,1,1000,num_1,5.345580499852076,,35,4,2026-03-13_13h31.35.054,2026A_exp2,2022.2.4,59.97558998639589,
1,0,0.0,0.0,0,0,65,65,55,,,,,275.3571750000119,276.0078496001661,276.0078496001661,276.5091428000014,45,315,276.5091428000014,276.5091428000014,276.5091428000014,276.5091428000014,276.5091428000014,276.5091428000014,276.5091428000014,276.5091428000014,276.5091428000014,276.8756220000796,276.8756220000796,276.8756220000796,276.8756220000796,276.8756220000796,276.8756220000796,276.8756220000796,276.8756220000796,276.8756220000796,15,1,[0.0015873999800533056],[0.14996359986253083],276.8756220000796,277.0756731000729,0.0,277.0756731000729,0,0.0,0,1,1000,num_1,0.5992325998377055,,35,4,2026-03-13_13h31.35.054,2026A_exp2,2022.2.4,59.97558998639589,
1000,1,4.9,0.0,0,0,66,66,54,,,,,277.6929952001665,278.34383090003394,278.34383090003394,278.8280539000407,315,45,278.8280539000407,278.8280539000407,278.8280539000407,278.8280539000407,278.8280539000407,278.8280539000407,278.8280539000407,278.8280539000407,278.8280539000407,279.19427520013414,279.19427520013414,279.19427520013414,279.19427520013414,279.19427520013414,279.19427520013414,279.19427520013414,279.19427520013414,279.19427520013414,7,3,"[0.0012021998409181833, 0.23386529996059835, 0.3505235998891294]","[0.16703879996202886, 0.2837151999119669, 0.3671037999447435]",279.19427520013414,279.39687880012207,1000,279.39687880012207,1000,1000,1000,1000,0,num_3,0.7265825998038054,,35,4,2026-03-13_13h31.35.054,2026A_exp2,2022.2.4,59.97558998639589,
1,0,0.0,0.0,1,0,67,67,49,,,,,280.14541240013205,280.79828360001557,280.79828360001557,281.30261320015416,315,45,281.30261320015416,281.30261320015416,281.30261320015416,281.30261320015416,281.30261320015416,281.30261320015416,281.30261320015416,281.30261320015416,281.30261320015416,281.6637329000514,281.6637329000514,281.6637329000514,281.6637329000514,281.6637329000514,281.6637329000514,281.6637329000514,281.6637329000514,281.6637329000514,19,3,"[0.021588800009340048, 0.2827357000205666, 0.3495384000707418]","[0.03224890003912151, 0.31606189999729395, 0.3662207000888884]",281.6637329000514,281.8639798001386,0.0,281.8639798001386,0,0.0,0,1,1000,num_1,0.8108305998612195,,35,4,2026-03-13_13h31.35.054,2026A_exp2,2022.2.4,59.97558998639589,
1000,1,6.1,6.1,1,0,68,68,8,,,,,282.69809860014357,283.34863070002757,283.34863070002757,283.8332273000851,315,315,283.8332273000851,283.8332273000851,283.8332273000851,283.8332273000851,283.8332273000851,283.8332273000851,283.8332273000851,283.8332273000851,283.8332273000851,284.19952340004966,284.19952340004966,284.19952340004966,284.19952340004966,284.19952340004966,284.19952340004966,284.19952340004966,284.19952340004966,284.19952340004966,23,0,,,284.19952340004966,284.40153659996577,1000,284.40153659996577,1000,1000,1000,1000,0,num_3,0.6966669000685215,,35,4,2026-03-13_13h31.35.054,2026A_exp2,2022.2.4,59.97558998639589,
1000,1,6.1,6.1,0,0,69,69,16,,,,,285.11735970014706,285.767904400127,285.767904400127,286.2689106001053,315,315,286.2689106001053,286.2689106001053,286.2689106001053,286.2689106001053,286.2689106001053,286.2689106001053,286.2689106001053,286.2689106001053,286.2689106001053,286.6353502001148,286.6353502001148,286.6353502001148,286.6353502001148,286.6353502001148,286.6353502001148,286.6353502001148,286.6353502001148,286.6353502001148,23,0,,,286.6353502001148,286.83760850015096,1000,286.83760850015096,1000,1000,1000,1000,1,num_2,0.6058941998053342,,35,4,2026-03-13_13h31.35.054,2026A_exp2,2022.2.4,59.97558998639589,
1,0,6.1,0.0,1,0,70,70,70,,,,,287.46948470012285,288.12025750009343,288.12025750009343,288.62118500005454,45,315,288.62118500005454,288.62118500005454,288.62118500005454,288.62118500005454,288.62118500005454,288.62118500005454,288.62118500005454,288.62118500005454,288.62118500005454,288.9711462999694,288.9711462999694,288.9711462999694,288.9711462999694,288.9711462999694,288.9711462999694,288.9711462999694,288.9711462999694,288.9711462999694,22,0,,,288.9711462999694,289.17126560001634,0.0,289.1879761000164,0,0.0,0,1,1000,num_1,0.7740555997006595,,35,4,2026-03-13_13h31.35.054,2026A_exp2,2022.2.4,59.97558998639589,
1000,1,6.1,0.0,1,0,71,71,25,,,,,289.98854369996116,290.639234600123,290.639234600123,291.1238406000193,45,315,291.1238406000193,291.1238406000193,291.1238406000193,291.1238406000193,291.1238406000193,291.1238406000193,291.1238406000193,291.1238406000193,291.1238406000193,291.49021299998276,291.49021299998276,291.49021299998276,291.49021299998276,291.49021299998276,291.49021299998276,291.49021299998276,291.49021299998276,291.49021299998276,22,1,[0.06674499996006489],[0.08335130009800196],291.49021299998276,291.6922959999647,1000,291.6922959999647,1000,1000,1000,1000,0,num_3,0.6938817999325693,,35,4,2026-03-13_13h31.35.054,2026A_exp2,2022.2.4,59.97558998639589,
1,0,4.9,3.7,1,0,72,72,27,,,,,292.4080066999886,293.04171510017477,293.04171510017477,293.54282370000146,45,315,293.54282370000146,293.54282370000146,293.54282370000146,293.54282370000146,293.54282370000146,293.54282370000146,293.54282370000146,293.54282370000146,293.54282370000146,293.9092971000355,293.9092971000355,293.9092971000355,293.9092971000355,293.9092971000355,293.9092971000355,293.9092971000355,293.9092971000355,293.9092971000355,23,0,,,293.9092971000355,294.10918630007654,3.7,294.10918630007654,1,3.7,1,1,1000,num_4,0.7493800998199731,,35,4,2026-03-13_13h31.35.054,2026A_exp2,2022.2.4,59.97558998639589,
1000,1,4.9,0.0,1,0,73,73,10,,,,,294.87683970015496,295.5276033000555,295.5276033000555,296.0120592000894,45,45,296.0120592000894,296.0120592000894,296.0120592000894,296.0120592000894,296.0120592000894,296.0120592000894,296.0120592000894,296.0120592000894,296.0120592000894,296.37839670013636,296.37839670013636,296.37839670013636,296.37839670013636,296.37839670013636,296.37839670013636,296.37839670013636,296.37839670013636,296.37839670013636,23,0,,,296.37839670013636,296.5971266999841,1000,296.5971266999841,1000,1000,1000,1000,0,num_3,0.8062563000712544,,35,4,2026-03-13_13h31.35.054,2026A_exp2,2022.2.4,59.97558998639589,
1,0,0.0,6.1,1,0,74,74,50,,,,,297.4293613000773,298.08000269997865,298.08000269997865,298.5810412999708,315,45,298.5810412999708,298.5810412999708,298.5810412999708,298.5810412999708,298.5810412999708,298.5810412999708,298.5810412999708,298.5810412999708,298.5810412999708,298.9477109001018,298.9477109001018,298.9477109001018,298.9477109001018,298.9477109001018,298.9477109001018,298.9477109001018,298.9477109001018,298.9477109001018,23,0,,,298.9477109001018,299.1477517001331,6.1,299.1477517001331,1,6.1,1,1,1000,num_4,1.815251799998805,,35,4,2026-03-13_13h31.35.054,2026A_exp2,2022.2.4,59.97558998639589,
1000,1,3.7,0.0,1,0,75,75,38,,,,,300.98465430014767,301.6336920000613,301.6336920000613,302.13484910014085,45,315,302.13484910014085,302.13484910014085,302.13484910014085,302.13484910014085,302.13484910014085,302.13484910014085,302.13484910014085,302.13484910014085,302.13484910014085,302.5012644000817,302.5012644000817,302.5012644000817,302.5012644000817,302.5012644000817,302.5012644000817,302.5012644000817,302.5012644000817,302.5012644000817,11,6,"[0.0013828999362885952, 0.11671170010231435, 0.16659600008279085, 0.2835905998945236, 0.3168429001234472, 0.3668126999400556]","[0.017362700076773763, 0.14970479998737574, 0.26695080008357763, 0.3003889999818057, 0.33355049998499453, 0.3668170999735594]",302.5012644000817,302.7012172001414,1000,302.7012172001414,1000,1000,1000,1000,0,num_3,0.9178319997154176,,35,4,2026-03-13_13h31.35.054,2026A_exp2,2022.2.4,59.97558998639589,
1,0,0.0,0.0,1,0,76,76,39,,,,,303.635556000052,304.2862154999748,304.2862154999748,304.7874149000272,45,45,304.7874149000272,304.7874149000272,304.7874149000272,304.7874149000272,304.7874149000272,304.7874149000272,304.7874149000272,304.7874149000272,304.7874149000272,305.13727020006627,305.13727020006627,305.13727020006627,305.13727020006627,305.13727020006627,305.13727020006627,305.13727020006627,305.13727020006627,305.13727020006627,22,0,,,305.13727020006627,305.34399379999377,0.0,305.34399379999377,0,0.0,0,1,1000,num_1,0.8355102997738868,,35,4,2026-03-13_13h31.35.054,2026A_exp2,2022.2.4,59.97558998639589,
1,0,0.0,4.9,0,0,77,77,3,,,,,306.20498739997856,306.85531500005163,306.85531500005163,307.35785150015727,315,45,307.35785150015727,307.35785150015727,307.35785150015727,307.35785150015727,307.35785150015727,307.35785150015727,307.35785150015727,307.35785150015727,307.35785150015727,307.7229406000115,307.7229406000115,307.7229406000115,307.7229406000115,307.7229406000115,307.7229406000115,307.7229406000115,307.7229406000115,307.7229406000115,23,0,,,307.7229406000115,307.9233534000814,0.0,307.9233534000814,0,0.0,0,1,1000,num_1,0.7346303998492658,,35,4,2026-03-13_13h31.35.054,2026A_exp2,2022.2.4,59.97558998639589,
1000,1,0.0,0.0,1,0,78,78,1,,,,,308.6738786001224,309.3247483000159,309.3247483000159,309.81037289998494,45,315,309.81037289998494,309.81037289998494,309.81037289998494,309.81037289998494,309.81037289998494,309.81037289998494,309.81037289998494,309.81037289998494,309.81037289998494,310.17559280013666,310.17559280013666,310.17559280013666,310.17559280013666,310.17559280013666,310.17559280013666,310.17559280013666,310.17559280013666,310.17559280013666,23,0,,,310.17559280013666,310.3776960000396,1000,310.3776960000396,1000,1000,1000,1000,0,num_3,0.7363901000935584,,35,4,2026-03-13_13h31.35.054,2026A_exp2,2022.2.4,59.97558998639589,
1000,1,0.0,3.7,1,0,79,79,13,,,,,311.14321879995987,311.79384110006504,311.79384110006504,312.29497559997253,45,315,312.29497559997253,312.29497559997253,312.29497559997253,312.29497559997253,312.29497559997253,312.29497559997253,312.29497559997253,312.29497559997253,312.29497559997253,312.6444987000432,312.6444987000432,312.6444987000432,312.6444987000432,312.6444987000432,312.6444987000432,312.6444987000432,312.6444987000432,312.6444987000432,22,0,,,312.6444987000432,312.84690430015326,1000,312.8616009999532,1000,1000,1000,1000,1,num_2,1.1652069997508079,,35,4,2026-03-13_13h31.35.054,2026A_exp2,2022.2.4,59.97558998639589,
1000,1,0.0,6.1,1,0,80,80,71,,,,,314.04599600005895,314.69669990008697,314.69669990008697,315.19775209994987,45,45,315.19775209994987,315.19775209994987,315.19775209994987,315.19775209994987,315.19775209994987,315.19775209994987,315.19775209994987,315.19775209994987,315.19775209994987,315.5476443001535,315.5476443001535,315.5476443001535,315.5476443001535,315.5476443001535,315.5476443001535,315.5476443001535,315.5476443001535,315.5476443001535,22,0,,,315.5476443001535,315.7496164001059,1000,315.7645489999559,1000,1000,1000,1000,1,num_2,0.6625848000403494,,35,4,2026-03-13_13h31.35.054,2026A_exp2,2022.2.4,59.97558998639589,
1000,1,0.0,4.9,0,0,81,81,6,,,,,316.44856870011427,317.0992575001437,317.0992575001437,317.58357440005057,315,45,317.58357440005057,317.58357440005057,317.58357440005057,317.58357440005057,317.58357440005057,317.58357440005057,317.58357440005057,317.58357440005057,317.58357440005057,317.9499768000096,317.9499768000096,317.9499768000096,317.9499768000096,317.9499768000096,317.9499768000096,317.9499768000096,317.9499768000096,317.9499768000096,1,2,"[0.0012866000179201365, 0.1501972998958081]","[0.13328429986722767, 0.3672225000336766]",317.9499768000096,318.1520770001225,1000,318.1520770001225,1000,1000,1000,1000,1,num_2,0.5709807998500764,,35,4,2026-03-13_13h31.35.054,2026A_exp2,2022.2.4,59.97558998639589,
1000,1,6.1,0.0,0,0,82,82,81,,,,,318.75071289995685,319.40132679999806,319.40132679999806,319.90246170014143,315,45,319.90246170014143,319.90246170014143,319.90246170014143,319.90246170014143,319.90246170014143,319.90246170014143,319.90246170014143,319.90246170014143,319.90246170014143,320.2688486999832,320.2688486999832,320.2688486999832,320.2688486999832,320.2688486999832,320.2688486999832,320.2688486999832,320.2688486999832,320.2688486999832,23,0,,,320.2688486999832,320.47112970007583,1000,320.47112970007583,1000,1000,1000,1000,0,num_3,0.6348373999353498,,35,4,2026-03-13_13h31.35.054,2026A_exp2,2022.2.4,59.97558998639589,
1,0,0.0,4.9,1,0,83,83,37,,,,,321.13641440006904,321.7872036001645,321.7872036001645,322.2882370001171,45,45,322.2882370001171,322.2882370001171,322.2882370001171,322.2882370001171,322.2882370001171,322.2882370001171,322.2882370001171,322.2882370001171,322.2882370001171,322.65470400010236,322.65470400010236,322.65470400010236,322.65470400010236,322.65470400010236,322.65470400010236,322.65470400010236,322.65470400010236,322.65470400010236,23,0,,,322.65470400010236,322.85502230003476,4.9,322.85502230003476,0,4.9,1,0,1000,num_1,0.6761272998992354,,35,4,2026-03-13_13h31.35.054,2026A_exp2,2022.2.4,59.97558998639589,
1000,1,0.0,0.0,0,0,84,84,15,,,,,323.5554975999985,324.2063500001095,324.2063500001095,324.6907573000062,315,315,324.6907573000062,324.6907573000062,324.6907573000062,324.6907573000062,324.6907573000062,324.6907573000062,324.6907573000062,324.6907573000062,324.6907573000062,325.0570575001184,325.0570575001184,325.0570575001184,325.0570575001184,325.0570575001184,325.0570575001184,325.0570575001184,325.0570575001184,325.0570575001184,21,1,[0.0012075998820364475],[0.03369880001991987],325.0570575001184,325.2591206000652,1000,325.2591206000652,1000,1000,1000,1000,1,num_2,0.7441739998757839,,35,4,2026-03-13_13h31.35.054,2026A_exp2,2022.2.4,59.97558998639589,
1,0,3.7,0.0,1,0,85,85,12,,,,,326.0245928000659,326.6752237000037,326.6752237000037,327.17648180015385,45,45,327.17648180015385,327.17648180015385,327.17648180015385,327.17648180015385,327.17648180015385,327.17648180015385,327.17648180015385,327.17648180015385,327.17648180015385,327.52626319997944,327.52626319997944,327.52626319997944,327.52626319997944,327.52626319997944,327.52626319997944,327.52626319997944,327.52626319997944,327.52626319997944,22,0,,,327.52626319997944,327.7265471999999,0.0,327.7432046001777,0,0.0,0,1,1000,num_1,0.787193400086835,,35,4,2026-03-13_13h31.35.054,2026A_exp2,2022.2.4,59.97558998639589,
1000,1,0.0,0.0,1,0,86,86,9,,,,,328.5605733001139,329.21130530000664,329.21130530000664,329.6955963000655,315,315,329.6955963000655,329.6955963000655,329.6955963000655,329.6955963000655,329.6955963000655,329.6955963000655,329.6955963000655,329.6955963000655,329.6955963000655,330.0620689999778,330.0620689999778,330.0620689999778,330.0620689999778,330.0620689999778,330.0620689999778,330.0620689999778,330.0620689999778,330.0620689999778,23,0,,,330.0620689999778,330.26408240012825,1000,330.26408240012825,1000,1000,1000,1000,0,num_3,0.6988070998340845,,35,4,2026-03-13_13h31.35.054,2026A_exp2,2022.2.4,59.97558998639589,
1000,1,6.1,6.1,1,0,87,87,4,,,,,330.9795830999501,331.63031719997525,331.63031719997525,332.13150350004435,45,45,332.13150350004435,332.13150350004435,332.13150350004435,332.13150350004435,332.13150350004435,332.13150350004435,332.13150350004435,332.13150350004435,332.13150350004435,332.497742400039,332.497742400039,332.497742400039,332.497742400039,332.497742400039,332.497742400039,332.497742400039,332.497742400039,332.497742400039,11,2,"[0.06675030011683702, 0.1669187000952661]","[0.10027760011143982, 0.3339327001012862]",332.497742400039,332.70006359997205,1000,332.70006359997205,1000,1000,1000,1000,0,num_3,0.6233946997672319,,35,4,2026-03-13_13h31.35.054,2026A_exp2,2022.2.4,59.97558998639589,
1,0,6.1,6.1,1,0,88,88,23,,,,,333.3485646999907,333.99936669995077,333.99936669995077,334.50047360011376,315,45,334.50047360011376,334.50047360011376,334.50047360011376,334.50047360011376,334.50047360011376,334.50047360011376,334.50047360011376,334.50047360011376,334.50047360011376,334.8669430001173,334.8669430001173,334.8669430001173,334.8669430001173,334.8669430001173,334.8669430001173,334.8669430001173,334.8669430001173,334.8669430001173,18,3,"[0.03356790007092059, 0.1169004999101162, 0.28379269992001355]","[0.04993030009791255, 0.15033599990420043, 0.3171773001085967]",334.8669430001173,335.06716209999286,6.1,335.06716209999286,1,6.1,1,1,1000,num_4,1.0636897997464985,,35,4,2026-03-13_13h31.35.054,2026A_exp2,2022.2.4,59.97558998639589,
1000,1,0.0,0.0,0,0,89,89,5,,,,,336.15139030013233,336.8020705000963,336.8020705000963,337.28636390017346,315,315,337.28636390017346,337.28636390017346,337.28636390017346,337.28636390017346,337.28636390017346,337.28636390017346,337.28636390017346,337.28636390017346,337.28636390017346,337.6530641000718,337.6530641000718,337.6530641000718,337.6530641000718,337.6530641000718,337.6530641000718,337.6530641000718,337.6530641000718,337.6530641000718,22,1,[0.1837454999331385],[0.20058639999479055],337.6530641000718,337.85536180017516,1000,337.85536180017516,1000,1000,1000,1000,1,num_2,0.9400531998835504,,35,4,2026-03-13_13h31.35.054,2026A_exp2,2022.2.4,59.97558998639589,
,,,,,,,,,,,,,,,,,,,,,,,,,,,,,,,,,,,,,,,,,,,,,,,,,,,,338.8294840999879,,,,,,,
