validity,detectorcomp,contrastCW,contrastCCW,precueCWorCCW,block_80trials.thisRepN,block_80trials.thisTrialN,block_80trials.thisN,block_80trials.thisIndex,etRecord.started,etRecord.stopped,text.started,text.stopped,text_4.started,text_4.stopped,text_6.started,text_6.stopped,oriCW,oriCCW,roi_2.started,grating_UR.started,grating_UL.started,grating_LR.started,grating_LL.started,noise_UR.started,noise_UL.started,noise_LR.started,noise_LL.started,roi_2.stopped,grating_UR.stopped,grating_UL.stopped,grating_LR.stopped,grating_LL.stopped,noise_UR.stopped,noise_UL.stopped,noise_LR.stopped,noise_LL.stopped,outframe,roi_2.numLooks,roi_2.timesOn,roi_2.timesOff,text_2.started,text_2.stopped,probedcontrast,key_resp.started,respdetect,relevantContrast,correctDetect,TorFdetect,respCWorCCW,key_resp.keys,key_resp.rt,feedback_display_.started,participantNo,blockNo,date,expName,psychopyVersion,frameRate,
1000,1,3.7,0.0,1,0,0,0,19,5.1900045946240425e-05,5.1900045946240425e-05,51.0795067998115,53.0816724000033,53.0816724000033,53.71586909983307,53.71586909983307,54.23863609996624,45,315,54.23863609996624,54.23863609996624,54.23863609996624,54.23863609996624,54.23863609996624,54.23863609996624,54.23863609996624,54.23863609996624,54.23863609996624,54.58355629979633,54.58355629979633,54.58355629979633,54.58355629979633,54.58355629979633,54.58355629979633,54.58355629979633,54.58355629979633,54.58355629979633,2,3,"[0.0009677999187260866, 0.04760980000719428, 0.23422030010260642]","[0.039217199897393584, 0.21758499997667968, 0.3674413999542594]",54.58355629979633,54.79084749985486,1000,54.79084749985486,1000,1000,1000,1000,1,num_2,1.0897052001673728,,37,12,2026-03-13_18h35.34.645,2026A_exp2,2022.2.4,59.977640360920795,
1,0,0.0,0.0,0,0,1,1,79,,,,,55.901463999878615,56.5517058998812,56.5517058998812,57.05320579977706,45,315,57.05320579977706,57.05320579977706,57.05320579977706,57.05320579977706,57.05320579977706,57.05320579977706,57.05320579977706,57.05320579977706,57.05320579977706,57.41962259984575,57.41962259984575,57.41962259984575,57.41962259984575,57.41962259984575,57.41962259984575,57.41962259984575,57.41962259984575,57.41962259984575,0,1,[0.0012116001453250647],[0.36714940005913377],57.41962259984575,57.61985699995421,0.0,57.61985699995421,0,0.0,0,1,1000,num_1,1.228606600081548,,37,12,2026-03-13_18h35.34.645,2026A_exp2,2022.2.4,59.977640360920795,
0,0,3.7,0.0,0,0,2,2,62,,,,,58.87107989983633,59.521677299868315,59.521677299868315,60.00606419984251,315,315,60.00606419984251,60.00606419984251,60.00606419984251,60.00606419984251,60.00606419984251,60.00606419984251,60.00606419984251,60.00606419984251,60.00606419984251,60.37258520000614,60.37258520000614,60.37258520000614,60.37258520000614,60.37258520000614,60.37258520000614,60.37258520000614,60.37258520000614,60.37258520000614,0,1,[0.0012785999570041895],[0.3670878999400884],60.37258520000614,60.57266699988395,0.0,60.57266699988395,0,0.0,0,1,1000,num_1,0.9643089002929628,,37,12,2026-03-13_18h35.34.645,2026A_exp2,2022.2.4,59.977640360920795,
1000,1,6.1,0.0,1,0,3,3,83,,,,,61.556996800005436,62.207606699783355,62.207606699783355,62.69219269999303,45,315,62.69219269999303,62.69219269999303,62.69219269999303,62.69219269999303,62.69219269999303,62.69219269999303,62.69219269999303,62.69219269999303,62.69219269999303,63.05864209984429,63.05864209984429,63.05864209984429,63.05864209984429,63.05864209984429,63.05864209984429,63.05864209984429,63.05864209984429,63.05864209984429,14,4,"[0.05016320012509823, 0.21704980009235442, 0.25038340012542903, 0.3338270999956876]","[0.10018720012158155, 0.2337499000132084, 0.30047120014205575, 0.3671472000423819]",63.05864209984429,63.260934399906546,1000,63.260934399906546,1000,1000,1000,1000,0,num_3,0.5478499000892043,,37,12,2026-03-13_18h35.34.645,2026A_exp2,2022.2.4,59.977640360920795,
1000,1,0.0,4.9,0,0,4,4,26,,,,,63.825938399881124,64.47675079992041,64.47675079992041,64.97779849986546,45,315,64.97779849986546,64.97779849986546,64.97779849986546,64.97779849986546,64.97779849986546,64.97779849986546,64.97779849986546,64.97779849986546,64.97779849986546,65.34420429985039,65.34420429985039,65.34420429985039,65.34420429985039,65.34420429985039,65.34420429985039,65.34420429985039,65.34420429985039,65.34420429985039,17,3,"[0.20040849992074072, 0.25044750003144145, 0.3338079999666661]","[0.23361420002765954, 0.28380839992314577, 0.3672273000702262]",65.34420429985039,65.54595089983195,1000,65.54595089983195,1000,1000,1000,1000,1,num_2,0.6146804001182318,,37,12,2026-03-13_18h35.34.645,2026A_exp2,2022.2.4,59.977640360920795,
1000,1,4.9,0.0,1,0,5,5,10,,,,,66.17867369996384,66.82912409980781,66.82912409980781,67.31344079994597,45,45,67.31344079994597,67.31344079994597,67.31344079994597,67.31344079994597,67.31344079994597,67.31344079994597,67.31344079994597,67.31344079994597,67.31344079994597,67.67970829992555,67.67970829992555,67.67970829992555,67.67970829992555,67.67970829992555,67.67970829992555,67.67970829992555,67.67970829992555,67.67970829992555,0,1,[0.001253299880772829],[0.36721850000321865],67.67970829992555,67.88170489994809,1000,67.88170489994809,1000,1000,1000,1000,0,num_3,0.3115006999578327,,37,12,2026-03-13_18h35.34.645,2026A_exp2,2022.2.4,59.977640360920795,
1000,1,6.1,6.1,0,0,6,6,16,,,,,68.21377139980905,68.86444089980796,68.86444089980796,69.34870129986666,315,45,69.34870129986666,69.34870129986666,69.34870129986666,69.34870129986666,69.34870129986666,69.34870129986666,69.34870129986666,69.34870129986666,69.34870129986666,69.71527179982513,69.71527179982513,69.71527179982513,69.71527179982513,69.71527179982513,69.71527179982513,69.71527179982513,69.71527179982513,69.71527179982513,0,1,[0.0012540000025182962],[0.3671246999874711],69.71527179982513,69.91745899990201,1000,69.91745899990201,1000,1000,1000,1000,0,num_3,0.39528350019827485,,37,12,2026-03-13_18h35.34.645,2026A_exp2,2022.2.4,59.977640360920795,
1,0,0.0,0.0,1,0,7,7,69,,,,,70.3324601999484,70.98312369990163,70.98312369990163,71.48433089978062,45,315,71.48433089978062,71.48433089978062,71.48433089978062,71.48433089978062,71.48433089978062,71.48433089978062,71.48433089978062,71.48433089978062,71.48433089978062,71.85070899990387,71.85070899990387,71.85070899990387,71.85070899990387,71.85070899990387,71.85070899990387,71.85070899990387,71.85070899990387,71.85070899990387,0,1,[0.00120749999769032],[0.3672351997811347],71.85070899990387,72.05090819997713,0.0,72.05090819997713,1,0.0,0,0,1000,num_4,0.9730559003073722,,37,12,2026-03-13_18h35.34.645,2026A_exp2,2022.2.4,59.977640360920795,
1,0,3.7,6.1,0,0,8,8,52,,,,,73.0517265999224,73.70264839986339,73.70264839986339,74.18703849986196,45,315,74.18703849986196,74.18703849986196,74.18703849986196,74.18703849986196,74.18703849986196,74.18703849986196,74.18703849986196,74.18703849986196,74.18703849986196,74.55335089983419,74.55335089983419,74.55335089983419,74.55335089983419,74.55335089983419,74.55335089983419,74.55335089983419,74.55335089983419,74.55335089983419,21,1,[0.2671723999083042],[0.30050949985161424],74.55335089983419,74.75357029982843,3.7,74.75357029982843,0,3.7,1,0,1000,num_1,0.727107800077647,,37,12,2026-03-13_18h35.34.645,2026A_exp2,2022.2.4,59.977640360920795,
1000,1,4.9,0.0,0,0,9,9,54,,,,,75.50424769986421,76.15499459998682,76.15499459998682,76.63938239985146,315,45,76.63938239985146,76.63938239985146,76.63938239985146,76.63938239985146,76.63938239985146,76.63938239985146,76.63938239985146,76.63938239985146,76.63938239985146,77.00586249982007,77.00586249982007,77.00586249982007,77.00586249982007,77.00586249982007,77.00586249982007,77.00586249982007,77.00586249982007,77.00586249982007,19,4,"[0.23389560007490218, 0.2838820000179112, 0.31728390022180974, 0.35068620019592345]","[0.25061500002630055, 0.3006076000165194, 0.33404330001212656, 0.36742200003936887]",77.00586249982007,77.20791829982772,1000,77.20791829982772,1000,1000,1000,1000,0,num_3,0.5128478000406176,,37,12,2026-03-13_18h35.34.645,2026A_exp2,2022.2.4,59.977640360920795,
1000,1,3.7,0.0,0,0,10,10,56,,,,,77.73983619990759,78.39055769983679,78.39055769983679,78.89159269980155,315,315,78.89159269980155,78.89159269980155,78.89159269980155,78.89159269980155,78.89159269980155,78.89159269980155,78.89159269980155,78.89159269980155,78.89159269980155,79.2581161998678,79.2581161998678,79.2581161998678,79.2581161998678,79.2581161998678,79.2581161998678,79.2581161998678,79.2581161998678,79.2581161998678,23,0,,,79.2581161998678,79.46022999985144,1000,79.46022999985144,1000,1000,1000,1000,0,num_3,0.39608180010691285,,37,12,2026-03-13_18h35.34.645,2026A_exp2,2022.2.4,59.977640360920795,
1000,1,0.0,0.0,1,0,11,11,85,,,,,79.87531129992567,80.52607739996165,80.52607739996165,81.02715629991144,45,315,81.02715629991144,81.02715629991144,81.02715629991144,81.02715629991144,81.02715629991144,81.02715629991144,81.02715629991144,81.02715629991144,81.02715629991144,81.3769351998344,81.3769351998344,81.3769351998344,81.3769351998344,81.3769351998344,81.3769351998344,81.3769351998344,81.3769351998344,81.3769351998344,3,3,"[0.001212799921631813, 0.05001839995384216, 0.08356929989531636]","[0.01731939986348152, 0.0668714998755604, 0.3503349998500198]",81.3769351998344,81.57709739985876,1000,81.57709739985876,1000,1000,1000,1000,1,num_2,0.5436174999922514,,37,12,2026-03-13_18h35.34.645,2026A_exp2,2022.2.4,59.977640360920795,
1,0,6.1,3.7,1,0,12,12,51,,,,,82.14424119982868,82.79512739996426,82.79512739996426,83.29597359988838,45,315,83.29597359988838,83.29597359988838,83.29597359988838,83.29597359988838,83.29597359988838,83.29597359988838,83.29597359988838,83.29597359988838,83.29597359988838,83.66218129987828,83.66218129987828,83.66218129987828,83.66218129987828,83.66218129987828,83.66218129987828,83.66218129987828,83.66218129987828,83.66218129987828,23,0,,,83.66218129987828,83.8624245999381,3.7,83.8624245999381,1,3.7,1,1,1000,num_4,1.03414690005593,,37,12,2026-03-13_18h35.34.645,2026A_exp2,2022.2.4,59.977640360920795,
1,0,0.0,0.0,0,0,13,13,55,,,,,84.91357189998962,85.56442359997891,85.56442359997891,86.0487196999602,45,45,86.0487196999602,86.0487196999602,86.0487196999602,86.0487196999602,86.0487196999602,86.0487196999602,86.0487196999602,86.0487196999602,86.0487196999602,86.41529299994,86.41529299994,86.41529299994,86.41529299994,86.41529299994,86.41529299994,86.41529299994,86.41529299994,86.41529299994,23,0,,,86.41529299994,86.61542989988811,0.0,86.61542989988811,0,0.0,0,1,1000,num_1,1.360940600046888,,37,12,2026-03-13_18h35.34.645,2026A_exp2,2022.2.4,59.977640360920795,
1,0,0.0,6.1,1,0,14,14,36,,,,,88.00011149980128,88.65078869997524,88.65078869997524,89.1516880998388,315,45,89.1516880998388,89.1516880998388,89.1516880998388,89.1516880998388,89.1516880998388,89.1516880998388,89.1516880998388,89.1516880998388,89.1516880998388,89.51827819994651,89.51827819994651,89.51827819994651,89.51827819994651,89.51827819994651,89.51827819994651,89.51827819994651,89.51827819994651,89.51827819994651,23,0,,,89.51827819994651,89.71862169983797,6.1,89.71862169983797,1,6.1,1,1,1000,num_4,0.47485170024447143,,37,12,2026-03-13_18h35.34.645,2026A_exp2,2022.2.4,59.977640360920795,
1000,1,6.1,0.0,0,0,15,15,81,,,,,90.21901119989343,90.86962109990418,90.86962109990418,91.37089189980179,45,315,91.37089189980179,91.37089189980179,91.37089189980179,91.37089189980179,91.37089189980179,91.37089189980179,91.37089189980179,91.37089189980179,91.37089189980179,91.7368646999821,91.7368646999821,91.7368646999821,91.7368646999821,91.7368646999821,91.7368646999821,91.7368646999821,91.7368646999821,91.7368646999821,6,5,"[0.03392930002883077, 0.06731449998915195, 0.20111630018800497, 0.26777430018410087, 0.3011913001537323]","[0.05038770008832216, 0.18437220016494393, 0.25109510007314384, 0.2845461000688374, 0.3678556000813842]",91.7368646999821,91.93929859995842,1000,91.93929859995842,1000,1000,1000,1000,0,num_3,0.46132869995199144,,37,12,2026-03-13_18h35.34.645,2026A_exp2,2022.2.4,59.977640360920795,
0,0,6.1,0.0,0,0,16,16,74,,,,,92.42117129988037,93.07179789990187,93.07179789990187,93.57296539982781,315,315,93.57296539982781,93.57296539982781,93.57296539982781,93.57296539982781,93.57296539982781,93.57296539982781,93.57296539982781,93.57296539982781,93.57296539982781,93.9392457997892,93.9392457997892,93.9392457997892,93.9392457997892,93.9392457997892,93.9392457997892,93.9392457997892,93.9392457997892,93.9392457997892,22,1,[0.18368409993126988],[0.20024999999441206],93.9392457997892,94.1394461998716,0.0,94.1394461998716,0,0.0,0,1,1000,num_1,0.9164551002904773,,37,12,2026-03-13_18h35.34.645,2026A_exp2,2022.2.4,59.977640360920795,
1,0,0.0,0.0,0,0,17,17,24,,,,,95.0737004999537,95.72456619981676,95.72456619981676,96.20892409980297,45,45,96.20892409980297,96.20892409980297,96.20892409980297,96.20892409980297,96.20892409980297,96.20892409980297,96.20892409980297,96.20892409980297,96.20892409980297,96.5753583998885,96.5753583998885,96.5753583998885,96.5753583998885,96.5753583998885,96.5753583998885,96.5753583998885,96.5753583998885,96.5753583998885,5,1,[0.08370550000108778],[0.3673666000831872],96.5753583998885,96.77568549988791,0.0,96.77568549988791,0,0.0,0,1,1000,num_1,2.232484800275415,,37,12,2026-03-13_18h35.34.645,2026A_exp2,2022.2.4,59.977640360920795,
0,0,4.9,3.7,0,0,18,18,28,,,,,99.0277982999105,99.67857849993743,99.67857849993743,100.16282869991846,45,45,100.16282869991846,100.16282869991846,100.16282869991846,100.16282869991846,100.16282869991846,100.16282869991846,100.16282869991846,100.16282869991846,100.16282869991846,100.52933959988877,100.52933959988877,100.52933959988877,100.52933959988877,100.52933959988877,100.52933959988877,100.52933959988877,100.52933959988877,100.52933959988877,23,0,,,100.52933959988877,100.72952819988132,3.7,100.72952819988132,0,3.7,1,0,1000,num_1,1.7590354001149535,,37,12,2026-03-13_18h35.34.645,2026A_exp2,2022.2.4,59.977640360920795,
1,0,0.0,6.1,0,0,19,19,0,,,,,102.51463009999134,103.16534669999965,103.16534669999965,103.64969369978644,45,315,103.64969369978644,103.64969369978644,103.64969369978644,103.64969369978644,103.64969369978644,103.64969369978644,103.64969369978644,103.64969369978644,103.64969369978644,104.01609979989007,104.01609979989007,104.01609979989007,104.01609979989007,104.01609979989007,104.01609979989007,104.01609979989007,104.01609979989007,104.01609979989007,0,1,[0.0012122001498937607],[0.3672633001115173],104.01609979989007,104.21634609997272,0.0,104.21634609997272,0,0.0,0,1,1000,num_1,0.78433070005849,,37,12,2026-03-13_18h35.34.645,2026A_exp2,2022.2.4,59.977640360920795,
1000,1,3.7,6.1,1,0,20,20,48,,,,,105.01711379992776,105.66780029982328,105.66780029982328,106.15228839986958,45,45,106.15228839986958,106.15228839986958,106.15228839986958,106.15228839986958,106.15228839986958,106.15228839986958,106.15228839986958,106.15228839986958,106.15228839986958,106.51854819990695,106.51854819990695,106.51854819990695,106.51854819990695,106.51854819990695,106.51854819990695,106.51854819990695,106.51854819990695,106.51854819990695,0,1,[0.0012325001880526543],[0.36718820012174547],106.51854819990695,106.72115809982643,1000,106.72115809982643,1000,1000,1000,1000,1,num_2,0.5827700002118945,,37,12,2026-03-13_18h35.34.645,2026A_exp2,2022.2.4,59.977640360920795,
1000,1,4.9,4.9,1,0,21,21,68,,,,,107.31940029980615,107.97017759992741,107.97017759992741,108.4710784999188,45,45,108.4710784999188,108.4710784999188,108.4710784999188,108.4710784999188,108.4710784999188,108.4710784999188,108.4710784999188,108.4710784999188,108.4710784999188,108.83774419990368,108.83774419990368,108.83774419990368,108.83774419990368,108.83774419990368,108.83774419990368,108.83774419990368,108.83774419990368,108.83774419990368,23,0,,,108.83774419990368,109.03922969987616,1000,109.03922969987616,1000,1000,1000,1000,0,num_3,0.5058524000924081,,37,12,2026-03-13_18h35.34.645,2026A_exp2,2022.2.4,59.977640360920795,
1,0,4.9,3.7,1,0,22,22,27,,,,,109.57165769999847,110.22242209990509,110.22242209990509,110.72353169997223,315,315,110.72353169997223,110.72353169997223,110.72353169997223,110.72353169997223,110.72353169997223,110.72353169997223,110.72353169997223,110.72353169997223,110.72353169997223,111.08997879992239,111.08997879992239,111.08997879992239,111.08997879992239,111.08997879992239,111.08997879992239,111.08997879992239,111.08997879992239,111.08997879992239,23,0,,,111.08997879992239,111.29016919992864,3.7,111.29016919992864,0,3.7,1,0,1000,num_1,1.2786564000416547,,37,12,2026-03-13_18h35.34.645,2026A_exp2,2022.2.4,59.977640360920795,
1,0,0.0,0.0,0,0,23,23,88,,,,,112.5912588997744,113.24209539988078,113.24209539988078,113.7263567999471,315,45,113.7263567999471,113.7263567999471,113.7263567999471,113.7263567999471,113.7263567999471,113.7263567999471,113.7263567999471,113.7263567999471,113.7263567999471,114.09294179989956,114.09294179989956,114.09294179989956,114.09294179989956,114.09294179989956,114.09294179989956,114.09294179989956,114.09294179989956,114.09294179989956,23,0,,,114.09294179989956,114.29319739993662,0.0,114.29319739993662,0,0.0,0,1,1000,num_1,1.7157084001228213,,37,12,2026-03-13_18h35.34.645,2026A_exp2,2022.2.4,59.977640360920795,
1,0,3.7,4.9,1,0,24,24,20,,,,,116.02801309991628,116.67883119988255,116.67883119988255,117.1799963999074,315,45,117.1799963999074,117.1799963999074,117.1799963999074,117.1799963999074,117.1799963999074,117.1799963999074,117.1799963999074,117.1799963999074,117.1799963999074,117.54634939995594,117.54634939995594,117.54634939995594,117.54634939995594,117.54634939995594,117.54634939995594,117.54634939995594,117.54634939995594,117.54634939995594,23,0,,,117.54634939995594,117.74644939997233,4.9,117.74644939997233,1,4.9,1,1,1000,num_4,1.5102371003013104,,37,12,2026-03-13_18h35.34.645,2026A_exp2,2022.2.4,59.977640360920795,
1000,1,0.0,4.9,0,0,25,25,60,,,,,119.28133179992437,119.9321450998541,119.9321450998541,120.41657149977982,45,315,120.41657149977982,120.41657149977982,120.41657149977982,120.41657149977982,120.41657149977982,120.41657149977982,120.41657149977982,120.41657149977982,120.41657149977982,120.78298389981501,120.78298389981501,120.78298389981501,120.78298389981501,120.78298389981501,120.78298389981501,120.78298389981501,120.78298389981501,120.78298389981501,9,5,"[0.0011974000371992588, 0.10019299993291497, 0.18344619986601174, 0.21699499990791082, 0.3004293998237699]","[0.050255100009962916, 0.11703999992460012, 0.2001876998692751, 0.28373499982990324, 0.367100500036031]",120.78298389981501,120.98452909989282,1000,120.98452909989282,1000,1000,1000,1000,1,num_2,0.4715493000112474,,37,12,2026-03-13_18h35.34.645,2026A_exp2,2022.2.4,59.977640360920795,
1000,1,0.0,4.9,0,0,26,26,6,,,,,121.48360859998502,122.13432299997658,122.13432299997658,122.63540089991875,45,45,122.63540089991875,122.63540089991875,122.63540089991875,122.63540089991875,122.63540089991875,122.63540089991875,122.63540089991875,122.63540089991875,122.63540089991875,123.00185289978981,123.00185289978981,123.00185289978981,123.00185289978981,123.00185289978981,123.00185289978981,123.00185289978981,123.00185289978981,123.00185289978981,19,2,"[0.2672688001766801, 0.33400080003775656]","[0.2838967000134289, 0.36698690010234714]",123.00185289978981,123.2041812997777,1000,123.2041812997777,1000,1000,1000,1000,1,num_2,0.41985960002057254,,37,12,2026-03-13_18h35.34.645,2026A_exp2,2022.2.4,59.977640360920795,
1000,1,0.0,0.0,0,0,27,27,15,,,,,123.65243249991909,124.30314289988019,124.30314289988019,124.80410719988868,315,45,124.80410719988868,124.80410719988868,124.80410719988868,124.80410719988868,124.80410719988868,124.80410719988868,124.80410719988868,124.80410719988868,124.80410719988868,125.17063779989257,125.17063779989257,125.17063779989257,125.17063779989257,125.17063779989257,125.17063779989257,125.17063779989257,125.17063779989257,125.17063779989257,23,0,,,125.17063779989257,125.3729585998226,1000,125.3729585998226,1000,1000,1000,1000,0,num_3,0.243245700141415,,37,12,2026-03-13_18h35.34.645,2026A_exp2,2022.2.4,59.977640360920795,
1000,1,3.7,3.7,0,0,28,28,63,,,,,125.63771139993332,126.28848139988258,126.28848139988258,126.78962479997426,315,45,126.78962479997426,126.78962479997426,126.78962479997426,126.78962479997426,126.78962479997426,126.78962479997426,126.78962479997426,126.78962479997426,126.78962479997426,127.15600979980081,127.15600979980081,127.15600979980081,127.15600979980081,127.15600979980081,127.15600979980081,127.15600979980081,127.15600979980081,127.15600979980081,0,1,[0.0012205999810248613],[0.3671417001169175],127.15600979980081,127.35793119994923,1000,127.35793119994923,1000,1000,1000,1000,0,num_3,0.21102380007505417,,37,12,2026-03-13_18h35.34.645,2026A_exp2,2022.2.4,59.977640360920795,
1000,1,0.0,0.0,0,0,29,29,7,,,,,127.58982449979521,128.2402689999435,128.2402689999435,128.74148899991997,45,45,128.74148899991997,128.74148899991997,128.74148899991997,128.74148899991997,128.74148899991997,128.74148899991997,128.74148899991997,128.74148899991997,128.74148899991997,129.1079744999297,129.1079744999297,129.1079744999297,129.1079744999297,129.1079744999297,129.1079744999297,129.1079744999297,129.1079744999297,129.1079744999297,23,0,,,129.1079744999297,129.30983589985408,1000,129.30983589985408,1000,1000,1000,1000,1,num_2,0.3222838002257049,,37,12,2026-03-13_18h35.34.645,2026A_exp2,2022.2.4,59.977640360920795,
1000,1,4.9,3.7,0,0,30,30,40,,,,,129.65836989996023,130.3091654998716,130.3091654998716,130.81020499998704,45,45,130.81020499998704,130.81020499998704,130.81020499998704,130.81020499998704,130.81020499998704,130.81020499998704,130.81020499998704,130.81020499998704,130.81020499998704,131.17668069992214,131.17668069992214,131.17668069992214,131.17668069992214,131.17668069992214,131.17668069992214,131.17668069992214,131.17668069992214,131.17668069992214,23,0,,,131.17668069992214,131.37767349998467,1000,131.37767349998467,1000,1000,1000,1000,0,num_3,0.27916240016929805,,37,12,2026-03-13_18h35.34.645,2026A_exp2,2022.2.4,59.977640360920795,
1000,1,0.0,3.7,0,0,31,31,46,,,,,131.677508499939,132.32775279995985,132.32775279995985,132.81226929998957,315,315,132.81226929998957,132.81226929998957,132.81226929998957,132.81226929998957,132.81226929998957,132.81226929998957,132.81226929998957,132.81226929998957,132.81226929998957,133.17855119984597,133.17855119984597,133.17855119984597,133.17855119984597,133.17855119984597,133.17855119984597,133.17855119984597,133.17855119984597,133.17855119984597,2,2,"[0.0012580999173223972, 0.28374630003236234]","[0.25033389986492693, 0.36716189980506897]",133.17855119984597,133.38031769986264,1000,133.38031769986264,1000,1000,1000,1000,1,num_2,0.28419490018859506,,37,12,2026-03-13_18h35.34.645,2026A_exp2,2022.2.4,59.977640360920795,
1,0,0.0,3.7,1,0,32,32,32,,,,,133.69607299985364,134.3465154999867,134.3465154999867,134.83077659993432,45,45,134.83077659993432,134.83077659993432,134.83077659993432,134.83077659993432,134.83077659993432,134.83077659993432,134.83077659993432,134.83077659993432,134.83077659993432,135.19737129984424,135.19737129984424,135.19737129984424,135.19737129984424,135.19737129984424,135.19737129984424,135.19737129984424,135.19737129984424,135.19737129984424,23,0,,,135.19737129984424,135.3975926998537,3.7,135.3975926998537,1,3.7,1,1,1000,num_4,1.0664354001637548,,37,12,2026-03-13_18h35.34.645,2026A_exp2,2022.2.4,59.977640360920795,
1000,1,0.0,3.7,1,0,33,33,13,,,,,136.48183989990503,137.13262849999592,137.13262849999592,137.6170655998867,45,315,137.6170655998867,137.6170655998867,137.6170655998867,137.6170655998867,137.6170655998867,137.6170655998867,137.6170655998867,137.6170655998867,137.6170655998867,137.98333609988913,137.98333609988913,137.98333609988913,137.98333609988913,137.98333609988913,137.98333609988913,137.98333609988913,137.98333609988913,137.98333609988913,20,3,"[0.00083580007776618, 0.10070480010472238, 0.20079020014964044]","[0.017743000062182546, 0.117250100011006, 0.21754930005408823]",137.98333609988913,138.18564599985257,1000,138.18564599985257,1000,1000,1000,1000,0,num_3,3.7749189999885857,,37,12,2026-03-13_18h35.34.645,2026A_exp2,2022.2.4,59.977640360920795,
1000,1,0.0,0.0,0,0,34,34,17,,,,,141.98745729983784,142.6381289998535,142.6381289998535,143.13921349984594,315,45,143.13921349984594,143.13921349984594,143.13921349984594,143.13921349984594,143.13921349984594,143.13921349984594,143.13921349984594,143.13921349984594,143.13921349984594,143.50552019989118,143.50552019989118,143.50552019989118,143.50552019989118,143.50552019989118,143.50552019989118,143.50552019989118,143.50552019989118,143.50552019989118,1,1,[0.017435000045225024],[0.36739780008792877],143.50552019989118,143.70575579977594,1000,143.70575579977594,1000,1000,1000,1000,0,num_3,1.8149080001749098,,37,12,2026-03-13_18h35.34.645,2026A_exp2,2022.2.4,59.977640360920795,
1000,1,6.1,3.7,0,0,35,35,75,,,,,145.54090079991147,146.19152119988576,146.19152119988576,146.69286169996485,315,315,146.69286169996485,146.69286169996485,146.69286169996485,146.69286169996485,146.69286169996485,146.69286169996485,146.69286169996485,146.69286169996485,146.69286169996485,147.05940069979988,147.05940069979988,147.05940069979988,147.05940069979988,147.05940069979988,147.05940069979988,147.05940069979988,147.05940069979988,147.05940069979988,22,1,[0.08362980000674725],[0.1002038000151515],147.05940069979988,147.26011299993843,1000,147.26011299993843,1000,1000,1000,1000,0,num_3,0.39604210015386343,,37,12,2026-03-13_18h35.34.645,2026A_exp2,2022.2.4,59.977640360920795,
1,0,6.1,0.0,0,0,36,36,82,,,,,147.6764952999074,148.32710699993186,148.32710699993186,148.82825179980136,315,315,148.82825179980136,148.82825179980136,148.82825179980136,148.82825179980136,148.82825179980136,148.82825179980136,148.82825179980136,148.82825179980136,148.82825179980136,149.19439369998872,149.19439369998872,149.19439369998872,149.19439369998872,149.19439369998872,149.19439369998872,149.19439369998872,149.19439369998872,149.19439369998872,23,0,,,149.19439369998872,149.394827199867,6.1,149.394827199867,1,6.1,1,1,1000,num_4,0.741246199933812,,37,12,2026-03-13_18h35.34.645,2026A_exp2,2022.2.4,59.977640360920795,
1000,1,6.1,0.0,1,0,37,37,57,,,,,150.16222850000486,150.81299589993432,150.81299589993432,151.29747509979643,45,45,151.29747509979643,151.29747509979643,151.29747509979643,151.29747509979643,151.29747509979643,151.29747509979643,151.29747509979643,151.29747509979643,151.29747509979643,151.6638577999547,151.6638577999547,151.6638577999547,151.6638577999547,151.6638577999547,151.6638577999547,151.6638577999547,151.6638577999547,151.6638577999547,23,0,,,151.6638577999547,151.86506109987386,1000,151.86506109987386,1000,1000,1000,1000,0,num_3,0.5190872000530362,,37,12,2026-03-13_18h35.34.645,2026A_exp2,2022.2.4,59.977640360920795,
1,0,6.1,6.1,1,0,38,38,23,,,,,152.41476789978333,153.0652584999334,153.0652584999334,153.56639189994894,315,45,153.56639189994894,153.56639189994894,153.56639189994894,153.56639189994894,153.56639189994894,153.56639189994894,153.56639189994894,153.56639189994894,153.56639189994894,153.9327525999397,153.9327525999397,153.9327525999397,153.9327525999397,153.9327525999397,153.9327525999397,153.9327525999397,153.9327525999397,153.9327525999397,0,1,[0.0011957997921854258],[0.36747549986466765],153.9327525999397,154.13282829988748,6.1,154.13282829988748,1,6.1,1,1,1000,num_4,1.0038377000018954,,37,12,2026-03-13_18h35.34.645,2026A_exp2,2022.2.4,59.977640360920795,
1,0,6.1,4.9,1,0,39,39,11,,,,,155.16720099980012,155.817991099786,155.817991099786,156.30246009980328,45,315,156.30246009980328,156.30246009980328,156.30246009980328,156.30246009980328,156.30246009980328,156.30246009980328,156.30246009980328,156.30246009980328,156.30246009980328,156.6690271999687,156.6690271999687,156.6690271999687,156.6690271999687,156.6690271999687,156.6690271999687,156.6690271999687,156.6690271999687,156.6690271999687,21,1,[0.3004908000584692],[0.33375849993899465],156.6690271999687,156.86906139994971,4.9,156.86906139994971,1,4.9,1,1,1000,num_4,2.196129600284621,,37,12,2026-03-13_18h35.34.645,2026A_exp2,2022.2.4,59.977640360920795,
1,0,0.0,6.1,1,0,40,40,33,,,,,159.0878206999041,159.72218749998137,159.72218749998137,160.2228812999092,45,45,160.2228812999092,160.2228812999092,160.2228812999092,160.2228812999092,160.2228812999092,160.2228812999092,160.2228812999092,160.2228812999092,160.2228812999092,160.58947179978713,160.58947179978713,160.58947179978713,160.58947179978713,160.58947179978713,160.58947179978713,160.58947179978713,160.58947179978713,160.58947179978713,15,4,"[0.03371939994394779, 0.11632519983686507, 0.1836172000039369, 0.2501977998763323]","[0.09987169993110001, 0.14997230004519224, 0.20019269990734756, 0.2669619999360293]",160.58947179978713,160.78955809981562,6.1,160.78955809981562,1,6.1,1,1,1000,num_4,0.5626179999671876,,37,12,2026-03-13_18h35.34.645,2026A_exp2,2022.2.4,59.977640360920795,
1,0,0.0,3.7,1,0,41,41,14,,,,,161.37333439989015,162.02421019994654,162.02421019994654,162.52531989989802,45,45,162.52531989989802,162.52531989989802,162.52531989989802,162.52531989989802,162.52531989989802,162.52531989989802,162.52531989989802,162.52531989989802,162.52531989989802,162.89176779985428,162.89176779985428,162.89176779985428,162.89176779985428,162.89176779985428,162.89176779985428,162.89176779985428,162.89176779985428,162.89176779985428,19,3,"[0.0012016999535262585, 0.1002434000838548, 0.15028359997086227]","[0.017345100175589323, 0.1337473001331091, 0.16693209996446967]",162.89176779985428,163.09197599999607,3.7,163.09197599999607,1,3.7,1,1,1000,num_4,1.093363700201735,,37,12,2026-03-13_18h35.34.645,2026A_exp2,2022.2.4,59.977640360920795,
0,0,6.1,4.9,0,0,42,42,22,,,,,164.20973139978014,164.84361629979685,164.84361629979685,165.34447649982758,315,45,165.34447649982758,165.34447649982758,165.34447649982758,165.34447649982758,165.34447649982758,165.34447649982758,165.34447649982758,165.34447649982758,165.34447649982758,165.7112470997963,165.7112470997963,165.7112470997963,165.7112470997963,165.7112470997963,165.7112470997963,165.7112470997963,165.7112470997963,165.7112470997963,21,1,[0.2674626999069005],[0.30087050003930926],165.7112470997963,165.91141499998048,4.9,165.91141499998048,0,4.9,1,0,1000,num_1,0.7774384000804275,,37,12,2026-03-13_18h35.34.645,2026A_exp2,2022.2.4,59.977640360920795,
1,0,0.0,0.0,1,0,43,43,42,,,,,166.71222339989617,167.36289859982207,167.36289859982207,167.84731739992276,45,315,167.84731739992276,167.84731739992276,167.84731739992276,167.84731739992276,167.84731739992276,167.84731739992276,167.84731739992276,167.84731739992276,167.84731739992276,168.21365399984643,168.21365399984643,168.21365399984643,168.21365399984643,168.21365399984643,168.21365399984643,168.21365399984643,168.21365399984643,168.21365399984643,0,1,[0.0012856998946517706],[0.3674903998617083],168.21365399984643,168.41397739993408,0.0,168.41397739993408,1,0.0,0,0,1000,num_4,2.730802500154823,,37,12,2026-03-13_18h35.34.645,2026A_exp2,2022.2.4,59.977640360920795,
1,0,4.9,0.0,0,0,44,44,53,,,,,171.16658069984987,171.8173748999834,171.8173748999834,172.30173599999398,45,315,172.30173599999398,172.30173599999398,172.30173599999398,172.30173599999398,172.30173599999398,172.30173599999398,172.30173599999398,172.30173599999398,172.30173599999398,172.66810499993153,172.66810499993153,172.66810499993153,172.66810499993153,172.66810499993153,172.66810499993153,172.66810499993153,172.66810499993153,172.66810499993153,18,5,"[0.0012021998409181833, 0.05023039993830025, 0.08368879999034107, 0.20054470002651215, 0.3338380998466164]","[0.01748899999074638, 0.06702259997837245, 0.1002501999028027, 0.2172228000126779, 0.35067269997671247]",172.66810499993153,172.86828899988905,4.9,172.86828899988905,1,4.9,1,1,1000,num_4,0.8360947002656758,,37,12,2026-03-13_18h35.34.645,2026A_exp2,2022.2.4,59.977640360920795,
1000,1,3.7,3.7,0,0,45,45,72,,,,,173.7358612997923,174.3864425998181,174.3864425998181,174.87098829983734,45,45,174.87098829983734,174.87098829983734,174.87098829983734,174.87098829983734,174.87098829983734,174.87098829983734,174.87098829983734,174.87098829983734,174.87098829983734,175.23731869994663,175.23731869994663,175.23731869994663,175.23731869994663,175.23731869994663,175.23731869994663,175.23731869994663,175.23731869994663,175.23731869994663,23,0,,,175.23731869994663,175.4393699998036,1000,175.4393699998036,1000,1000,1000,1000,0,num_3,0.7046796001959592,,37,12,2026-03-13_18h35.34.645,2026A_exp2,2022.2.4,59.977640360920795,
1,0,3.7,3.7,1,0,46,46,30,,,,,176.17156659998,176.8222242000047,176.8222242000047,177.3233446998056,315,45,177.3233446998056,177.3233446998056,177.3233446998056,177.3233446998056,177.3233446998056,177.3233446998056,177.3233446998056,177.3233446998056,177.3233446998056,177.68988919979893,177.68988919979893,177.68988919979893,177.68988919979893,177.68988919979893,177.68988919979893,177.68988919979893,177.68988919979893,177.68988919979893,5,4,"[0.0012284000404179096, 0.08336409996263683, 0.15005680010654032, 0.3663669000379741]","[0.0500320999417454, 0.1334565000142902, 0.34995890012942255, 0.3663701000623405]",177.68988919979893,177.89017569995485,3.7,177.89017569995485,0,3.7,1,0,1000,num_1,3.3664128999225795,,37,12,2026-03-13_18h35.34.645,2026A_exp2,2022.2.4,59.977640360920795,
1,0,3.7,0.0,1,0,47,47,12,,,,,181.27682389994152,181.9273539998103,181.9273539998103,182.4118378998246,315,315,182.4118378998246,182.4118378998246,182.4118378998246,182.4118378998246,182.4118378998246,182.4118378998246,182.4118378998246,182.4118378998246,182.4118378998246,182.7780404998921,182.7780404998921,182.7780404998921,182.7780404998921,182.7780404998921,182.7780404998921,182.7780404998921,182.7780404998921,182.7780404998921,0,1,[0.001194800017401576],[0.36711959983222187],182.7780404998921,182.97851409995928,0.0,182.97851409995928,0,0.0,0,1,1000,num_1,1.9015603000298142,,37,12,2026-03-13_18h35.34.645,2026A_exp2,2022.2.4,59.977640360920795,
1,0,0.0,0.0,1,0,48,48,49,,,,,184.89693589997478,185.5476402998902,185.5476402998902,186.03218999993987,315,315,186.03218999993987,186.03218999993987,186.03218999993987,186.03218999993987,186.03218999993987,186.03218999993987,186.03218999993987,186.03218999993987,186.03218999993987,186.3986180999782,186.3986180999782,186.3986180999782,186.3986180999782,186.3986180999782,186.3986180999782,186.3986180999782,186.3986180999782,186.3986180999782,23,0,,,186.3986180999782,186.59873639978468,0.0,186.59873639978468,1,0.0,0,0,1000,num_4,2.6742239000741392,,37,12,2026-03-13_18h35.34.645,2026A_exp2,2022.2.4,59.977640360920795,
1,0,4.9,3.7,0,0,49,49,44,,,,,189.30127049982548,189.95220069983043,189.95220069983043,190.43651129980572,45,315,190.43651129980572,190.43651129980572,190.43651129980572,190.43651129980572,190.43651129980572,190.43651129980572,190.43651129980572,190.43651129980572,190.43651129980572,190.80297819990665,190.80297819990665,190.80297819990665,190.80297819990665,190.80297819990665,190.80297819990665,190.80297819990665,190.80297819990665,190.80297819990665,21,1,[0.23375750007107854],[0.26715660002082586],190.80297819990665,191.0032182999421,4.9,191.0032182999421,1,4.9,1,1,1000,num_4,0.7968129999935627,,37,12,2026-03-13_18h35.34.645,2026A_exp2,2022.2.4,59.977640360920795,
1,0,6.1,0.0,1,0,50,50,70,,,,,191.8204011998605,192.4714673999697,192.4714673999697,192.95570569997653,45,315,192.95570569997653,192.95570569997653,192.95570569997653,192.95570569997653,192.95570569997653,192.95570569997653,192.95570569997653,192.95570569997653,192.95570569997653,193.32218469982035,193.32218469982035,193.32218469982035,193.32218469982035,193.32218469982035,193.32218469982035,193.32218469982035,193.32218469982035,193.32218469982035,23,0,,,193.32218469982035,193.522381399991,0.0,193.522381399991,0,0.0,0,1,1000,num_1,0.6947908001020551,,37,12,2026-03-13_18h35.34.645,2026A_exp2,2022.2.4,59.977640360920795,
1000,1,4.9,0.0,0,0,51,51,41,,,,,194.23966540000401,194.89029669994488,194.89029669994488,195.37487409985624,45,315,195.37487409985624,195.37487409985624,195.37487409985624,195.37487409985624,195.37487409985624,195.37487409985624,195.37487409985624,195.37487409985624,195.37487409985624,195.74130189977586,195.74130189977586,195.74130189977586,195.74130189977586,195.74130189977586,195.74130189977586,195.74130189977586,195.74130189977586,195.74130189977586,23,0,,,195.74130189977586,195.94320119987242,1000,195.94320119987242,1000,1000,1000,1000,0,num_3,2.3768815000075847,,37,12,2026-03-13_18h35.34.645,2026A_exp2,2022.2.4,59.977640360920795,
1000,1,0.0,3.7,1,0,52,52,84,,,,,198.3438145997934,198.99454119987786,198.99454119987786,199.49538569990546,45,315,199.49538569990546,199.49538569990546,199.49538569990546,199.49538569990546,199.49538569990546,199.49538569990546,199.49538569990546,199.49538569990546,199.49538569990546,199.86197659978643,199.86197659978643,199.86197659978643,199.86197659978643,199.86197659978643,199.86197659978643,199.86197659978643,199.86197659978643,199.86197659978643,23,0,,,199.86197659978643,200.06449479982257,1000,200.06449479982257,1000,1000,1000,1000,1,num_2,0.5353747000917792,,37,12,2026-03-13_18h35.34.645,2026A_exp2,2022.2.4,59.977640360920795,
1000,1,3.7,6.1,1,0,53,53,58,,,,,200.62975889979862,201.27997609996237,201.27997609996237,201.78100529988296,45,45,201.78100529988296,201.78100529988296,201.78100529988296,201.78100529988296,201.78100529988296,201.78100529988296,201.78100529988296,201.78100529988296,201.78100529988296,202.1474803998135,202.1474803998135,202.1474803998135,202.1474803998135,202.1474803998135,202.1474803998135,202.1474803998135,202.1474803998135,202.1474803998135,23,0,,,202.1474803998135,202.35636999993585,1000,202.35636999993585,1000,1000,1000,1000,1,num_2,0.3163695000112057,,37,12,2026-03-13_18h35.34.645,2026A_exp2,2022.2.4,59.977640360920795,
1000,1,6.1,0.0,1,0,54,54,29,,,,,202.69839669996873,203.34871739987284,203.34871739987284,203.84963839990087,315,45,203.84963839990087,203.84963839990087,203.84963839990087,203.84963839990087,203.84963839990087,203.84963839990087,203.84963839990087,203.84963839990087,203.84963839990087,204.19969419995323,204.19969419995323,204.19969419995323,204.19969419995323,204.19969419995323,204.19969419995323,204.19969419995323,204.19969419995323,204.19969419995323,22,0,,,204.19969419995323,204.40201679989696,1000,204.40201679989696,1000,1000,1000,1000,0,num_3,0.15020580030977726,,37,12,2026-03-13_18h35.34.645,2026A_exp2,2022.2.4,59.977640360920795,
1000,1,6.1,6.1,1,0,55,55,4,,,,,204.5832950999029,205.23408819991164,205.23408819991164,205.71853379998356,45,45,205.71853379998356,205.71853379998356,205.71853379998356,205.71853379998356,205.71853379998356,205.71853379998356,205.71853379998356,205.71853379998356,205.71853379998356,206.08502219989896,206.08502219989896,206.08502219989896,206.08502219989896,206.08502219989896,206.08502219989896,206.08502219989896,206.08502219989896,206.08502219989896,23,0,,,206.08502219989896,206.28722769999877,1000,206.28722769999877,1000,1000,1000,1000,0,num_3,0.33732250006869435,,37,12,2026-03-13_18h35.34.645,2026A_exp2,2022.2.4,59.977640360920795,
1000,1,0.0,6.1,1,0,56,56,43,,,,,206.65211079991423,207.30273889983073,207.30273889983073,207.80396909988485,315,315,207.80396909988485,207.80396909988485,207.80396909988485,207.80396909988485,207.80396909988485,207.80396909988485,207.80396909988485,207.80396909988485,207.80396909988485,208.15326879988424,208.15326879988424,208.15326879988424,208.15326879988424,208.15326879988424,208.15326879988424,208.15326879988424,208.15326879988424,208.15326879988424,21,1,[0.13367670006118715],[0.15055050002411008],208.15326879988424,208.35570939979516,1000,208.37058289977722,1000,1000,1000,1000,1,num_2,0.34151730011217296,,37,12,2026-03-13_18h35.34.645,2026A_exp2,2022.2.4,59.977640360920795,
1000,1,6.1,6.1,1,0,57,57,8,,,,,208.73751089978032,209.3883297999855,209.3883297999855,209.89824839984067,315,45,209.89824839984067,209.89824839984067,209.89824839984067,209.89824839984067,209.89824839984067,209.89824839984067,209.89824839984067,209.89824839984067,209.89824839984067,210.25583749986254,210.25583749986254,210.25583749986254,210.25583749986254,210.25583749986254,210.25583749986254,210.25583749986254,210.25583749986254,210.25583749986254,23,0,,,210.25583749986254,210.4581693999935,1000,210.4581693999935,1000,1000,1000,1000,1,num_2,0.7270560001488775,,37,12,2026-03-13_18h35.34.645,2026A_exp2,2022.2.4,59.977640360920795,
1000,1,6.1,0.0,1,0,58,58,25,,,,,211.20652299979702,211.85744159994647,211.85744159994647,212.35834269993939,45,45,212.35834269993939,212.35834269993939,212.35834269993939,212.35834269993939,212.35834269993939,212.35834269993939,212.35834269993939,212.35834269993939,212.35834269993939,212.72492799977772,212.72492799977772,212.72492799977772,212.72492799977772,212.72492799977772,212.72492799977772,212.72492799977772,212.72492799977772,212.72492799977772,22,1,[0.033545800019055605],[0.06686510005965829],212.72492799977772,212.9268893999979,1000,212.9268893999979,1000,1000,1000,1000,0,num_3,0.1542806001380086,,37,12,2026-03-13_18h35.34.645,2026A_exp2,2022.2.4,59.977640360920795,
1,0,0.0,0.0,1,0,59,59,39,,,,,213.1084897997789,213.75919999997132,213.75919999997132,214.260385699803,45,45,214.260385699803,214.260385699803,214.260385699803,214.260385699803,214.260385699803,214.260385699803,214.260385699803,214.260385699803,214.260385699803,214.6101130999159,214.6101130999159,214.6101130999159,214.6101130999159,214.6101130999159,214.6101130999159,214.6101130999159,214.6101130999159,214.6101130999159,0,1,[0.0010942998342216015],[0.3508418998681009],214.6101130999159,214.81020109984092,0.0,214.82706559984945,1,0.0,0,0,1000,num_4,0.6691632999572903,,37,12,2026-03-13_18h35.34.645,2026A_exp2,2022.2.4,59.977640360920795,
1,0,3.7,0.0,0,0,60,60,87,,,,,215.5276207998395,216.1781857998576,216.1781857998576,216.67591279977933,315,45,216.67591279977933,216.67591279977933,216.67591279977933,216.67591279977933,216.67591279977933,216.67591279977933,216.67591279977933,216.67591279977933,216.67591279977933,217.02921929978766,217.02921929978766,217.02921929978766,217.02921929978766,217.02921929978766,217.02921929978766,217.02921929978766,217.02921929978766,217.02921929978766,4,3,"[0.003904599929228425, 0.06503689987584949, 0.2478137998841703]","[0.05296640004962683, 0.2311730000656098, 0.3311773999594152]",217.02921929978766,217.22943399986252,3.7,217.22943399986252,0,3.7,1,0,1000,num_1,0.410651900107041,,37,12,2026-03-13_18h35.34.645,2026A_exp2,2022.2.4,59.977640360920795,
1,0,3.7,4.9,1,0,61,61,18,,,,,217.6646101998631,218.31390899978578,218.31390899978578,218.81492139981128,315,45,218.81492139981128,218.81492139981128,218.81492139981128,218.81492139981128,218.81492139981128,218.81492139981128,218.81492139981128,218.81492139981128,218.81492139981128,219.18134469981305,219.18134469981305,219.18134469981305,219.18134469981305,219.18134469981305,219.18134469981305,219.18134469981305,219.18134469981305,219.18134469981305,14,4,"[0.05002480000257492, 0.16680749994702637, 0.2169552999548614, 0.28372359997592866]","[0.1335650000255555, 0.18356380006298423, 0.25039019994437695, 0.30025289999321103]",219.18134469981305,219.3815943999216,4.9,219.3815943999216,1,4.9,1,1,1000,num_4,0.5071829000953585,,37,12,2026-03-13_18h35.34.645,2026A_exp2,2022.2.4,59.977640360920795,
1000,1,4.9,0.0,1,0,62,62,77,,,,,219.91530279978178,220.56603589979932,220.56603589979932,221.05040519987233,45,45,221.05040519987233,221.05040519987233,221.05040519987233,221.05040519987233,221.05040519987233,221.05040519987233,221.05040519987233,221.05040519987233,221.05040519987233,221.41697579994798,221.41697579994798,221.41697579994798,221.41697579994798,221.41697579994798,221.41697579994798,221.41697579994798,221.41697579994798,221.41697579994798,22,1,[0.08353399997577071],[0.10036369995214045],221.41697579994798,221.61911289999261,1000,221.61911289999261,1000,1000,1000,1000,0,num_3,0.7176915002055466,,37,12,2026-03-13_18h35.34.645,2026A_exp2,2022.2.4,59.977640360920795,
1000,1,3.7,4.9,0,0,63,63,45,,,,,222.36809079977684,223.00186169985682,223.00186169985682,223.50288769998588,315,45,223.50288769998588,223.50288769998588,223.50288769998588,223.50288769998588,223.50288769998588,223.50288769998588,223.50288769998588,223.50288769998588,223.50288769998588,223.86935789999552,223.86935789999552,223.86935789999552,223.86935789999552,223.86935789999552,223.86935789999552,223.86935789999552,223.86935789999552,223.86935789999552,21,2,"[0.06651399983093143, 0.3168939999304712]","[0.08336629997938871, 0.33356719999574125]",223.86935789999552,224.0716771997977,1000,224.0716771997977,1000,1000,1000,1000,1,num_2,0.40876310016028583,,37,12,2026-03-13_18h35.34.645,2026A_exp2,2022.2.4,59.977640360920795,
1,0,6.1,0.0,0,0,64,64,21,,,,,224.5032689999789,225.15394639992155,225.15394639992155,225.65500429994427,45,315,225.65500429994427,225.65500429994427,225.65500429994427,225.65500429994427,225.65500429994427,225.65500429994427,225.65500429994427,225.65500429994427,225.65500429994427,226.02154599991627,226.02154599991627,226.02154599991627,226.02154599991627,226.02154599991627,226.02154599991627,226.02154599991627,226.02154599991627,226.02154599991627,23,0,,,226.02154599991627,226.22175449994393,6.1,226.22175449994393,1,6.1,1,1,1000,num_4,1.2344606001861393,,37,12,2026-03-13_18h35.34.645,2026A_exp2,2022.2.4,59.977640360920795,
0,0,0.0,0.0,1,0,65,65,2,,,,,227.4730170997791,228.12360219983384,228.12360219983384,228.6080916998908,45,315,228.6080916998908,228.6080916998908,228.6080916998908,228.6080916998908,228.6080916998908,228.6080916998908,228.6080916998908,228.6080916998908,228.6080916998908,228.97449449985288,228.97449449985288,228.97449449985288,228.97449449985288,228.97449449985288,228.97449449985288,228.97449449985288,228.97449449985288,228.97449449985288,10,1,[0.0012353998608887196],[0.21676129987463355],228.97449449985288,229.1746350999456,0.0,229.1746350999456,0,0.0,0,1,1000,num_1,1.234368999954313,,37,12,2026-03-13_18h35.34.645,2026A_exp2,2022.2.4,59.977640360920795,
1,0,0.0,4.9,0,0,66,66,73,,,,,230.4259366998449,231.07649819995277,231.07649819995277,231.5610319999978,45,315,231.5610319999978,231.5610319999978,231.5610319999978,231.5610319999978,231.5610319999978,231.5610319999978,231.5610319999978,231.5610319999978,231.5610319999978,231.92744499980472,231.92744499980472,231.92744499980472,231.92744499980472,231.92744499980472,231.92744499980472,231.92744499980472,231.92744499980472,231.92744499980472,23,0,,,231.92744499980472,232.12762929988094,0.0,232.12762929988094,0,0.0,0,1,1000,num_1,1.9849177000578493,,37,12,2026-03-13_18h35.34.645,2026A_exp2,2022.2.4,59.977640360920795,
0,0,0.0,3.7,0,0,67,67,34,,,,,234.1294393998105,234.7802786999382,234.7802786999382,235.26473939977586,315,315,235.26473939977586,235.26473939977586,235.26473939977586,235.26473939977586,235.26473939977586,235.26473939977586,235.26473939977586,235.26473939977586,235.26473939977586,235.63114769989625,235.63114769989625,235.63114769989625,235.63114769989625,235.63114769989625,235.63114769989625,235.63114769989625,235.63114769989625,235.63114769989625,23,0,,,235.63114769989625,235.83137159980834,3.7,235.83137159980834,1,3.7,1,1,1000,num_4,0.71342150028795,,37,12,2026-03-13_18h35.34.645,2026A_exp2,2022.2.4,59.977640360920795,
1000,1,0.0,0.0,1,0,68,68,1,,,,,236.56530489982106,237.21610359987244,237.21610359987244,237.7005019998178,315,315,237.7005019998178,237.7005019998178,237.7005019998178,237.7005019998178,237.7005019998178,237.7005019998178,237.7005019998178,237.7005019998178,237.7005019998178,238.06691479985602,238.06691479985602,238.06691479985602,238.06691479985602,238.06691479985602,238.06691479985602,238.06691479985602,238.06691479985602,238.06691479985602,23,0,,,238.06691479985602,238.26921199983917,1000,238.26921199983917,1000,1000,1000,1000,1,num_2,0.5718910000286996,,37,12,2026-03-13_18h35.34.645,2026A_exp2,2022.2.4,59.977640360920795,
1000,1,0.0,4.9,0,0,69,69,61,,,,,238.8676883999724,239.51823359983973,239.51823359983973,240.01962859998457,315,315,240.01962859998457,240.01962859998457,240.01962859998457,240.01962859998457,240.01962859998457,240.01962859998457,240.01962859998457,240.01962859998457,240.01962859998457,240.36921889986843,240.36921889986843,240.36921889986843,240.36921889986843,240.36921889986843,240.36921889986843,240.36921889986843,240.36921889986843,240.36921889986843,22,0,,,240.36921889986843,240.57177779986523,1000,240.57177779986523,1000,1000,1000,1000,1,num_2,0.3164917000103742,,37,12,2026-03-13_18h35.34.645,2026A_exp2,2022.2.4,59.977640360920795,
1,0,6.1,0.0,1,0,70,70,89,,,,,240.9197463998571,241.57041689986363,241.57041689986363,242.0715863998048,315,315,242.0715863998048,242.0715863998048,242.0715863998048,242.0715863998048,242.0715863998048,242.0715863998048,242.0715863998048,242.0715863998048,242.0715863998048,242.43780919979326,242.43780919979326,242.43780919979326,242.43780919979326,242.43780919979326,242.43780919979326,242.43780919979326,242.43780919979326,242.43780919979326,23,0,,,242.43780919979326,242.64101709984243,0.0,242.64101709984243,0,0.0,0,1,1000,num_1,1.0876931000966579,,37,12,2026-03-13_18h35.34.645,2026A_exp2,2022.2.4,59.977640360920795,
1,0,0.0,3.7,1,0,71,71,35,,,,,243.75574769987725,244.406628199853,244.406628199853,244.89105679979548,45,315,244.89105679979548,244.89105679979548,244.89105679979548,244.89105679979548,244.89105679979548,244.89105679979548,244.89105679979548,244.89105679979548,244.89105679979548,245.25717459991574,245.25717459991574,245.25717459991574,245.25717459991574,245.25717459991574,245.25717459991574,245.25717459991574,245.25717459991574,245.25717459991574,23,0,,,245.25717459991574,245.45750929997303,3.7,245.45750929997303,1,3.7,1,1,1000,num_4,0.6316656002309173,,37,12,2026-03-13_18h35.34.645,2026A_exp2,2022.2.4,59.977640360920795,
1,0,6.1,0.0,1,0,72,72,80,,,,,246.10833659977652,246.7590061998926,246.7590061998926,247.24338090000674,45,315,247.24338090000674,247.24338090000674,247.24338090000674,247.24338090000674,247.24338090000674,247.24338090000674,247.24338090000674,247.24338090000674,247.24338090000674,247.60983819980174,247.60983819980174,247.60983819980174,247.60983819980174,247.60983819980174,247.60983819980174,247.60983819980174,247.60983819980174,247.60983819980174,23,0,,,247.60983819980174,247.80983149982058,0.0,247.80983149982058,0,0.0,0,1,1000,num_1,0.8067963002249599,,37,12,2026-03-13_18h35.34.645,2026A_exp2,2022.2.4,59.977640360920795,
1,0,0.0,6.1,1,0,73,73,50,,,,,248.64405449992046,249.29481299989857,249.29481299989857,249.77909609978087,45,315,249.77909609978087,249.77909609978087,249.77909609978087,249.77909609978087,249.77909609978087,249.77909609978087,249.77909609978087,249.77909609978087,249.77909609978087,250.14562069997191,250.14562069997191,250.14562069997191,250.14562069997191,250.14562069997191,250.14562069997191,250.14562069997191,250.14562069997191,250.14562069997191,23,0,,,250.14562069997191,250.34582459996454,6.1,250.34582459996454,1,6.1,1,1,1000,num_4,0.6142446000594646,,37,12,2026-03-13_18h35.34.645,2026A_exp2,2022.2.4,59.977640360920795,
1000,1,0.0,4.9,1,0,74,74,66,,,,,250.98005329980515,251.6137670997996,251.6137670997996,252.11488999985158,315,315,252.11488999985158,252.11488999985158,252.11488999985158,252.11488999985158,252.11488999985158,252.11488999985158,252.11488999985158,252.11488999985158,252.11488999985158,252.48116669990122,252.48116669990122,252.48116669990122,252.48116669990122,252.48116669990122,252.48116669990122,252.48116669990122,252.48116669990122,252.48116669990122,23,0,,,252.48116669990122,252.68323829979636,1000,252.68323829979636,1000,1000,1000,1000,1,num_2,1.2767777002882212,,37,12,2026-03-13_18h35.34.645,2026A_exp2,2022.2.4,59.977640360920795,
1000,1,3.7,0.0,0,0,75,75,76,,,,,253.98281029984355,254.633576199878,254.633576199878,255.13460409990512,45,315,255.13460409990512,255.13460409990512,255.13460409990512,255.13460409990512,255.13460409990512,255.13460409990512,255.13460409990512,255.13460409990512,255.13460409990512,255.50095519982278,255.50095519982278,255.50095519982278,255.50095519982278,255.50095519982278,255.50095519982278,255.50095519982278,255.50095519982278,255.50095519982278,23,0,,,255.50095519982278,255.7019614998717,1000,255.7019614998717,1000,1000,1000,1000,0,num_3,0.4985537000466138,,37,12,2026-03-13_18h35.34.645,2026A_exp2,2022.2.4,59.977640360920795,
1000,1,0.0,0.0,1,0,76,76,9,,,,,256.2184715999756,256.8690253999084,256.8690253999084,257.3701943999622,315,315,257.3701943999622,257.3701943999622,257.3701943999622,257.3701943999622,257.3701943999622,257.3701943999622,257.3701943999622,257.3701943999622,257.3701943999622,257.73658129991964,257.73658129991964,257.73658129991964,257.73658129991964,257.73658129991964,257.73658129991964,257.73658129991964,257.73658129991964,257.73658129991964,23,0,,,257.73658129991964,257.9384978997987,1000,257.9384978997987,1000,1000,1000,1000,0,num_3,1.4388075002934784,,37,12,2026-03-13_18h35.34.645,2026A_exp2,2022.2.4,59.977640360920795,
1,0,0.0,6.1,1,0,77,77,31,,,,,259.404762199847,260.0552428998053,260.0552428998053,260.55660939984955,315,315,260.55660939984955,260.55660939984955,260.55660939984955,260.55660939984955,260.55660939984955,260.55660939984955,260.55660939984955,260.55660939984955,260.55660939984955,260.9231010999065,260.9231010999065,260.9231010999065,260.9231010999065,260.9231010999065,260.9231010999065,260.9231010999065,260.9231010999065,260.9231010999065,23,0,,,260.9231010999065,261.1235187998973,6.1,261.1235187998973,1,6.1,1,1,1000,num_4,0.7251979000866413,,37,12,2026-03-13_18h35.34.645,2026A_exp2,2022.2.4,59.977640360920795,
1,0,0.0,4.9,0,0,78,78,3,,,,,261.87391429999843,262.50780509994365,262.50780509994365,263.00915899989195,315,315,263.00915899989195,263.00915899989195,263.00915899989195,263.00915899989195,263.00915899989195,263.00915899989195,263.00915899989195,263.00915899989195,263.00915899989195,263.3755769999698,263.3755769999698,263.3755769999698,263.3755769999698,263.3755769999698,263.3755769999698,263.3755769999698,263.3755769999698,263.3755769999698,23,0,,,263.3755769999698,263.5757728999015,0.0,263.5757728999015,0,0.0,0,1,1000,num_1,1.4726739001926035,,37,12,2026-03-13_18h35.34.645,2026A_exp2,2022.2.4,59.977640360920795,
1,0,6.1,4.9,1,0,79,79,64,,,,,265.07711709989235,265.7277092000004,265.7277092000004,266.2123298998922,45,45,266.2123298998922,266.2123298998922,266.2123298998922,266.2123298998922,266.2123298998922,266.2123298998922,266.2123298998922,266.2123298998922,266.2123298998922,266.57872199988924,266.57872199988924,266.57872199988924,266.57872199988924,266.57872199988924,266.57872199988924,266.57872199988924,266.57872199988924,266.57872199988924,23,0,,,266.57872199988924,266.77877869992517,4.9,266.77877869992517,0,4.9,1,0,1000,num_1,0.6540255001746118,,37,12,2026-03-13_18h35.34.645,2026A_exp2,2022.2.4,59.977640360920795,
1000,1,0.0,0.0,0,0,80,80,5,,,,,267.46294120000675,268.11383469984867,268.11383469984867,268.59807499987073,315,315,268.59807499987073,268.59807499987073,268.59807499987073,268.59807499987073,268.59807499987073,268.59807499987073,268.59807499987073,268.59807499987073,268.59807499987073,268.9643681999296,268.9643681999296,268.9643681999296,268.9643681999296,268.9643681999296,268.9643681999296,268.9643681999296,268.9643681999296,268.9643681999296,23,0,,,268.9643681999296,269.1644201998133,1000,269.1644201998133,1000,1000,1000,1000,0,num_3,0.8444100001361221,,37,12,2026-03-13_18h35.34.645,2026A_exp2,2022.2.4,59.977640360920795,
1,0,6.1,0.0,0,0,81,81,47,,,,,270.0321317999624,270.6827914000023,270.6827914000023,271.1839969998691,315,315,271.1839969998691,271.1839969998691,271.1839969998691,271.1839969998691,271.1839969998691,271.1839969998691,271.1839969998691,271.1839969998691,271.1839969998691,271.5502395997755,271.5502395997755,271.5502395997755,271.5502395997755,271.5502395997755,271.5502395997755,271.5502395997755,271.5502395997755,271.5502395997755,23,0,,,271.5502395997755,271.75044529978186,6.1,271.75044529978186,1,6.1,1,1,1000,num_4,0.682519200257957,,37,12,2026-03-13_18h35.34.645,2026A_exp2,2022.2.4,59.977640360920795,
0,0,0.0,0.0,0,0,82,82,59,,,,,272.45113959978335,273.1018020999618,273.1018020999618,273.58639989979565,45,315,273.58639989979565,273.58639989979565,273.58639989979565,273.58639989979565,273.58639989979565,273.58639989979565,273.58639989979565,273.58639989979565,273.58639989979565,273.9528208998963,273.9528208998963,273.9528208998963,273.9528208998963,273.9528208998963,273.9528208998963,273.9528208998963,273.9528208998963,273.9528208998963,23,0,,,273.9528208998963,274.152961099986,0.0,274.152961099986,1,0.0,0,0,1000,num_4,1.447528500109911,,37,12,2026-03-13_18h35.34.645,2026A_exp2,2022.2.4,59.977640360920795,
1000,1,0.0,0.0,0,0,83,83,86,,,,,275.6210486998316,276.2716420998331,276.2716420998331,276.7561342997942,315,315,276.7561342997942,276.7561342997942,276.7561342997942,276.7561342997942,276.7561342997942,276.7561342997942,276.7561342997942,276.7561342997942,276.7561342997942,277.12261649989523,277.12261649989523,277.12261649989523,277.12261649989523,277.12261649989523,277.12261649989523,277.12261649989523,277.12261649989523,277.12261649989523,23,0,,,277.12261649989523,277.3246049999725,1000,277.3246049999725,1000,1000,1000,1000,0,num_3,1.163795500062406,,37,12,2026-03-13_18h35.34.645,2026A_exp2,2022.2.4,59.977640360920795,
1,0,0.0,4.9,1,0,84,84,37,,,,,278.5075449999422,279.15791419986635,279.15791419986635,279.6424706999678,315,315,279.6424706999678,279.6424706999678,279.6424706999678,279.6424706999678,279.6424706999678,279.6424706999678,279.6424706999678,279.6424706999678,279.6424706999678,280.0087252999656,280.0087252999656,280.0087252999656,280.0087252999656,280.0087252999656,280.0087252999656,280.0087252999656,280.0087252999656,280.0087252999656,23,0,,,280.0087252999656,280.20913659990765,4.9,280.20913659990765,1,4.9,1,1,1000,num_4,0.6792417000979185,,37,12,2026-03-13_18h35.34.645,2026A_exp2,2022.2.4,59.977640360920795,
1000,1,0.0,6.1,1,0,85,85,71,,,,,280.9098555999808,281.56028509978205,281.56028509978205,282.04467420000583,315,45,282.04467420000583,282.04467420000583,282.04467420000583,282.04467420000583,282.04467420000583,282.04467420000583,282.04467420000583,282.04467420000583,282.04467420000583,282.41123829991557,282.41123829991557,282.41123829991557,282.41123829991557,282.41123829991557,282.41123829991557,282.41123829991557,282.41123829991557,282.41123829991557,23,0,,,282.41123829991557,282.61331309983507,1000,282.61331309983507,1000,1000,1000,1000,1,num_2,1.1868123000022024,,37,12,2026-03-13_18h35.34.645,2026A_exp2,2022.2.4,59.977640360920795,
0,0,4.9,0.0,1,0,86,86,67,,,,,283.8292938999366,284.47984609985724,284.47984609985724,284.9809992997907,45,45,284.9809992997907,284.9809992997907,284.9809992997907,284.9809992997907,284.9809992997907,284.9809992997907,284.9809992997907,284.9809992997907,284.9809992997907,285.34734249999747,285.34734249999747,285.34734249999747,285.34734249999747,285.34734249999747,285.34734249999747,285.34734249999747,285.34734249999747,285.34734249999747,23,0,,,285.34734249999747,285.54752169991843,4.9,285.54752169991843,1,4.9,1,1,1000,num_4,2.772550200112164,,37,12,2026-03-13_18h35.34.645,2026A_exp2,2022.2.4,59.977640360920795,
1,0,4.9,0.0,1,0,87,87,65,,,,,288.3504511998035,289.00108929979615,289.00108929979615,289.4855438999366,315,45,289.4855438999366,289.4855438999366,289.4855438999366,289.4855438999366,289.4855438999366,289.4855438999366,289.4855438999366,289.4855438999366,289.4855438999366,289.85204769996926,289.85204769996926,289.85204769996926,289.85204769996926,289.85204769996926,289.85204769996926,289.85204769996926,289.85204769996926,289.85204769996926,23,0,,,289.85204769996926,290.05228969990276,0.0,290.05228969990276,0,0.0,0,1,1000,num_1,0.7883108002133667,,37,12,2026-03-13_18h35.34.645,2026A_exp2,2022.2.4,59.977640360920795,
1000,1,3.7,0.0,1,0,88,88,38,,,,,290.8695997998584,291.52027829992585,291.52027829992585,292.0048121998552,45,45,292.0048121998552,292.0048121998552,292.0048121998552,292.0048121998552,292.0048121998552,292.0048121998552,292.0048121998552,292.0048121998552,292.0048121998552,292.37119239987805,292.37119239987805,292.37119239987805,292.37119239987805,292.37119239987805,292.37119239987805,292.37119239987805,292.37119239987805,292.37119239987805,20,3,"[0.11660229996778071, 0.16657099989242852, 0.3168246999848634]","[0.13357810000889003, 0.18321189982816577, 0.3334188999142498]",292.37119239987805,292.57338989991695,1000,292.57338989991695,1000,1000,1000,1000,0,num_3,0.75543830008246,,37,12,2026-03-13_18h35.34.645,2026A_exp2,2022.2.4,59.977640360920795,
1000,1,0.0,0.0,1,0,89,89,78,,,,,293.35555139998905,294.0061775997747,294.0061775997747,294.50725399982184,45,315,294.50725399982184,294.50725399982184,294.50725399982184,294.50725399982184,294.50725399982184,294.50725399982184,294.50725399982184,294.50725399982184,294.50725399982184,294.87375249993056,294.87375249993056,294.87375249993056,294.87375249993056,294.87375249993056,294.87375249993056,294.87375249993056,294.87375249993056,294.87375249993056,1,2,"[0.0012135000433772802, 0.05030729994177818]","[0.033397499937564135, 0.36711789993569255]",294.87375249993056,295.0756343998946,1000,295.0756343998946,1000,1000,1000,1000,1,num_2,0.4363368002232164,,37,12,2026-03-13_18h35.34.645,2026A_exp2,2022.2.4,59.977640360920795,
,,,,,,,,,,,,,,,,,,,,,,,,,,,,,,,,,,,,,,,,,,,,,,,,,,,,295.54978809994645,,,,,,,
