validity,detectorcomp,contrastCW,contrastCCW,precueCWorCCW,block_80trials.thisRepN,block_80trials.thisTrialN,block_80trials.thisN,block_80trials.thisIndex,etRecord.started,etRecord.stopped,text.started,text.stopped,text_4.started,text_4.stopped,text_6.started,text_6.stopped,oriCW,oriCCW,roi_2.started,grating_UR.started,grating_UL.started,grating_LR.started,grating_LL.started,noise_UR.started,noise_UL.started,noise_LR.started,noise_LL.started,roi_2.stopped,grating_UR.stopped,grating_UL.stopped,grating_LR.stopped,grating_LL.stopped,noise_UR.stopped,noise_UL.stopped,noise_LR.stopped,noise_LL.stopped,outframe,roi_2.numLooks,roi_2.timesOn,roi_2.timesOff,text_2.started,text_2.stopped,probedcontrast,key_resp.started,respdetect,relevantContrast,correctDetect,TorFdetect,respCWorCCW,key_resp.keys,key_resp.rt,feedback_display_.started,participantNo,blockNo,date,expName,psychopyVersion,frameRate,
1,0,3.7,3.7,0,0,0,0,69,8.840003283694386e-05,8.840003283694386e-05,59.16220879997127,61.16600579995429,61.16600579995429,61.799691499967594,61.799691499967594,62.32114749995526,45,315,62.32114749995526,62.32114749995526,62.32114749995526,62.32114749995526,62.32114749995526,62.32114749995526,62.32114749995526,62.32114749995526,62.32114749995526,62.66712019999977,62.66712019999977,62.66712019999977,62.66712019999977,62.66712019999977,62.66712019999977,62.66712019999977,62.66712019999977,62.66712019999977,22,1,[0.18249169999035075],[0.19903159997193143],62.66712019999977,62.867414199979976,3.7,62.867414199979976,1,3.7,1,1,1000,num_4,0.7751059000147507,,23,14,2026-03-04_14h35.17.637,2026A_exp2,2022.2.4,59.69290389013531,
0,0,0.0,6.1,0,0,1,1,30,,,,,63.668285299965646,64.31883859995287,64.31883859995287,64.8197657999699,315,315,64.8197657999699,64.8197657999699,64.8197657999699,64.8197657999699,64.8197657999699,64.8197657999699,64.8197657999699,64.8197657999699,64.8197657999699,65.1864135999931,65.1864135999931,65.1864135999931,65.1864135999931,65.1864135999931,65.1864135999931,65.1864135999931,65.1864135999931,65.1864135999931,1,2,"[0.001209600013680756, 0.35027509997598827]","[0.3168718999950215, 0.36710269999457523]",65.1864135999931,65.38646589999553,6.1,65.38646589999553,1,6.1,1,1,1000,num_4,0.6478363000205718,,23,14,2026-03-04_14h35.17.637,2026A_exp2,2022.2.4,59.69290389013531,
1000,1,0.0,3.7,1,0,2,2,86,,,,,66.053946,66.70460949995322,66.70460949995322,67.18913819995942,315,45,67.18913819995942,67.18913819995942,67.18913819995942,67.18913819995942,67.18913819995942,67.18913819995942,67.18913819995942,67.18913819995942,67.18913819995942,67.55540489999112,67.55540489999112,67.55540489999112,67.55540489999112,67.55540489999112,67.55540489999112,67.55540489999112,67.55540489999112,67.55540489999112,0,1,[0.001005799975246191],[0.36727849999442697],67.55540489999112,67.7609290999826,1000,67.7609290999826,1000,1000,1000,1000,1,num_2,1.4339212999911979,,23,14,2026-03-04_14h35.17.637,2026A_exp2,2022.2.4,59.69290389013531,
1000,1,6.1,3.7,0,0,3,3,43,,,,,69.2236433000071,69.87441339995712,69.87441339995712,70.3753955999855,45,45,70.3753955999855,70.3753955999855,70.3753955999855,70.3753955999855,70.3753955999855,70.3753955999855,70.3753955999855,70.3753955999855,70.3753955999855,70.72523819998605,70.72523819998605,70.72523819998605,70.72523819998605,70.72523819998605,70.72523819998605,70.72523819998605,70.72523819998605,70.72523819998605,9,3,"[0.0012489999644458294, 0.0669421999482438, 0.23368999996455386]","[0.050294999964535236, 0.2170880999765359, 0.250447099970188]",70.72523819998605,70.92722449998837,1000,70.94208959996467,1000,1000,1000,1000,0,num_3,0.5803577000042424,,23,14,2026-03-04_14h35.17.637,2026A_exp2,2022.2.4,59.69290389013531,
1000,1,0.0,0.0,1,0,4,4,72,,,,,71.5428016000078,72.19330310000805,72.19330310000805,72.69448319997173,315,315,72.69448319997173,72.69448319997173,72.69448319997173,72.69448319997173,72.69448319997173,72.69448319997173,72.69448319997173,72.69448319997173,72.69448319997173,73.06090489996132,73.06090489996132,73.06090489996132,73.06090489996132,73.06090489996132,73.06090489996132,73.06090489996132,73.06090489996132,73.06090489996132,0,1,[0.0012965999776497483],[0.36701109999557957],73.06090489996132,73.26335939997807,1000,73.26335939997807,1000,1000,1000,1000,1,num_2,0.4350115999695845,,23,14,2026-03-04_14h35.17.637,2026A_exp2,2022.2.4,59.69290389013531,
1000,1,4.9,4.9,1,0,5,5,67,,,,,73.72835990000749,74.37881139997626,74.37881139997626,74.88004749995889,315,315,74.88004749995889,74.88004749995889,74.88004749995889,74.88004749995889,74.88004749995889,74.88004749995889,74.88004749995889,74.88004749995889,74.88004749995889,75.2297310999711,75.2297310999711,75.2297310999711,75.2297310999711,75.2297310999711,75.2297310999711,75.2297310999711,75.2297310999711,75.2297310999711,0,1,[0.0012467000051401556],[0.3506045000394806],75.2297310999711,75.42977689998224,1000,75.44646489998559,1000,1000,1000,1000,1,num_2,0.6193412999855354,,23,14,2026-03-04_14h35.17.637,2026A_exp2,2022.2.4,59.69290389013531,
1000,1,6.1,0.0,1,0,6,6,61,,,,,76.09750769997481,76.73120939999353,76.73120939999353,77.23229079996236,315,45,77.23229079996236,77.23229079996236,77.23229079996236,77.23229079996236,77.23229079996236,77.23229079996236,77.23229079996236,77.23229079996236,77.23229079996236,77.59875269996701,77.59875269996701,77.59875269996701,77.59875269996701,77.59875269996701,77.59875269996701,77.59875269996701,77.59875269996701,77.59875269996701,22,1,[0.10020909999730065],[0.11684520001290366],77.59875269996701,77.80127759999596,1000,77.80127759999596,1000,1000,1000,1000,0,num_3,1.0814201000030152,,23,14,2026-03-04_14h35.17.637,2026A_exp2,2022.2.4,59.69290389013531,
1,0,3.7,0.0,1,0,7,7,73,,,,,78.89995409996482,79.55075090000173,79.55075090000173,80.05173429998104,315,45,80.05173429998104,80.05173429998104,80.05173429998104,80.05173429998104,80.05173429998104,80.05173429998104,80.05173429998104,80.05173429998104,80.05173429998104,80.4181677000015,80.4181677000015,80.4181677000015,80.4181677000015,80.4181677000015,80.4181677000015,80.4181677000015,80.4181677000015,80.4181677000015,4,4,"[0.0012647000257857144, 0.08316990005550906, 0.3004060000530444, 0.3499957000021823]","[0.04987060005078092, 0.28357740002684295, 0.33353709999937564, 0.3665065000532195]",80.4181677000015,80.61840509995818,0.0,80.61840509995818,1,0.0,0,0,1000,num_4,1.351749400026165,,23,14,2026-03-04_14h35.17.637,2026A_exp2,2022.2.4,59.69290389013531,
1000,1,0.0,6.1,0,0,8,8,85,,,,,81.98632089997409,82.6371705000056,82.6371705000056,83.1217627999722,45,315,83.1217627999722,83.1217627999722,83.1217627999722,83.1217627999722,83.1217627999722,83.1217627999722,83.1217627999722,83.1217627999722,83.1217627999722,83.48794189997716,83.48794189997716,83.48794189997716,83.48794189997716,83.48794189997716,83.48794189997716,83.48794189997716,83.48794189997716,83.48794189997716,0,1,[0.0012144999927841127],[0.367205299960915],83.48794189997716,83.68837039999198,1000,83.68837039999198,1000,1000,1000,1000,1,num_2,0.521453500026837,,23,14,2026-03-04_14h35.17.637,2026A_exp2,2022.2.4,59.69290389013531,
0,0,6.1,0.0,0,0,9,9,65,,,,,84.23874289996456,84.88935809995746,84.88935809995746,85.39052049996099,45,315,85.39052049996099,85.39052049996099,85.39052049996099,85.39052049996099,85.39052049996099,85.39052049996099,85.39052049996099,85.39052049996099,85.39052049996099,85.7400904999813,85.7400904999813,85.7400904999813,85.7400904999813,85.7400904999813,85.7400904999813,85.7400904999813,85.7400904999813,85.7400904999813,0,1,[0.0012184000224806368],[0.35041030001593754],85.7400904999813,85.9404253999819,0.0,85.9404253999819,0,0.0,0,1,1000,num_1,0.5735026999609545,,23,14,2026-03-04_14h35.17.637,2026A_exp2,2022.2.4,59.69290389013531,
1,0,4.9,0.0,1,0,10,10,52,,,,,86.5409343999927,87.17499309999403,87.17499309999403,87.67618349997792,315,315,87.67618349997792,87.67618349997792,87.67618349997792,87.67618349997792,87.67618349997792,87.67618349997792,87.67618349997792,87.67618349997792,87.67618349997792,88.04259549995186,88.04259549995186,88.04259549995186,88.04259549995186,88.04259549995186,88.04259549995186,88.04259549995186,88.04259549995186,88.04259549995186,0,1,[0.0012100999592803419],[0.36736500001279637],88.04259549995186,88.24258999997983,0.0,88.24258999997983,1,0.0,0,0,1000,num_4,1.3994554999517277,,23,14,2026-03-04_14h35.17.637,2026A_exp2,2022.2.4,59.69290389013531,
1,0,4.9,0.0,0,0,11,11,47,,,,,89.66060519998427,90.31152469996596,90.31152469996596,90.79582339996705,45,45,90.79582339996705,90.79582339996705,90.79582339996705,90.79582339996705,90.79582339996705,90.79582339996705,90.79582339996705,90.79582339996705,90.79582339996705,91.1624593999586,91.1624593999586,91.1624593999586,91.1624593999586,91.1624593999586,91.1624593999586,91.1624593999586,91.1624593999586,91.1624593999586,0,1,[0.0012208999833092093],[0.36692389997188],91.1624593999586,91.36258179997094,4.9,91.36258179997094,1,4.9,1,1,1000,num_4,0.9607656999723986,,23,14,2026-03-04_14h35.17.637,2026A_exp2,2022.2.4,59.69290389013531,
1,0,6.1,0.0,1,0,12,12,23,,,,,92.34659279999323,92.99750169995241,92.99750169995241,93.48200909997104,315,45,93.48200909997104,93.48200909997104,93.48200909997104,93.48200909997104,93.48200909997104,93.48200909997104,93.48200909997104,93.48200909997104,93.48200909997104,93.84831719996873,93.84831719996873,93.84831719996873,93.84831719996873,93.84831719996873,93.84831719996873,93.84831719996873,93.84831719996873,93.84831719996873,9,5,"[0.0011712000123225152, 0.11714159999974072, 0.20014380000066012, 0.26662670000223443, 0.35069839999778196]","[0.10041350004030392, 0.1837587000336498, 0.2334565000492148, 0.28332520002732053, 0.36727390001760796]",93.84831719996873,94.04827450000448,0.0,94.04827450000448,1,0.0,0,0,1000,num_4,0.6025058000232093,,23,14,2026-03-04_14h35.17.637,2026A_exp2,2022.2.4,59.69290389013531,
1,0,0.0,4.9,0,0,13,13,9,,,,,94.68238119996386,95.31646869995166,95.31646869995166,95.81758169998648,45,315,95.81758169998648,95.81758169998648,95.81758169998648,95.81758169998648,95.81758169998648,95.81758169998648,95.81758169998648,95.81758169998648,95.81758169998648,96.18399170000339,96.18399170000339,96.18399170000339,96.18399170000339,96.18399170000339,96.18399170000339,96.18399170000339,96.18399170000339,96.18399170000339,0,1,[0.0012126000365242362],[0.3672977000242099],96.18399170000339,96.38419739995152,0.0,96.38419739995152,0,0.0,0,1,1000,num_1,1.0016361000016332,,23,14,2026-03-04_14h35.17.637,2026A_exp2,2022.2.4,59.69290389013531,
1,0,0.0,0.0,0,0,14,14,75,,,,,97.40181149996351,98.05269029998453,98.05269029998453,98.53709459997481,315,45,98.53709459997481,98.53709459997481,98.53709459997481,98.53709459997481,98.53709459997481,98.53709459997481,98.53709459997481,98.53709459997481,98.53709459997481,98.90338599996176,98.90338599996176,98.90338599996176,98.90338599996176,98.90338599996176,98.90338599996176,98.90338599996176,98.90338599996176,98.90338599996176,0,1,[0.0012251000152900815],[0.3672070000320673],98.90338599996176,99.10388189996593,0.0,99.10388189996593,0,0.0,0,1,1000,num_1,0.666928899998311,,23,14,2026-03-04_14h35.17.637,2026A_exp2,2022.2.4,59.69290389013531,
1000,1,4.9,6.1,0,0,15,15,49,,,,,99.78753319999669,100.43833479995374,100.43833479995374,100.93931139999768,315,45,100.93931139999768,100.93931139999768,100.93931139999768,100.93931139999768,100.93931139999768,100.93931139999768,100.93931139999768,100.93931139999768,100.93931139999768,101.28907729999628,101.28907729999628,101.28907729999628,101.28907729999628,101.28907729999628,101.28907729999628,101.28907729999628,101.28907729999628,101.28907729999628,0,1,[0.0012388000031933188],[0.350441700022202],101.28907729999628,101.4911318999948,1000,101.4911318999948,1000,1000,1000,1000,1,num_2,0.639040699985344,,23,14,2026-03-04_14h35.17.637,2026A_exp2,2022.2.4,59.69290389013531,
1000,1,0.0,4.9,0,0,16,16,50,,,,,102.15655279997736,102.80719059996773,102.80719059996773,103.3083305999753,45,45,103.3083305999753,103.3083305999753,103.3083305999753,103.3083305999753,103.3083305999753,103.3083305999753,103.3083305999753,103.3083305999753,103.3083305999753,103.67483289999655,103.67483289999655,103.67483289999655,103.67483289999655,103.67483289999655,103.67483289999655,103.67483289999655,103.67483289999655,103.67483289999655,0,1,[0.00120900000911206],[0.36700279999058694],103.67483289999655,103.87524609995307,1000,103.87524609995307,1000,1000,1000,1000,1,num_2,0.392248300020583,,23,14,2026-03-04_14h35.17.637,2026A_exp2,2022.2.4,59.69290389013531,
1000,1,0.0,3.7,0,0,17,17,18,,,,,104.29201829998055,104.94287079997594,104.94287079997594,105.44380889995955,45,45,105.44380889995955,105.44380889995955,105.44380889995955,105.44380889995955,105.44380889995955,105.44380889995955,105.44380889995955,105.44380889995955,105.44380889995955,105.81032019999111,105.81032019999111,105.81032019999111,105.81032019999111,105.81032019999111,105.81032019999111,105.81032019999111,105.81032019999111,105.81032019999111,0,1,[0.0012128999806009233],[0.3673156999866478],105.81032019999111,106.01270399999339,1000,106.01270399999339,1000,1000,1000,1000,1,num_2,0.5097890000324696,,23,14,2026-03-04_14h35.17.637,2026A_exp2,2022.2.4,59.69290389013531,
1,0,0.0,4.9,1,0,18,18,2,,,,,106.54445299995132,107.1885462999926,107.1885462999926,107.679299899959,45,45,107.679299899959,107.679299899959,107.679299899959,107.679299899959,107.679299899959,107.679299899959,107.679299899959,107.679299899959,107.679299899959,108.0458488999866,108.0458488999866,108.0458488999866,108.0458488999866,108.0458488999866,108.0458488999866,108.0458488999866,108.0458488999866,108.0458488999866,0,1,[0.0015324000269174576],[0.3667147000087425],108.0458488999866,108.24604939995334,4.9,108.24604939995334,1,4.9,1,1,1000,num_4,0.5563066999893636,,23,14,2026-03-04_14h35.17.637,2026A_exp2,2022.2.4,59.69290389013531,
1,0,6.1,4.9,1,0,19,19,38,,,,,108.82981909997761,109.48054019996198,109.48054019996198,109.98163930000737,45,45,109.98163930000737,109.98163930000737,109.98163930000737,109.98163930000737,109.98163930000737,109.98163930000737,109.98163930000737,109.98163930000737,109.98163930000737,110.33144320000429,110.33144320000429,110.33144320000429,110.33144320000429,110.33144320000429,110.33144320000429,110.33144320000429,110.33144320000429,110.33144320000429,0,1,[0.0017189999925903976],[0.35020129999611527],110.33144320000429,110.53157979995012,4.9,110.53157979995012,0,4.9,1,0,1000,num_1,0.6307102999999188,,23,14,2026-03-04_14h35.17.637,2026A_exp2,2022.2.4,59.69290389013531,
1,0,0.0,0.0,1,0,20,20,56,,,,,111.18212660000427,111.83306569996057,111.83306569996057,112.31732889998239,315,315,112.31732889998239,112.31732889998239,112.31732889998239,112.31732889998239,112.31732889998239,112.31732889998239,112.31732889998239,112.31732889998239,112.31732889998239,112.70053939998616,112.70053939998616,112.70053939998616,112.70053939998616,112.70053939998616,112.70053939998616,112.70053939998616,112.70053939998616,112.70053939998616,0,1,[0.0012072999961674213],[0.3833790000062436],112.70053939998616,112.9009825999965,0.0,112.9009825999965,1,0.0,0,0,1000,num_4,0.5810010000132024,,23,14,2026-03-04_14h35.17.637,2026A_exp2,2022.2.4,59.69290389013531,
1000,1,4.9,6.1,1,0,21,21,4,,,,,113.50111979997018,114.15186230000108,114.15186230000108,114.63636030000634,315,315,114.63636030000634,114.63636030000634,114.63636030000634,114.63636030000634,114.63636030000634,114.63636030000634,114.63636030000634,114.63636030000634,114.63636030000634,115.00291099998867,115.00291099998867,115.00291099998867,115.00291099998867,115.00291099998867,115.00291099998867,115.00291099998867,115.00291099998867,115.00291099998867,0,1,[0.001262200006749481],[0.36728219996439293],115.00291099998867,115.20526379998773,1000,115.20526379998773,1000,1000,1000,1000,1,num_2,0.4045525999972597,,23,14,2026-03-04_14h35.17.637,2026A_exp2,2022.2.4,59.69290389013531,
1,0,4.9,6.1,1,0,22,22,62,,,,,115.63678319996689,116.2874632999883,116.2874632999883,116.7881659999839,45,315,116.7881659999839,116.7881659999839,116.7881659999839,116.7881659999839,116.7881659999839,116.7881659999839,116.7881659999839,116.7881659999839,116.7881659999839,117.13834720000159,117.13834720000159,117.13834720000159,117.13834720000159,117.13834720000159,117.13834720000159,117.13834720000159,117.13834720000159,117.13834720000159,0,1,[0.001219599973410368],[0.3506263000308536],117.13834720000159,117.33839549997356,6.1,117.35512709995965,0,6.1,1,0,1000,num_1,0.4795454000122845,,23,14,2026-03-04_14h35.17.637,2026A_exp2,2022.2.4,59.69290389013531,
1,0,4.9,0.0,0,0,23,23,19,,,,,117.85554969997611,118.50624799996149,118.50624799996149,118.99083679995965,45,45,118.99083679995965,118.99083679995965,118.99083679995965,118.99083679995965,118.99083679995965,118.99083679995965,118.99083679995965,118.99083679995965,118.99083679995965,119.35723409999628,119.35723409999628,119.35723409999628,119.35723409999628,119.35723409999628,119.35723409999628,119.35723409999628,119.35723409999628,119.35723409999628,0,1,[0.0007993000326678157],[0.3677695000078529],119.35723409999628,119.5574524999829,4.9,119.5574524999829,1,4.9,1,1,1000,num_4,0.6215172000229359,,23,14,2026-03-04_14h35.17.637,2026A_exp2,2022.2.4,59.69290389013531,
1000,1,0.0,0.0,0,0,24,24,33,,,,,120.2078826999641,120.85867919999873,120.85867919999873,121.34315549995517,315,315,121.34315549995517,121.34315549995517,121.34315549995517,121.34315549995517,121.34315549995517,121.34315549995517,121.34315549995517,121.34315549995517,121.34315549995517,121.70943160000024,121.70943160000024,121.70943160000024,121.70943160000024,121.70943160000024,121.70943160000024,121.70943160000024,121.70943160000024,121.70943160000024,1,2,"[0.0011989000486209989, 0.31688570004189387]","[0.29985380003927276, 0.36710780003340915]",121.70943160000024,121.91146479995223,1000,121.91146479995223,1000,1000,1000,1000,1,num_2,0.5953028000076301,,23,14,2026-03-04_14h35.17.637,2026A_exp2,2022.2.4,59.69290389013531,
1,0,6.1,0.0,1,0,25,25,53,,,,,122.52690110000549,123.17881009995472,123.17881009995472,123.67866859998321,45,45,123.67866859998321,123.67866859998321,123.67866859998321,123.67866859998321,123.67866859998321,123.67866859998321,123.67866859998321,123.67866859998321,123.67866859998321,124.04523220000556,124.04523220000556,124.04523220000556,124.04523220000556,124.04523220000556,124.04523220000556,124.04523220000556,124.04523220000556,124.04523220000556,0,1,[0.0015727999852970243],[0.36677149997558445],124.04523220000556,124.24533780000638,0.0,124.24533780000638,0,0.0,0,1,1000,num_1,0.4611797999823466,,23,14,2026-03-04_14h35.17.637,2026A_exp2,2022.2.4,59.69290389013531,
1,0,6.1,3.7,1,0,26,26,45,,,,,124.72910639998736,125.37979839998297,125.37979839998297,125.8643516000011,315,315,125.8643516000011,125.8643516000011,125.8643516000011,125.8643516000011,125.8643516000011,125.8643516000011,125.8643516000011,125.8643516000011,125.8643516000011,126.23074979998637,126.23074979998637,126.23074979998637,126.23074979998637,126.23074979998637,126.23074979998637,126.23074979998637,126.23074979998637,126.23074979998637,0,1,[0.0013098000199534],[0.36702150001656264],126.23074979998637,126.4310118999565,3.7,126.4310118999565,0,3.7,1,0,1000,num_1,0.6909888999653049,,23,14,2026-03-04_14h35.17.637,2026A_exp2,2022.2.4,59.69290389013531,
1,0,0.0,6.1,0,0,27,27,3,,,,,127.14812410000013,127.78445739997551,127.78445739997551,128.28325519995997,45,45,128.28325519995997,128.28325519995997,128.28325519995997,128.28325519995997,128.28325519995997,128.28325519995997,128.28325519995997,128.28325519995997,128.28325519995997,128.6498542999616,128.6498542999616,128.6498542999616,128.6498542999616,128.6498542999616,128.6498542999616,128.6498542999616,128.6498542999616,128.6498542999616,0,1,[0.0012648000265471637],[0.3671186999999918],128.6498542999616,128.85012149997056,0.0,128.85012149997056,0,0.0,0,1,1000,num_1,0.712483900017105,,23,14,2026-03-04_14h35.17.637,2026A_exp2,2022.2.4,59.69290389013531,
1000,1,4.9,6.1,0,0,28,28,59,,,,,129.5838286000071,130.23468009999488,130.23468009999488,130.71917569998186,45,315,130.71917569998186,130.71917569998186,130.71917569998186,130.71917569998186,130.71917569998186,130.71917569998186,130.71917569998186,130.71917569998186,130.71917569998186,131.08560880000005,131.08560880000005,131.08560880000005,131.08560880000005,131.08560880000005,131.08560880000005,131.08560880000005,131.08560880000005,131.08560880000005,0,1,[0.001289099978748709],[0.367143000010401],131.08560880000005,131.28749189997325,1000,131.28749189997325,1000,1000,1000,1000,0,num_3,0.8029801999800839,,23,14,2026-03-04_14h35.17.637,2026A_exp2,2022.2.4,59.69290389013531,
0,0,3.7,0.0,0,0,29,29,16,,,,,132.1199208999751,132.7707249999512,132.7707249999512,133.27178379998077,315,45,133.27178379998077,133.27178379998077,133.27178379998077,133.27178379998077,133.27178379998077,133.27178379998077,133.27178379998077,133.27178379998077,133.27178379998077,133.6216543999617,133.6216543999617,133.6216543999617,133.6216543999617,133.6216543999617,133.6216543999617,133.6216543999617,133.6216543999617,133.6216543999617,0,1,[0.0012168000102974474],[0.3517728999722749],133.6216543999617,133.8257749999757,0.0,133.8257749999757,0,0.0,0,1,1000,num_1,1.2240815000259317,,23,14,2026-03-04_14h35.17.637,2026A_exp2,2022.2.4,59.69290389013531,
1000,1,0.0,3.7,1,0,30,30,7,,,,,135.07282790000318,135.72345399996266,135.72345399996266,136.20785770000657,315,315,136.20785770000657,136.20785770000657,136.20785770000657,136.20785770000657,136.20785770000657,136.20785770000657,136.20785770000657,136.20785770000657,136.20785770000657,136.57442949997494,136.57442949997494,136.57442949997494,136.57442949997494,136.57442949997494,136.57442949997494,136.57442949997494,136.57442949997494,136.57442949997494,21,1,[0.3499657000065781],[0.36661670001922175],136.57442949997494,136.7843885999755,1000,136.7843885999755,1000,1000,1000,1000,1,num_2,0.5304162999964319,,23,14,2026-03-04_14h35.17.637,2026A_exp2,2022.2.4,59.69290389013531,
1,0,0.0,3.7,1,0,31,31,83,,,,,137.3418757999898,137.99246129998937,137.99246129998937,138.49354229995515,45,315,138.49354229995515,138.49354229995515,138.49354229995515,138.49354229995515,138.49354229995515,138.49354229995515,138.49354229995515,138.49354229995515,138.49354229995515,138.8433740999899,138.8433740999899,138.8433740999899,138.8433740999899,138.8433740999899,138.8433740999899,138.8433740999899,138.8433740999899,138.8433740999899,22,0,,,138.8433740999899,139.04338679998182,3.7,139.04338679998182,0,3.7,1,0,1000,num_1,0.5194127999711782,,23,14,2026-03-04_14h35.17.637,2026A_exp2,2022.2.4,59.69290389013531,
1000,1,3.7,0.0,0,0,32,32,28,,,,,139.5941393999965,140.2279854999506,140.2279854999506,140.72925539995776,45,315,140.72925539995776,140.72925539995776,140.72925539995776,140.72925539995776,140.72925539995776,140.72925539995776,140.72925539995776,140.72925539995776,140.72925539995776,141.09564769995632,141.09564769995632,141.09564769995632,141.09564769995632,141.09564769995632,141.09564769995632,141.09564769995632,141.09564769995632,141.09564769995632,20,3,"[0.017502499977126718, 0.31728159997146577, 0.36730129999341443]","[0.03356899996288121, 0.3338685999624431, 0.3673055999679491]",141.09564769995632,141.29818199999863,1000,141.29818199999863,1000,1000,1000,1000,0,num_3,0.46458950004307553,,23,14,2026-03-04_14h35.17.637,2026A_exp2,2022.2.4,59.69290389013531,
1,0,6.1,0.0,0,0,33,33,58,,,,,141.77984109998215,142.43030239996733,142.43030239996733,142.91472409997368,315,315,142.91472409997368,142.91472409997368,142.91472409997368,142.91472409997368,142.91472409997368,142.91472409997368,142.91472409997368,142.91472409997368,142.91472409997368,143.2810398999718,143.2810398999718,143.2810398999718,143.2810398999718,143.2810398999718,143.2810398999718,143.2810398999718,143.2810398999718,143.2810398999718,0,1,[0.0012146999943070114],[0.36725220002699643],143.2810398999718,143.4812769999844,6.1,143.4812769999844,1,6.1,1,1,1000,num_4,0.5365945000085048,,23,14,2026-03-04_14h35.17.637,2026A_exp2,2022.2.4,59.69290389013531,
0,0,0.0,6.1,1,0,34,34,84,,,,,144.04851599998074,144.68245419999585,144.68245419999585,145.18345339997904,315,315,145.18345339997904,145.18345339997904,145.18345339997904,145.18345339997904,145.18345339997904,145.18345339997904,145.18345339997904,145.18345339997904,145.18345339997904,145.55008719995385,145.55008719995385,145.55008719995385,145.55008719995385,145.55008719995385,145.55008719995385,145.55008719995385,145.55008719995385,145.55008719995385,0,1,[0.0013135999906808138],[0.36701149999862537],145.55008719995385,145.75015509995865,0.0,145.75015509995865,0,0.0,0,1,1000,num_1,1.0771834999904968,,23,14,2026-03-04_14h35.17.637,2026A_exp2,2022.2.4,59.69290389013531,
1000,1,0.0,3.7,0,0,35,35,21,,,,,146.8512002999778,147.50195629999507,147.50195629999507,147.98645079997368,45,45,147.98645079997368,147.98645079997368,147.98645079997368,147.98645079997368,147.98645079997368,147.98645079997368,147.98645079997368,147.98645079997368,147.98645079997368,148.352774399973,148.352774399973,148.352774399973,148.352774399973,148.352774399973,148.352774399973,148.352774399973,148.352774399973,148.352774399973,2,1,[0.0010736000258475542],[0.35072670003864914],148.352774399973,148.55488690000493,1000,148.55488690000493,1000,1000,1000,1000,1,num_2,0.5042567000491545,,23,14,2026-03-04_14h35.17.637,2026A_exp2,2022.2.4,59.69290389013531,
1000,1,0.0,4.9,1,0,36,36,51,,,,,149.0869653999689,149.7375818999717,149.7375818999717,150.23877769999672,315,315,150.23877769999672,150.23877769999672,150.23877769999672,150.23877769999672,150.23877769999672,150.23877769999672,150.23877769999672,150.23877769999672,150.23877769999672,150.60504100000253,150.60504100000253,150.60504100000253,150.60504100000253,150.60504100000253,150.60504100000253,150.60504100000253,150.60504100000253,150.60504100000253,15,3,"[0.0012114999699406326, 0.25033909996272996, 0.3003035999718122]","[0.01737149996915832, 0.2836780999787152, 0.36708789999829605]",150.60504100000253,150.8071621999843,1000,150.8071621999843,1000,1000,1000,1000,1,num_2,0.4351086000096984,,23,14,2026-03-04_14h35.17.637,2026A_exp2,2022.2.4,59.69290389013531,
1,0,4.9,4.9,1,0,37,37,32,,,,,151.27231689996552,151.92310359998373,151.92310359998373,152.4240893999813,315,315,152.4240893999813,152.4240893999813,152.4240893999813,152.4240893999813,152.4240893999813,152.4240893999813,152.4240893999813,152.4240893999813,152.4240893999813,152.7906463999534,152.7906463999534,152.7906463999534,152.7906463999534,152.7906463999534,152.7906463999534,152.7906463999534,152.7906463999534,152.7906463999534,0,1,[0.0015814999933354557],[0.36747729999478906],152.7906463999534,152.99089959997218,4.9,152.99089959997218,0,4.9,1,0,1000,num_1,1.0430194000364281,,23,14,2026-03-04_14h35.17.637,2026A_exp2,2022.2.4,59.69290389013531,
1,0,3.7,3.7,1,0,38,38,11,,,,,154.05848309997236,154.69256619998487,154.69256619998487,155.19355409999844,45,45,155.19355409999844,155.19355409999844,155.19355409999844,155.19355409999844,155.19355409999844,155.19355409999844,155.19355409999844,155.19355409999844,155.19355409999844,155.56007219996536,155.56007219996536,155.56007219996536,155.56007219996536,155.56007219996536,155.56007219996536,155.56007219996536,155.56007219996536,155.56007219996536,0,1,[0.0012023999588564038],[0.3671767999767326],155.56007219996536,155.75992179999594,3.7,155.75992179999594,1,3.7,1,1,1000,num_4,0.7142907999805175,,23,14,2026-03-04_14h35.17.637,2026A_exp2,2022.2.4,59.69290389013531,
1,0,0.0,0.0,0,0,39,39,31,,,,,156.4961185999564,157.15585499996087,157.15585499996087,157.64611450000666,45,45,157.64611450000666,157.64611450000666,157.64611450000666,157.64611450000666,157.64611450000666,157.64611450000666,157.64611450000666,157.64611450000666,157.64611450000666,158.0124375000014,158.0124375000014,158.0124375000014,158.0124375000014,158.0124375000014,158.0124375000014,158.0124375000014,158.0124375000014,158.0124375000014,19,1,[0.0014387000119313598],[0.06696389999706298],158.0124375000014,158.21298680000473,0.0,158.21298680000473,1,0.0,0,0,1000,num_4,0.5972779999719933,,23,14,2026-03-04_14h35.17.637,2026A_exp2,2022.2.4,59.69290389013531,
1,0,6.1,0.0,1,0,40,40,41,,,,,158.8298418999766,159.4803584999754,159.4803584999754,159.96499710000353,315,315,159.96499710000353,159.96499710000353,159.96499710000353,159.96499710000353,159.96499710000353,159.96499710000353,159.96499710000353,159.96499710000353,159.96499710000353,160.33134759997483,160.33134759997483,160.33134759997483,160.33134759997483,160.33134759997483,160.33134759997483,160.33134759997483,160.33134759997483,160.33134759997483,10,3,"[0.0013417000300250947, 0.316638000018429, 0.3671950999996625]","[0.18373030005022883, 0.3339517000131309, 0.36719990003621206]",160.33134759997483,160.5316072999849,0.0,160.5316072999849,1,0.0,0,0,1000,num_4,1.2954932999564335,,23,14,2026-03-04_14h35.17.637,2026A_exp2,2022.2.4,59.69290389013531,
1,0,0.0,0.0,1,0,41,41,42,,,,,161.8497279000003,162.50026709999656,162.50026709999656,163.00144849997014,315,315,163.00144849997014,163.00144849997014,163.00144849997014,163.00144849997014,163.00144849997014,163.00144849997014,163.00144849997014,163.00144849997014,163.00144849997014,163.35116399999242,163.35116399999242,163.35116399999242,163.35116399999242,163.35116399999242,163.35116399999242,163.35116399999242,163.35116399999242,163.35116399999242,0,1,[0.0007164999842643738],[0.35070740000810474],163.35116399999242,163.5513013000018,0.0,163.5513013000018,1,0.0,0,0,1000,num_4,1.508028500014916,,23,14,2026-03-04_14h35.17.637,2026A_exp2,2022.2.4,59.69290389013531,
1,0,0.0,0.0,1,0,42,42,77,,,,,165.08620919997338,165.7369598999503,165.7369598999503,166.22121439996408,315,45,166.22121439996408,166.22121439996408,166.22121439996408,166.22121439996408,166.22121439996408,166.22121439996408,166.22121439996408,166.22121439996408,166.22121439996408,166.5877547999844,166.5877547999844,166.5877547999844,166.5877547999844,166.5877547999844,166.5877547999844,166.5877547999844,166.5877547999844,166.5877547999844,0,1,[0.0012494000256992877],[0.3671769000357017],166.5877547999844,166.78795759996865,0.0,166.78795759996865,1,0.0,0,0,1000,num_4,0.6710388000356033,,23,14,2026-03-04_14h35.17.637,2026A_exp2,2022.2.4,59.69290389013531,
0,0,0.0,0.0,0,0,43,43,10,,,,,167.48862109996844,168.1393015999929,168.1393015999929,168.62369219999528,315,45,168.62369219999528,168.62369219999528,168.62369219999528,168.62369219999528,168.62369219999528,168.62369219999528,168.62369219999528,168.62369219999528,168.62369219999528,168.99011959997006,168.99011959997006,168.99011959997006,168.99011959997006,168.99011959997006,168.99011959997006,168.99011959997006,168.99011959997006,168.99011959997006,5,4,"[0.0012049999786540866, 0.15043969999533147, 0.2837121000047773, 0.3506241000141017]","[0.13369310001144186, 0.2503806999884546, 0.31708720000460744, 0.36721150000812486]",168.99011959997006,169.19034169998486,0.0,169.19034169998486,1,0.0,0,0,1000,num_4,2.0202288000145927,,23,14,2026-03-04_14h35.17.637,2026A_exp2,2022.2.4,59.69290389013531,
1000,1,0.0,6.1,0,0,44,44,5,,,,,171.2422963999561,171.87637129996438,171.87637129996438,172.37737189995823,315,315,172.37737189995823,172.37737189995823,172.37737189995823,172.37737189995823,172.37737189995823,172.37737189995823,172.37737189995823,172.37737189995823,172.37737189995823,172.74400179996155,172.74400179996155,172.74400179996155,172.74400179996155,172.74400179996155,172.74400179996155,172.74400179996155,172.74400179996155,172.74400179996155,0,1,[0.001206600049044937],[0.3664674000465311],172.74400179996155,172.9668371999869,1000,172.9668371999869,1000,1000,1000,1000,1,num_2,0.6833162999828346,,23,14,2026-03-04_14h35.17.637,2026A_exp2,2022.2.4,59.69290389013531,
1,0,3.7,0.0,0,0,45,45,15,,,,,173.6780665999977,174.3289536999655,174.3289536999655,174.84469890000764,315,315,174.84469890000764,174.84469890000764,174.84469890000764,174.84469890000764,174.84469890000764,174.84469890000764,174.84469890000764,174.84469890000764,174.84469890000764,175.17974999995204,175.17974999995204,175.17974999995204,175.17974999995204,175.17974999995204,175.17974999995204,175.17974999995204,175.17974999995204,175.17974999995204,0,1,[0.0040685999556444585],[0.3489057999686338],175.17974999995204,175.38426799996523,3.7,175.3966299999738,1,3.7,1,1,1000,num_4,0.7016831000219099,,23,14,2026-03-04_14h35.17.637,2026A_exp2,2022.2.4,59.69290389013531,
1,0,0.0,4.9,0,0,46,46,48,,,,,176.11384349997388,176.76460569998017,176.76460569998017,177.26575469999807,45,45,177.26575469999807,177.26575469999807,177.26575469999807,177.26575469999807,177.26575469999807,177.26575469999807,177.26575469999807,177.26575469999807,177.26575469999807,177.63215459999628,177.63215459999628,177.63215459999628,177.63215459999628,177.63215459999628,177.63215459999628,177.63215459999628,177.63215459999628,177.63215459999628,23,0,,,177.63215459999628,177.83228319999762,0.0,177.83228319999762,0,0.0,0,1,1000,num_1,1.937965199991595,,23,14,2026-03-04_14h35.17.637,2026A_exp2,2022.2.4,59.69290389013531,
1000,1,0.0,6.1,1,0,47,47,40,,,,,179.7853453999851,180.43496389995562,180.43496389995562,180.93596889998298,45,45,180.93596889998298,180.93596889998298,180.93596889998298,180.93596889998298,180.93596889998298,180.93596889998298,180.93596889998298,180.93596889998298,180.93596889998298,181.30247890000464,181.30247890000464,181.30247890000464,181.30247890000464,181.30247890000464,181.30247890000464,181.30247890000464,181.30247890000464,181.30247890000464,9,1,[0.0012387000024318695],[0.2336589999613352],181.30247890000464,181.5042976999539,1000,181.5042976999539,1000,1000,1000,1000,1,num_2,0.48248360003344715,,23,14,2026-03-04_14h35.17.637,2026A_exp2,2022.2.4,59.69290389013531,
0,0,3.7,0.0,1,0,48,48,0,,,,,182.0030498999986,182.65389449999202,182.65389449999202,183.15493580000475,45,315,183.15493580000475,183.15493580000475,183.15493580000475,183.15493580000475,183.15493580000475,183.15493580000475,183.15493580000475,183.15493580000475,183.15493580000475,183.52131609997014,183.52131609997014,183.52131609997014,183.52131609997014,183.52131609997014,183.52131609997014,183.52131609997014,183.52131609997014,183.52131609997014,0,1,[0.0007604000275023282],[0.36761630000546575],183.52131609997014,183.721442799957,3.7,183.721442799957,0,3.7,1,0,1000,num_1,0.7126649999991059,,23,14,2026-03-04_14h35.17.637,2026A_exp2,2022.2.4,59.69290389013531,
1,0,4.9,0.0,0,0,49,49,14,,,,,184.4557477000053,185.1060451999656,185.1060451999656,185.59505099995295,315,45,185.59505099995295,185.59505099995295,185.59505099995295,185.59505099995295,185.59505099995295,185.59505099995295,185.59505099995295,185.59505099995295,185.59505099995295,185.95716519997222,185.95716519997222,185.95716519997222,185.95716519997222,185.95716519997222,185.95716519997222,185.95716519997222,185.95716519997222,185.95716519997222,23,0,,,185.95716519997222,186.15736219997052,4.9,186.15736219997052,1,4.9,1,1,1000,num_4,0.6057301000109874,,23,14,2026-03-04_14h35.17.637,2026A_exp2,2022.2.4,59.69290389013531,
1000,1,0.0,0.0,1,0,50,50,37,,,,,186.79114869999466,187.44181059999391,187.44181059999391,187.92628699995112,315,45,187.92628699995112,187.92628699995112,187.92628699995112,187.92628699995112,187.92628699995112,187.92628699995112,187.92628699995112,187.92628699995112,187.92628699995112,188.2928450999898,188.2928450999898,188.2928450999898,188.2928450999898,188.2928450999898,188.2928450999898,188.2928450999898,188.2928450999898,188.2928450999898,23,0,,,188.2928450999898,188.4942621999653,1000,188.4942621999653,1000,1000,1000,1000,1,num_2,0.6278353999950923,,23,14,2026-03-04_14h35.17.637,2026A_exp2,2022.2.4,59.69290389013531,
0,0,4.9,4.9,0,0,51,51,88,,,,,189.14347109996015,189.79424439999275,189.79424439999275,190.29534959996818,315,45,190.29534959996818,190.29534959996818,190.29534959996818,190.29534959996818,190.29534959996818,190.29534959996818,190.29534959996818,190.29534959996818,190.29534959996818,190.64520450000418,190.64520450000418,190.64520450000418,190.64520450000418,190.64520450000418,190.64520450000418,190.64520450000418,190.64520450000418,190.64520450000418,11,3,"[0.08339109999360517, 0.25033750000875443, 0.28376510000089183]","[0.23359020001953468, 0.26698499999474734, 0.3004916000063531]",190.64520450000418,190.84540930000367,4.9,190.84540930000367,0,4.9,1,0,1000,num_1,0.6054504999774508,,23,14,2026-03-04_14h35.17.637,2026A_exp2,2022.2.4,59.69290389013531,
1,0,3.7,4.9,0,0,52,52,70,,,,,191.47923689999152,192.1298518999829,192.1298518999829,192.61428749997867,315,315,192.61428749997867,192.61428749997867,192.61428749997867,192.61428749997867,192.61428749997867,192.61428749997867,192.61428749997867,192.61428749997867,192.61428749997867,192.98074059997452,192.98074059997452,192.98074059997452,192.98074059997452,192.98074059997452,192.98074059997452,192.98074059997452,192.98074059997452,192.98074059997452,14,1,[0.0012441999861039221],[0.15034510003169999],192.98074059997452,193.1808183999965,3.7,193.1808183999965,1,3.7,1,1,1000,num_4,0.8370397000107914,,23,14,2026-03-04_14h35.17.637,2026A_exp2,2022.2.4,59.69290389013531,
1000,1,4.9,6.1,0,0,53,53,35,,,,,194.04836529999739,194.69937079999363,194.69937079999363,195.18365419999463,45,45,195.18365419999463,195.18365419999463,195.18365419999463,195.18365419999463,195.18365419999463,195.18365419999463,195.18365419999463,195.18365419999463,195.18365419999463,195.55001690000063,195.55001690000063,195.55001690000063,195.55001690000063,195.55001690000063,195.55001690000063,195.55001690000063,195.55001690000063,195.55001690000063,15,4,"[0.0012664999812841415, 0.08365319995209575, 0.21709669998381287, 0.2504777999711223]","[0.05017750000115484, 0.11687249998794869, 0.23383889999240637, 0.2837629999849014]",195.55001690000063,195.7520935999928,1000,195.7520935999928,1000,1000,1000,1000,1,num_2,0.45005389995640144,,23,14,2026-03-04_14h35.17.637,2026A_exp2,2022.2.4,59.69290389013531,
1000,1,0.0,0.0,1,0,54,54,8,,,,,196.21725049999077,196.8679949999787,196.8679949999787,197.36908969999058,45,315,197.36908969999058,197.36908969999058,197.36908969999058,197.36908969999058,197.36908969999058,197.36908969999058,197.36908969999058,197.36908969999058,197.36908969999058,197.73544729995774,197.73544729995774,197.73544729995774,197.73544729995774,197.73544729995774,197.73544729995774,197.73544729995774,197.73544729995774,197.73544729995774,0,1,[0.0012118000304326415],[0.3672650000080466],197.73544729995774,197.9376168999588,1000,197.9376168999588,1000,1000,1000,1000,0,num_3,1.248544399975799,,23,14,2026-03-04_14h35.17.637,2026A_exp2,2022.2.4,59.69290389013531,
1,0,6.1,3.7,0,0,55,55,79,,,,,199.20376760000363,199.85432319995016,199.85432319995016,200.35543009999674,315,315,200.35543009999674,200.35543009999674,200.35543009999674,200.35543009999674,200.35543009999674,200.35543009999674,200.35543009999674,200.35543009999674,200.35543009999674,200.72181939997245,200.72181939997245,200.72181939997245,200.72181939997245,200.72181939997245,200.72181939997245,200.72181939997245,200.72181939997245,200.72181939997245,11,2,"[0.001221699989400804, 0.28373630001442507]","[0.10012150002876297, 0.36715810000896454]",200.72181939997245,200.92204559996026,6.1,200.92204559996026,1,6.1,1,1,1000,num_4,0.5124547999585047,,23,14,2026-03-04_14h35.17.637,2026A_exp2,2022.2.4,59.69290389013531,
1000,1,4.9,4.9,0,0,56,56,36,,,,,201.4557649999624,202.11505879997276,202.11505879997276,202.5964114999515,315,45,202.5964114999515,202.5964114999515,202.5964114999515,202.5964114999515,202.5964114999515,202.5964114999515,202.5964114999515,202.5964114999515,202.5964114999515,202.957323599956,202.957323599956,202.957323599956,202.957323599956,202.957323599956,202.957323599956,202.957323599956,202.957323599956,202.957323599956,9,3,"[0.02285070001380518, 0.1493670999770984, 0.182673099974636]","[0.08171050000237301, 0.16585559997474775, 0.33247229998232797]",202.957323599956,203.1594185999711,1000,203.1594185999711,1000,1000,1000,1000,1,num_2,1.155730800004676,,23,14,2026-03-04_14h35.17.637,2026A_exp2,2022.2.4,59.69290389013531,
1,0,0.0,4.9,1,0,57,57,44,,,,,204.34212299995124,204.99289140000474,204.99289140000474,205.4939868999645,45,315,205.4939868999645,205.4939868999645,205.4939868999645,205.4939868999645,205.4939868999645,205.4939868999645,205.4939868999645,205.4939868999645,205.4939868999645,205.86035329999868,205.86035329999868,205.86035329999868,205.86035329999868,205.86035329999868,205.86035329999868,205.86035329999868,205.86035329999868,205.86035329999868,0,1,[0.0012122999760322273],[0.3671215999638662],205.86035329999868,206.06065860000672,4.9,206.06065860000672,1,4.9,1,1,1000,num_4,0.6458807999733835,,23,14,2026-03-04_14h35.17.637,2026A_exp2,2022.2.4,59.69290389013531,
1,0,6.1,0.0,0,0,58,58,22,,,,,206.72787119995337,207.3617316999589,207.3617316999589,207.8628069999977,45,315,207.8628069999977,207.8628069999977,207.8628069999977,207.8628069999977,207.8628069999977,207.8628069999977,207.8628069999977,207.8628069999977,207.8628069999977,208.22941279999213,208.22941279999213,208.22941279999213,208.22941279999213,208.22941279999213,208.22941279999213,208.22941279999213,208.22941279999213,208.22941279999213,13,2,"[0.03330540005117655, 0.3505605000536889]","[0.16679830005159602, 0.36713310005143285]",208.22941279999213,208.42954330000794,6.1,208.42954330000794,1,6.1,1,1,1000,num_4,0.604795399995055,,23,14,2026-03-04_14h35.17.637,2026A_exp2,2022.2.4,59.69290389013531,
1000,1,0.0,3.7,1,0,59,59,81,,,,,209.06351329997415,209.7141874000081,209.7141874000081,210.19875419995515,315,315,210.19875419995515,210.19875419995515,210.19875419995515,210.19875419995515,210.19875419995515,210.19875419995515,210.19875419995515,210.19875419995515,210.19875419995515,210.5650799999712,210.5650799999712,210.5650799999712,210.5650799999712,210.5650799999712,210.5650799999712,210.5650799999712,210.5650799999712,210.5650799999712,0,1,[0.001222900056745857],[0.3673398000537418],210.5650799999712,210.76715129998047,1000,210.76715129998047,1000,1000,1000,1000,0,num_3,0.5558432000107132,,23,14,2026-03-04_14h35.17.637,2026A_exp2,2022.2.4,59.69290389013531,
1,0,3.7,6.1,0,0,60,60,74,,,,,211.34947259997716,211.99985570000717,211.99985570000717,212.5008695999859,315,45,212.5008695999859,212.5008695999859,212.5008695999859,212.5008695999859,212.5008695999859,212.5008695999859,212.5008695999859,212.5008695999859,212.5008695999859,212.86725509999087,212.86725509999087,212.86725509999087,212.86725509999087,212.86725509999087,212.86725509999087,212.86725509999087,212.86725509999087,212.86725509999087,1,2,"[0.0012306999997235835, 0.08334149996517226]","[0.06674400001065806, 0.36702750000404194]",212.86725509999087,213.06753339996794,3.7,213.06753339996794,0,3.7,1,0,1000,num_1,0.6147751999669708,,23,14,2026-03-04_14h35.17.637,2026A_exp2,2022.2.4,59.69290389013531,
1,0,0.0,3.7,0,0,61,61,34,,,,,213.70132299995748,214.35224569996353,214.35224569996353,214.83657029998722,315,315,214.83657029998722,214.83657029998722,214.83657029998722,214.83657029998722,214.83657029998722,214.83657029998722,214.83657029998722,214.83657029998722,214.83657029998722,215.20300639997004,215.20300639997004,215.20300639997004,215.20300639997004,215.20300639997004,215.20300639997004,215.20300639997004,215.20300639997004,215.20300639997004,20,1,[0.20027520001167431],[0.25039390003075823],215.20300639997004,215.40319799998542,0.0,215.40319799998542,0,0.0,0,1,1000,num_1,0.9673243000288494,,23,14,2026-03-04_14h35.17.637,2026A_exp2,2022.2.4,59.69290389013531,
1000,1,4.9,0.0,0,0,62,62,82,,,,,216.38741269998718,217.038156399969,217.038156399969,217.5225078999647,45,45,217.5225078999647,217.5225078999647,217.5225078999647,217.5225078999647,217.5225078999647,217.5225078999647,217.5225078999647,217.5225078999647,217.5225078999647,217.88904899999034,217.88904899999034,217.88904899999034,217.88904899999034,217.88904899999034,217.88904899999034,217.88904899999034,217.88904899999034,217.88904899999034,1,1,[0.001215199998114258],[0.3670970000093803],217.88904899999034,218.09103589999722,1000,218.09103589999722,1000,1000,1000,1000,0,num_3,0.5437276999582537,,23,14,2026-03-04_14h35.17.637,2026A_exp2,2022.2.4,59.69290389013531,
1,0,6.1,0.0,1,0,63,63,29,,,,,218.65639989997726,219.30680580000626,219.30680580000626,219.80828830000246,315,315,219.80828830000246,219.80828830000246,219.80828830000246,219.80828830000246,219.80828830000246,219.80828830000246,219.80828830000246,219.80828830000246,219.80828830000246,220.15783659997396,220.15783659997396,220.15783659997396,220.15783659997396,220.15783659997396,220.15783659997396,220.15783659997396,220.15783659997396,220.15783659997396,2,2,"[0.0012953999685123563, 0.21720879996428266]","[0.20049729995662346, 0.35057419998338446]",220.15783659997396,220.35825349995866,0.0,220.35825349995866,0,0.0,0,1,1000,num_1,0.9412645000265911,,23,14,2026-03-04_14h35.17.637,2026A_exp2,2022.2.4,59.69290389013531,
1,0,3.7,0.0,1,0,64,64,55,,,,,221.32574279996334,221.97635149996495,221.97635149996495,222.46084759995574,315,45,222.46084759995574,222.46084759995574,222.46084759995574,222.46084759995574,222.46084759995574,222.46084759995574,222.46084759995574,222.46084759995574,222.46084759995574,222.82739549997495,222.82739549997495,222.82739549997495,222.82739549997495,222.82739549997495,222.82739549997495,222.82739549997495,222.82739549997495,222.82739549997495,3,3,"[0.0012032000231556594, 0.05017609999049455, 0.1003406000090763]","[0.017349199973978102, 0.08358370000496507, 0.36719040002208203]",222.82739549997495,223.0276348000043,0.0,223.0276348000043,0,0.0,0,1,1000,num_1,0.6061464999802411,,23,14,2026-03-04_14h35.17.637,2026A_exp2,2022.2.4,59.69290389013531,
1,0,4.9,0.0,0,0,65,65,57,,,,,223.66114759998163,224.31211949995486,224.31211949995486,224.79663319996325,315,315,224.79663319996325,224.79663319996325,224.79663319996325,224.79663319996325,224.79663319996325,224.79663319996325,224.79663319996325,224.79663319996325,224.79663319996325,225.16303579998203,225.16303579998203,225.16303579998203,225.16303579998203,225.16303579998203,225.16303579998203,225.16303579998203,225.16303579998203,225.16303579998203,23,0,,,225.16303579998203,225.36332099995343,4.9,225.36332099995343,1,4.9,1,1,1000,num_4,0.5754200000083074,,23,14,2026-03-04_14h35.17.637,2026A_exp2,2022.2.4,59.69290389013531,
1,0,0.0,0.0,0,0,66,66,64,,,,,225.96364059997723,226.62393519998295,226.62393519998295,227.1157663000049,315,45,227.1157663000049,227.1157663000049,227.1157663000049,227.1157663000049,227.1157663000049,227.1157663000049,227.1157663000049,227.1157663000049,227.1157663000049,227.46543659997405,227.46543659997405,227.46543659997405,227.46543659997405,227.46543659997405,227.46543659997405,227.46543659997405,227.46543659997405,227.46543659997405,22,0,,,227.46543659997405,227.6691451999941,0.0,227.6691451999941,1,0.0,0,0,1000,num_4,0.6453329999931157,,23,14,2026-03-04_14h35.17.637,2026A_exp2,2022.2.4,59.69290389013531,
1000,1,4.9,3.7,0,0,67,67,26,,,,,228.3327644999954,228.98355109995464,228.98355109995464,229.48442269995576,45,45,229.48442269995576,229.48442269995576,229.48442269995576,229.48442269995576,229.48442269995576,229.48442269995576,229.48442269995576,229.48442269995576,229.48442269995576,229.85113639995689,229.85113639995689,229.85113639995689,229.85113639995689,229.85113639995689,229.85113639995689,229.85113639995689,229.85113639995689,229.85113639995689,5,1,[0.08343430003151298],[0.3667811000486836],229.85113639995689,230.05332869995618,1000,230.05332869995618,1000,1000,1000,1000,0,num_3,0.5164930000319146,,23,14,2026-03-04_14h35.17.637,2026A_exp2,2022.2.4,59.69290389013531,
0,0,0.0,6.1,0,0,68,68,12,,,,,230.58516169997165,231.23581980000017,231.23581980000017,231.7419406999834,45,315,231.7419406999834,231.7419406999834,231.7419406999834,231.7419406999834,231.7419406999834,231.7419406999834,231.7419406999834,231.7419406999834,231.7419406999834,232.1034190999926,232.1034190999926,232.1034190999926,232.1034190999926,232.1034190999926,232.1034190999926,232.1034190999926,232.1034190999926,232.1034190999926,0,1,[0.002567000046838075],[0.36719230003654957],232.1034190999926,232.307192999986,6.1,232.307192999986,1,6.1,1,1,1000,num_4,0.6787925999960862,,23,14,2026-03-04_14h35.17.637,2026A_exp2,2022.2.4,59.69290389013531,
1000,1,4.9,4.9,0,0,69,69,6,,,,,233.0039563999744,233.65477279998595,233.65477279998595,234.13914260000456,315,45,234.13914260000456,234.13914260000456,234.13914260000456,234.13914260000456,234.13914260000456,234.13914260000456,234.13914260000456,234.13914260000456,234.13914260000456,234.50553979998222,234.50553979998222,234.50553979998222,234.50553979998222,234.50553979998222,234.50553979998222,234.50553979998222,234.50553979998222,234.50553979998222,23,0,,,234.50553979998222,234.70822779997252,1000,234.70822779997252,1000,1000,1000,1000,0,num_3,0.6697547999792732,,23,14,2026-03-04_14h35.17.637,2026A_exp2,2022.2.4,59.69290389013531,
1000,1,0.0,0.0,1,0,70,70,63,,,,,235.40651040000375,236.05711399996653,236.05711399996653,236.55818229995202,315,315,236.55818229995202,236.55818229995202,236.55818229995202,236.55818229995202,236.55818229995202,236.55818229995202,236.55818229995202,236.55818229995202,236.55818229995202,236.92459349997807,236.92459349997807,236.92459349997807,236.92459349997807,236.92459349997807,236.92459349997807,236.92459349997807,236.92459349997807,236.92459349997807,19,3,"[0.217103999981191, 0.2839473999920301, 0.317187299951911]","[0.25043799995910376, 0.30060739995678887, 0.33397779997903854]",236.92459349997807,237.15559629997006,1000,237.15559629997006,1000,1000,1000,1000,1,num_2,0.6790172000182793,,23,14,2026-03-04_14h35.17.637,2026A_exp2,2022.2.4,59.69290389013531,
1000,1,0.0,0.0,1,0,71,71,27,,,,,237.8588779999991,238.50958819995867,238.50958819995867,239.01059219997842,45,315,239.01059219997842,239.01059219997842,239.01059219997842,239.01059219997842,239.01059219997842,239.01059219997842,239.01059219997842,239.01059219997842,239.01059219997842,239.37702849996276,239.37702849996276,239.37702849996276,239.37702849996276,239.37702849996276,239.37702849996276,239.37702849996276,239.37702849996276,239.37702849996276,23,0,,,239.37702849996276,239.5790421999991,1000,239.5790421999991,1000,1000,1000,1000,1,num_2,0.4794067000038922,,23,14,2026-03-04_14h35.17.637,2026A_exp2,2022.2.4,59.69290389013531,
0,0,4.9,3.7,1,0,72,72,13,,,,,240.07778799999505,240.72851319995243,240.72851319995243,241.2450885999715,315,315,241.2450885999715,241.2450885999715,241.2450885999715,241.2450885999715,241.2450885999715,241.2450885999715,241.2450885999715,241.2450885999715,241.2450885999715,241.59594509995077,241.59594509995077,241.59594509995077,241.59594509995077,241.59594509995077,241.59594509995077,241.59594509995077,241.59594509995077,241.59594509995077,0,1,[0.003997499996330589],[0.3643708999734372],241.59594509995077,241.7963740999694,4.9,241.7963740999694,1,4.9,1,1,1000,num_4,1.2618737000157125,,23,14,2026-03-04_14h35.17.637,2026A_exp2,2022.2.4,59.69290389013531,
1000,1,3.7,0.0,1,0,73,73,54,,,,,243.08083449996775,243.7314836999867,243.7314836999867,244.2159192999825,315,315,244.2159192999825,244.2159192999825,244.2159192999825,244.2159192999825,244.2159192999825,244.2159192999825,244.2159192999825,244.2159192999825,244.2159192999825,244.58242950000567,244.58242950000567,244.58242950000567,244.58242950000567,244.58242950000567,244.58242950000567,244.58242950000567,244.58242950000567,244.58242950000567,16,2,"[0.00120599998626858, 0.25039609998930246]","[0.10011140001006424, 0.2669822999741882]",244.58242950000567,244.78433409996796,1000,244.78433409996796,1000,1000,1000,1000,1,num_2,1.2105142999789678,,23,14,2026-03-04_14h35.17.637,2026A_exp2,2022.2.4,59.69290389013531,
1000,1,0.0,0.0,1,0,74,74,78,,,,,246.01700589997927,246.66795049997745,246.66795049997745,247.16903059999458,45,45,247.16903059999458,247.16903059999458,247.16903059999458,247.16903059999458,247.16903059999458,247.16903059999458,247.16903059999458,247.16903059999458,247.16903059999458,247.51882140000816,247.51882140000816,247.51882140000816,247.51882140000816,247.51882140000816,247.51882140000816,247.51882140000816,247.51882140000816,247.51882140000816,0,1,[0.0012036000262014568],[0.3517969000386074],247.51882140000816,247.72057989996392,1000,247.73555260000285,1000,1000,1000,1000,1,num_2,0.554961500049103,,23,14,2026-03-04_14h35.17.637,2026A_exp2,2022.2.4,59.69290389013531,
1000,1,3.7,3.7,1,0,75,75,25,,,,,248.31940249999752,248.97018289996777,248.97018289996777,249.47130429995013,315,45,249.47130429995013,249.47130429995013,249.47130429995013,249.47130429995013,249.47130429995013,249.47130429995013,249.47130429995013,249.47130429995013,249.47130429995013,249.83762760000536,249.83762760000536,249.83762760000536,249.83762760000536,249.83762760000536,249.83762760000536,249.83762760000536,249.83762760000536,249.83762760000536,0,1,[0.0012898999848403037],[0.36702810000861064],249.83762760000536,250.03981990000466,1000,250.03981990000466,1000,1000,1000,1000,1,num_2,0.6586060000117868,,23,14,2026-03-04_14h35.17.637,2026A_exp2,2022.2.4,59.69290389013531,
0,0,4.9,6.1,0,0,76,76,1,,,,,250.7217796999612,251.37252039997838,251.37252039997838,251.87364069995238,315,315,251.87364069995238,251.87364069995238,251.87364069995238,251.87364069995238,251.87364069995238,251.87364069995238,251.87364069995238,251.87364069995238,251.87364069995238,252.24007749999873,252.24007749999873,252.24007749999873,252.24007749999873,252.24007749999873,252.24007749999873,252.24007749999873,252.24007749999873,252.24007749999873,23,0,,,252.24007749999873,252.4402481999714,6.1,252.4402481999714,1,6.1,1,1,1000,num_4,0.9462852999567986,,23,14,2026-03-04_14h35.17.637,2026A_exp2,2022.2.4,59.69290389013531,
1000,1,3.7,3.7,0,0,77,77,76,,,,,253.407759899972,254.05857120000292,254.05857120000292,254.5428983999882,315,315,254.5428983999882,254.5428983999882,254.5428983999882,254.5428983999882,254.5428983999882,254.5428983999882,254.5428983999882,254.5428983999882,254.5428983999882,254.90951659996063,254.90951659996063,254.90951659996063,254.90951659996063,254.90951659996063,254.90951659996063,254.90951659996063,254.90951659996063,254.90951659996063,20,1,[0.001214599993545562],[0.050377000006847084],254.90951659996063,255.1119522000081,1000,255.1119522000081,1000,1000,1000,1000,0,num_3,0.5393000000040047,,23,14,2026-03-04_14h35.17.637,2026A_exp2,2022.2.4,59.69290389013531,
1,0,4.9,3.7,0,0,78,78,89,,,,,255.67675519996556,256.32743559998926,256.32743559998926,256.8284812999773,315,45,256.8284812999773,256.8284812999773,256.8284812999773,256.8284812999773,256.8284812999773,256.8284812999773,256.8284812999773,256.8284812999773,256.8284812999773,257.19502339995233,257.19502339995233,257.19502339995233,257.19502339995233,257.19502339995233,257.19502339995233,257.19502339995233,257.19502339995233,257.19502339995233,0,1,[0.0012874999665655196],[0.36713379999855533],257.19502339995233,257.3952300999663,4.9,257.3952300999663,0,4.9,1,0,1000,num_1,1.3116428999928758,,23,14,2026-03-04_14h35.17.637,2026A_exp2,2022.2.4,59.69290389013531,
1000,1,0.0,0.0,1,0,79,79,80,,,,,258.72977189999074,259.38037389999954,259.38037389999954,259.88026209996315,45,45,259.88026209996315,259.88026209996315,259.88026209996315,259.88026209996315,259.88026209996315,259.88026209996315,259.88026209996315,259.88026209996315,259.88026209996315,260.231552799989,260.231552799989,260.231552799989,260.231552799989,260.231552799989,260.231552799989,260.231552799989,260.231552799989,260.231552799989,0,1,[0.004091499955393374],[0.36522899998817593],260.231552799989,260.4461716999649,1000,260.4461716999649,1000,1000,1000,1000,1,num_2,0.5638648999738507,,23,14,2026-03-04_14h35.17.637,2026A_exp2,2022.2.4,59.69290389013531,
1000,1,6.1,0.0,1,0,80,80,71,,,,,261.0320644999738,261.6828076999518,261.6828076999518,262.18378739996115,315,45,262.18378739996115,262.18378739996115,262.18378739996115,262.18378739996115,262.18378739996115,262.18378739996115,262.18378739996115,262.18378739996115,262.18378739996115,262.5504526000004,262.5504526000004,262.5504526000004,262.5504526000004,262.5504526000004,262.5504526000004,262.5504526000004,262.5504526000004,262.5504526000004,20,1,[0.03342470002826303],[0.08342460001586005],262.5504526000004,262.75256589998025,1000,262.75256589998025,1000,1000,1000,1000,0,num_3,0.4013074000249617,,23,14,2026-03-04_14h35.17.637,2026A_exp2,2022.2.4,59.69290389013531,
1,0,0.0,0.0,0,0,81,81,87,,,,,263.18421400000807,263.83492259995546,263.83492259995546,264.33603439998114,315,315,264.33603439998114,264.33603439998114,264.33603439998114,264.33603439998114,264.33603439998114,264.33603439998114,264.33603439998114,264.33603439998114,264.33603439998114,264.70235639996827,264.70235639996827,264.70235639996827,264.70235639996827,264.70235639996827,264.70235639996827,264.70235639996827,264.70235639996827,264.70235639996827,1,2,"[0.0012401000130921602, 0.25040269998135045]","[0.23381270002573729, 0.36727210000390187]",264.70235639996827,264.90278349997243,0.0,264.90278349997243,1,0.0,0,0,1000,num_4,1.3391979000298306,,23,14,2026-03-04_14h35.17.637,2026A_exp2,2022.2.4,59.69290389013531,
1,0,0.0,6.1,1,0,82,82,17,,,,,266.27065809996566,266.92135149997193,266.92135149997193,267.40577169996686,315,315,267.40577169996686,267.40577169996686,267.40577169996686,267.40577169996686,267.40577169996686,267.40577169996686,267.40577169996686,267.40577169996686,267.40577169996686,267.77220939996187,267.77220939996187,267.77220939996187,267.77220939996187,267.77220939996187,267.77220939996187,267.77220939996187,267.77220939996187,267.77220939996187,23,0,,,267.77220939996187,267.97221499995794,6.1,267.97221499995794,1,6.1,1,1,1000,num_4,0.557820099988021,,23,14,2026-03-04_14h35.17.637,2026A_exp2,2022.2.4,59.69290389013531,
0,0,0.0,0.0,0,0,83,83,20,,,,,268.5561916999868,269.20707770000445,269.20707770000445,269.6915000999579,45,45,269.6915000999579,269.6915000999579,269.6915000999579,269.6915000999579,269.6915000999579,269.6915000999579,269.6915000999579,269.6915000999579,269.6915000999579,270.0577623999561,270.0577623999561,270.0577623999561,270.0577623999561,270.0577623999561,270.0577623999561,270.0577623999561,270.0577623999561,270.0577623999561,0,1,[0.0012342999689280987],[0.3669779999763705],270.0577623999561,270.25816139997914,0.0,270.25816139997914,1,0.0,0,0,1000,num_4,0.7847288000048138,,23,14,2026-03-04_14h35.17.637,2026A_exp2,2022.2.4,59.69290389013531,
1,0,0.0,0.0,1,0,84,84,60,,,,,271.05911390000256,271.70947319996776,271.70947319996776,272.19386379997013,45,45,272.19386379997013,272.19386379997013,272.19386379997013,272.19386379997013,272.19386379997013,272.19386379997013,272.19386379997013,272.19386379997013,272.19386379997013,272.5603589999955,272.5603589999955,272.5603589999955,272.5603589999955,272.5603589999955,272.5603589999955,272.5603589999955,272.5603589999955,272.5603589999955,7,2,"[0.0012014999520033598, 0.2671414999640547]","[0.2505738999461755, 0.2837709999876097]",272.5603589999955,272.76061699999264,0.0,272.76061699999264,0,0.0,0,1,1000,num_1,1.193443300027866,,23,14,2026-03-04_14h35.17.637,2026A_exp2,2022.2.4,59.69290389013531,
1,0,0.0,0.0,1,0,85,85,68,,,,,273.97852609999245,274.612415599986,274.612415599986,275.1137856999994,315,45,275.1137856999994,275.1137856999994,275.1137856999994,275.1137856999994,275.1137856999994,275.1137856999994,275.1137856999994,275.1137856999994,275.1137856999994,275.4798762999708,275.4798762999708,275.4798762999708,275.4798762999708,275.4798762999708,275.4798762999708,275.4798762999708,275.4798762999708,275.4798762999708,23,0,,,275.4798762999708,275.6801321999519,0.0,275.6801321999519,1,0.0,0,0,1000,num_4,0.9630255000083707,,23,14,2026-03-04_14h35.17.637,2026A_exp2,2022.2.4,59.69290389013531,
1,0,0.0,6.1,1,0,86,86,39,,,,,276.6643010999542,277.31518729997333,277.31518729997333,277.79947659996105,45,315,277.79947659996105,277.79947659996105,277.79947659996105,277.79947659996105,277.79947659996105,277.79947659996105,277.79947659996105,277.79947659996105,277.79947659996105,278.16594169999007,278.16594169999007,278.16594169999007,278.16594169999007,278.16594169999007,278.16594169999007,278.16594169999007,278.16594169999007,278.16594169999007,23,0,,,278.16594169999007,278.366237899987,6.1,278.366237899987,0,6.1,1,0,1000,num_1,1.091825500014238,,23,14,2026-03-04_14h35.17.637,2026A_exp2,2022.2.4,59.69290389013531,
1,0,0.0,0.0,1,0,87,87,24,,,,,279.48371299996506,280.1210885999608,280.1210885999608,280.61910429998534,315,315,280.61910429998534,280.61910429998534,280.61910429998534,280.61910429998534,280.61910429998534,280.61910429998534,280.61910429998534,280.61910429998534,280.61910429998534,280.9872925999807,280.9872925999807,280.9872925999807,280.9872925999807,280.9872925999807,280.9872925999807,280.9872925999807,280.9872925999807,280.9872925999807,16,4,"[0.0007510000141337514, 0.08377239998662844, 0.13396070001181215, 0.30058809998445213]","[0.05060550000052899, 0.10034950001863763, 0.16731709998566657, 0.3174940000171773]",280.9872925999807,,0.0,281.2025112999836,0,0.0,0,1,1000,num_1,0.7673824999947101,,23,14,2026-03-04_14h35.17.637,2026A_exp2,2022.2.4,59.69290389013531,
1,0,0.0,0.0,1,0,88,88,66,,,,,281.9863730999641,282.62022039998556,282.62022039998556,283.1380560999969,315,45,283.1380560999969,283.1380560999969,283.1380560999969,283.1380560999969,283.1380560999969,283.1380560999969,283.1380560999969,283.1380560999969,283.1380560999969,283.505543999956,283.505543999956,283.505543999956,283.505543999956,283.505543999956,283.505543999956,283.505543999956,283.505543999956,283.505543999956,20,2,"[0.20098860003054142, 0.36812739999732]","[0.233871900010854, 0.3681298000155948]",283.505543999956,,0.0,283.70943569997326,1,0.0,0,0,1000,num_4,0.8128314000205137,,23,14,2026-03-04_14h35.17.637,2026A_exp2,2022.2.4,59.69290389013531,
1000,1,4.9,3.7,1,0,89,89,46,,,,,284.5410292999586,285.1898983999854,285.1898983999854,285.69184359995415,315,315,285.69184359995415,285.69184359995415,285.69184359995415,285.69184359995415,285.69184359995415,285.69184359995415,285.69184359995415,285.69184359995415,285.69184359995415,286.0573608999839,286.0573608999839,286.0573608999839,286.0573608999839,286.0573608999839,286.0573608999839,286.0573608999839,286.0573608999839,286.0573608999839,1,2,"[0.0008938999962992966, 0.350108899991028]","[0.33339869999326766, 0.3666500999825075]",286.0573608999839,286.2576263999799,1000,286.2576263999799,1000,1000,1000,1000,1,num_2,1.6088693999918178,,23,14,2026-03-04_14h35.17.637,2026A_exp2,2022.2.4,59.69290389013531,
,,,,,,,,,,,,,,,,,,,,,,,,,,,,,,,,,,,,,,,,,,,,,,,,,,,,287.8957334999577,,,,,,,
