validity,detectorcomp,contrastCW,contrastCCW,precueCWorCCW,block_80trials.thisRepN,block_80trials.thisTrialN,block_80trials.thisN,block_80trials.thisIndex,etRecord.started,etRecord.stopped,text.started,text.stopped,text_4.started,text_4.stopped,text_6.started,text_6.stopped,oriCW,oriCCW,roi_2.started,grating_UR.started,grating_UL.started,grating_LR.started,grating_LL.started,noise_UR.started,noise_UL.started,noise_LR.started,noise_LL.started,roi_2.stopped,grating_UR.stopped,grating_UL.stopped,grating_LR.stopped,grating_LL.stopped,noise_UR.stopped,noise_UL.stopped,noise_LR.stopped,noise_LL.stopped,outframe,roi_2.numLooks,roi_2.timesOn,roi_2.timesOff,text_2.started,text_2.stopped,probedcontrast,key_resp.started,respdetect,relevantContrast,correctDetect,TorFdetect,respCWorCCW,key_resp.keys,key_resp.rt,feedback_display_.started,participantNo,blockNo,date,expName,psychopyVersion,frameRate,
1,0,0.0,3.7,0,0,0,0,12,3.479979932308197e-05,3.479979932308197e-05,70.75605790014379,72.75879800016992,72.75879800016992,73.39281530003063,73.39281530003063,73.9131161000114,315,315,73.9131161000114,73.9131161000114,73.9131161000114,73.9131161000114,73.9131161000114,73.9131161000114,73.9131161000114,73.9131161000114,73.9131161000114,74.26034510019235,74.26034510019235,74.26034510019235,74.26034510019235,74.26034510019235,74.26034510019235,74.26034510019235,74.26034510019235,74.26034510019235,23,0,,,74.26034510019235,74.46047080005519,0.0,74.46047080005519,0,0.0,0,1,1000,num_1,1.394263599999249,,37,3,2026-03-13_17h31.34.365,2026A_exp2,2022.2.4,59.87758627850455,
1000,1,0.0,3.7,0,0,1,1,44,,,,,75.8787423002068,76.52925000013784,76.52925000013784,77.01367740007117,45,45,77.01367740007117,77.01367740007117,77.01367740007117,77.01367740007117,77.01367740007117,77.01367740007117,77.01367740007117,77.01367740007117,77.01367740007117,77.38013900001533,77.38013900001533,77.38013900001533,77.38013900001533,77.38013900001533,77.38013900001533,77.38013900001533,77.38013900001533,77.38013900001533,1,2,"[0.0011899000965058804, 0.11670599994249642]","[0.10007359995506704, 0.36690889997407794]",77.38013900001533,77.58514140010811,1000,77.58514140010811,1000,1000,1000,1000,1,num_2,0.9493353997822851,,37,3,2026-03-13_17h31.34.365,2026A_exp2,2022.2.4,59.87758627850455,
1000,1,0.0,0.0,0,0,2,2,69,,,,,78.56471440009773,79.22648780001327,79.22648780001327,79.71652040001936,315,315,79.71652040001936,79.71652040001936,79.71652040001936,79.71652040001936,79.71652040001936,79.71652040001936,79.71652040001936,79.71652040001936,79.71652040001936,80.06624489999376,80.06624489999376,80.06624489999376,80.06624489999376,80.06624489999376,80.06624489999376,80.06624489999376,80.06624489999376,80.06624489999376,4,4,"[0.001478699967265129, 0.11684249993413687, 0.23368749977089465, 0.31689799996092916]","[0.08367249998264015, 0.21688549988903105, 0.3002445998135954, 0.35043729981407523]",80.06624489999376,80.26808670000173,1000,80.28319140011445,1000,1000,1000,1000,1,num_2,0.8425191000569612,,37,3,2026-03-13_17h31.34.365,2026A_exp2,2022.2.4,59.87758627850455,
1000,1,0.0,0.0,1,0,3,3,14,,,,,81.15061100013554,81.80118020018563,81.80118020018563,82.30231150006875,315,315,82.30231150006875,82.30231150006875,82.30231150006875,82.30231150006875,82.30231150006875,82.30231150006875,82.30231150006875,82.30231150006875,82.30231150006875,82.66879480006173,82.66879480006173,82.66879480006173,82.66879480006173,82.66879480006173,82.66879480006173,82.66879480006173,82.66879480006173,82.66879480006173,3,4,"[0.001216100063174963, 0.15033450000919402, 0.21700379997491837, 0.28368570003658533]","[0.13353440002538264, 0.20032819989137352, 0.266855200054124, 0.3672261000610888]",82.66879480006173,82.87066940008663,1000,82.87066940008663,1000,1000,1000,1000,1,num_2,1.1280451999045908,,37,3,2026-03-13_17h31.34.365,2026A_exp2,2022.2.4,59.87758627850455,
1000,1,0.0,6.1,1,0,4,4,88,,,,,84.02020830009133,84.67072740010917,84.67072740010917,85.17196720000356,45,315,85.17196720000356,85.17196720000356,85.17196720000356,85.17196720000356,85.17196720000356,85.17196720000356,85.17196720000356,85.17196720000356,85.17196720000356,85.5382958999835,85.5382958999835,85.5382958999835,85.5382958999835,85.5382958999835,85.5382958999835,85.5382958999835,85.5382958999835,85.5382958999835,2,3,"[0.0012117999140173197, 0.18339839996770024, 0.2836100999265909]","[0.1668044999241829, 0.2665862999856472, 0.36701829987578094]",85.5382958999835,85.74046230013482,1000,85.74046230013482,1000,1000,1000,1000,1,num_2,0.5211122001055628,,37,3,2026-03-13_17h31.34.365,2026A_exp2,2022.2.4,59.87758627850455,
1,0,0.0,4.9,1,0,5,5,45,,,,,86.28910090005957,86.93962210020982,86.93962210020982,87.44100089999847,45,315,87.44100089999847,87.44100089999847,87.44100089999847,87.44100089999847,87.44100089999847,87.44100089999847,87.44100089999847,87.44100089999847,87.44100089999847,87.79050430003554,87.79050430003554,87.79050430003554,87.79050430003554,87.79050430003554,87.79050430003554,87.79050430003554,87.79050430003554,87.79050430003554,3,3,"[0.0012739000376313925, 0.2005320000462234, 0.2672379999421537]","[0.18362449994310737, 0.23364969994872808, 0.3507898999378085]",87.79050430003554,87.99075190001167,4.9,87.99075190001167,1,4.9,1,1,1000,num_4,2.7510116000194103,,37,3,2026-03-13_17h31.34.365,2026A_exp2,2022.2.4,59.87758627850455,
1000,1,3.7,0.0,1,0,6,6,55,,,,,90.76009350013919,91.41080140019767,91.41080140019767,91.89522820012644,315,45,91.89522820012644,91.89522820012644,91.89522820012644,91.89522820012644,91.89522820012644,91.89522820012644,91.89522820012644,91.89522820012644,91.89522820012644,92.26166509999894,92.26166509999894,92.26166509999894,92.26166509999894,92.26166509999894,92.26166509999894,92.26166509999894,92.26166509999894,92.26166509999894,0,1,[0.001205200096592307],[0.3674014999996871],92.26166509999894,92.46371909999289,1000,92.46371909999289,1000,1000,1000,1000,0,num_3,1.1271287000272423,,37,3,2026-03-13_17h31.34.365,2026A_exp2,2022.2.4,59.87758627850455,
1,0,0.0,4.9,0,0,7,7,71,,,,,93.61294800019823,94.26370670017786,94.26370670017786,94.7647738000378,315,315,94.7647738000378,94.7647738000378,94.7647738000378,94.7647738000378,94.7647738000378,94.7647738000378,94.7647738000378,94.7647738000378,94.7647738000378,95.1144701000303,95.1144701000303,95.1144701000303,95.1144701000303,95.1144701000303,95.1144701000303,95.1144701000303,95.1144701000303,95.1144701000303,0,1,[0.0012448998168110847],[0.35061579989269376],95.1144701000303,95.31495860009454,0.0,95.31495860009454,0,0.0,0,1,1000,num_1,1.971448800060898,,37,3,2026-03-13_17h31.34.365,2026A_exp2,2022.2.4,59.87758627850455,
0,0,0.0,4.9,0,0,8,8,54,,,,,97.31667820014991,97.95066540013067,97.95066540013067,98.45176010020077,315,45,98.45176010020077,98.45176010020077,98.45176010020077,98.45176010020077,98.45176010020077,98.45176010020077,98.45176010020077,98.45176010020077,98.45176010020077,98.81831950019114,98.81831950019114,98.81831950019114,98.81831950019114,98.81831950019114,98.81831950019114,98.81831950019114,98.81831950019114,98.81831950019114,23,0,,,98.81831950019114,99.01839850004762,4.9,99.01839850004762,1,4.9,1,1,1000,num_4,1.6671292998362333,,37,3,2026-03-13_17h31.34.365,2026A_exp2,2022.2.4,59.87758627850455,
1000,1,4.9,0.0,1,0,9,9,25,,,,,100.70333759998903,101.35412460006773,101.35412460006773,101.83858680003323,45,45,101.83858680003323,101.83858680003323,101.83858680003323,101.83858680003323,101.83858680003323,101.83858680003323,101.83858680003323,101.83858680003323,101.83858680003323,102.20492890011519,102.20492890011519,102.20492890011519,102.20492890011519,102.20492890011519,102.20492890011519,102.20492890011519,102.20492890011519,102.20492890011519,17,3,"[0.001235799863934517, 0.25030789989978075, 0.30042699980549514]","[0.033401899971067905, 0.26699629984796047, 0.33376379986293614]",102.20492890011519,102.40734810009599,1000,102.40734810009599,1000,1000,1000,1000,0,num_3,0.8786042998544872,,37,3,2026-03-13_17h31.34.365,2026A_exp2,2022.2.4,59.87758627850455,
1,0,0.0,4.9,0,0,10,10,17,,,,,103.30593190016225,103.95667490013875,103.95667490013875,104.457788300002,315,45,104.457788300002,104.457788300002,104.457788300002,104.457788300002,104.457788300002,104.457788300002,104.457788300002,104.457788300002,104.457788300002,104.80759890004992,104.80759890004992,104.80759890004992,104.80759890004992,104.80759890004992,104.80759890004992,104.80759890004992,104.80759890004992,104.80759890004992,0,1,[0.0012072001118212938],[0.3506122000981122],104.80759890004992,105.0077246001456,0.0,105.0077246001456,0,0.0,0,1,1000,num_1,1.309843400027603,,37,3,2026-03-13_17h31.34.365,2026A_exp2,2022.2.4,59.87758627850455,
1000,1,0.0,0.0,0,0,11,11,75,,,,,106.34241160005331,106.99322040006518,106.99322040006518,107.4775423000101,315,45,107.4775423000101,107.4775423000101,107.4775423000101,107.4775423000101,107.4775423000101,107.4775423000101,107.4775423000101,107.4775423000101,107.4775423000101,107.84396830014884,107.84396830014884,107.84396830014884,107.84396830014884,107.84396830014884,107.84396830014884,107.84396830014884,107.84396830014884,107.84396830014884,0,1,[0.0012449000496417284],[0.3667112998664379],107.84396830014884,108.04610970010981,1000,108.04610970010981,1000,1000,1000,1000,1,num_2,1.744177000131458,,37,3,2026-03-13_17h31.34.365,2026A_exp2,2022.2.4,59.87758627850455,
1,0,0.0,0.0,1,0,12,12,73,,,,,109.81273150001653,110.46319080004469,110.46319080004469,110.94771760003641,45,315,110.94771760003641,110.94771760003641,110.94771760003641,110.94771760003641,110.94771760003641,110.94771760003641,110.94771760003641,110.94771760003641,110.94771760003641,111.31409840006381,111.31409840006381,111.31409840006381,111.31409840006381,111.31409840006381,111.31409840006381,111.31409840006381,111.31409840006381,111.31409840006381,0,1,[0.0012097000144422054],[0.3673857001122087],111.31409840006381,111.51444210018963,0.0,111.51444210018963,1,0.0,0,0,1000,num_4,1.9244436000008136,,37,3,2026-03-13_17h31.34.365,2026A_exp2,2022.2.4,59.87758627850455,
1,0,0.0,0.0,0,0,13,13,38,,,,,113.4661998001393,114.11689230008051,114.11689230008051,114.60142319998704,315,45,114.60142319998704,114.60142319998704,114.60142319998704,114.60142319998704,114.60142319998704,114.60142319998704,114.60142319998704,114.60142319998704,114.60142319998704,114.96775469998829,114.96775469998829,114.96775469998829,114.96775469998829,114.96775469998829,114.96775469998829,114.96775469998829,114.96775469998829,114.96775469998829,0,1,[0.0012024999596178532],[0.3669928000308573],114.96775469998829,115.16799190011807,0.0,115.16799190011807,1,0.0,0,0,1000,num_4,0.9981274001765996,,37,3,2026-03-13_17h31.34.365,2026A_exp2,2022.2.4,59.87758627850455,
1000,1,3.7,3.7,1,0,14,14,40,,,,,116.18548620003276,116.83628750010394,116.83628750010394,117.32079380005598,45,315,117.32079380005598,117.32079380005598,117.32079380005598,117.32079380005598,117.32079380005598,117.32079380005598,117.32079380005598,117.32079380005598,117.32079380005598,117.68714530020952,117.68714530020952,117.68714530020952,117.68714530020952,117.68714530020952,117.68714530020952,117.68714530020952,117.68714530020952,117.68714530020952,23,0,,,117.68714530020952,117.88944760011509,1000,117.88944760011509,1000,1000,1000,1000,1,num_2,0.8366146001499146,,37,3,2026-03-13_17h31.34.365,2026A_exp2,2022.2.4,59.87758627850455,
1000,1,4.9,0.0,1,0,15,15,72,,,,,118.75472720013931,119.40555670019239,119.40555670019239,119.90672389999963,315,315,119.90672389999963,119.90672389999963,119.90672389999963,119.90672389999963,119.90672389999963,119.90672389999963,119.90672389999963,119.90672389999963,119.90672389999963,120.25632170005701,120.25632170005701,120.25632170005701,120.25632170005701,120.25632170005701,120.25632170005701,120.25632170005701,120.25632170005701,120.25632170005701,0,1,[0.0012060999870300293],[0.3504544000606984],120.25632170005701,120.45842250017449,1000,120.45842250017449,1000,1000,1000,1000,0,num_3,0.5398858999833465,,37,3,2026-03-13_17h31.34.365,2026A_exp2,2022.2.4,59.87758627850455,
1,0,4.9,6.1,1,0,16,16,86,,,,,121.02369380020536,121.6740729000885,121.6740729000885,122.1590611001011,45,45,122.1590611001011,122.1590611001011,122.1590611001011,122.1590611001011,122.1590611001011,122.1590611001011,122.1590611001011,122.1590611001011,122.1590611001011,122.52500160015188,122.52500160015188,122.52500160015188,122.52500160015188,122.52500160015188,122.52500160015188,122.52500160015188,122.52500160015188,122.52500160015188,0,1,[0.0010393999982625246],[0.36670780018903315],122.52500160015188,122.72510300017893,6.1,122.72510300017893,1,6.1,1,1,1000,num_4,0.8249402998480946,,37,3,2026-03-13_17h31.34.365,2026A_exp2,2022.2.4,59.87758627850455,
1,0,0.0,6.1,0,0,17,17,5,,,,,123.57599060004577,124.21130880014971,124.21130880014971,124.71129640005529,45,315,124.71129640005529,124.71129640005529,124.71129640005529,124.71129640005529,124.71129640005529,124.71129640005529,124.71129640005529,124.71129640005529,124.71129640005529,125.07894850010052,125.07894850010052,125.07894850010052,125.07894850010052,125.07894850010052,125.07894850010052,125.07894850010052,125.07894850010052,125.07894850010052,1,2,"[0.0008160998113453388, 0.08381029986776412]","[0.06737990002147853, 0.3689680998213589]",125.07894850010052,,0.0,125.29539089999162,0,0.0,0,1,1000,num_1,2.2708025998435915,,37,3,2026-03-13_17h31.34.365,2026A_exp2,2022.2.4,59.87758627850455,
1,0,4.9,0.0,1,0,18,18,6,,,,,127.59692460019141,128.24771020002663,128.24771020002663,128.73215410020202,315,45,128.73215410020202,128.73215410020202,128.73215410020202,128.73215410020202,128.73215410020202,128.73215410020202,128.73215410020202,128.73215410020202,128.73215410020202,129.0985864000395,129.0985864000395,129.0985864000395,129.0985864000395,129.0985864000395,129.0985864000395,129.0985864000395,129.0985864000395,129.0985864000395,23,0,,,129.0985864000395,129.29868680005893,0.0,129.29868680005893,0,0.0,0,1,1000,num_1,2.7717034998349845,,37,3,2026-03-13_17h31.34.365,2026A_exp2,2022.2.4,59.87758627850455,
1000,1,0.0,0.0,1,0,19,19,23,,,,,132.10145920002833,132.75217110011727,132.75217110011727,133.2366720000282,315,315,133.2366720000282,133.2366720000282,133.2366720000282,133.2366720000282,133.2366720000282,133.2366720000282,133.2366720000282,133.2366720000282,133.2366720000282,133.6029079,133.6029079,133.6029079,133.6029079,133.6029079,133.6029079,133.6029079,133.6029079,133.6029079,23,0,,,133.6029079,133.80529700010084,1000,133.80529700010084,1000,1000,1000,1000,0,num_3,1.5525853000581264,,37,3,2026-03-13_17h31.34.365,2026A_exp2,2022.2.4,59.87758627850455,
1,0,0.0,0.0,1,0,20,20,18,,,,,135.3881185001228,136.03883940004744,136.03883940004744,136.53982150019147,315,315,136.53982150019147,136.53982150019147,136.53982150019147,136.53982150019147,136.53982150019147,136.53982150019147,136.53982150019147,136.53982150019147,136.53982150019147,136.90650530019775,136.90650530019775,136.90650530019775,136.90650530019775,136.90650530019775,136.90650530019775,136.90650530019775,136.90650530019775,136.90650530019775,0,1,[0.0012153000570833683],[0.36721280007623136],136.90650530019775,137.10650920006447,0.0,137.10650920006447,0,0.0,0,1,1000,num_1,1.755737999919802,,37,3,2026-03-13_17h31.34.365,2026A_exp2,2022.2.4,59.87758627850455,
1,0,0.0,3.7,0,0,21,21,78,,,,,138.8917018000502,139.54228639998473,139.54228639998473,140.02655740012415,315,45,140.02655740012415,140.02655740012415,140.02655740012415,140.02655740012415,140.02655740012415,140.02655740012415,140.02655740012415,140.02655740012415,140.02655740012415,140.39318570005707,140.39318570005707,140.39318570005707,140.39318570005707,140.39318570005707,140.39318570005707,140.39318570005707,140.39318570005707,140.39318570005707,23,0,,,140.39318570005707,140.59335950016975,0.0,140.59335950016975,0,0.0,0,1,1000,num_1,1.965012799948454,,37,3,2026-03-13_17h31.34.365,2026A_exp2,2022.2.4,59.87758627850455,
1000,1,0.0,0.0,1,0,22,22,7,,,,,142.57850110018626,143.22918570018373,143.22918570018373,143.7136655000504,45,315,143.7136655000504,143.7136655000504,143.7136655000504,143.7136655000504,143.7136655000504,143.7136655000504,143.7136655000504,143.7136655000504,143.7136655000504,144.0801312001422,144.0801312001422,144.0801312001422,144.0801312001422,144.0801312001422,144.0801312001422,144.0801312001422,144.0801312001422,144.0801312001422,23,0,,,144.0801312001422,144.28213130007498,1000,144.28213130007498,1000,1000,1000,1000,0,num_3,2.363896399969235,,37,3,2026-03-13_17h31.34.365,2026A_exp2,2022.2.4,59.87758627850455,
1,0,3.7,4.9,1,0,23,23,39,,,,,146.666110600112,147.3167036001105,147.3167036001105,147.8179369000718,45,315,147.8179369000718,147.8179369000718,147.8179369000718,147.8179369000718,147.8179369000718,147.8179369000718,147.8179369000718,147.8179369000718,147.8179369000718,148.18420260003768,148.18420260003768,148.18420260003768,148.18420260003768,148.18420260003768,148.18420260003768,148.18420260003768,148.18420260003768,148.18420260003768,23,0,,,148.18420260003768,148.3845771001652,4.9,148.3845771001652,1,4.9,1,1,1000,num_4,0.9336852000560611,,37,3,2026-03-13_17h31.34.365,2026A_exp2,2022.2.4,59.87758627850455,
1000,1,0.0,0.0,0,0,24,24,65,,,,,149.33532220008783,149.98611900000833,149.98611900000833,150.47049660002813,45,315,150.47049660002813,150.47049660002813,150.47049660002813,150.47049660002813,150.47049660002813,150.47049660002813,150.47049660002813,150.47049660002813,150.47049660002813,150.83697620010935,150.83697620010935,150.83697620010935,150.83697620010935,150.83697620010935,150.83697620010935,150.83697620010935,150.83697620010935,150.83697620010935,22,1,[0.3337144998367876],[0.35045189992524683],150.83697620010935,151.0388929999899,1000,151.0388929999899,1000,1000,1000,1000,0,num_3,0.9509334999602288,,37,3,2026-03-13_17h31.34.365,2026A_exp2,2022.2.4,59.87758627850455,
1000,1,0.0,3.7,1,0,25,25,80,,,,,152.021376500139,152.65547270001844,152.65547270001844,153.15640620002523,45,315,153.15640620002523,153.15640620002523,153.15640620002523,153.15640620002523,153.15640620002523,153.15640620002523,153.15640620002523,153.15640620002523,153.15640620002523,153.52289600018412,153.52289600018412,153.52289600018412,153.52289600018412,153.52289600018412,153.52289600018412,153.52289600018412,153.52289600018412,153.52289600018412,0,1,[0.0011984000448137522],[0.3670709999278188],153.52289600018412,153.72522760019638,1000,153.72522760019638,1000,1000,1000,1000,1,num_2,0.8492733999155462,,37,3,2026-03-13_17h31.34.365,2026A_exp2,2022.2.4,59.87758627850455,
1000,1,4.9,3.7,1,0,26,26,32,,,,,154.5906885000877,155.24136850005016,155.24136850005016,155.7424481001217,315,45,155.7424481001217,155.7424481001217,155.7424481001217,155.7424481001217,155.7424481001217,155.7424481001217,155.7424481001217,155.7424481001217,155.7424481001217,156.0923127999995,156.0923127999995,156.0923127999995,156.0923127999995,156.0923127999995,156.0923127999995,156.0923127999995,156.0923127999995,156.0923127999995,20,1,[0.0329390000551939],[0.06674490007571876],156.0923127999995,156.29395320010372,1000,156.3087927000597,1000,1000,1000,1000,1,num_2,1.2740502001252025,,37,3,2026-03-13_17h31.34.365,2026A_exp2,2022.2.4,59.87758627850455,
1000,1,4.9,0.0,0,0,27,27,22,,,,,157.6102332000155,158.26104880007915,158.26104880007915,158.76202880009077,315,45,158.76202880009077,158.76202880009077,158.76202880009077,158.76202880009077,158.76202880009077,158.76202880009077,158.76202880009077,158.76202880009077,158.76202880009077,159.12858970020898,159.12858970020898,159.12858970020898,159.12858970020898,159.12858970020898,159.12858970020898,159.12858970020898,159.12858970020898,159.12858970020898,13,3,"[0.1502127000130713, 0.216853299876675, 0.26685399981215596]","[0.16681939992122352, 0.2504055998288095, 0.3671484999358654]",159.12858970020898,159.33023430011235,1000,159.33023430011235,1000,1000,1000,1000,0,num_3,0.7715657001826912,,37,3,2026-03-13_17h31.34.365,2026A_exp2,2022.2.4,59.87758627850455,
1000,1,0.0,4.9,1,0,28,28,27,,,,,160.12945100013167,160.7910097001586,160.7910097001586,161.28125750017352,315,315,161.28125750017352,161.28125750017352,161.28125750017352,161.28125750017352,161.28125750017352,161.28125750017352,161.28125750017352,161.28125750017352,161.28125750017352,161.6477587001864,161.6477587001864,161.6477587001864,161.6477587001864,161.6477587001864,161.6477587001864,161.6477587001864,161.6477587001864,161.6477587001864,0,1,[0.0012480998411774635],[0.3672148999758065],161.6477587001864,161.84986379998736,1000,161.84986379998736,1000,1000,1000,1000,1,num_2,1.2196502001024783,,37,3,2026-03-13_17h31.34.365,2026A_exp2,2022.2.4,59.87758627850455,
1000,1,6.1,3.7,1,0,29,29,0,,,,,163.09918910008855,163.7498083000537,163.7498083000537,164.25085650011897,45,45,164.25085650011897,164.25085650011897,164.25085650011897,164.25085650011897,164.25085650011897,164.25085650011897,164.25085650011897,164.25085650011897,164.25085650011897,164.6174258000683,164.6174258000683,164.6174258000683,164.6174258000683,164.6174258000683,164.6174258000683,164.6174258000683,164.6174258000683,164.6174258000683,0,1,[0.0012359998654574156],[0.367169399978593],164.6174258000683,164.81774460012093,1000,164.81774460012093,1000,1000,1000,1000,0,num_3,0.5964204999618232,,37,3,2026-03-13_17h31.34.365,2026A_exp2,2022.2.4,59.87758627850455,
1000,1,6.1,0.0,1,0,30,30,60,,,,,165.4347252000589,166.0856167001184,166.0856167001184,166.58666310016997,315,45,166.58666310016997,166.58666310016997,166.58666310016997,166.58666310016997,166.58666310016997,166.58666310016997,166.58666310016997,166.58666310016997,166.58666310016997,166.9530767002143,166.9530767002143,166.9530767002143,166.9530767002143,166.9530767002143,166.9530767002143,166.9530767002143,166.9530767002143,166.9530767002143,0,1,[0.0012331998441368341],[0.3673282000236213],166.9530767002143,167.15525460010394,1000,167.15525460010394,1000,1000,1000,1000,0,num_3,0.9388037999160588,,37,3,2026-03-13_17h31.34.365,2026A_exp2,2022.2.4,59.87758627850455,
1,0,6.1,0.0,0,0,31,31,50,,,,,168.12102220021188,168.77161230007187,168.77161230007187,169.27261250000447,315,315,169.27261250000447,169.27261250000447,169.27261250000447,169.27261250000447,169.27261250000447,169.27261250000447,169.27261250000447,169.27261250000447,169.27261250000447,169.63903760001995,169.63903760001995,169.63903760001995,169.63903760001995,169.63903760001995,169.63903760001995,169.63903760001995,169.63903760001995,169.63903760001995,23,0,,,169.63903760001995,169.83946510008536,6.1,169.83946510008536,1,6.1,1,1,1000,num_4,1.022503700107336,,37,3,2026-03-13_17h31.34.365,2026A_exp2,2022.2.4,59.87758627850455,
1000,1,0.0,0.0,1,0,32,32,47,,,,,170.89032640005462,171.5410439001862,171.5410439001862,172.02544220001437,45,315,172.02544220001437,172.02544220001437,172.02544220001437,172.02544220001437,172.02544220001437,172.02544220001437,172.02544220001437,172.02544220001437,172.02544220001437,172.39174320013262,172.39174320013262,172.39174320013262,172.39174320013262,172.39174320013262,172.39174320013262,172.39174320013262,172.39174320013262,172.39174320013262,0,1,[0.0011947001330554485],[0.36719779996201396],172.39174320013262,172.5935265000444,1000,172.5935265000444,1000,1000,1000,1000,0,num_3,0.9411086000036448,,37,3,2026-03-13_17h31.34.365,2026A_exp2,2022.2.4,59.87758627850455,
0,0,0.0,0.0,1,0,33,33,8,,,,,173.55961900018156,174.21037370013073,174.21037370013073,174.71132800006308,45,45,174.71132800006308,174.71132800006308,174.71132800006308,174.71132800006308,174.71132800006308,174.71132800006308,174.71132800006308,174.71132800006308,174.71132800006308,175.06120850006118,175.06120850006118,175.06120850006118,175.06120850006118,175.06120850006118,175.06120850006118,175.06120850006118,175.06120850006118,175.06120850006118,21,1,[0.05009500007145107],[0.06666689994744956],175.06120850006118,175.26955240010284,0.0,175.26955240010284,1,0.0,0,0,1000,num_4,1.552551900036633,,37,3,2026-03-13_17h31.34.365,2026A_exp2,2022.2.4,59.87758627850455,
1,0,0.0,0.0,0,0,34,34,64,,,,,176.84609710006043,177.49696790007874,177.49696790007874,177.98132200003602,315,315,177.98132200003602,177.98132200003602,177.98132200003602,177.98132200003602,177.98132200003602,177.98132200003602,177.98132200003602,177.98132200003602,177.98132200003602,178.34771870006807,178.34771870006807,178.34771870006807,178.34771870006807,178.34771870006807,178.34771870006807,178.34771870006807,178.34771870006807,178.34771870006807,23,0,,,178.34771870006807,178.54806920001283,0.0,178.54806920001283,0,0.0,0,1,1000,num_1,1.0985938999801874,,37,3,2026-03-13_17h31.34.365,2026A_exp2,2022.2.4,59.87758627850455,
1000,1,0.0,4.9,0,0,35,35,77,,,,,179.66568310000002,180.3164692001883,180.3164692001883,180.80074080009945,315,45,180.80074080009945,180.80074080009945,180.80074080009945,180.80074080009945,180.80074080009945,180.80074080009945,180.80074080009945,180.80074080009945,180.80074080009945,181.16742380009964,181.16742380009964,181.16742380009964,181.16742380009964,181.16742380009964,181.16742380009964,181.16742380009964,181.16742380009964,181.16742380009964,23,0,,,181.16742380009964,181.36931480001658,1000,181.36931480001658,1000,1000,1000,1000,1,num_2,1.061224800068885,,37,3,2026-03-13_17h31.34.365,2026A_exp2,2022.2.4,59.87758627850455,
1000,1,3.7,0.0,1,0,36,36,79,,,,,182.4519499000162,183.10258060018532,183.10258060018532,183.5869917999953,45,315,183.5869917999953,183.5869917999953,183.5869917999953,183.5869917999953,183.5869917999953,183.5869917999953,183.5869917999953,183.5869917999953,183.5869917999953,183.9532451000996,183.9532451000996,183.9532451000996,183.9532451000996,183.9532451000996,183.9532451000996,183.9532451000996,183.9532451000996,183.9532451000996,23,0,,,183.9532451000996,184.15528489998542,1000,184.15528489998542,1000,1000,1000,1000,0,num_3,0.6904835999011993,,37,3,2026-03-13_17h31.34.365,2026A_exp2,2022.2.4,59.87758627850455,
0,0,0.0,6.1,1,0,37,37,76,,,,,184.87105170008726,185.50491880020127,185.50491880020127,186.00611560000107,45,45,186.00611560000107,186.00611560000107,186.00611560000107,186.00611560000107,186.00611560000107,186.00611560000107,186.00611560000107,186.00611560000107,186.00611560000107,186.37250290019438,186.37250290019438,186.37250290019438,186.37250290019438,186.37250290019438,186.37250290019438,186.37250290019438,186.37250290019438,186.37250290019438,14,3,"[0.0012533001136034727, 0.2502719000913203, 0.28374210000038147]","[0.017377400072291493, 0.2670639001298696, 0.3669638999272138]",186.37250290019438,186.57277450012043,0.0,186.57277450012043,0,0.0,0,1,1000,num_1,1.2966924000065774,,37,3,2026-03-13_17h31.34.365,2026A_exp2,2022.2.4,59.87758627850455,
1000,1,4.9,3.7,1,0,38,38,67,,,,,187.8906222002115,188.54129409999587,188.54129409999587,189.04234640020877,315,45,189.04234640020877,189.04234640020877,189.04234640020877,189.04234640020877,189.04234640020877,189.04234640020877,189.04234640020877,189.04234640020877,189.04234640020877,189.40900050010532,189.40900050010532,189.40900050010532,189.40900050010532,189.40900050010532,189.40900050010532,189.40900050010532,189.40900050010532,189.40900050010532,19,2,"[0.06683110003359616, 0.11676190001890063]","[0.10014540003612638, 0.15039719990454614]",189.40900050010532,189.6108764000237,1000,189.6108764000237,1000,1000,1000,1000,0,num_3,0.9633587000425905,,37,3,2026-03-13_17h31.34.365,2026A_exp2,2022.2.4,59.87758627850455,
0,0,3.7,4.9,1,0,39,39,3,,,,,190.59331220015883,191.24413300002925,191.24413300002925,191.72851170017384,45,315,191.72851170017384,191.72851170017384,191.72851170017384,191.72851170017384,191.72851170017384,191.72851170017384,191.72851170017384,191.72851170017384,191.72851170017384,192.0949236000888,192.0949236000888,192.0949236000888,192.0949236000888,192.0949236000888,192.0949236000888,192.0949236000888,192.0949236000888,192.0949236000888,5,4,"[0.017351799877360463, 0.16686069988645613, 0.2168894000351429, 0.3170950000640005]","[0.13324979995377362, 0.18362879985943437, 0.30035669985227287, 0.367113099899143]",192.0949236000888,192.2949824000243,3.7,192.2949824000243,0,3.7,1,0,1000,num_1,1.1354812998324633,,37,3,2026-03-13_17h31.34.365,2026A_exp2,2022.2.4,59.87758627850455,
1000,1,6.1,4.9,1,0,40,40,53,,,,,193.4461296000518,194.09694750001654,194.09694750001654,194.5980506001506,45,315,194.5980506001506,194.5980506001506,194.5980506001506,194.5980506001506,194.5980506001506,194.5980506001506,194.5980506001506,194.5980506001506,194.5980506001506,194.94791510002688,194.94791510002688,194.94791510002688,194.94791510002688,194.94791510002688,194.94791510002688,194.94791510002688,194.94791510002688,194.94791510002688,22,0,,,194.94791510002688,195.14976000017487,1000,195.14976000017487,1000,1000,1000,1000,0,num_3,0.5916314998175949,,37,3,2026-03-13_17h31.34.365,2026A_exp2,2022.2.4,59.87758627850455,
0,0,0.0,3.7,1,0,41,41,21,,,,,195.76513350009918,196.41569320019335,196.41569320019335,196.9168881000951,45,45,196.9168881000951,196.9168881000951,196.9168881000951,196.9168881000951,196.9168881000951,196.9168881000951,196.9168881000951,196.9168881000951,196.9168881000951,197.26673620007932,197.26673620007932,197.26673620007932,197.26673620007932,197.26673620007932,197.26673620007932,197.26673620007932,197.26673620007932,197.26673620007932,1,2,"[0.0010798999574035406, 0.31724270014092326]","[0.3005325000267476, 0.3506203999277204]",197.26673620007932,197.46681700018235,0.0,197.46681700018235,0,0.0,0,1,1000,num_1,1.67555859987624,,37,3,2026-03-13_17h31.34.365,2026A_exp2,2022.2.4,59.87758627850455,
1000,1,0.0,4.9,0,0,42,42,11,,,,,199.16859140014276,199.81929720006883,199.81929720006883,200.30372160021216,315,45,200.30372160021216,200.30372160021216,200.30372160021216,200.30372160021216,200.30372160021216,200.30372160021216,200.30372160021216,200.30372160021216,200.30372160021216,200.6701274001971,200.6701274001971,200.6701274001971,200.6701274001971,200.6701274001971,200.6701274001971,200.6701274001971,200.6701274001971,200.6701274001971,23,0,,,200.6701274001971,200.87201620009728,1000,200.87201620009728,1000,1000,1000,1000,1,num_2,0.8854592000134289,,37,3,2026-03-13_17h31.34.365,2026A_exp2,2022.2.4,59.87758627850455,
1,0,0.0,3.7,1,0,43,43,57,,,,,201.78776920004748,202.43848220002837,202.43848220002837,202.9395512000192,315,315,202.9395512000192,202.9395512000192,202.9395512000192,202.9395512000192,202.9395512000192,202.9395512000192,202.9395512000192,202.9395512000192,202.9395512000192,203.2893699000124,203.2893699000124,203.2893699000124,203.2893699000124,203.2893699000124,203.2893699000124,203.2893699000124,203.2893699000124,203.2893699000124,22,0,,,203.2893699000124,203.48958950000815,3.7,203.5063225000631,1,3.7,1,1,1000,num_4,0.899682299932465,,37,3,2026-03-13_17h31.34.365,2026A_exp2,2022.2.4,59.87758627850455,
1000,1,4.9,6.1,1,0,44,44,1,,,,,204.42387250019237,205.07465040008537,205.07465040008537,205.55886340001598,315,45,205.55886340001598,205.55886340001598,205.55886340001598,205.55886340001598,205.55886340001598,205.55886340001598,205.55886340001598,205.55886340001598,205.55886340001598,205.9254964001011,205.9254964001011,205.9254964001011,205.9254964001011,205.9254964001011,205.9254964001011,205.9254964001011,205.9254964001011,205.9254964001011,9,3,"[0.0012107000220566988, 0.05017279996536672, 0.13367650005966425]","[0.017236300045624375, 0.11691519990563393, 0.2837632999289781]",205.9254964001011,206.12728680018336,1000,206.12728680018336,1000,1000,1000,1000,1,num_2,0.6874133998062462,,37,3,2026-03-13_17h31.34.365,2026A_exp2,2022.2.4,59.87758627850455,
1,0,4.9,0.0,1,0,45,45,82,,,,,206.8429211000912,207.49377620010637,207.49377620010637,207.99476100015454,315,45,207.99476100015454,207.99476100015454,207.99476100015454,207.99476100015454,207.99476100015454,207.99476100015454,207.99476100015454,207.99476100015454,207.99476100015454,208.34447380015627,208.34447380015627,208.34447380015627,208.34447380015627,208.34447380015627,208.34447380015627,208.34447380015627,208.34447380015627,208.34447380015627,22,0,,,208.34447380015627,208.5443837000057,0.0,208.5443837000057,0,0.0,0,1,1000,num_1,1.4451566999778152,,37,3,2026-03-13_17h31.34.365,2026A_exp2,2022.2.4,59.87758627850455,
1,0,0.0,0.0,0,0,46,46,49,,,,,210.01270020008087,210.66347330017015,210.66347330017015,211.14791170018725,45,315,211.14791170018725,211.14791170018725,211.14791170018725,211.14791170018725,211.14791170018725,211.14791170018725,211.14791170018725,211.14791170018725,211.14791170018725,211.5143374002073,211.5143374002073,211.5143374002073,211.5143374002073,211.5143374002073,211.5143374002073,211.5143374002073,211.5143374002073,211.5143374002073,23,0,,,211.5143374002073,211.71458470006473,0.0,211.71458470006473,0,0.0,0,1,1000,num_1,1.7802019000519067,,37,3,2026-03-13_17h31.34.365,2026A_exp2,2022.2.4,59.87758627850455,
1,0,4.9,4.9,0,0,47,47,63,,,,,213.516168900067,214.16687710001133,214.16687710001133,214.6512468000874,315,45,214.6512468000874,214.6512468000874,214.6512468000874,214.6512468000874,214.6512468000874,214.6512468000874,214.6512468000874,214.6512468000874,214.6512468000874,215.01779419998638,215.01779419998638,215.01779419998638,215.01779419998638,215.01779419998638,215.01779419998638,215.01779419998638,215.01779419998638,215.01779419998638,23,0,,,215.01779419998638,215.21782320016064,4.9,215.21782320016064,1,4.9,1,1,1000,num_4,0.8443248998373747,,37,3,2026-03-13_17h31.34.365,2026A_exp2,2022.2.4,59.87758627850455,
1000,1,3.7,6.1,0,0,48,48,28,,,,,216.08544500009157,216.73614460020326,216.73614460020326,217.220575600164,45,45,217.220575600164,217.220575600164,217.220575600164,217.220575600164,217.220575600164,217.220575600164,217.220575600164,217.220575600164,217.220575600164,217.58717459999025,217.58717459999025,217.58717459999025,217.58717459999025,217.58717459999025,217.58717459999025,217.58717459999025,217.58717459999025,217.58717459999025,23,0,,,217.58717459999025,217.78907220019028,1000,217.78907220019028,1000,1000,1000,1000,1,num_2,1.1455594000872225,,37,3,2026-03-13_17h31.34.365,2026A_exp2,2022.2.4,59.87758627850455,
1000,1,6.1,0.0,0,0,49,49,33,,,,,218.954985300079,219.60572380013764,219.60572380013764,220.10686320019886,45,315,220.10686320019886,220.10686320019886,220.10686320019886,220.10686320019886,220.10686320019886,220.10686320019886,220.10686320019886,220.10686320019886,220.10686320019886,220.47329650004394,220.47329650004394,220.47329650004394,220.47329650004394,220.47329650004394,220.47329650004394,220.47329650004394,220.47329650004394,220.47329650004394,10,3,"[0.10035059996880591, 0.16710749990306795, 0.3005909000057727]","[0.13364139990881085, 0.2504547000862658, 0.3673763999249786]",220.47329650004394,220.67522940016352,1000,220.67522940016352,1000,1000,1000,1000,0,num_3,1.5783569999039173,,37,3,2026-03-13_17h31.34.365,2026A_exp2,2022.2.4,59.87758627850455,
1000,1,0.0,0.0,1,0,50,50,29,,,,,222.27498880005442,222.92567980010062,222.92567980010062,223.42686470015906,45,45,223.42686470015906,223.42686470015906,223.42686470015906,223.42686470015906,223.42686470015906,223.42686470015906,223.42686470015906,223.42686470015906,223.42686470015906,223.79319630004466,223.79319630004466,223.79319630004466,223.79319630004466,223.79319630004466,223.79319630004466,223.79319630004466,223.79319630004466,223.79319630004466,23,1,[0.2666215000208467],[0.28348229988478124],223.79319630004466,223.99531500018202,1000,223.99531500018202,1000,1000,1000,1000,0,num_3,0.9075509000103921,,37,3,2026-03-13_17h31.34.365,2026A_exp2,2022.2.4,59.87758627850455,
1,0,4.9,0.0,1,0,51,51,4,,,,,224.92762950016186,225.5782570000738,225.5782570000738,226.07952280016616,315,315,226.07952280016616,226.07952280016616,226.07952280016616,226.07952280016616,226.07952280016616,226.07952280016616,226.07952280016616,226.07952280016616,226.07952280016616,226.44585870020092,226.44585870020092,226.44585870020092,226.44585870020092,226.44585870020092,226.44585870020092,226.44585870020092,226.44585870020092,226.44585870020092,23,0,,,226.44585870020092,226.64599320013076,0.0,226.64599320013076,0,0.0,0,1,1000,num_1,0.8317144000902772,,37,3,2026-03-13_17h31.34.365,2026A_exp2,2022.2.4,59.87758627850455,
1000,1,0.0,0.0,0,0,52,52,20,,,,,227.49688140000217,228.14752790005878,228.14752790005878,228.63205610006116,45,45,228.63205610006116,228.63205610006116,228.63205610006116,228.63205610006116,228.63205610006116,228.63205610006116,228.63205610006116,228.63205610006116,228.63205610006116,228.9985238001682,228.9985238001682,228.9985238001682,228.9985238001682,228.9985238001682,228.9985238001682,228.9985238001682,228.9985238001682,228.9985238001682,21,2,"[0.2505576000548899, 0.3507026999723166]","[0.26710249995812774, 0.36729760002344847]",228.9985238001682,229.20092199998908,1000,229.20092199998908,1000,1000,1000,1000,0,num_3,0.7324979000259191,,37,3,2026-03-13_17h31.34.365,2026A_exp2,2022.2.4,59.87758627850455,
1,0,0.0,0.0,1,0,53,53,70,,,,,229.94958560005762,230.5999991002027,230.5999991002027,231.10106330015697,315,315,231.10106330015697,231.10106330015697,231.10106330015697,231.10106330015697,231.10106330015697,231.10106330015697,231.10106330015697,231.10106330015697,231.10106330015697,231.45077910018153,231.45077910018153,231.45077910018153,231.45077910018153,231.45077910018153,231.45077910018153,231.45077910018153,231.45077910018153,231.45077910018153,22,0,,,231.45077910018153,231.65111990016885,0.0,231.6678609000519,0,0.0,0,1,1000,num_1,2.579047800041735,,37,3,2026-03-13_17h31.34.365,2026A_exp2,2022.2.4,59.87758627850455,
0,0,0.0,4.9,1,0,54,54,56,,,,,234.2703315000981,234.9248095001094,234.9248095001094,235.40551670012064,45,45,235.40551670012064,235.40551670012064,235.40551670012064,235.40551670012064,235.40551670012064,235.40551670012064,235.40551670012064,235.40551670012064,235.40551670012064,235.77194890007377,235.77194890007377,235.77194890007377,235.77194890007377,235.77194890007377,235.77194890007377,235.77194890007377,235.77194890007377,235.77194890007377,23,0,,,235.77194890007377,235.97203910001554,0.0,235.97203910001554,0,0.0,0,1,1000,num_1,1.5855932000558823,,37,3,2026-03-13_17h31.34.365,2026A_exp2,2022.2.4,59.87758627850455,
1000,1,4.9,0.0,0,0,55,55,58,,,,,237.5736801000312,238.224376300117,238.224376300117,238.7089114000555,45,45,238.7089114000555,238.7089114000555,238.7089114000555,238.7089114000555,238.7089114000555,238.7089114000555,238.7089114000555,238.7089114000555,238.7089114000555,239.07511680014431,239.07511680014431,239.07511680014431,239.07511680014431,239.07511680014431,239.07511680014431,239.07511680014431,239.07511680014431,239.07511680014431,21,1,[0.3505644998513162],[0.3672493000049144],239.07511680014431,239.27710529998876,1000,239.27710529998876,1000,1000,1000,1000,0,num_3,0.5615167000796646,,37,3,2026-03-13_17h31.34.365,2026A_exp2,2022.2.4,59.87758627850455,
1000,1,6.1,4.9,1,0,56,56,16,,,,,239.85917800012976,240.50992490001954,240.50992490001954,241.01112720021047,315,315,241.01112720021047,241.01112720021047,241.01112720021047,241.01112720021047,241.01112720021047,241.01112720021047,241.01112720021047,241.01112720021047,241.01112720021047,241.3775081001222,241.3775081001222,241.3775081001222,241.3775081001222,241.3775081001222,241.3775081001222,241.3775081001222,241.3775081001222,241.3775081001222,23,0,,,241.3775081001222,241.57868590019643,1000,241.57868590019643,1000,1000,1000,1000,1,num_2,0.9315894998144358,,37,3,2026-03-13_17h31.34.365,2026A_exp2,2022.2.4,59.87758627850455,
1,0,0.0,0.0,0,0,57,57,59,,,,,242.52851720014587,243.1793230001349,243.1793230001349,243.68043980002403,45,45,243.68043980002403,243.68043980002403,243.68043980002403,243.68043980002403,243.68043980002403,243.68043980002403,243.68043980002403,243.68043980002403,243.68043980002403,244.04679689998738,244.04679689998738,244.04679689998738,244.04679689998738,244.04679689998738,244.04679689998738,244.04679689998738,244.04679689998738,244.04679689998738,23,0,,,244.04679689998738,244.24698140006512,0.0,244.24698140006512,1,0.0,0,0,1000,num_4,1.199072499992326,,37,3,2026-03-13_17h31.34.365,2026A_exp2,2022.2.4,59.87758627850455,
1,0,4.9,4.9,1,0,58,58,89,,,,,245.464808100136,246.11557830008678,246.11557830008678,246.60004110005684,45,315,246.60004110005684,246.60004110005684,246.60004110005684,246.60004110005684,246.60004110005684,246.60004110005684,246.60004110005684,246.60004110005684,246.60004110005684,246.96638700016774,246.96638700016774,246.96638700016774,246.96638700016774,246.96638700016774,246.96638700016774,246.96638700016774,246.96638700016774,246.96638700016774,23,0,,,246.96638700016774,247.16648530005477,4.9,247.16648530005477,1,4.9,1,1,1000,num_4,0.8637272999621928,,37,3,2026-03-13_17h31.34.365,2026A_exp2,2022.2.4,59.87758627850455,
1000,1,6.1,3.7,1,0,59,59,24,,,,,248.05075060017407,248.6989541000221,248.6989541000221,249.19085440016352,45,45,249.19085440016352,249.19085440016352,249.19085440016352,249.19085440016352,249.19085440016352,249.19085440016352,249.19085440016352,249.19085440016352,249.19085440016352,249.55235260003246,249.55235260003246,249.55235260003246,249.55235260003246,249.55235260003246,249.55235260003246,249.55235260003246,249.55235260003246,249.55235260003246,23,0,,,249.55235260003246,249.76866230019368,1000,249.76866230019368,1000,1000,1000,1000,0,num_3,0.7966483000200242,,37,3,2026-03-13_17h31.34.365,2026A_exp2,2022.2.4,59.87758627850455,
1,0,0.0,0.0,1,0,60,60,43,,,,,250.58650420000777,251.24797170003876,251.24797170003876,251.73848190018907,45,315,251.73848190018907,251.73848190018907,251.73848190018907,251.73848190018907,251.73848190018907,251.73848190018907,251.73848190018907,251.73848190018907,251.73848190018907,252.08818680001423,252.08818680001423,252.08818680001423,252.08818680001423,252.08818680001423,252.08818680001423,252.08818680001423,252.08818680001423,252.08818680001423,21,1,[0.2337271999567747],[0.2670283999759704],252.08818680001423,252.28832370019518,0.0,252.28832370019518,1,0.0,0,0,1000,num_4,1.1174807997886091,,37,3,2026-03-13_17h31.34.365,2026A_exp2,2022.2.4,59.87758627850455,
1000,1,6.1,0.0,0,0,61,61,19,,,,,253.4227948000189,254.07342830020934,254.07342830020934,254.55779420002364,45,45,254.55779420002364,254.55779420002364,254.55779420002364,254.55779420002364,254.55779420002364,254.55779420002364,254.55779420002364,254.55779420002364,254.55779420002364,254.92438370012678,254.92438370012678,254.92438370012678,254.92438370012678,254.92438370012678,254.92438370012678,254.92438370012678,254.92438370012678,254.92438370012678,18,3,"[0.08346220012754202, 0.28372279996983707, 0.36727950000204146]","[0.11696889996528625, 0.3171763999853283, 0.3672867000568658]",254.92438370012678,255.12652050005272,1000,255.12652050005272,1000,1000,1000,1000,0,num_3,0.6881200999487191,,37,3,2026-03-13_17h31.34.365,2026A_exp2,2022.2.4,59.87758627850455,
1,0,0.0,0.0,1,0,62,62,66,,,,,255.84212120017037,256.492605100153,256.492605100153,256.9937789000105,315,315,256.9937789000105,256.9937789000105,256.9937789000105,256.9937789000105,256.9937789000105,256.9937789000105,256.9937789000105,256.9937789000105,256.9937789000105,257.36018600012176,257.36018600012176,257.36018600012176,257.36018600012176,257.36018600012176,257.36018600012176,257.36018600012176,257.36018600012176,257.36018600012176,15,3,"[0.0012060999870300293, 0.1670655000489205, 0.283720999956131]","[0.08369569992646575, 0.20032369997352362, 0.3005691999569535]",257.36018600012176,257.5603537000716,0.0,257.5603537000716,1,0.0,0,0,1000,num_4,9.54203479993157,,37,3,2026-03-13_17h31.34.365,2026A_exp2,2022.2.4,59.87758627850455,
0,0,3.7,0.0,1,0,63,63,83,,,,,267.1199939001817,267.77055020001717,267.77055020001717,268.25467739999294,45,45,268.25467739999294,268.25467739999294,268.25467739999294,268.25467739999294,268.25467739999294,268.25467739999294,268.25467739999294,268.25467739999294,268.25467739999294,268.6211639000103,268.6211639000103,268.6211639000103,268.6211639000103,268.6211639000103,268.6211639000103,268.6211639000103,268.6211639000103,268.6211639000103,23,0,,,268.6211639000103,268.8214165000245,3.7,268.8214165000245,1,3.7,1,1,1000,num_4,1.8560826000757515,,37,3,2026-03-13_17h31.34.365,2026A_exp2,2022.2.4,59.87758627850455,
1,0,0.0,0.0,0,0,64,64,9,,,,,270.7065583001822,271.34054140001535,271.34054140001535,271.84163330006413,315,45,271.84163330006413,271.84163330006413,271.84163330006413,271.84163330006413,271.84163330006413,271.84163330006413,271.84163330006413,271.84163330006413,271.84163330006413,272.20795010006987,272.20795010006987,272.20795010006987,272.20795010006987,272.20795010006987,272.20795010006987,272.20795010006987,272.20795010006987,272.20795010006987,23,0,,,272.20795010006987,272.40820350009017,0.0,272.40820350009017,1,0.0,0,0,1000,num_4,0.5738369000609964,,37,3,2026-03-13_17h31.34.365,2026A_exp2,2022.2.4,59.87758627850455,
1,0,0.0,0.0,1,0,65,65,41,,,,,273.0088009000756,273.6427275000606,273.6427275000606,274.1438475002069,315,315,274.1438475002069,274.1438475002069,274.1438475002069,274.1438475002069,274.1438475002069,274.1438475002069,274.1438475002069,274.1438475002069,274.1438475002069,274.5102493001614,274.5102493001614,274.5102493001614,274.5102493001614,274.5102493001614,274.5102493001614,274.5102493001614,274.5102493001614,274.5102493001614,23,0,,,274.5102493001614,274.7104539000429,0.0,274.7104539000429,0,0.0,0,1,1000,num_1,0.8312516000587493,,37,3,2026-03-13_17h31.34.365,2026A_exp2,2022.2.4,59.87758627850455,
1000,1,0.0,0.0,0,0,66,66,61,,,,,275.5613244001288,276.1954158002045,276.1954158002045,276.6964367001783,45,315,276.6964367001783,276.6964367001783,276.6964367001783,276.6964367001783,276.6964367001783,276.6964367001783,276.6964367001783,276.6964367001783,276.6964367001783,277.06292970012873,277.06292970012873,277.06292970012873,277.06292970012873,277.06292970012873,277.06292970012873,277.06292970012873,277.06292970012873,277.06292970012873,23,0,,,277.06292970012873,277.26354040019214,1000,277.26354040019214,1000,1000,1000,1000,0,num_3,0.9659394000191242,,37,3,2026-03-13_17h31.34.365,2026A_exp2,2022.2.4,59.87758627850455,
0,0,4.9,0.0,0,0,67,67,30,,,,,278.247687500203,278.8983938000165,278.8983938000165,279.3825569001492,45,45,279.3825569001492,279.3825569001492,279.3825569001492,279.3825569001492,279.3825569001492,279.3825569001492,279.3825569001492,279.3825569001492,279.3825569001492,279.7492076000199,279.7492076000199,279.7492076000199,279.7492076000199,279.7492076000199,279.7492076000199,279.7492076000199,279.7492076000199,279.7492076000199,23,0,,,279.7492076000199,279.9493160001002,0.0,279.9493160001002,0,0.0,0,1,1000,num_1,1.1775714000687003,,37,3,2026-03-13_17h31.34.365,2026A_exp2,2022.2.4,59.87758627850455,
1000,1,0.0,4.9,1,0,68,68,51,,,,,281.15045830002055,281.80091640003957,281.80091640003957,282.28561150003225,315,45,282.28561150003225,282.28561150003225,282.28561150003225,282.28561150003225,282.28561150003225,282.28561150003225,282.28561150003225,282.28561150003225,282.28561150003225,282.6521352001,282.6521352001,282.6521352001,282.6521352001,282.6521352001,282.6521352001,282.6521352001,282.6521352001,282.6521352001,23,0,,,282.6521352001,282.85428650001995,1000,282.85428650001995,1000,1000,1000,1000,1,num_2,0.6406077998690307,,37,3,2026-03-13_17h31.34.365,2026A_exp2,2022.2.4,59.87758627850455,
1000,1,6.1,3.7,0,0,69,69,87,,,,,283.51935390010476,284.1702053002082,284.1702053002082,284.671438800171,315,315,284.671438800171,284.671438800171,284.671438800171,284.671438800171,284.671438800171,284.671438800171,284.671438800171,284.671438800171,284.671438800171,285.0211132001132,285.0211132001132,285.0211132001132,285.0211132001132,285.0211132001132,285.0211132001132,285.0211132001132,285.0211132001132,285.0211132001132,22,0,,,285.0211132001132,285.2228837001603,1000,285.23809430003166,1000,1000,1000,1000,0,num_3,0.5355386999435723,,37,3,2026-03-13_17h31.34.365,2026A_exp2,2022.2.4,59.87758627850455,
1,0,0.0,0.0,0,0,70,70,2,,,,,285.80510860006325,286.4651219001971,286.4651219001971,286.9570325000677,315,45,286.9570325000677,286.9570325000677,286.9570325000677,286.9570325000677,286.9570325000677,286.9570325000677,286.9570325000677,286.9570325000677,286.9570325000677,287.32341220020317,287.32341220020317,287.32341220020317,287.32341220020317,287.32341220020317,287.32341220020317,287.32341220020317,287.32341220020317,287.32341220020317,23,0,,,287.32341220020317,287.52356340014376,0.0,287.52356340014376,1,0.0,0,0,1000,num_4,1.4347322001121938,,37,3,2026-03-13_17h31.34.365,2026A_exp2,2022.2.4,59.87758627850455,
1000,1,0.0,3.7,0,0,71,71,52,,,,,288.97490760008805,289.6256937000435,289.6256937000435,290.11019800021313,45,315,290.11019800021313,290.11019800021313,290.11019800021313,290.11019800021313,290.11019800021313,290.11019800021313,290.11019800021313,290.11019800021313,290.11019800021313,290.4766286001541,290.4766286001541,290.4766286001541,290.4766286001541,290.4766286001541,290.4766286001541,290.4766286001541,290.4766286001541,290.4766286001541,23,0,,,290.4766286001541,290.6783124001231,1000,290.6783124001231,1000,1000,1000,1000,1,num_2,0.6319548999890685,,37,3,2026-03-13_17h31.34.365,2026A_exp2,2022.2.4,59.87758627850455,
1000,1,0.0,6.1,0,0,72,72,34,,,,,291.32733600004576,291.9781007000711,291.9781007000711,292.47925700014457,45,315,292.47925700014457,292.47925700014457,292.47925700014457,292.47925700014457,292.47925700014457,292.47925700014457,292.47925700014457,292.47925700014457,292.47925700014457,292.8288688000757,292.8288688000757,292.8288688000757,292.8288688000757,292.8288688000757,292.8288688000757,292.8288688000757,292.8288688000757,292.8288688000757,11,7,"[0.0012585001531988382, 0.1170008999761194, 0.15040839998982847, 0.21714510000310838, 0.2666698000393808, 0.3171856999397278, 0.3505792999640107]","[0.06669940007850528, 0.13359159999527037, 0.1671955999918282, 0.2338483000639826, 0.30060310009866953, 0.3338828000705689, 0.35058560012839735]",292.8288688000757,293.0307852001861,1000,293.0459204001818,1000,1000,1000,1000,1,num_2,0.6956860998179764,,37,3,2026-03-13_17h31.34.365,2026A_exp2,2022.2.4,59.87758627850455,
1,0,4.9,6.1,0,0,73,73,15,,,,,293.7634768001735,294.41387120005675,294.41387120005675,294.9148591000121,315,315,294.9148591000121,294.9148591000121,294.9148591000121,294.9148591000121,294.9148591000121,294.9148591000121,294.9148591000121,294.9148591000121,294.9148591000121,295.2645650000777,295.2645650000777,295.2645650000777,295.2645650000777,295.2645650000777,295.2645650000777,295.2645650000777,295.2645650000777,295.2645650000777,1,2,"[0.0011953001376241446, 0.3172995001077652]","[0.3005996001884341, 0.35057830018922687]",295.2645650000777,295.4647672001738,4.9,295.4647672001738,0,4.9,1,0,1000,num_1,1.4525907998904586,,37,3,2026-03-13_17h31.34.365,2026A_exp2,2022.2.4,59.87758627850455,
1,0,6.1,0.0,1,0,74,74,13,,,,,296.93296990008093,297.5836749000009,297.5836749000009,298.068155300105,315,315,298.068155300105,298.068155300105,298.068155300105,298.068155300105,298.068155300105,298.068155300105,298.068155300105,298.068155300105,298.068155300105,298.43454080005176,298.43454080005176,298.43454080005176,298.43454080005176,298.43454080005176,298.43454080005176,298.43454080005176,298.43454080005176,298.43454080005176,0,1,[0.0012358000967651606],[0.3673511000815779],298.43454080005176,298.63474330003373,0.0,298.63474330003373,0,0.0,0,1,1000,num_1,1.0993451999966055,,37,3,2026-03-13_17h31.34.365,2026A_exp2,2022.2.4,59.87758627850455,
1,0,0.0,6.1,0,0,75,75,68,,,,,299.7523562000133,300.4031991001684,300.4031991001684,300.8876707002055,45,45,300.8876707002055,300.8876707002055,300.8876707002055,300.8876707002055,300.8876707002055,300.8876707002055,300.8876707002055,300.8876707002055,300.8876707002055,301.2541951001622,301.2541951001622,301.2541951001622,301.2541951001622,301.2541951001622,301.2541951001622,301.2541951001622,301.2541951001622,301.2541951001622,0,1,[0.0012213001027703285],[0.3671373000834137],301.2541951001622,301.45414740010165,0.0,301.45414740010165,0,0.0,0,1,1000,num_1,1.1126812000293285,,37,3,2026-03-13_17h31.34.365,2026A_exp2,2022.2.4,59.87758627850455,
1,0,6.1,4.9,1,0,76,76,35,,,,,302.5887137001846,303.22271520015784,303.22271520015784,303.72379330010153,315,315,303.72379330010153,303.72379330010153,303.72379330010153,303.72379330010153,303.72379330010153,303.72379330010153,303.72379330010153,303.72379330010153,303.72379330010153,304.09023920004256,304.09023920004256,304.09023920004256,304.09023920004256,304.09023920004256,304.09023920004256,304.09023920004256,304.09023920004256,304.09023920004256,2,2,"[0.0012227999977767467, 0.25053859991021454]","[0.23379860003478825, 0.36720429989509284]",304.09023920004256,304.290349900024,4.9,304.290349900024,1,4.9,1,1,1000,num_4,1.1804051999934018,,37,3,2026-03-13_17h31.34.365,2026A_exp2,2022.2.4,59.87758627850455,
1000,1,4.9,4.9,0,0,77,77,42,,,,,305.4915301001165,306.1421707000118,306.1421707000118,306.6432519000955,45,45,306.6432519000955,306.6432519000955,306.6432519000955,306.6432519000955,306.6432519000955,306.6432519000955,306.6432519000955,306.6432519000955,306.6432519000955,307.0097582000308,307.0097582000308,307.0097582000308,307.0097582000308,307.0097582000308,307.0097582000308,307.0097582000308,307.0097582000308,307.0097582000308,1,2,"[0.0012335001956671476, 0.15027730003930628]","[0.1335837000515312, 0.36693470017053187]",307.0097582000308,307.21184320002794,1000,307.21184320002794,1000,1000,1000,1000,0,num_3,0.6737472000531852,,37,3,2026-03-13_17h31.34.365,2026A_exp2,2022.2.4,59.87758627850455,
1,0,4.9,0.0,1,0,78,78,84,,,,,307.91067570005544,308.5611608000472,308.5611608000472,309.06259330012836,45,45,309.06259330012836,309.06259330012836,309.06259330012836,309.06259330012836,309.06259330012836,309.06259330012836,309.06259330012836,309.06259330012836,309.06259330012836,309.4120730999857,309.4120730999857,309.4120730999857,309.4120730999857,309.4120730999857,309.4120730999857,309.4120730999857,309.4120730999857,309.4120730999857,2,3,"[0.0007120000664144754, 0.11743479990400374, 0.1674504999537021]","[0.10070300009101629, 0.15068319998681545, 0.35097429994493723]",309.4120730999857,309.6124409001786,0.0,309.6124409001786,0,0.0,0,1,1000,num_1,3.417389600072056,,37,3,2026-03-13_17h31.34.365,2026A_exp2,2022.2.4,59.87758627850455,
1,0,3.7,0.0,1,0,79,79,74,,,,,313.0490432002116,313.69980360008776,313.69980360008776,314.1842794001568,315,315,314.1842794001568,314.1842794001568,314.1842794001568,314.1842794001568,314.1842794001568,314.1842794001568,314.1842794001568,314.1842794001568,314.1842794001568,314.5506879000459,314.5506879000459,314.5506879000459,314.5506879000459,314.5506879000459,314.5506879000459,314.5506879000459,314.5506879000459,314.5506879000459,6,4,"[0.0012015001848340034, 0.15038240002468228, 0.2170776000712067, 0.36729670013301075]","[0.13365360000170767, 0.2003819001838565, 0.30054219998419285, 0.3673040000721812]",314.5506879000459,314.7506288001314,0.0,314.7506288001314,1,0.0,0,0,1000,num_4,2.6721224000211805,,37,3,2026-03-13_17h31.34.365,2026A_exp2,2022.2.4,59.87758627850455,
1,0,0.0,4.9,0,0,80,80,85,,,,,317.453475400107,318.10425289999694,318.10425289999694,318.60531260003336,45,315,318.60531260003336,318.60531260003336,318.60531260003336,318.60531260003336,318.60531260003336,318.60531260003336,318.60531260003336,318.60531260003336,318.60531260003336,318.9717826000415,318.9717826000415,318.9717826000415,318.9717826000415,318.9717826000415,318.9717826000415,318.9717826000415,318.9717826000415,318.9717826000415,23,0,,,318.9717826000415,319.171817000024,0.0,319.171817000024,0,0.0,0,1,1000,num_1,1.3468220999930054,,37,3,2026-03-13_17h31.34.365,2026A_exp2,2022.2.4,59.87758627850455,
0,0,0.0,0.0,1,0,81,81,62,,,,,320.53980730008334,321.19060770003125,321.19060770003125,321.6750206002034,315,315,321.6750206002034,321.6750206002034,321.6750206002034,321.6750206002034,321.6750206002034,321.6750206002034,321.6750206002034,321.6750206002034,321.6750206002034,322.0415903001558,322.0415903001558,322.0415903001558,322.0415903001558,322.0415903001558,322.0415903001558,322.0415903001558,322.0415903001558,322.0415903001558,23,0,,,322.0415903001558,322.2416370001156,0.0,322.2416370001156,1,0.0,0,0,1000,num_4,0.9326750000473112,,37,3,2026-03-13_17h31.34.365,2026A_exp2,2022.2.4,59.87758627850455,
1,0,4.9,6.1,1,0,82,82,46,,,,,323.1926911000628,323.82665659999475,323.82665659999475,324.32764630019665,315,315,324.32764630019665,324.32764630019665,324.32764630019665,324.32764630019665,324.32764630019665,324.32764630019665,324.32764630019665,324.32764630019665,324.32764630019665,324.69422160019167,324.69422160019167,324.69422160019167,324.69422160019167,324.69422160019167,324.69422160019167,324.69422160019167,324.69422160019167,324.69422160019167,23,0,,,324.69422160019167,324.8943086999934,6.1,324.8943086999934,1,6.1,1,1,1000,num_4,1.016350399935618,,37,3,2026-03-13_17h31.34.365,2026A_exp2,2022.2.4,59.87758627850455,
1000,1,4.9,0.0,0,0,83,83,36,,,,,325.9288565001916,326.5627608001232,326.5627608001232,327.0637360000983,315,45,327.0637360000983,327.0637360000983,327.0637360000983,327.0637360000983,327.0637360000983,327.0637360000983,327.0637360000983,327.0637360000983,327.0637360000983,327.4300733001437,327.4300733001437,327.4300733001437,327.4300733001437,327.4300733001437,327.4300733001437,327.4300733001437,327.4300733001437,327.4300733001437,23,0,,,327.4300733001437,327.63233530009165,1000,327.63233530009165,1000,1000,1000,1000,0,num_3,0.7338436997961253,,37,3,2026-03-13_17h31.34.365,2026A_exp2,2022.2.4,59.87758627850455,
1,0,0.0,0.0,1,0,84,84,37,,,,,328.3978443001397,329.0489984001033,329.0489984001033,329.5384651001077,45,315,329.5384651001077,329.5384651001077,329.5384651001077,329.5384651001077,329.5384651001077,329.5384651001077,329.5384651001077,329.5384651001077,329.5384651001077,329.899269600166,329.899269600166,329.899269600166,329.899269600166,329.899269600166,329.899269600166,329.899269600166,329.899269600166,329.899269600166,9,5,"[0.0026051001623272896, 0.03460200014524162, 0.16536640003323555, 0.23226260021328926, 0.31567970011383295]","[0.02276490000076592, 0.14848470012657344, 0.2156256001908332, 0.26529720006510615, 0.33229790022596717]",329.899269600166,330.0995504001621,0.0,330.0995504001621,1,0.0,0,0,1000,num_4,0.9218099999707192,,37,3,2026-03-13_17h31.34.365,2026A_exp2,2022.2.4,59.87758627850455,
1,0,4.9,0.0,0,0,85,85,48,,,,,331.050313499989,331.70110840001144,331.70110840001144,332.20273290015757,45,315,332.20273290015757,332.20273290015757,332.20273290015757,332.20273290015757,332.20273290015757,332.20273290015757,332.20273290015757,332.20273290015757,332.20273290015757,332.5686797001399,332.5686797001399,332.5686797001399,332.5686797001399,332.5686797001399,332.5686797001399,332.5686797001399,332.5686797001399,332.5686797001399,23,0,,,332.5686797001399,332.7688196001109,4.9,332.7688196001109,1,4.9,1,1,1000,num_4,0.6130671000573784,,37,3,2026-03-13_17h31.34.365,2026A_exp2,2022.2.4,59.87758627850455,
1,0,0.0,0.0,0,0,86,86,81,,,,,333.40275470004417,334.0368455001153,334.0368455001153,334.53792580007575,315,315,334.53792580007575,334.53792580007575,334.53792580007575,334.53792580007575,334.53792580007575,334.53792580007575,334.53792580007575,334.53792580007575,334.53792580007575,334.90433430019766,334.90433430019766,334.90433430019766,334.90433430019766,334.90433430019766,334.90433430019766,334.90433430019766,334.90433430019766,334.90433430019766,23,0,,,334.90433430019766,335.10454140021466,0.0,335.10454140021466,1,0.0,0,0,1000,num_4,0.8303542002104223,,37,3,2026-03-13_17h31.34.365,2026A_exp2,2022.2.4,59.87758627850455,
1000,1,6.1,3.7,1,0,87,87,10,,,,,335.9554230000358,336.5893111000769,336.5893111000769,337.0905181001872,315,315,337.0905181001872,337.0905181001872,337.0905181001872,337.0905181001872,337.0905181001872,337.0905181001872,337.0905181001872,337.0905181001872,337.0905181001872,337.4568893001415,337.4568893001415,337.4568893001415,337.4568893001415,337.4568893001415,337.4568893001415,337.4568893001415,337.4568893001415,337.4568893001415,2,2,"[0.001239200122654438, 0.10022830008529127]","[0.08349129999987781, 0.3674530000425875]",337.4568893001415,337.6571074000094,1000,337.6571074000094,1000,1000,1000,1000,0,num_3,1.2048269000370055,,37,3,2026-03-13_17h31.34.365,2026A_exp2,2022.2.4,59.87758627850455,
1000,1,4.9,4.9,0,0,88,88,31,,,,,338.8915855002124,339.54231380019337,339.54231380019337,340.043305600062,315,315,340.043305600062,340.043305600062,340.043305600062,340.043305600062,340.043305600062,340.043305600062,340.043305600062,340.043305600062,340.043305600062,340.3931625999976,340.3931625999976,340.3931625999976,340.3931625999976,340.3931625999976,340.3931625999976,340.3931625999976,340.3931625999976,340.3931625999976,15,4,"[0.05024729995056987, 0.10021619987674057, 0.21715969988144934, 0.267233100021258]","[0.08354759984649718, 0.13354770001024008, 0.2503579999320209, 0.2837137000169605]",340.3931625999976,340.59556789998896,1000,340.59556789998896,1000,1000,1000,1000,1,num_2,0.8829262999352068,,37,3,2026-03-13_17h31.34.365,2026A_exp2,2022.2.4,59.87758627850455,
1,0,6.1,3.7,0,0,89,89,26,,,,,341.4942162001971,342.144905900117,342.144905900117,342.6460394000169,45,45,342.6460394000169,342.6460394000169,342.6460394000169,342.6460394000169,342.6460394000169,342.6460394000169,342.6460394000169,342.6460394000169,342.6460394000169,343.0124821001664,343.0124821001664,343.0124821001664,343.0124821001664,343.0124821001664,343.0124821001664,343.0124821001664,343.0124821001664,343.0124821001664,0,1,[0.0011183999013155699],[0.36726589989848435],343.0124821001664,343.21265770005994,6.1,343.21265770005994,1,6.1,1,1,1000,num_4,0.9690440997947007,,37,3,2026-03-13_17h31.34.365,2026A_exp2,2022.2.4,59.87758627850455,
,,,,,,,,,,,,,,,,,,,,,,,,,,,,,,,,,,,,,,,,,,,,,,,,,,,,344.2216669002082,,,,,,,
