validity,detectorcomp,contrastCW,contrastCCW,precueCWorCCW,block_80trials.thisRepN,block_80trials.thisTrialN,block_80trials.thisN,block_80trials.thisIndex,etRecord.started,etRecord.stopped,text.started,text.stopped,text_4.started,text_4.stopped,text_6.started,text_6.stopped,oriCW,oriCCW,roi_2.started,grating_UR.started,grating_UL.started,grating_LR.started,grating_LL.started,noise_UR.started,noise_UL.started,noise_LR.started,noise_LL.started,roi_2.stopped,grating_UR.stopped,grating_UL.stopped,grating_LR.stopped,grating_LL.stopped,noise_UR.stopped,noise_UL.stopped,noise_LR.stopped,noise_LL.stopped,outframe,roi_2.numLooks,roi_2.timesOn,roi_2.timesOff,text_2.started,text_2.stopped,probedcontrast,key_resp.started,respdetect,relevantContrast,correctDetect,TorFdetect,respCWorCCW,key_resp.keys,key_resp.rt,feedback_display_.started,participantNo,blockNo,date,expName,psychopyVersion,frameRate,
1,0,4.9,6.1,1,0,0,0,46,0.00011399999493733048,0.00011399999493733048,74.82783910003491,76.83345239999471,76.83345239999471,77.481146599981,77.481146599981,77.99922659998992,45,315,77.99922659998992,77.99922659998992,77.99922659998992,77.99922659998992,77.99922659998992,77.99922659998992,77.99922659998992,77.99922659998992,77.99922659998992,78.34883790003369,78.34883790003369,78.34883790003369,78.34883790003369,78.34883790003369,78.34883790003369,78.34883790003369,78.34883790003369,78.34883790003369,23,0,,,78.34883790003369,78.5489310999983,6.1,78.5489310999983,1,6.1,1,1,1000,num_4,0.8626138999825343,,23,3,2026-03-04_13h26.57.444,2026A_exp2,2022.2.4,60.02779285610003,
1,0,4.9,0.0,1,0,1,1,84,,,,,79.43311969999922,80.08388589997776,80.08388589997776,80.56828519998817,315,315,80.56828519998817,80.56828519998817,80.56828519998817,80.56828519998817,80.56828519998817,80.56828519998817,80.56828519998817,80.56828519998817,80.56828519998817,80.93484440003522,80.93484440003522,80.93484440003522,80.93484440003522,80.93484440003522,80.93484440003522,80.93484440003522,80.93484440003522,80.93484440003522,0,1,[0.0012346000294201076],[0.36675030004698783],80.93484440003522,81.13498680002522,0.0,81.13498680002522,0,0.0,0,1,1000,num_1,0.8135600999812596,,23,3,2026-03-04_13h26.57.444,2026A_exp2,2022.2.4,60.02779285610003,
1000,1,3.7,0.0,1,0,2,2,79,,,,,81.96914090000791,82.60300559998723,82.60300559998723,83.10424670000793,45,45,83.10424670000793,83.10424670000793,83.10424670000793,83.10424670000793,83.10424670000793,83.10424670000793,83.10424670000793,83.10424670000793,83.10424670000793,83.47047509998083,83.47047509998083,83.47047509998083,83.47047509998083,83.47047509998083,83.47047509998083,83.47047509998083,83.47047509998083,83.47047509998083,5,2,"[0.017540100030601025, 0.10028170002624393]","[0.03364690003218129, 0.36721290001878515]",83.47047509998083,83.67569780000485,1000,83.67569780000485,1000,1000,1000,1000,0,num_3,1.040154899994377,,23,3,2026-03-04_13h26.57.444,2026A_exp2,2022.2.4,60.02779285610003,
1000,1,4.9,0.0,0,0,3,3,22,,,,,84.73868060001405,85.38927099999273,85.38927099999273,85.89036790002137,45,315,85.89036790002137,85.89036790002137,85.89036790002137,85.89036790002137,85.89036790002137,85.89036790002137,85.89036790002137,85.89036790002137,85.89036790002137,86.23999859998003,86.23999859998003,86.23999859998003,86.23999859998003,86.23999859998003,86.23999859998003,86.23999859998003,86.23999859998003,86.23999859998003,0,1,[0.0012012000079266727],[0.350670000014361],86.23999859998003,86.4418416999979,1000,86.4418416999979,1000,1000,1000,1000,1,num_2,0.9383201000164263,,23,3,2026-03-04_13h26.57.444,2026A_exp2,2022.2.4,60.02779285610003,
1,0,0.0,0.0,0,0,4,4,38,,,,,87.4079118000227,88.05840209999587,88.05840209999587,88.56008030002704,315,315,88.56008030002704,88.56008030002704,88.56008030002704,88.56008030002704,88.56008030002704,88.56008030002704,88.56008030002704,88.56008030002704,88.56008030002704,88.92597390001174,88.92597390001174,88.92597390001174,88.92597390001174,88.92597390001174,88.92597390001174,88.92597390001174,88.92597390001174,88.92597390001174,0,1,[0.0017917000222951174],[0.3665325000183657],88.92597390001174,89.12607539998135,0.0,89.12607539998135,0,0.0,0,1,1000,num_1,1.2466419999836944,,23,3,2026-03-04_13h26.57.444,2026A_exp2,2022.2.4,60.02779285610003,
1,0,0.0,0.0,1,0,5,5,70,,,,,90.39425270003267,91.04482920002192,91.04482920002192,91.5291392999934,45,315,91.5291392999934,91.5291392999934,91.5291392999934,91.5291392999934,91.5291392999934,91.5291392999934,91.5291392999934,91.5291392999934,91.5291392999934,91.89570880000247,91.89570880000247,91.89570880000247,91.89570880000247,91.89570880000247,91.89570880000247,91.89570880000247,91.89570880000247,91.89570880000247,0,1,[0.0011949999607168138],[0.36718679999466985],91.89570880000247,92.09595950000221,0.0,92.09595950000221,1,0.0,0,0,1000,num_4,0.7566923999693245,,23,3,2026-03-04_13h26.57.444,2026A_exp2,2022.2.4,60.02779285610003,
1,0,0.0,4.9,0,0,6,6,71,,,,,92.8798964000307,93.5307478000177,93.5307478000177,94.01500170002691,45,315,94.01500170002691,94.01500170002691,94.01500170002691,94.01500170002691,94.01500170002691,94.01500170002691,94.01500170002691,94.01500170002691,94.01500170002691,94.38138779997826,94.38138779997826,94.38138779997826,94.38138779997826,94.38138779997826,94.38138779997826,94.38138779997826,94.38138779997826,94.38138779997826,0,1,[0.001247999956831336],[0.3672837999765761],94.38138779997826,94.58163570001489,0.0,94.58163570001489,1,0.0,0,0,1000,num_4,2.2620070000411943,,23,3,2026-03-04_13h26.57.444,2026A_exp2,2022.2.4,60.02779285610003,
1000,1,0.0,3.7,0,0,7,7,44,,,,,96.86720179999247,97.51804130000528,97.51804130000528,98.00234180002008,45,315,98.00234180002008,98.00234180002008,98.00234180002008,98.00234180002008,98.00234180002008,98.00234180002008,98.00234180002008,98.00234180002008,98.00234180002008,98.36878660001094,98.36878660001094,98.36878660001094,98.36878660001094,98.36878660001094,98.36878660001094,98.36878660001094,98.36878660001094,98.36878660001094,7,4,"[0.0012136000441387296, 0.11697060003643855, 0.28391280001960695, 0.33384550001937896]","[0.08352090005064383, 0.2669699000543915, 0.3004784000222571, 0.35056520003126934]",98.36878660001094,98.56963089999044,1000,98.56963089999044,1000,1000,1000,1000,1,num_2,1.8989860999863595,,23,3,2026-03-04_13h26.57.444,2026A_exp2,2022.2.4,60.02779285610003,
1,0,6.1,0.0,0,0,8,8,50,,,,,100.48755399999209,101.13816869998118,101.13816869998118,101.63937039999291,315,45,101.63937039999291,101.63937039999291,101.63937039999291,101.63937039999291,101.63937039999291,101.63937039999291,101.63937039999291,101.63937039999291,101.63937039999291,102.00582940003369,102.00582940003369,102.00582940003369,102.00582940003369,102.00582940003369,102.00582940003369,102.00582940003369,102.00582940003369,102.00582940003369,0,1,[0.0007996999775059521],[0.36758299998473376],102.00582940003369,102.20601080002962,6.1,102.20601080002962,1,6.1,1,1,1000,num_4,1.7582802000106312,,23,3,2026-03-04_13h26.57.444,2026A_exp2,2022.2.4,60.02779285610003,
1000,1,0.0,4.9,1,0,9,9,51,,,,,103.99105750001036,104.6418554999982,104.6418554999982,105.12601740000537,315,315,105.12601740000537,105.12601740000537,105.12601740000537,105.12601740000537,105.12601740000537,105.12601740000537,105.12601740000537,105.12601740000537,105.12601740000537,105.4926716000191,105.4926716000191,105.4926716000191,105.4926716000191,105.4926716000191,105.4926716000191,105.4926716000191,105.4926716000191,105.4926716000191,4,5,"[0.0012904999894089997, 0.1169629999785684, 0.16703720000805333, 0.20034599996870384, 0.2835741000017151]","[0.10014269995735958, 0.15049349999753758, 0.18368769995868206, 0.2671064999885857, 0.3671875]",105.4926716000191,105.69269629998598,1000,105.69269629998598,1000,1000,1000,1000,1,num_2,0.598867499968037,,23,3,2026-03-04_13h26.57.444,2026A_exp2,2022.2.4,60.02779285610003,
1000,1,0.0,6.1,1,0,10,10,88,,,,,106.31000970001332,106.96080619998975,106.96080619998975,107.4619208999793,45,45,107.4619208999793,107.4619208999793,107.4619208999793,107.4619208999793,107.4619208999793,107.4619208999793,107.4619208999793,107.4619208999793,107.4619208999793,107.8284422000288,107.8284422000288,107.8284422000288,107.8284422000288,107.8284422000288,107.8284422000288,107.8284422000288,107.8284422000288,107.8284422000288,0,1,[0.001205399981699884],[0.36699619999853894],107.8284422000288,108.03791579999961,1000,108.03791579999961,1000,1000,1000,1000,1,num_2,0.6544641000218689,,23,3,2026-03-04_13h26.57.444,2026A_exp2,2022.2.4,60.02779285610003,
0,0,0.0,3.7,1,0,11,11,21,,,,,108.71235340001294,109.36319750000257,109.36319750000257,109.8757653000066,45,45,109.8757653000066,109.8757653000066,109.8757653000066,109.8757653000066,109.8757653000066,109.8757653000066,109.8757653000066,109.8757653000066,109.8757653000066,110.2307411999791,110.2307411999791,110.2307411999791,110.2307411999791,110.2307411999791,110.2307411999791,110.2307411999791,110.2307411999791,110.2307411999791,0,1,[0.0035829999833367765],[0.36501239996869117],110.2307411999791,110.43076329998439,0.0,110.43076329998439,1,0.0,0,0,1000,num_4,1.9175675999722444,,23,3,2026-03-04_13h26.57.444,2026A_exp2,2022.2.4,60.02779285610003,
1000,1,0.0,0.0,0,0,12,12,65,,,,,112.36623169999802,113.01674960000673,113.01674960000673,113.51798130001407,315,315,113.51798130001407,113.51798130001407,113.51798130001407,113.51798130001407,113.51798130001407,113.51798130001407,113.51798130001407,113.51798130001407,113.51798130001407,113.88438160001533,113.88438160001533,113.88438160001533,113.88438160001533,113.88438160001533,113.88438160001533,113.88438160001533,113.88438160001533,113.88438160001533,0,1,[0.0012103000190109015],[0.3672305000363849],113.88438160001533,114.08697439997923,1000,114.08697439997923,1000,1000,1000,1000,0,num_3,1.1167418000404723,,23,3,2026-03-04_13h26.57.444,2026A_exp2,2022.2.4,60.02779285610003,
1000,1,0.0,0.0,1,0,13,13,14,,,,,115.21894930000417,115.86970829998609,115.86970829998609,116.37087380001321,45,45,116.37087380001321,116.37087380001321,116.37087380001321,116.37087380001321,116.37087380001321,116.37087380001321,116.37087380001321,116.37087380001321,116.37087380001321,116.73727909999434,116.73727909999434,116.73727909999434,116.73727909999434,116.73727909999434,116.73727909999434,116.73727909999434,116.73727909999434,116.73727909999434,23,0,,,116.73727909999434,116.93945499998517,1000,116.93945499998517,1000,1000,1000,1000,1,num_2,2.1210794000071473,,23,3,2026-03-04_13h26.57.444,2026A_exp2,2022.2.4,60.02779285610003,
1000,1,6.1,0.0,0,0,14,14,33,,,,,119.08945430000313,119.73996119998628,119.73996119998628,120.24128489999566,315,45,120.24128489999566,120.24128489999566,120.24128489999566,120.24128489999566,120.24128489999566,120.24128489999566,120.24128489999566,120.24128489999566,120.24128489999566,120.60779530002037,120.60779530002037,120.60779530002037,120.60779530002037,120.60779530002037,120.60779530002037,120.60779530002037,120.60779530002037,120.60779530002037,0,1,[0.0012018000124953687],[0.3673430000199005],120.60779530002037,120.80959329998586,1000,120.80959329998586,1000,1000,1000,1000,0,num_3,0.6749595999717712,,23,3,2026-03-04_13h26.57.444,2026A_exp2,2022.2.4,60.02779285610003,
0,0,0.0,4.9,1,0,15,15,56,,,,,121.51166369998828,122.1607274999842,122.1607274999842,122.66046869999263,315,315,122.66046869999263,122.66046869999263,122.66046869999263,122.66046869999263,122.66046869999263,122.66046869999263,122.66046869999263,122.66046869999263,122.66046869999263,123.02688020002097,123.02688020002097,123.02688020002097,123.02688020002097,123.02688020002097,123.02688020002097,123.02688020002097,123.02688020002097,123.02688020002097,0,1,[0.0013487000251188874],[0.3671102999942377],123.02688020002097,123.22712900000624,0.0,123.22712900000624,0,0.0,0,1,1000,num_1,1.4891381000052206,,23,3,2026-03-04_13h26.57.444,2026A_exp2,2022.2.4,60.02779285610003,
1,0,0.0,4.9,0,0,16,16,85,,,,,124.74500240001362,125.3957162000006,125.3957162000006,125.88020270003472,45,315,125.88020270003472,125.88020270003472,125.88020270003472,125.88020270003472,125.88020270003472,125.88020270003472,125.88020270003472,125.88020270003472,125.88020270003472,126.24661069997819,126.24661069997819,126.24661069997819,126.24661069997819,126.24661069997819,126.24661069997819,126.24661069997819,126.24661069997819,126.24661069997819,20,1,[0.3174573999713175],[0.3674293999793008],126.24661069997819,126.44686490000458,0.0,126.44686490000458,1,0.0,0,0,1000,num_4,1.5176323999767192,,23,3,2026-03-04_13h26.57.444,2026A_exp2,2022.2.4,60.02779285610003,
1000,1,4.9,4.9,0,0,17,17,31,,,,,127.9816813999787,128.63238209998235,128.63238209998235,129.1167782000266,45,315,129.1167782000266,129.1167782000266,129.1167782000266,129.1167782000266,129.1167782000266,129.1167782000266,129.1167782000266,129.1167782000266,129.1167782000266,129.48330010002246,129.48330010002246,129.48330010002246,129.48330010002246,129.48330010002246,129.48330010002246,129.48330010002246,129.48330010002246,129.48330010002246,0,1,[0.0013244000147096813],[0.3671860999893397],129.48330010002246,129.68572240002686,1000,129.68572240002686,1000,1000,1000,1000,0,num_3,1.0384699999704026,,23,3,2026-03-04_13h26.57.444,2026A_exp2,2022.2.4,60.02779285610003,
1000,1,6.1,3.7,1,0,18,18,10,,,,,130.75111940002535,131.40173739998136,131.40173739998136,131.90304910001578,315,315,131.90304910001578,131.90304910001578,131.90304910001578,131.90304910001578,131.90304910001578,131.90304910001578,131.90304910001578,131.90304910001578,131.90304910001578,132.26930169999832,132.26930169999832,132.26930169999832,132.26930169999832,132.26930169999832,132.26930169999832,132.26930169999832,132.26930169999832,132.26930169999832,0,1,[0.0012165000080130994],[0.3672965000150725],132.26930169999832,132.47127290000208,1000,132.47127290000208,1000,1000,1000,1000,0,num_3,0.8681270999950357,,23,3,2026-03-04_13h26.57.444,2026A_exp2,2022.2.4,60.02779285610003,
1,0,4.9,0.0,1,0,19,19,4,,,,,133.37047840002924,134.02115210000193,134.02115210000193,134.5223267999827,45,45,134.5223267999827,134.5223267999827,134.5223267999827,134.5223267999827,134.5223267999827,134.5223267999827,134.5223267999827,134.5223267999827,134.5223267999827,134.87188120000064,134.87188120000064,134.87188120000064,134.87188120000064,134.87188120000064,134.87188120000064,134.87188120000064,134.87188120000064,134.87188120000064,19,2,"[0.3006497999886051, 0.3508008999633603]","[0.33406149997608736, 0.35080489999381825]",134.87188120000064,135.07214499998372,0.0,135.07214499998372,0,0.0,0,1,1000,num_1,1.2999251000001095,,23,3,2026-03-04_13h26.57.444,2026A_exp2,2022.2.4,60.02779285610003,
1,0,3.7,0.0,1,0,20,20,74,,,,,136.39006180001888,137.04057459998876,137.04057459998876,137.52524360001553,315,315,137.52524360001553,137.52524360001553,137.52524360001553,137.52524360001553,137.52524360001553,137.52524360001553,137.52524360001553,137.52524360001553,137.52524360001553,137.89179870003136,137.89179870003136,137.89179870003136,137.89179870003136,137.89179870003136,137.89179870003136,137.89179870003136,137.89179870003136,137.89179870003136,18,3,"[0.01733210001839325, 0.10019349999492988, 0.35061840002890676]","[0.0502517000422813, 0.1168772000237368, 0.36719310004264116]",137.89179870003136,138.09197300003143,0.0,138.09197300003143,0,0.0,0,1,1000,num_1,1.1596076000132598,,23,3,2026-03-04_13h26.57.444,2026A_exp2,2022.2.4,60.02779285610003,
1,0,0.0,0.0,0,0,21,21,49,,,,,139.27601269999286,139.92698600003496,139.92698600003496,140.41137320001144,45,315,140.41137320001144,140.41137320001144,140.41137320001144,140.41137320001144,140.41137320001144,140.41137320001144,140.41137320001144,140.41137320001144,140.41137320001144,140.7778651000117,140.7778651000117,140.7778651000117,140.7778651000117,140.7778651000117,140.7778651000117,140.7778651000117,140.7778651000117,140.7778651000117,9,2,"[0.0012524999910965562, 0.21693979995325208]","[0.06648219999624416, 0.36716289998730645]",140.7778651000117,140.99026350001805,0.0,140.99026350001805,1,0.0,0,0,1000,num_4,0.8621641999925487,,23,3,2026-03-04_13h26.57.444,2026A_exp2,2022.2.4,60.02779285610003,
1000,1,0.0,0.0,0,0,22,22,61,,,,,141.87888829997974,142.51297580002574,142.51297580002574,143.01405880000675,45,45,143.01405880000675,143.01405880000675,143.01405880000675,143.01405880000675,143.01405880000675,143.01405880000675,143.01405880000675,143.01405880000675,143.01405880000675,143.3805250999867,143.3805250999867,143.3805250999867,143.3805250999867,143.3805250999867,143.3805250999867,143.3805250999867,143.3805250999867,143.3805250999867,23,0,,,143.3805250999867,143.58257090003463,1000,143.58257090003463,1000,1000,1000,1000,0,num_3,1.189405400014948,,23,3,2026-03-04_13h26.57.444,2026A_exp2,2022.2.4,60.02779285610003,
1,0,6.1,4.9,1,0,23,23,35,,,,,144.79908620001515,145.44928210001672,145.44928210001672,145.95026860001963,45,315,145.95026860001963,145.95026860001963,145.95026860001963,145.95026860001963,145.95026860001963,145.95026860001963,145.95026860001963,145.95026860001963,145.95026860001963,146.31677480001235,146.31677480001235,146.31677480001235,146.31677480001235,146.31677480001235,146.31677480001235,146.31677480001235,146.31677480001235,146.31677480001235,0,1,[0.0012017000117339194],[0.36679519998142496],146.31677480001235,146.51697880000575,4.9,146.51697880000575,0,4.9,1,0,1000,num_1,2.0947030000388622,,23,3,2026-03-04_13h26.57.444,2026A_exp2,2022.2.4,60.02779285610003,
1,0,3.7,4.9,1,0,24,24,39,,,,,148.63564729999052,149.2864178000018,149.2864178000018,149.770881799981,45,315,149.770881799981,149.770881799981,149.770881799981,149.770881799981,149.770881799981,149.770881799981,149.770881799981,149.770881799981,149.770881799981,150.13721610000357,150.13721610000357,150.13721610000357,150.13721610000357,150.13721610000357,150.13721610000357,150.13721610000357,150.13721610000357,150.13721610000357,0,1,[0.001226399966981262],[0.36702039994997904],150.13721610000357,150.33741879998706,4.9,150.33741879998706,1,4.9,1,1,1000,num_4,0.9633296999963932,,23,3,2026-03-04_13h26.57.444,2026A_exp2,2022.2.4,60.02779285610003,
1,0,4.9,0.0,1,0,25,25,6,,,,,151.32192960003158,151.9721675000037,151.9721675000037,152.4734652999905,315,315,152.4734652999905,152.4734652999905,152.4734652999905,152.4734652999905,152.4734652999905,152.4734652999905,152.4734652999905,152.4734652999905,152.4734652999905,152.83997969998745,152.83997969998745,152.83997969998745,152.83997969998745,152.83997969998745,152.83997969998745,152.83997969998745,152.83997969998745,152.83997969998745,8,2,"[0.0012386000016704202, 0.2669935000012629]","[0.15020450000884011, 0.36722469999222085]",152.83997969998745,153.0401955000125,0.0,153.0401955000125,0,0.0,0,1,1000,num_1,1.291568599990569,,23,3,2026-03-04_13h26.57.444,2026A_exp2,2022.2.4,60.02779285610003,
1,0,0.0,0.0,0,0,26,26,59,,,,,154.35800900001777,155.00869829999283,155.00869829999283,155.49330500001088,315,315,155.49330500001088,155.49330500001088,155.49330500001088,155.49330500001088,155.49330500001088,155.49330500001088,155.49330500001088,155.49330500001088,155.49330500001088,155.85952549998183,155.85952549998183,155.85952549998183,155.85952549998183,155.85952549998183,155.85952549998183,155.85952549998183,155.85952549998183,155.85952549998183,23,0,,,155.85952549998183,156.05989219999174,0.0,156.05989219999174,1,0.0,0,0,1000,num_4,0.9767850000062026,,23,3,2026-03-04_13h26.57.444,2026A_exp2,2022.2.4,60.02779285610003,
1,0,0.0,4.9,1,0,27,27,45,,,,,157.06070969998837,157.70447860000422,157.70447860000422,158.19598070002394,315,315,158.19598070002394,158.19598070002394,158.19598070002394,158.19598070002394,158.19598070002394,158.19598070002394,158.19598070002394,158.19598070002394,158.19598070002394,158.56240960001014,158.56240960001014,158.56240960001014,158.56240960001014,158.56240960001014,158.56240960001014,158.56240960001014,158.56240960001014,158.56240960001014,23,0,,,158.56240960001014,158.76263459998881,4.9,158.76263459998881,1,4.9,1,1,1000,num_4,0.6488401999813505,,23,3,2026-03-04_13h26.57.444,2026A_exp2,2022.2.4,60.02779285610003,
1000,1,3.7,0.0,1,0,28,28,55,,,,,159.42971659998875,160.08061970002018,160.08061970002018,160.56520090001868,315,45,160.56520090001868,160.56520090001868,160.56520090001868,160.56520090001868,160.56520090001868,160.56520090001868,160.56520090001868,160.56520090001868,160.56520090001868,160.93130080000265,160.93130080000265,160.93130080000265,160.93130080000265,160.93130080000265,160.93130080000265,160.93130080000265,160.93130080000265,160.93130080000265,23,0,,,160.93130080000265,161.1337636000244,1000,161.1337636000244,1000,1000,1000,1000,0,num_3,1.41409289999865,,23,3,2026-03-04_13h26.57.444,2026A_exp2,2022.2.4,60.02779285610003,
1000,1,0.0,4.9,1,0,29,29,27,,,,,162.5662747999886,163.21708480000962,163.21708480000962,163.71926179999718,315,45,163.71926179999718,163.71926179999718,163.71926179999718,163.71926179999718,163.71926179999718,163.71926179999718,163.71926179999718,163.71926179999718,163.71926179999718,164.0845910999924,164.0845910999924,164.0845910999924,164.0845910999924,164.0845910999924,164.0845910999924,164.0845910999924,164.0845910999924,164.0845910999924,18,3,"[0.01872589997947216, 0.2667338000028394, 0.3500740999588743]","[0.036751799983903766, 0.2834076999570243, 0.36669990001246333]",164.0845910999924,164.28656209999463,1000,164.28656209999463,1000,1000,1000,1000,1,num_2,1.5496466000331566,,23,3,2026-03-04_13h26.57.444,2026A_exp2,2022.2.4,60.02779285610003,
1000,1,4.9,6.1,1,0,30,30,1,,,,,165.8529035000247,166.50365060003242,166.50365060003242,167.00478820002172,315,315,167.00478820002172,167.00478820002172,167.00478820002172,167.00478820002172,167.00478820002172,167.00478820002172,167.00478820002172,167.00478820002172,167.00478820002172,167.37123230000725,167.37123230000725,167.37123230000725,167.37123230000725,167.37123230000725,167.37123230000725,167.37123230000725,167.37123230000725,167.37123230000725,0,1,[0.00120599998626858],[0.3672224000329152],167.37123230000725,167.5737525000004,1000,167.5737525000004,1000,1000,1000,1000,1,num_2,0.7258663999964483,,23,3,2026-03-04_13h26.57.444,2026A_exp2,2022.2.4,60.02779285610003,
1,0,4.9,0.0,0,0,31,31,48,,,,,168.32225110003492,168.97272160003195,168.97272160003195,169.457109400013,315,315,169.457109400013,169.457109400013,169.457109400013,169.457109400013,169.457109400013,169.457109400013,169.457109400013,169.457109400013,169.457109400013,169.82347850000951,169.82347850000951,169.82347850000951,169.82347850000951,169.82347850000951,169.82347850000951,169.82347850000951,169.82347850000951,169.82347850000951,23,0,,,169.82347850000951,170.0238568999921,4.9,170.0238568999921,1,4.9,1,1,1000,num_4,0.8361879999865778,,23,3,2026-03-04_13h26.57.444,2026A_exp2,2022.2.4,60.02779285610003,
1000,1,0.0,0.0,1,0,32,32,7,,,,,170.87705000001006,171.53244109998923,171.53244109998923,172.0264852999826,315,315,172.0264852999826,172.0264852999826,172.0264852999826,172.0264852999826,172.0264852999826,172.0264852999826,172.0264852999826,172.0264852999826,172.0264852999826,172.3928607000271,172.3928607000271,172.3928607000271,172.3928607000271,172.3928607000271,172.3928607000271,172.3928607000271,172.3928607000271,172.3928607000271,3,3,"[0.0007345000049099326, 0.1506389999995008, 0.2174945999868214]","[0.13396320003084838, 0.18401680001989007, 0.3676768000004813]",172.3928607000271,172.59502300003078,1000,172.59502300003078,1000,1000,1000,1000,1,num_2,1.2168113999650814,,23,3,2026-03-04_13h26.57.444,2026A_exp2,2022.2.4,60.02779285610003,
1000,1,0.0,4.9,0,0,33,33,77,,,,,173.82751400000416,174.47935139999026,174.47935139999026,174.97923870000523,315,315,174.97923870000523,174.97923870000523,174.97923870000523,174.97923870000523,174.97923870000523,174.97923870000523,174.97923870000523,174.97923870000523,174.97923870000523,175.3458360999939,175.3458360999939,175.3458360999939,175.3458360999939,175.3458360999939,175.3458360999939,175.3458360999939,175.3458360999939,175.3458360999939,17,2,"[0.0013568999711424112, 0.33334929996635765]","[0.050010899954941124, 0.366927900002338]",175.3458360999939,175.54811059997883,1000,175.54811059997883,1000,1000,1000,1000,1,num_2,0.9129439999815077,,23,3,2026-03-04_13h26.57.444,2026A_exp2,2022.2.4,60.02779285610003,
1000,1,6.1,0.0,0,0,34,34,19,,,,,176.48043140000664,177.13101469998946,177.13101469998946,177.63213990000077,315,315,177.63213990000077,177.63213990000077,177.63213990000077,177.63213990000077,177.63213990000077,177.63213990000077,177.63213990000077,177.63213990000077,177.63213990000077,177.99837039998965,177.99837039998965,177.99837039998965,177.99837039998965,177.99837039998965,177.99837039998965,177.99837039998965,177.99837039998965,177.99837039998965,0,1,[0.0012493000249378383],[0.3671350000076927],177.99837039998965,178.19861120003043,1000,178.19861120003043,1000,1000,1000,1000,0,num_3,0.6373098000185564,,23,3,2026-03-04_13h26.57.444,2026A_exp2,2022.2.4,60.02779285610003,
1,0,0.0,6.1,0,0,35,35,5,,,,,178.86595559999114,179.51660339999944,179.51660339999944,180.01781889999984,315,45,180.01781889999984,180.01781889999984,180.01781889999984,180.01781889999984,180.01781889999984,180.01781889999984,180.01781889999984,180.01781889999984,180.01781889999984,180.3837028000271,180.3837028000271,180.3837028000271,180.3837028000271,180.3837028000271,180.3837028000271,180.3837028000271,180.3837028000271,180.3837028000271,18,1,[0.0012518999865278602],[0.0834548999555409],180.3837028000271,180.58443649997935,0.0,180.58443649997935,0,0.0,0,1,1000,num_1,0.9719585999846458,,23,3,2026-03-04_13h26.57.444,2026A_exp2,2022.2.4,60.02779285610003,
1,0,0.0,0.0,0,0,36,36,9,,,,,181.58519690000685,182.23603969998658,182.23603969998658,182.72038549999706,45,315,182.72038549999706,182.72038549999706,182.72038549999706,182.72038549999706,182.72038549999706,182.72038549999706,182.72038549999706,182.72038549999706,182.72038549999706,183.08687880000798,183.08687880000798,183.08687880000798,183.08687880000798,183.08687880000798,183.08687880000798,183.08687880000798,183.08687880000798,183.08687880000798,0,1,[0.0010540999937802553],[0.3672923999838531],183.08687880000798,183.28708979999647,0.0,183.28708979999647,0,0.0,0,1,1000,num_1,1.4130952999694273,,23,3,2026-03-04_13h26.57.444,2026A_exp2,2022.2.4,60.02779285610003,
1,0,4.9,4.9,1,0,37,37,89,,,,,184.72156269999687,185.37251419998938,185.37251419998938,185.87358690000838,315,45,185.87358690000838,185.87358690000838,185.87358690000838,185.87358690000838,185.87358690000838,185.87358690000838,185.87358690000838,185.87358690000838,185.87358690000838,186.223407100013,186.223407100013,186.223407100013,186.223407100013,186.223407100013,186.223407100013,186.223407100013,186.223407100013,186.223407100013,19,1,[0.31684189999941736],[0.34993570001097396],186.223407100013,186.42357729998184,4.9,186.42357729998184,0,4.9,1,0,1000,num_1,1.0288340999977663,,23,3,2026-03-04_13h26.57.444,2026A_exp2,2022.2.4,60.02779285610003,
1000,1,4.9,0.0,1,0,38,38,25,,,,,187.47443220001878,188.12524770002346,188.12524770002346,188.6096508000046,315,45,188.6096508000046,188.6096508000046,188.6096508000046,188.6096508000046,188.6096508000046,188.6096508000046,188.6096508000046,188.6096508000046,188.6096508000046,188.97597109997878,188.97597109997878,188.97597109997878,188.97597109997878,188.97597109997878,188.97597109997878,188.97597109997878,188.97597109997878,188.97597109997878,23,0,,,188.97597109997878,189.18064779997803,1000,189.18064779997803,1000,1000,1000,1000,0,num_3,0.7351412000134587,,23,3,2026-03-04_13h26.57.444,2026A_exp2,2022.2.4,60.02779285610003,
1,0,0.0,0.0,1,0,39,39,43,,,,,189.94371479999973,190.5942068999866,190.5942068999866,191.09557050000876,315,45,191.09557050000876,191.09557050000876,191.09557050000876,191.09557050000876,191.09557050000876,191.09557050000876,191.09557050000876,191.09557050000876,191.09557050000876,191.4452806999907,191.4452806999907,191.4452806999907,191.4452806999907,191.4452806999907,191.4452806999907,191.4452806999907,191.4452806999907,191.4452806999907,21,1,[0.11701470002299175],[0.13341950002359226],191.4452806999907,191.645444600028,0.0,191.645444600028,0,0.0,0,1,1000,num_1,1.6387037999811582,,23,3,2026-03-04_13h26.57.444,2026A_exp2,2022.2.4,60.02779285610003,
1000,1,6.1,4.9,1,0,40,40,16,,,,,193.31366719998186,193.96450499998173,193.96450499998173,194.4489753000089,45,315,194.4489753000089,194.4489753000089,194.4489753000089,194.4489753000089,194.4489753000089,194.4489753000089,194.4489753000089,194.4489753000089,194.4489753000089,194.8155698000337,194.8155698000337,194.8155698000337,194.8155698000337,194.8155698000337,194.8155698000337,194.8155698000337,194.8155698000337,194.8155698000337,0,1,[0.0012195000308565795],[0.36655030003748834],194.8155698000337,195.017620300001,1000,195.017620300001,1000,1000,1000,1000,1,num_2,0.8263052999973297,,23,3,2026-03-04_13h26.57.444,2026A_exp2,2022.2.4,60.02779285610003,
1000,1,4.9,3.7,1,0,41,41,32,,,,,195.8662617999944,196.51697950001108,196.51697950001108,197.01816149998922,315,315,197.01816149998922,197.01816149998922,197.01816149998922,197.01816149998922,197.01816149998922,197.01816149998922,197.01816149998922,197.01816149998922,197.01816149998922,197.3845118000172,197.3845118000172,197.3845118000172,197.3845118000172,197.3845118000172,197.3845118000172,197.3845118000172,197.3845118000172,197.3845118000172,0,1,[0.0007886000094003975],[0.3680410999804735],197.3845118000172,197.58643510000547,1000,197.58643510000547,1000,1000,1000,1000,0,num_3,0.826430499961134,,23,3,2026-03-04_13h26.57.444,2026A_exp2,2022.2.4,60.02779285610003,
1,0,0.0,0.0,1,0,42,42,18,,,,,198.43546599999536,199.08617080003023,199.08617080003023,199.5879949000082,315,315,199.5879949000082,199.5879949000082,199.5879949000082,199.5879949000082,199.5879949000082,199.5879949000082,199.5879949000082,199.5879949000082,199.5879949000082,199.9374568000203,199.9374568000203,199.9374568000203,199.9374568000203,199.9374568000203,199.9374568000203,199.9374568000203,199.9374568000203,199.9374568000203,0,1,[0.0008417000062763691],[0.3510520000127144],199.9374568000203,200.13806159998057,0.0,200.13806159998057,0,0.0,0,1,1000,num_1,0.8655583999934606,,23,3,2026-03-04_13h26.57.444,2026A_exp2,2022.2.4,60.02779285610003,
1000,1,6.1,0.0,1,0,43,43,60,,,,,201.02362079999875,201.67169739998644,201.67169739998644,202.17283789999783,315,45,202.17283789999783,202.17283789999783,202.17283789999783,202.17283789999783,202.17283789999783,202.17283789999783,202.17283789999783,202.17283789999783,202.17283789999783,202.53936059999978,202.53936059999978,202.53936059999978,202.53936059999978,202.53936059999978,202.53936059999978,202.53936059999978,202.53936059999978,202.53936059999978,8,4,"[0.0007125999545678496, 0.06722969998372719, 0.11731760000111535, 0.21755279996432364]","[0.0516459999489598, 0.1005453999969177, 0.20060709997778758, 0.3007676999550313]",202.53936059999978,202.73966070002643,1000,202.73966070002643,1000,1000,1000,1000,1,num_2,0.800641399982851,,23,3,2026-03-04_13h26.57.444,2026A_exp2,2022.2.4,60.02779285610003,
0,0,3.7,4.9,1,0,44,44,3,,,,,203.5572052000207,204.2084090000135,204.2084090000135,204.69246120000025,315,315,204.69246120000025,204.69246120000025,204.69246120000025,204.69246120000025,204.69246120000025,204.69246120000025,204.69246120000025,204.69246120000025,204.69246120000025,205.0587865000125,205.0587865000125,205.0587865000125,205.0587865000125,205.0587865000125,205.0587865000125,205.0587865000125,205.0587865000125,205.0587865000125,23,0,,,205.0587865000125,205.25898129999405,3.7,205.25898129999405,1,3.7,1,1,1000,num_4,2.032967399980407,,23,3,2026-03-04_13h26.57.444,2026A_exp2,2022.2.4,60.02779285610003,
1,0,0.0,3.7,1,0,45,45,57,,,,,207.31089040002553,207.96170210000128,207.96170210000128,208.44622689997777,315,315,208.44622689997777,208.44622689997777,208.44622689997777,208.44622689997777,208.44622689997777,208.44622689997777,208.44622689997777,208.44622689997777,208.44622689997777,208.8124721000204,208.8124721000204,208.8124721000204,208.8124721000204,208.8124721000204,208.8124721000204,208.8124721000204,208.8124721000204,208.8124721000204,11,4,"[0.06678210000973195, 0.21714279998559505, 0.26707609998993576, 0.31728099996689707]","[0.18381730001419783, 0.23379959998419508, 0.3006018999731168, 0.3506624000146985]",208.8124721000204,209.0127124999999,3.7,209.0127124999999,0,3.7,1,0,1000,num_1,1.1039457999868318,,23,3,2026-03-04_13h26.57.444,2026A_exp2,2022.2.4,60.02779285610003,
1000,1,4.9,4.9,0,0,46,46,42,,,,,210.1313061999972,210.78117560001556,210.78117560001556,211.28232300002128,315,315,211.28232300002128,211.28232300002128,211.28232300002128,211.28232300002128,211.28232300002128,211.28232300002128,211.28232300002128,211.28232300002128,211.28232300002128,211.6487304000184,211.6487304000184,211.6487304000184,211.6487304000184,211.6487304000184,211.6487304000184,211.6487304000184,211.6487304000184,211.6487304000184,3,1,[0.0012138999882154167],[0.3336997000151314],211.6487304000184,211.8512863999931,1000,211.8512863999931,1000,1000,1000,1000,0,num_3,0.9210524000227451,,23,3,2026-03-04_13h26.57.444,2026A_exp2,2022.2.4,60.02779285610003,
0,0,3.7,0.0,1,0,47,47,83,,,,,212.79988100001356,213.45064310001908,213.45064310001908,213.95157899998594,45,45,213.95157899998594,213.95157899998594,213.95157899998594,213.95157899998594,213.95157899998594,213.95157899998594,213.95157899998594,213.95157899998594,213.95157899998594,214.31817889999365,214.31817889999365,214.31817889999365,214.31817889999365,214.31817889999365,214.31817889999365,214.31817889999365,214.31817889999365,214.31817889999365,1,2,"[0.0012026000185869634, 0.10049450001679361]","[0.08371930004796013, 0.3672846000408754]",214.31817889999365,214.51838309998857,3.7,214.51838309998857,1,3.7,1,1,1000,num_4,1.997170599992387,,23,3,2026-03-04_13h26.57.444,2026A_exp2,2022.2.4,60.02779285610003,
1000,1,0.0,4.9,0,0,48,48,11,,,,,216.53686659998493,217.18767600000137,217.18767600000137,217.67213979997905,315,45,217.67213979997905,217.67213979997905,217.67213979997905,217.67213979997905,217.67213979997905,217.67213979997905,217.67213979997905,217.67213979997905,217.67213979997905,218.0385445000138,218.0385445000138,218.0385445000138,218.0385445000138,218.0385445000138,218.0385445000138,218.0385445000138,218.0385445000138,218.0385445000138,8,1,[0.0012045000330545008],[0.2504952000454068],218.0385445000138,218.24088370002573,1000,218.24088370002573,1000,1000,1000,1000,1,num_2,0.6025127999600954,,23,3,2026-03-04_13h26.57.444,2026A_exp2,2022.2.4,60.02779285610003,
1,0,0.0,0.0,1,0,49,49,41,,,,,218.87262059998466,219.52330739999888,219.52330739999888,220.0244754999876,45,45,220.0244754999876,220.0244754999876,220.0244754999876,220.0244754999876,220.0244754999876,220.0244754999876,220.0244754999876,220.0244754999876,220.0244754999876,220.3740779000218,220.3740779000218,220.3740779000218,220.3740779000218,220.3740779000218,220.3740779000218,220.3740779000218,220.3740779000218,220.3740779000218,0,1,[0.0012005000025965273],[0.3505717000225559],220.3740779000218,220.57432790001621,0.0,220.57432790001621,0,0.0,0,1,1000,num_1,2.3495207999949344,,23,3,2026-03-04_13h26.57.444,2026A_exp2,2022.2.4,60.02779285610003,
1,0,0.0,0.0,0,0,50,50,64,,,,,222.94331370003056,223.5941024000058,223.5941024000058,224.0785082000075,315,45,224.0785082000075,224.0785082000075,224.0785082000075,224.0785082000075,224.0785082000075,224.0785082000075,224.0785082000075,224.0785082000075,224.0785082000075,224.44493250001688,224.44493250001688,224.44493250001688,224.44493250001688,224.44493250001688,224.44493250001688,224.44493250001688,224.44493250001688,224.44493250001688,23,0,,,224.44493250001688,224.64507159998175,0.0,224.64507159998175,0,0.0,0,1,1000,num_1,2.7507075000321493,,23,3,2026-03-04_13h26.57.444,2026A_exp2,2022.2.4,60.02779285610003,
1,0,6.1,3.7,0,0,51,51,26,,,,,227.41442640003515,228.06526619999204,228.06526619999204,228.54961119999643,45,45,228.54961119999643,228.54961119999643,228.54961119999643,228.54961119999643,228.54961119999643,228.54961119999643,228.54961119999643,228.54961119999643,228.54961119999643,228.91602499998407,228.91602499998407,228.91602499998407,228.91602499998407,228.91602499998407,228.91602499998407,228.91602499998407,228.91602499998407,228.91602499998407,0,1,[0.001292700006160885],[0.36725109996041283],228.91602499998407,229.11629770003492,6.1,229.11629770003492,1,6.1,1,1,1000,num_4,1.1593216999899596,,23,3,2026-03-04_13h26.57.444,2026A_exp2,2022.2.4,60.02779285610003,
1,0,0.0,0.0,1,0,52,52,66,,,,,230.30063599999994,230.95142970001325,230.95142970001325,231.4356889000046,315,315,231.4356889000046,231.4356889000046,231.4356889000046,231.4356889000046,231.4356889000046,231.4356889000046,231.4356889000046,231.4356889000046,231.4356889000046,231.80212469998514,231.80212469998514,231.80212469998514,231.80212469998514,231.80212469998514,231.80212469998514,231.80212469998514,231.80212469998514,231.80212469998514,22,1,[0.30032939999364316],[0.31699229998048395],231.80212469998514,232.00233819999266,0.0,232.00233819999266,1,0.0,0,0,1000,num_4,0.8732608999707736,,23,3,2026-03-04_13h26.57.444,2026A_exp2,2022.2.4,60.02779285610003,
1,0,4.9,4.9,0,0,53,53,63,,,,,232.90314800001215,233.5541521999985,233.5541521999985,234.03848869999638,315,315,234.03848869999638,234.03848869999638,234.03848869999638,234.03848869999638,234.03848869999638,234.03848869999638,234.03848869999638,234.03848869999638,234.03848869999638,234.40469689999009,234.40469689999009,234.40469689999009,234.40469689999009,234.40469689999009,234.40469689999009,234.40469689999009,234.40469689999009,234.40469689999009,23,0,,,234.40469689999009,234.60515660000965,4.9,234.60515660000965,1,4.9,1,1,1000,num_4,1.3431678999913856,,23,3,2026-03-04_13h26.57.444,2026A_exp2,2022.2.4,60.02779285610003,
1000,1,3.7,6.1,0,0,54,54,28,,,,,235.9730182000203,236.62363230000483,236.62363230000483,237.12494240002707,45,45,237.12494240002707,237.12494240002707,237.12494240002707,237.12494240002707,237.12494240002707,237.12494240002707,237.12494240002707,237.12494240002707,237.12494240002707,237.49134499998763,237.49134499998763,237.49134499998763,237.49134499998763,237.49134499998763,237.49134499998763,237.49134499998763,237.49134499998763,237.49134499998763,23,0,,,237.49134499998763,237.69366719998652,1000,237.69366719998652,1000,1000,1000,1000,1,num_2,1.8620132999494672,,23,3,2026-03-04_13h26.57.444,2026A_exp2,2022.2.4,60.02779285610003,
1000,1,0.0,0.0,0,0,55,55,20,,,,,239.57659920002334,240.22728789999383,240.22728789999383,240.72844279999845,45,315,240.72844279999845,240.72844279999845,240.72844279999845,240.72844279999845,240.72844279999845,240.72844279999845,240.72844279999845,240.72844279999845,240.72844279999845,241.09494650003035,241.09494650003035,241.09494650003035,241.09494650003035,241.09494650003035,241.09494650003035,241.09494650003035,241.09494650003035,241.09494650003035,0,1,[0.0012259000213816762],[0.36713690002216026],241.09494650003035,241.29705589998048,1000,241.29705589998048,1000,1000,1000,1000,1,num_2,0.8831499999505468,,23,3,2026-03-04_13h26.57.444,2026A_exp2,2022.2.4,60.02779285610003,
1,0,0.0,0.0,1,0,56,56,37,,,,,242.19591369997943,242.8465885000187,242.8465885000187,243.3477930999943,45,315,243.3477930999943,243.3477930999943,243.3477930999943,243.3477930999943,243.3477930999943,243.3477930999943,243.3477930999943,243.3477930999943,243.3477930999943,243.71382419997826,243.71382419997826,243.71382419997826,243.71382419997826,243.71382419997826,243.71382419997826,243.71382419997826,243.71382419997826,243.71382419997826,22,1,[0.06682499998714775],[0.08351399999810383],243.71382419997826,243.91438790003303,0.0,243.91438790003303,1,0.0,0,0,1000,num_4,1.2977930000051856,,23,3,2026-03-04_13h26.57.444,2026A_exp2,2022.2.4,60.02779285610003,
1000,1,6.1,3.7,1,0,57,57,24,,,,,245.23219080001581,245.8829274000018,245.8829274000018,246.36751080001704,45,315,246.36751080001704,246.36751080001704,246.36751080001704,246.36751080001704,246.36751080001704,246.36751080001704,246.36751080001704,246.36751080001704,246.36751080001704,246.73379720002413,246.73379720002413,246.73379720002413,246.73379720002413,246.73379720002413,246.73379720002413,246.73379720002413,246.73379720002413,246.73379720002413,23,0,,,246.73379720002413,246.9683526000008,1000,246.9683526000008,1000,1000,1000,1000,0,num_3,0.5634782999986783,,23,3,2026-03-04_13h26.57.444,2026A_exp2,2022.2.4,60.02779285610003,
1,0,0.0,3.7,0,0,58,58,78,,,,,247.55151100002695,248.2019847999909,248.2019847999909,248.70314040000085,45,45,248.70314040000085,248.70314040000085,248.70314040000085,248.70314040000085,248.70314040000085,248.70314040000085,248.70314040000085,248.70314040000085,248.70314040000085,249.06951090000803,249.06951090000803,249.06951090000803,249.06951090000803,249.06951090000803,249.06951090000803,249.06951090000803,249.06951090000803,249.06951090000803,23,0,,,249.06951090000803,249.26980120001826,0.0,249.26980120001826,1,0.0,0,0,1000,num_4,0.7258100000326522,,23,3,2026-03-04_13h26.57.444,2026A_exp2,2022.2.4,60.02779285610003,
1,0,0.0,6.1,0,0,59,59,68,,,,,250.02031839999836,250.67104200000176,250.67104200000176,251.1554811000242,315,315,251.1554811000242,251.1554811000242,251.1554811000242,251.1554811000242,251.1554811000242,251.1554811000242,251.1554811000242,251.1554811000242,251.1554811000242,251.52197200001683,251.52197200001683,251.52197200001683,251.52197200001683,251.52197200001683,251.52197200001683,251.52197200001683,251.52197200001683,251.52197200001683,5,3,"[0.001208100002259016, 0.13365390000399202, 0.16711059998488054]","[0.1170892000081949, 0.1503361000213772, 0.33384279999881983]",251.52197200001683,251.72206489997916,0.0,251.72206489997916,0,0.0,0,1,1000,num_1,2.162188599992078,,23,3,2026-03-04_13h26.57.444,2026A_exp2,2022.2.4,60.02779285610003,
1000,1,6.1,3.7,1,0,60,60,0,,,,,253.90758769999957,254.55841430003056,254.55841430003056,255.0429293999914,315,45,255.0429293999914,255.0429293999914,255.0429293999914,255.0429293999914,255.0429293999914,255.0429293999914,255.0429293999914,255.0429293999914,255.0429293999914,255.40908120002132,255.40908120002132,255.40908120002132,255.40908120002132,255.40908120002132,255.40908120002132,255.40908120002132,255.40908120002132,255.40908120002132,14,1,[0.11747800000011921],[0.2674523000023328],255.40908120002132,255.61107270000502,1000,255.61107270000502,1000,1000,1000,1000,0,num_3,1.9207884999923408,,23,3,2026-03-04_13h26.57.444,2026A_exp2,2022.2.4,60.02779285610003,
1,0,4.9,6.1,0,0,61,61,15,,,,,257.5612831999897,258.21191589999944,258.21191589999944,258.71310260001337,45,315,258.71310260001337,258.71310260001337,258.71310260001337,258.71310260001337,258.71310260001337,258.71310260001337,258.71310260001337,258.71310260001337,258.71310260001337,259.07955199998105,259.07955199998105,259.07955199998105,259.07955199998105,259.07955199998105,259.07955199998105,259.07955199998105,259.07955199998105,259.07955199998105,15,1,[0.25000669999280944],[0.36674910003785044],259.07955199998105,259.2797013000236,4.9,259.2797013000236,0,4.9,1,0,1000,num_1,1.3405526999849826,,23,3,2026-03-04_13h26.57.444,2026A_exp2,2022.2.4,60.02779285610003,
1000,1,0.0,3.7,1,0,62,62,80,,,,,260.6476943999878,261.298403599998,261.298403599998,261.78270370000973,45,315,261.78270370000973,261.78270370000973,261.78270370000973,261.78270370000973,261.78270370000973,261.78270370000973,261.78270370000973,261.78270370000973,261.78270370000973,262.14938020001864,262.14938020001864,262.14938020001864,262.14938020001864,262.14938020001864,262.14938020001864,262.14938020001864,262.14938020001864,262.14938020001864,12,2,"[0.166972299979534, 0.28341139998519793]","[0.25027429999317974, 0.3669545999728143]",262.14938020001864,262.3510821000091,1000,262.3510821000091,1000,1000,1000,1000,0,num_3,0.9808463999652304,,23,3,2026-03-04_13h26.57.444,2026A_exp2,2022.2.4,60.02779285610003,
1000,1,0.0,0.0,0,0,63,63,75,,,,,263.3503247000044,264.0010526999831,264.0010526999831,264.5023836999899,315,315,264.5023836999899,264.5023836999899,264.5023836999899,264.5023836999899,264.5023836999899,264.5023836999899,264.5023836999899,264.5023836999899,264.5023836999899,264.86871359997895,264.86871359997895,264.86871359997895,264.86871359997895,264.86871359997895,264.86871359997895,264.86871359997895,264.86871359997895,264.86871359997895,2,1,[0.017626000044401735],[0.3673964000190608],264.86871359997895,265.07104609999806,1000,265.07104609999806,1000,1000,1000,1000,1,num_2,0.6927469000220299,,23,3,2026-03-04_13h26.57.444,2026A_exp2,2022.2.4,60.02779285610003,
1000,1,6.1,4.9,1,0,64,64,53,,,,,265.7863982000272,266.4369880000013,266.4369880000013,266.937968800019,45,315,266.937968800019,266.937968800019,266.937968800019,266.937968800019,266.937968800019,266.937968800019,266.937968800019,266.937968800019,266.937968800019,267.30456680001225,267.30456680001225,267.30456680001225,267.30456680001225,267.30456680001225,267.30456680001225,267.30456680001225,267.30456680001225,267.30456680001225,23,0,,,267.30456680001225,267.5312120000017,1000,267.5312120000017,1000,1000,1000,1000,0,num_3,0.44063000002643093,,23,3,2026-03-04_13h26.57.444,2026A_exp2,2022.2.4,60.02779285610003,
0,0,4.9,0.0,0,0,65,65,30,,,,,267.9883583000046,268.63900450000074,268.63900450000074,269.14024690003134,315,45,269.14024690003134,269.14024690003134,269.14024690003134,269.14024690003134,269.14024690003134,269.14024690003134,269.14024690003134,269.14024690003134,269.14024690003134,269.5067099999869,269.5067099999869,269.5067099999869,269.5067099999869,269.5067099999869,269.5067099999869,269.5067099999869,269.5067099999869,269.5067099999869,0,1,[0.0012388000031933188],[0.3670566000510007],269.5067099999869,269.7192090000026,0.0,269.7192090000026,0,0.0,0,1,1000,num_1,1.556447799957823,,23,3,2026-03-04_13h26.57.444,2026A_exp2,2022.2.4,60.02779285610003,
1000,1,0.0,0.0,1,0,66,66,47,,,,,271.2916527999914,271.9523653999786,271.9523653999786,272.43168909999076,45,45,272.43168909999076,272.43168909999076,272.43168909999076,272.43168909999076,272.43168909999076,272.43168909999076,272.43168909999076,272.43168909999076,272.43168909999076,272.7932901000022,272.7932901000022,272.7932901000022,272.7932901000022,272.7932901000022,272.7932901000022,272.7932901000022,272.7932901000022,272.7932901000022,0,1,[0.002565300033893436],[0.365923700039275],272.7932901000022,272.9973306999891,1000,272.9973306999891,1000,1000,1000,1000,0,num_3,0.8626363999792375,,23,3,2026-03-04_13h26.57.444,2026A_exp2,2022.2.4,60.02779285610003,
1000,1,0.0,0.0,0,0,67,67,69,,,,,273.87753180001164,274.52826570003526,274.52826570003526,275.0295050999848,315,45,275.0295050999848,275.0295050999848,275.0295050999848,275.0295050999848,275.0295050999848,275.0295050999848,275.0295050999848,275.0295050999848,275.0295050999848,275.39588219998404,275.39588219998404,275.39588219998404,275.39588219998404,275.39588219998404,275.39588219998404,275.39588219998404,275.39588219998404,275.39588219998404,0,1,[0.0012258999631740153],[0.3671699999831617],275.39588219998404,275.60134629998356,1000,275.60134629998356,1000,1000,1000,1000,1,num_2,0.4826982999802567,,23,3,2026-03-04_13h26.57.444,2026A_exp2,2022.2.4,60.02779285610003,
1000,1,0.0,6.1,0,0,68,68,34,,,,,276.113165399991,276.7638205999974,276.7638205999974,277.2649344999809,315,45,277.2649344999809,277.2649344999809,277.2649344999809,277.2649344999809,277.2649344999809,277.2649344999809,277.2649344999809,277.2649344999809,277.2649344999809,277.6314764000126,277.6314764000126,277.6314764000126,277.6314764000126,277.6314764000126,277.6314764000126,277.6314764000126,277.6314764000126,277.6314764000126,0,1,[0.0013768000062555075],[0.3669490000465885],277.6314764000126,277.83350200002315,1000,277.83350200002315,1000,1000,1000,1000,1,num_2,0.6753681999980472,,23,3,2026-03-04_13h26.57.444,2026A_exp2,2022.2.4,60.02779285610003,
1,0,0.0,0.0,1,0,69,69,73,,,,,278.53226150001865,279.1828752000001,279.1828752000001,279.6840770000126,315,45,279.6840770000126,279.6840770000126,279.6840770000126,279.6840770000126,279.6840770000126,279.6840770000126,279.6840770000126,279.6840770000126,279.6840770000126,280.0505456000101,280.0505456000101,280.0505456000101,280.0505456000101,280.0505456000101,280.0505456000101,280.0505456000101,280.0505456000101,280.0505456000101,16,2,"[0.0008333000005222857, 0.1173304000403732]","[0.01753780001308769, 0.2174358000047505]",280.0505456000101,280.250747699989,0.0,280.250747699989,1,0.0,0,0,1000,num_4,0.7376530999899842,,23,3,2026-03-04_13h26.57.444,2026A_exp2,2022.2.4,60.02779285610003,
0,0,0.0,0.0,1,0,70,70,8,,,,,281.0181074999855,281.6688205000246,281.6688205000246,282.1531037000241,45,45,282.1531037000241,282.1531037000241,282.1531037000241,282.1531037000241,282.1531037000241,282.1531037000241,282.1531037000241,282.1531037000241,282.1531037000241,282.5195582000306,282.5195582000306,282.5195582000306,282.5195582000306,282.5195582000306,282.5195582000306,282.5195582000306,282.5195582000306,282.5195582000306,11,3,"[0.001520399993751198, 0.19996270001865923, 0.26670760003617033]","[0.16657060000579804, 0.21636910003144294, 0.2829733000253327]",282.5195582000306,282.7199041999993,0.0,282.7199041999993,0,0.0,0,1,1000,num_1,1.2282520000007935,,23,3,2026-03-04_13h26.57.444,2026A_exp2,2022.2.4,60.02779285610003,
1,0,0.0,4.9,0,0,71,71,17,,,,,283.97096399997827,284.6217846000218,284.6217846000218,285.1061947999988,315,45,285.1061947999988,285.1061947999988,285.1061947999988,285.1061947999988,285.1061947999988,285.1061947999988,285.1061947999988,285.1061947999988,285.1061947999988,285.47261699999217,285.47261699999217,285.47261699999217,285.47261699999217,285.47261699999217,285.47261699999217,285.47261699999217,285.47261699999217,285.47261699999217,18,1,[0.30054119997657835],[0.3672692999825813],285.47261699999217,285.67277840001043,0.0,285.67277840001043,0,0.0,0,1,1000,num_1,1.130716299987398,,23,3,2026-03-04_13h26.57.444,2026A_exp2,2022.2.4,60.02779285610003,
1000,1,4.9,0.0,1,0,72,72,72,,,,,286.82382510002935,287.4746453000116,287.4746453000116,287.9593397999997,45,315,287.9593397999997,287.9593397999997,287.9593397999997,287.9593397999997,287.9593397999997,287.9593397999997,287.9593397999997,287.9593397999997,287.9593397999997,288.3254644999979,288.3254644999979,288.3254644999979,288.3254644999979,288.3254644999979,288.3254644999979,288.3254644999979,288.3254644999979,288.3254644999979,1,2,"[0.0007949999999254942, 0.3177299999515526]","[0.30133539997041225, 0.3680822000023909]",288.3254644999979,288.5273046999937,1000,288.5273046999937,1000,1000,1000,1000,1,num_2,1.924358599993866,,23,3,2026-03-04_13h26.57.444,2026A_exp2,2022.2.4,60.02779285610003,
1,0,4.9,6.1,1,0,73,73,86,,,,,290.47774290002417,291.1282457000343,291.1282457000343,291.6127151999972,315,315,291.6127151999972,291.6127151999972,291.6127151999972,291.6127151999972,291.6127151999972,291.6127151999972,291.6127151999972,291.6127151999972,291.6127151999972,291.9791337000206,291.9791337000206,291.9791337000206,291.9791337000206,291.9791337000206,291.9791337000206,291.9791337000206,291.9791337000206,291.9791337000206,23,0,,,291.9791337000206,292.1794017999782,6.1,292.1794017999782,1,6.1,1,1,1000,num_4,0.6644553000223823,,23,3,2026-03-04_13h26.57.444,2026A_exp2,2022.2.4,60.02779285610003,
1000,1,0.0,0.0,1,0,74,74,23,,,,,292.86321199999657,293.51400399999693,293.51400399999693,293.9983739000163,315,315,293.9983739000163,293.9983739000163,293.9983739000163,293.9983739000163,293.9983739000163,293.9983739000163,293.9983739000163,293.9983739000163,293.9983739000163,294.3649369000341,294.3649369000341,294.3649369000341,294.3649369000341,294.3649369000341,294.3649369000341,294.3649369000341,294.3649369000341,294.3649369000341,23,0,,,294.3649369000341,294.5672637000098,1000,294.5672637000098,1000,1000,1000,1000,1,num_2,0.6682167999679223,,23,3,2026-03-04_13h26.57.444,2026A_exp2,2022.2.4,60.02779285610003,
0,0,0.0,0.0,1,0,75,75,62,,,,,295.2656035000109,295.9163442000281,295.9163442000281,296.4333968000137,45,315,296.4333968000137,296.4333968000137,296.4333968000137,296.4333968000137,296.4333968000137,296.4333968000137,296.4333968000137,296.4333968000137,296.4333968000137,296.7838630999904,296.7838630999904,296.7838630999904,296.7838630999904,296.7838630999904,296.7838630999904,296.7838630999904,296.7838630999904,296.7838630999904,23,0,,,296.7838630999904,296.98419920000015,0.0,296.98419920000015,0,0.0,0,1,1000,num_1,1.2282089999644086,,23,3,2026-03-04_13h26.57.444,2026A_exp2,2022.2.4,60.02779285610003,
1,0,0.0,3.7,0,0,76,76,12,,,,,298.23530220001703,298.8858746000333,298.8858746000333,299.37880080001196,315,45,299.37880080001196,299.37880080001196,299.37880080001196,299.37880080001196,299.37880080001196,299.37880080001196,299.37880080001196,299.37880080001196,299.37880080001196,299.7368822999997,299.7368822999997,299.7368822999997,299.7368822999997,299.7368822999997,299.7368822999997,299.7368822999997,299.7368822999997,299.7368822999997,10,1,[0.16556749999290332],[0.36551169998710975],299.7368822999997,299.93709650001256,0.0,299.93709650001256,0,0.0,0,1,1000,num_1,0.8589240000001155,,23,3,2026-03-04_13h26.57.444,2026A_exp2,2022.2.4,60.02779285610003,
1000,1,4.9,3.7,1,0,77,77,67,,,,,300.821343299991,301.4552119,301.4552119,301.9564667000086,45,315,301.9564667000086,301.9564667000086,301.9564667000086,301.9564667000086,301.9564667000086,301.9564667000086,301.9564667000086,301.9564667000086,301.9564667000086,302.3229698999785,302.3229698999785,302.3229698999785,302.3229698999785,302.3229698999785,302.3229698999785,302.3229698999785,302.3229698999785,302.3229698999785,11,2,"[0.0014213999966159463, 0.20024119998561218]","[0.017535399994812906, 0.36662789998808876]",302.3229698999785,302.5269580000313,1000,302.5269580000313,1000,1000,1000,1000,0,num_3,1.1571668999968097,,23,3,2026-03-04_13h26.57.444,2026A_exp2,2022.2.4,60.02779285610003,
1,0,4.9,0.0,1,0,78,78,82,,,,,303.7075233000214,304.3582307000179,304.3582307000179,304.8581994000124,315,45,304.8581994000124,304.8581994000124,304.8581994000124,304.8581994000124,304.8581994000124,304.8581994000124,304.8581994000124,304.8581994000124,304.8581994000124,305.20908260002034,305.20908260002034,305.20908260002034,305.20908260002034,305.20908260002034,305.20908260002034,305.20908260002034,305.20908260002034,305.20908260002034,0,1,[0.0041411000420339406],[0.3652826000470668],305.20908260002034,305.4114247999969,0.0,305.42588440002874,0,0.0,0,1,1000,num_1,1.586256799986586,,23,3,2026-03-04_13h26.57.444,2026A_exp2,2022.2.4,60.02779285610003,
1000,1,4.9,0.0,0,0,79,79,36,,,,,307.04422680003336,307.6948388000019,307.6948388000019,308.17915670003276,315,45,308.17915670003276,308.17915670003276,308.17915670003276,308.17915670003276,308.17915670003276,308.17915670003276,308.17915670003276,308.17915670003276,308.17915670003276,308.5457702000276,308.5457702000276,308.5457702000276,308.5457702000276,308.5457702000276,308.5457702000276,308.5457702000276,308.5457702000276,308.5457702000276,23,0,,,308.5457702000276,308.76612859999295,1000,308.76612859999295,1000,1000,1000,1000,1,num_2,1.342847799998708,,23,3,2026-03-04_13h26.57.444,2026A_exp2,2022.2.4,60.02779285610003,
1000,1,3.7,3.7,1,0,80,80,40,,,,,310.13046499999473,310.78114400000777,310.78114400000777,311.282401799981,315,315,311.282401799981,311.282401799981,311.282401799981,311.282401799981,311.282401799981,311.282401799981,311.282401799981,311.282401799981,311.282401799981,311.6487580999965,311.6487580999965,311.6487580999965,311.6487580999965,311.6487580999965,311.6487580999965,311.6487580999965,311.6487580999965,311.6487580999965,17,1,[0.0012392000062391162],[0.10021959996083751],311.6487580999965,311.8510841000243,1000,311.8510841000243,1000,1000,1000,1000,0,num_3,0.6329136999556795,,23,3,2026-03-04_13h26.57.444,2026A_exp2,2022.2.4,60.02779285610003,
0,0,0.0,4.9,0,0,81,81,54,,,,,312.4995704999892,313.1503120000125,313.1503120000125,313.65139130002353,45,45,313.65139130002353,313.65139130002353,313.65139130002353,313.65139130002353,313.65139130002353,313.65139130002353,313.65139130002353,313.65139130002353,313.65139130002353,314.01783670001896,314.01783670001896,314.01783670001896,314.01783670001896,314.01783670001896,314.01783670001896,314.01783670001896,314.01783670001896,314.01783670001896,0,1,[0.0012162000057287514],[0.36709489999338984],314.01783670001896,314.2180590000353,4.9,314.2180590000353,0,4.9,1,0,1000,num_1,1.9941279999911785,,23,3,2026-03-04_13h26.57.444,2026A_exp2,2022.2.4,60.02779285610003,
1,0,0.0,0.0,0,0,82,82,81,,,,,316.23648920003325,316.8870751000359,316.8870751000359,317.3717118999921,45,315,317.3717118999921,317.3717118999921,317.3717118999921,317.3717118999921,317.3717118999921,317.3717118999921,317.3717118999921,317.3717118999921,317.3717118999921,317.73804929998005,317.73804929998005,317.73804929998005,317.73804929998005,317.73804929998005,317.73804929998005,317.73804929998005,317.73804929998005,317.73804929998005,23,0,,,317.73804929998005,317.93844579998404,0.0,317.93844579998404,0,0.0,0,1,1000,num_1,1.58555780001916,,23,3,2026-03-04_13h26.57.444,2026A_exp2,2022.2.4,60.02779285610003,
1000,1,6.1,3.7,0,0,83,83,87,,,,,319.53988900000695,320.19059110002127,320.19059110002127,320.67511960002594,315,315,320.67511960002594,320.67511960002594,320.67511960002594,320.67511960002594,320.67511960002594,320.67511960002594,320.67511960002594,320.67511960002594,320.67511960002594,321.04113420000067,321.04113420000067,321.04113420000067,321.04113420000067,321.04113420000067,321.04113420000067,321.04113420000067,321.04113420000067,321.04113420000067,23,0,,,321.04113420000067,321.2431406999822,1000,321.2431406999822,1000,1000,1000,1000,0,num_3,0.7614147000131197,,23,3,2026-03-04_13h26.57.444,2026A_exp2,2022.2.4,60.02779285610003,
0,0,0.0,6.1,1,0,84,84,76,,,,,322.0258724000305,322.6765376999974,322.6765376999974,323.177717100014,315,45,323.177717100014,323.177717100014,323.177717100014,323.177717100014,323.177717100014,323.177717100014,323.177717100014,323.177717100014,323.177717100014,323.5440289999824,323.5440289999824,323.5440289999824,323.5440289999824,323.5440289999824,323.5440289999824,323.5440289999824,323.5440289999824,323.5440289999824,23,0,,,323.5440289999824,323.74416040000506,0.0,323.74416040000506,0,0.0,0,1,1000,num_1,2.595807400008198,,23,3,2026-03-04_13h26.57.444,2026A_exp2,2022.2.4,60.02779285610003,
1000,1,0.0,3.7,0,0,85,85,52,,,,,326.3635972000193,327.0141293000197,327.0141293000197,327.5144884000183,315,45,327.5144884000183,327.5144884000183,327.5144884000183,327.5144884000183,327.5144884000183,327.5144884000183,327.5144884000183,327.5144884000183,327.5144884000183,327.8649868000066,327.8649868000066,327.8649868000066,327.8649868000066,327.8649868000066,327.8649868000066,327.8649868000066,327.8649868000066,327.8649868000066,21,1,[0.11518850002903491],[0.14871219999622554],327.8649868000066,328.06912380002905,1000,328.06912380002905,1000,1000,1000,1000,1,num_2,1.575644300028216,,23,3,2026-03-04_13h26.57.444,2026A_exp2,2022.2.4,60.02779285610003,
1,0,6.1,0.0,1,0,86,86,13,,,,,329.6668606000021,330.31744670000626,330.31744670000626,330.8019065000117,45,315,330.8019065000117,330.8019065000117,330.8019065000117,330.8019065000117,330.8019065000117,330.8019065000117,330.8019065000117,330.8019065000117,330.8019065000117,331.16830160003155,331.16830160003155,331.16830160003155,331.16830160003155,331.16830160003155,331.16830160003155,331.16830160003155,331.16830160003155,331.16830160003155,0,1,[0.0012298000510782003],[0.36704219999955967],331.16830160003155,331.3684809000115,0.0,331.3684809000115,1,0.0,0,0,1000,num_4,2.948237600037828,,23,3,2026-03-04_13h26.57.444,2026A_exp2,2022.2.4,60.02779285610003,
1000,1,4.9,0.0,0,0,87,87,58,,,,,334.3403363000252,334.9905259999796,334.9905259999796,335.48990799998865,45,45,335.48990799998865,335.48990799998865,335.48990799998865,335.48990799998865,335.48990799998865,335.48990799998865,335.48990799998865,335.48990799998865,335.48990799998865,335.8562028000015,335.8562028000015,335.8562028000015,335.8562028000015,335.8562028000015,335.8562028000015,335.8562028000015,335.8562028000015,335.8562028000015,23,0,,,335.8562028000015,336.0575513999793,1000,336.0575513999793,1000,1000,1000,1000,0,num_3,1.466717700008303,,23,3,2026-03-04_13h26.57.444,2026A_exp2,2022.2.4,60.02779285610003,
1000,1,0.0,0.0,1,0,88,88,29,,,,,337.54109260003315,338.19201050000265,338.19201050000265,338.69316520000575,315,315,338.69316520000575,338.69316520000575,338.69316520000575,338.69316520000575,338.69316520000575,338.69316520000575,338.69316520000575,338.69316520000575,338.69316520000575,339.05951859999914,339.05951859999914,339.05951859999914,339.05951859999914,339.05951859999914,339.05951859999914,339.05951859999914,339.05951859999914,339.05951859999914,23,0,,,339.05951859999914,339.2612533000065,1000,339.2612533000065,1000,1000,1000,1000,0,num_3,0.5032538999803364,,23,3,2026-03-04_13h26.57.444,2026A_exp2,2022.2.4,60.02779285610003,
1,0,0.0,0.0,0,0,89,89,2,,,,,339.79372720001265,340.44420369999716,340.44420369999716,340.92868379998254,45,45,340.92868379998254,340.92868379998254,340.92868379998254,340.92868379998254,340.92868379998254,340.92868379998254,340.92868379998254,340.92868379998254,340.92868379998254,341.2951062999782,341.2951062999782,341.2951062999782,341.2951062999782,341.2951062999782,341.2951062999782,341.2951062999782,341.2951062999782,341.2951062999782,23,0,,,341.2951062999782,341.4953372000018,0.0,341.4953372000018,1,0.0,0,0,1000,num_4,1.396448399988003,,23,3,2026-03-04_13h26.57.444,2026A_exp2,2022.2.4,60.02779285610003,
,,,,,,,,,,,,,,,,,,,,,,,,,,,,,,,,,,,,,,,,,,,,,,,,,,,,342.9208595000091,,,,,,,
