validity,detectorcomp,contrastCW,contrastCCW,precueCWorCCW,block_80trials.thisRepN,block_80trials.thisTrialN,block_80trials.thisN,block_80trials.thisIndex,etRecord.started,etRecord.stopped,text.started,text.stopped,text_4.started,text_4.stopped,text_6.started,text_6.stopped,oriCW,oriCCW,roi_2.started,grating_UR.started,grating_UL.started,grating_LR.started,grating_LL.started,noise_UR.started,noise_UL.started,noise_LR.started,noise_LL.started,roi_2.stopped,grating_UR.stopped,grating_UL.stopped,grating_LR.stopped,grating_LL.stopped,noise_UR.stopped,noise_UL.stopped,noise_LR.stopped,noise_LL.stopped,outframe,roi_2.numLooks,roi_2.timesOn,roi_2.timesOff,text_2.started,text_2.stopped,probedcontrast,key_resp.started,respdetect,relevantContrast,correctDetect,TorFdetect,respCWorCCW,key_resp.keys,key_resp.rt,feedback_display_.started,participantNo,blockNo,date,expName,psychopyVersion,frameRate,
0,0,0.0,0.0,1,0,0,0,62,3.850000211969018e-05,3.850000211969018e-05,67.4222781000426,69.44471589999739,69.44471589999739,70.0752327000373,70.0752327000373,70.59631460002856,45,315,70.59631460002856,70.59631460002856,70.59631460002856,70.59631460002856,70.59631460002856,70.59631460002856,70.59631460002856,70.59631460002856,70.59631460002856,70.92617729998892,70.92617729998892,70.92617729998892,70.92617729998892,70.92617729998892,70.92617729998892,70.92617729998892,70.92617729998892,70.92617729998892,22,0,,,70.92617729998892,71.12630380003247,0.0,71.12630380003247,1,0.0,0,0,1000,num_4,0.706742700014729,,25,11,2026-03-04_18h14.56.182,2026A_exp2,2022.2.4,59.872997378837795,
1000,1,0.0,4.9,1,0,1,1,27,,,,,71.86030860000756,72.51110820000758,72.51110820000758,72.99540419998812,45,315,72.99540419998812,72.99540419998812,72.99540419998812,72.99540419998812,72.99540419998812,72.99540419998812,72.99540419998812,72.99540419998812,72.99540419998812,73.36192220001249,73.36192220001249,73.36192220001249,73.36192220001249,73.36192220001249,73.36192220001249,73.36192220001249,73.36192220001249,73.36192220001249,23,0,,,73.36192220001249,73.56702650000807,1000,73.56702650000807,1000,1000,1000,1000,1,num_2,0.41726449999259785,,25,11,2026-03-04_18h14.56.182,2026A_exp2,2022.2.4,59.872997378837795,
1000,1,4.9,0.0,0,0,2,2,58,,,,,74.01271320000524,74.66321450000396,74.66321450000396,75.16426809999393,315,315,75.16426809999393,75.16426809999393,75.16426809999393,75.16426809999393,75.16426809999393,75.16426809999393,75.16426809999393,75.16426809999393,75.16426809999393,75.5307829999947,75.5307829999947,75.5307829999947,75.5307829999947,75.5307829999947,75.5307829999947,75.5307829999947,75.5307829999947,75.5307829999947,23,0,,,75.5307829999947,75.73257699998794,1000,75.73257699998794,1000,1000,1000,1000,0,num_3,0.2990379999973811,,25,11,2026-03-04_18h14.56.182,2026A_exp2,2022.2.4,59.872997378837795,
1,0,0.0,0.0,1,0,3,3,37,,,,,76.04797600000165,76.69847980001941,76.69847980001941,77.19976710004266,45,45,77.19976710004266,77.19976710004266,77.19976710004266,77.19976710004266,77.19976710004266,77.19976710004266,77.19976710004266,77.19976710004266,77.19976710004266,77.56616450002184,77.56616450002184,77.56616450002184,77.56616450002184,77.56616450002184,77.56616450002184,77.56616450002184,77.56616450002184,77.56616450002184,23,0,,,77.56616450002184,77.76629890000913,0.0,77.76629890000913,1,0.0,0,0,1000,num_4,0.4190037000225857,,25,11,2026-03-04_18h14.56.182,2026A_exp2,2022.2.4,59.872997378837795,
1000,1,4.9,3.7,1,0,4,4,32,,,,,78.21662850002758,78.86749840003904,78.86749840003904,79.35192400001688,45,315,79.35192400001688,79.35192400001688,79.35192400001688,79.35192400001688,79.35192400001688,79.35192400001688,79.35192400001688,79.35192400001688,79.35192400001688,79.71826769999461,79.71826769999461,79.71826769999461,79.71826769999461,79.71826769999461,79.71826769999461,79.71826769999461,79.71826769999461,79.71826769999461,21,1,[0.3003915000008419],[0.333861600025557],79.71826769999461,79.9201444000355,1000,79.9201444000355,1000,1000,1000,1000,1,num_2,0.31229719996917993,,25,11,2026-03-04_18h14.56.182,2026A_exp2,2022.2.4,59.872997378837795,
1000,1,0.0,4.9,1,0,5,5,51,,,,,80.25204530003248,80.90273949998664,80.90273949998664,81.40387010003906,45,315,81.40387010003906,81.40387010003906,81.40387010003906,81.40387010003906,81.40387010003906,81.40387010003906,81.40387010003906,81.40387010003906,81.40387010003906,81.75356000004103,81.75356000004103,81.75356000004103,81.75356000004103,81.75356000004103,81.75356000004103,81.75356000004103,81.75356000004103,81.75356000004103,22,0,,,81.75356000004103,81.95579820004059,1000,81.95579820004059,1000,1000,1000,1000,1,num_2,0.04395469999872148,,25,11,2026-03-04_18h14.56.182,2026A_exp2,2022.2.4,59.872997378837795,
1000,1,0.0,0.0,0,0,6,6,65,,,,,82.02030340000056,82.6712023,82.6712023,83.17232549999608,45,45,83.17232549999608,83.17232549999608,83.17232549999608,83.17232549999608,83.17232549999608,83.17232549999608,83.17232549999608,83.17232549999608,83.17232549999608,83.53866260003997,83.53866260003997,83.53866260003997,83.53866260003997,83.53866260003997,83.53866260003997,83.53866260003997,83.53866260003997,83.53866260003997,23,0,,,83.53866260003997,83.74097450001864,1000,83.74097450001864,1000,1000,1000,1000,0,num_3,0.09144920000107959,,25,11,2026-03-04_18h14.56.182,2026A_exp2,2022.2.4,59.872997378837795,
1,0,0.0,0.0,0,0,7,7,49,,,,,83.85564170003636,84.50627860001987,84.50627860001987,85.00757280003745,45,315,85.00757280003745,85.00757280003745,85.00757280003745,85.00757280003745,85.00757280003745,85.00757280003745,85.00757280003745,85.00757280003745,85.00757280003745,85.37391990004107,85.37391990004107,85.37391990004107,85.37391990004107,85.37391990004107,85.37391990004107,85.37391990004107,85.37391990004107,85.37391990004107,22,1,[0.0014110999763943255],[0.017609899980016053],85.37391990004107,85.57422790001146,0.0,85.57422790001146,1,0.0,0,0,1000,num_4,0.4335787000018172,,25,11,2026-03-04_18h14.56.182,2026A_exp2,2022.2.4,59.872997378837795,
1,0,6.1,0.0,0,0,8,8,50,,,,,86.02449209999759,86.65862830000697,86.65862830000697,87.15969559998484,315,45,87.15969559998484,87.15969559998484,87.15969559998484,87.15969559998484,87.15969559998484,87.15969559998484,87.15969559998484,87.15969559998484,87.15969559998484,87.5260416000383,87.5260416000383,87.5260416000383,87.5260416000383,87.5260416000383,87.5260416000383,87.5260416000383,87.5260416000383,87.5260416000383,23,0,,,87.5260416000383,87.72623120003846,6.1,87.72623120003846,1,6.1,1,1,1000,num_4,0.12221790000330657,,25,11,2026-03-04_18h14.56.182,2026A_exp2,2022.2.4,59.872997378837795,
1000,1,0.0,3.7,1,0,9,9,80,,,,,87.87627569999313,88.52710990002379,88.52710990002379,89.01154269999824,315,315,89.01154269999824,89.01154269999824,89.01154269999824,89.01154269999824,89.01154269999824,89.01154269999824,89.01154269999824,89.01154269999824,89.01154269999824,89.37794650002616,89.37794650002616,89.37794650002616,89.37794650002616,89.37794650002616,89.37794650002616,89.37794650002616,89.37794650002616,89.37794650002616,23,0,,,89.37794650002616,89.5801172000356,1000,89.5801172000356,1000,1000,1000,1000,1,num_2,0.2842602000455372,,25,11,2026-03-04_18h14.56.182,2026A_exp2,2022.2.4,59.872997378837795,
1,0,6.1,0.0,1,0,10,10,13,,,,,89.89512659999309,90.54586300003575,90.54586300003575,91.04691530001583,45,45,91.04691530001583,91.04691530001583,91.04691530001583,91.04691530001583,91.04691530001583,91.04691530001583,91.04691530001583,91.04691530001583,91.04691530001583,91.41339699999662,91.41339699999662,91.41339699999662,91.41339699999662,91.41339699999662,91.41339699999662,91.41339699999662,91.41339699999662,91.41339699999662,23,0,,,91.41339699999662,91.61352539999643,0.0,91.61352539999643,1,0.0,0,0,1000,num_4,0.395193999982439,,25,11,2026-03-04_18h14.56.182,2026A_exp2,2022.2.4,59.872997378837795,
1,0,0.0,3.7,1,0,11,11,57,,,,,92.030473300023,92.6811624999973,92.6811624999973,93.16550290002488,45,45,93.16550290002488,93.16550290002488,93.16550290002488,93.16550290002488,93.16550290002488,93.16550290002488,93.16550290002488,93.16550290002488,93.16550290002488,93.53207180002937,93.53207180002937,93.53207180002937,93.53207180002937,93.53207180002937,93.53207180002937,93.53207180002937,93.53207180002937,93.53207180002937,23,0,,,93.53207180002937,93.73232559999451,3.7,93.73232559999451,1,3.7,1,1,1000,num_4,0.10814869997557253,,25,11,2026-03-04_18h14.56.182,2026A_exp2,2022.2.4,59.872997378837795,
1000,1,0.0,0.0,1,0,12,12,23,,,,,93.86554969998542,94.51641969999764,94.51641969999764,95.00087330001406,315,315,95.00087330001406,95.00087330001406,95.00087330001406,95.00087330001406,95.00087330001406,95.00087330001406,95.00087330001406,95.00087330001406,95.00087330001406,95.3672108000028,95.3672108000028,95.3672108000028,95.3672108000028,95.3672108000028,95.3672108000028,95.3672108000028,95.3672108000028,95.3672108000028,23,0,,,95.3672108000028,95.56961609999416,1000,95.56961609999416,1000,1000,1000,1000,1,num_2,0.09492990002036095,,25,11,2026-03-04_18h14.56.182,2026A_exp2,2022.2.4,59.872997378837795,
0,0,0.0,4.9,0,0,13,13,54,,,,,95.68419310002355,96.3349872000399,96.3349872000399,96.83590519998688,315,315,96.83590519998688,96.83590519998688,96.83590519998688,96.83590519998688,96.83590519998688,96.83590519998688,96.83590519998688,96.83590519998688,96.83590519998688,97.20252099999925,97.20252099999925,97.20252099999925,97.20252099999925,97.20252099999925,97.20252099999925,97.20252099999925,97.20252099999925,97.20252099999925,23,0,,,97.20252099999925,97.40259569999762,4.9,97.40259569999762,1,4.9,1,1,1000,num_4,0.5011146000470035,,25,11,2026-03-04_18h14.56.182,2026A_exp2,2022.2.4,59.872997378837795,
1000,1,3.7,3.7,1,0,14,14,40,,,,,97.91975850000745,98.57048769999528,98.57048769999528,99.0549263000139,45,315,99.0549263000139,99.0549263000139,99.0549263000139,99.0549263000139,99.0549263000139,99.0549263000139,99.0549263000139,99.0549263000139,99.0549263000139,99.42133859999012,99.42133859999012,99.42133859999012,99.42133859999012,99.42133859999012,99.42133859999012,99.42133859999012,99.42133859999012,99.42133859999012,23,0,,,99.42133859999012,99.6232241000398,1000,99.6232241000398,1000,1000,1000,1000,1,num_2,0.13766990002477542,,25,11,2026-03-04_18h14.56.182,2026A_exp2,2022.2.4,59.872997378837795,
1,0,0.0,4.9,0,0,15,15,71,,,,,99.78825560002588,100.43894449999789,100.43894449999789,100.94016729999566,315,45,100.94016729999566,100.94016729999566,100.94016729999566,100.94016729999566,100.94016729999566,100.94016729999566,100.94016729999566,100.94016729999566,100.94016729999566,101.30662789999042,101.30662789999042,101.30662789999042,101.30662789999042,101.30662789999042,101.30662789999042,101.30662789999042,101.30662789999042,101.30662789999042,23,0,,,101.30662789999042,101.50698160001775,0.0,101.50698160001775,0,0.0,0,1,1000,num_1,0.5491469000116922,,25,11,2026-03-04_18h14.56.182,2026A_exp2,2022.2.4,59.872997378837795,
1000,1,4.9,0.0,0,0,16,16,22,,,,,102.0737779000192,102.72464050003327,102.72464050003327,103.20890140003758,315,315,103.20890140003758,103.20890140003758,103.20890140003758,103.20890140003758,103.20890140003758,103.20890140003758,103.20890140003758,103.20890140003758,103.20890140003758,103.57548240001779,103.57548240001779,103.57548240001779,103.57548240001779,103.57548240001779,103.57548240001779,103.57548240001779,103.57548240001779,103.57548240001779,23,0,,,103.57548240001779,103.7783313000109,1000,103.7783313000109,1000,1000,1000,1000,0,num_3,0.11842640000395477,,25,11,2026-03-04_18h14.56.182,2026A_exp2,2022.2.4,59.872997378837795,
1000,1,6.1,4.9,1,0,17,17,53,,,,,103.92572240001755,104.57651360001182,104.57651360001182,105.07752880000044,45,315,105.07752880000044,105.07752880000044,105.07752880000044,105.07752880000044,105.07752880000044,105.07752880000044,105.07752880000044,105.07752880000044,105.07752880000044,105.42741040000692,105.42741040000692,105.42741040000692,105.42741040000692,105.42741040000692,105.42741040000692,105.42741040000692,105.42741040000692,105.42741040000692,18,1,[0.30009830003837124],[0.35037020000163466],105.42741040000692,105.629207400023,1000,105.64420650003012,1000,1000,1000,1000,1,num_2,0.1642417999682948,,25,11,2026-03-04_18h14.56.182,2026A_exp2,2022.2.4,59.872997378837795,
1000,1,0.0,0.0,0,0,18,18,20,,,,,105.82766970002558,106.47838400001638,106.47838400001638,106.97979730000952,45,315,106.97979730000952,106.97979730000952,106.97979730000952,106.97979730000952,106.97979730000952,106.97979730000952,106.97979730000952,106.97979730000952,106.97979730000952,107.32918780000182,107.32918780000182,107.32918780000182,107.32918780000182,107.32918780000182,107.32918780000182,107.32918780000182,107.32918780000182,107.32918780000182,22,0,,,107.32918780000182,107.53138490003766,1000,107.53138490003766,1000,1000,1000,1000,0,num_3,0.16472389997215942,,25,11,2026-03-04_18h14.56.182,2026A_exp2,2022.2.4,59.872997378837795,
0,0,0.0,0.0,1,0,19,19,8,,,,,107.71317569998791,108.36357069999212,108.36357069999212,108.86467099998845,315,315,108.86467099998845,108.86467099998845,108.86467099998845,108.86467099998845,108.86467099998845,108.86467099998845,108.86467099998845,108.86467099998845,108.86467099998845,109.23120000003837,109.23120000003837,109.23120000003837,109.23120000003837,109.23120000003837,109.23120000003837,109.23120000003837,109.23120000003837,109.23120000003837,23,0,,,109.23120000003837,109.43536210001912,0.0,109.43536210001912,1,0.0,0,0,1000,num_4,0.5806573000154458,,25,11,2026-03-04_18h14.56.182,2026A_exp2,2022.2.4,59.872997378837795,
1,0,0.0,0.0,0,0,20,20,9,,,,,110.03183360002004,110.68266890000086,110.68266890000086,111.16703599999892,45,315,111.16703599999892,111.16703599999892,111.16703599999892,111.16703599999892,111.16703599999892,111.16703599999892,111.16703599999892,111.16703599999892,111.16703599999892,111.53339550003875,111.53339550003875,111.53339550003875,111.53339550003875,111.53339550003875,111.53339550003875,111.53339550003875,111.53339550003875,111.53339550003875,23,0,,,111.53339550003875,111.73356880003121,0.0,111.73356880003121,1,0.0,0,0,1000,num_4,0.6343282000161707,,25,11,2026-03-04_18h14.56.182,2026A_exp2,2022.2.4,59.872997378837795,
1,0,0.0,3.7,0,0,21,21,78,,,,,112.38412440003594,113.0346921000164,113.0346921000164,113.5193173000007,45,315,113.5193173000007,113.5193173000007,113.5193173000007,113.5193173000007,113.5193173000007,113.5193173000007,113.5193173000007,113.5193173000007,113.5193173000007,113.88576750003267,113.88576750003267,113.88576750003267,113.88576750003267,113.88576750003267,113.88576750003267,113.88576750003267,113.88576750003267,113.88576750003267,23,0,,,113.88576750003267,114.08600439998554,0.0,114.08600439998554,1,0.0,0,0,1000,num_4,0.5468417999800295,,25,11,2026-03-04_18h14.56.182,2026A_exp2,2022.2.4,59.872997378837795,
1000,1,0.0,0.0,1,0,22,22,14,,,,,114.6530691999942,115.3038905999856,115.3038905999856,115.78836020000745,315,45,115.78836020000745,115.78836020000745,115.78836020000745,115.78836020000745,115.78836020000745,115.78836020000745,115.78836020000745,115.78836020000745,115.78836020000745,116.15462069999194,116.15462069999194,116.15462069999194,116.15462069999194,116.15462069999194,116.15462069999194,116.15462069999194,116.15462069999194,116.15462069999194,23,0,,,116.15462069999194,116.35699669999303,1000,116.35699669999303,1000,1000,1000,1000,1,num_2,0.4192340000299737,,25,11,2026-03-04_18h14.56.182,2026A_exp2,2022.2.4,59.872997378837795,
1000,1,6.1,0.0,0,0,23,23,19,,,,,116.80529719998594,117.45608470001025,117.45608470001025,117.95714459998999,315,45,117.95714459998999,117.95714459998999,117.95714459998999,117.95714459998999,117.95714459998999,117.95714459998999,117.95714459998999,117.95714459998999,117.95714459998999,118.32351780001773,118.32351780001773,118.32351780001773,118.32351780001773,118.32351780001773,118.32351780001773,118.32351780001773,118.32351780001773,118.32351780001773,23,0,,,118.32351780001773,118.52600220002932,1000,118.52600220002932,1000,1000,1000,1000,0,num_3,0.21068319998448715,,25,11,2026-03-04_18h14.56.182,2026A_exp2,2022.2.4,59.872997378837795,
1000,1,6.1,0.0,0,0,24,24,33,,,,,118.75730789999943,119.40764400002081,119.40764400002081,119.90898070001276,45,45,119.90898070001276,119.90898070001276,119.90898070001276,119.90898070001276,119.90898070001276,119.90898070001276,119.90898070001276,119.90898070001276,119.90898070001276,120.27549580001505,120.27549580001505,120.27549580001505,120.27549580001505,120.27549580001505,120.27549580001505,120.27549580001505,120.27549580001505,120.27549580001505,23,0,,,120.27549580001505,120.47744350001449,1000,120.47744350001449,1000,1000,1000,1000,0,num_3,0.11428739997791126,,25,11,2026-03-04_18h14.56.182,2026A_exp2,2022.2.4,59.872997378837795,
1000,1,0.0,0.0,1,0,25,25,47,,,,,120.60900240001502,121.2598818000406,121.2598818000406,121.7608973000315,45,315,121.7608973000315,121.7608973000315,121.7608973000315,121.7608973000315,121.7608973000315,121.7608973000315,121.7608973000315,121.7608973000315,121.7608973000315,122.12737990001915,122.12737990001915,122.12737990001915,122.12737990001915,122.12737990001915,122.12737990001915,122.12737990001915,122.12737990001915,122.12737990001915,22,1,[0.3170541999861598],[0.3336703000240959],122.12737990001915,122.32949189998908,1000,122.32949189998908,1000,1000,1000,1000,1,num_2,0.27098040003329515,,25,11,2026-03-04_18h14.56.182,2026A_exp2,2022.2.4,59.872997378837795,
1,0,0.0,0.0,1,0,26,26,73,,,,,122.627961900027,123.2619216000312,123.2619216000312,123.76297129999148,45,315,123.76297129999148,123.76297129999148,123.76297129999148,123.76297129999148,123.76297129999148,123.76297129999148,123.76297129999148,123.76297129999148,123.76297129999148,124.1293721999973,124.1293721999973,124.1293721999973,124.1293721999973,124.1293721999973,124.1293721999973,124.1293721999973,124.1293721999973,124.1293721999973,18,2,"[0.050188499968498945, 0.11680279998108745]","[0.0834991000010632, 0.16695919999619946]",124.1293721999973,124.329518500017,0.0,124.329518500017,1,0.0,0,0,1000,num_4,0.4947140000294894,,25,11,2026-03-04_18h14.56.182,2026A_exp2,2022.2.4,59.872997378837795,
1,0,4.9,6.1,0,0,27,27,15,,,,,124.84669850004138,125.49735319998581,125.49735319998581,125.98176940000849,315,315,125.98176940000849,125.98176940000849,125.98176940000849,125.98176940000849,125.98176940000849,125.98176940000849,125.98176940000849,125.98176940000849,125.98176940000849,126.34824429999571,126.34824429999571,126.34824429999571,126.34824429999571,126.34824429999571,126.34824429999571,126.34824429999571,126.34824429999571,126.34824429999571,23,0,,,126.34824429999571,126.54848590004258,4.9,126.54848590004258,1,4.9,1,1,1000,num_4,0.523508700018283,,25,11,2026-03-04_18h14.56.182,2026A_exp2,2022.2.4,59.872997378837795,
1000,1,0.0,0.0,0,0,28,28,61,,,,,127.09890480001923,127.74957350001205,127.74957350001205,128.23396430001594,315,315,128.23396430001594,128.23396430001594,128.23396430001594,128.23396430001594,128.23396430001594,128.23396430001594,128.23396430001594,128.23396430001594,128.23396430001594,128.60045170004014,128.60045170004014,128.60045170004014,128.60045170004014,128.60045170004014,128.60045170004014,128.60045170004014,128.60045170004014,128.60045170004014,23,0,,,128.60045170004014,128.80235350003932,1000,128.80235350003932,1000,1000,1000,1000,0,num_3,0.37381340004503727,,25,11,2026-03-04_18h14.56.182,2026A_exp2,2022.2.4,59.872997378837795,
1000,1,0.0,6.1,1,0,29,29,88,,,,,129.20097150001675,129.85189739998896,129.85189739998896,130.35279319999972,45,315,130.35279319999972,130.35279319999972,130.35279319999972,130.35279319999972,130.35279319999972,130.35279319999972,130.35279319999972,130.35279319999972,130.35279319999972,130.71930719999364,130.71930719999364,130.71930719999364,130.71930719999364,130.71930719999364,130.71930719999364,130.71930719999364,130.71930719999364,130.71930719999364,23,0,,,130.71930719999364,130.92115660000127,1000,130.92115660000127,1000,1000,1000,1000,1,num_2,0.28759269998408854,,25,11,2026-03-04_18h14.56.182,2026A_exp2,2022.2.4,59.872997378837795,
1,0,4.9,4.9,0,0,30,30,63,,,,,131.23642710002605,131.88694120000582,131.88694120000582,132.38827230001334,315,45,132.38827230001334,132.38827230001334,132.38827230001334,132.38827230001334,132.38827230001334,132.38827230001334,132.38827230001334,132.38827230001334,132.38827230001334,132.75469740002882,132.75469740002882,132.75469740002882,132.75469740002882,132.75469740002882,132.75469740002882,132.75469740002882,132.75469740002882,132.75469740002882,23,0,,,132.75469740002882,132.95488740003202,4.9,132.95488740003202,1,4.9,1,1,1000,num_4,0.4937320000026375,,25,11,2026-03-04_18h14.56.182,2026A_exp2,2022.2.4,59.872997378837795,
1000,1,4.9,3.7,1,0,31,31,67,,,,,133.47192800004268,134.12274840002647,134.12274840002647,134.6070136000053,315,45,134.6070136000053,134.6070136000053,134.6070136000053,134.6070136000053,134.6070136000053,134.6070136000053,134.6070136000053,134.6070136000053,134.6070136000053,134.9735486000427,134.9735486000427,134.9735486000427,134.9735486000427,134.9735486000427,134.9735486000427,134.9735486000427,134.9735486000427,134.9735486000427,23,0,,,134.9735486000427,135.17535259999568,1000,135.17535259999568,1000,1000,1000,1000,1,num_2,0.32859769999049604,,25,11,2026-03-04_18h14.56.182,2026A_exp2,2022.2.4,59.872997378837795,
1000,1,4.9,0.0,1,0,32,32,25,,,,,135.5240250999923,136.174674400012,136.174674400012,136.67575059999945,315,45,136.67575059999945,136.67575059999945,136.67575059999945,136.67575059999945,136.67575059999945,136.67575059999945,136.67575059999945,136.67575059999945,136.67575059999945,137.04213070002152,137.04213070002152,137.04213070002152,137.04213070002152,137.04213070002152,137.04213070002152,137.04213070002152,137.04213070002152,137.04213070002152,23,0,,,137.04213070002152,137.24736919999123,1000,137.24736919999123,1000,1000,1000,1000,1,num_2,0.280341400008183,,25,11,2026-03-04_18h14.56.182,2026A_exp2,2022.2.4,59.872997378837795,
1000,1,6.1,4.9,1,0,33,33,16,,,,,137.5426227999851,138.19348340004217,138.19348340004217,138.69455010001548,315,315,138.69455010001548,138.69455010001548,138.69455010001548,138.69455010001548,138.69455010001548,138.69455010001548,138.69455010001548,138.69455010001548,138.69455010001548,139.06095890002325,139.06095890002325,139.06095890002325,139.06095890002325,139.06095890002325,139.06095890002325,139.06095890002325,139.06095890002325,139.06095890002325,23,0,,,139.06095890002325,139.26298010000028,1000,139.26298010000028,1000,1000,1000,1000,1,num_2,0.34584339999128133,,25,11,2026-03-04_18h14.56.182,2026A_exp2,2022.2.4,59.872997378837795,
1,0,4.9,0.0,1,0,34,34,4,,,,,139.62812970002415,140.27896020002663,140.27896020002663,140.77996240003267,45,45,140.77996240003267,140.77996240003267,140.77996240003267,140.77996240003267,140.77996240003267,140.77996240003267,140.77996240003267,140.77996240003267,140.77996240003267,141.14626980002504,141.14626980002504,141.14626980002504,141.14626980002504,141.14626980002504,141.14626980002504,141.14626980002504,141.14626980002504,141.14626980002504,23,0,,,141.14626980002504,141.34662700002082,0.0,141.34662700002082,1,0.0,0,0,1000,num_4,0.4056488999631256,,25,11,2026-03-04_18h14.56.182,2026A_exp2,2022.2.4,59.872997378837795,
1000,1,6.1,3.7,1,0,35,35,10,,,,,141.78016870003194,142.431001799996,142.431001799996,142.91530210000928,315,45,142.91530210000928,142.91530210000928,142.91530210000928,142.91530210000928,142.91530210000928,142.91530210000928,142.91530210000928,142.91530210000928,142.91530210000928,143.28163490002044,143.28163490002044,143.28163490002044,143.28163490002044,143.28163490002044,143.28163490002044,143.28163490002044,143.28163490002044,143.28163490002044,23,0,,,143.28163490002044,143.4845190999913,1000,143.4845190999913,1000,1000,1000,1000,1,num_2,0.25184430001536384,,25,11,2026-03-04_18h14.56.182,2026A_exp2,2022.2.4,59.872997378837795,
1000,1,0.0,4.9,0,0,36,36,77,,,,,143.76573179999832,144.41640799999004,144.41640799999004,144.9174641999998,315,45,144.9174641999998,144.9174641999998,144.9174641999998,144.9174641999998,144.9174641999998,144.9174641999998,144.9174641999998,144.9174641999998,144.9174641999998,145.26722879998852,145.26722879998852,145.26722879998852,145.26722879998852,145.26722879998852,145.26722879998852,145.26722879998852,145.26722879998852,145.26722879998852,22,0,,,145.26722879998852,145.46855480002705,1000,145.46855480002705,1000,1000,1000,1000,0,num_3,0.15633990004425868,,25,11,2026-03-04_18h14.56.182,2026A_exp2,2022.2.4,59.872997378837795,
1000,1,0.0,3.7,0,0,37,37,52,,,,,145.65076079999562,146.30156759999227,146.30156759999227,146.80256159999408,315,315,146.80256159999408,146.80256159999408,146.80256159999408,146.80256159999408,146.80256159999408,146.80256159999408,146.80256159999408,146.80256159999408,146.80256159999408,147.1691667000414,147.1691667000414,147.1691667000414,147.1691667000414,147.1691667000414,147.1691667000414,147.1691667000414,147.1691667000414,147.1691667000414,23,0,,,147.1691667000414,147.37107500003185,1000,147.37107500003185,1000,1000,1000,1000,0,num_3,0.148918200051412,,25,11,2026-03-04_18h14.56.182,2026A_exp2,2022.2.4,59.872997378837795,
1000,1,0.0,0.0,1,0,38,38,29,,,,,147.53604460001225,148.18684610002674,148.18684610002674,148.68797490000725,315,315,148.68797490000725,148.68797490000725,148.68797490000725,148.68797490000725,148.68797490000725,148.68797490000725,148.68797490000725,148.68797490000725,148.68797490000725,149.0541411000304,149.0541411000304,149.0541411000304,149.0541411000304,149.0541411000304,149.0541411000304,149.0541411000304,149.0541411000304,149.0541411000304,23,0,,,149.0541411000304,149.2563361999928,1000,149.2563361999928,1000,1000,1000,1000,1,num_2,0.2403032000293024,,25,11,2026-03-04_18h14.56.182,2026A_exp2,2022.2.4,59.872997378837795,
1000,1,3.7,0.0,1,0,39,39,55,,,,,149.52130279998528,150.1720348999952,150.1720348999952,150.6732302000164,315,315,150.6732302000164,150.6732302000164,150.6732302000164,150.6732302000164,150.6732302000164,150.6732302000164,150.6732302000164,150.6732302000164,150.6732302000164,151.0396234000218,151.0396234000218,151.0396234000218,151.0396234000218,151.0396234000218,151.0396234000218,151.0396234000218,151.0396234000218,151.0396234000218,23,0,,,151.0396234000218,151.24176410003565,1000,151.24176410003565,1000,1000,1000,1000,1,num_2,0.36636189999990165,,25,11,2026-03-04_18h14.56.182,2026A_exp2,2022.2.4,59.872997378837795,
1,0,0.0,0.0,0,0,40,40,64,,,,,151.6234706999967,152.27421529998537,152.27421529998537,152.77514089999022,45,315,152.77514089999022,152.77514089999022,152.77514089999022,152.77514089999022,152.77514089999022,152.77514089999022,152.77514089999022,152.77514089999022,152.77514089999022,153.14154700003564,153.14154700003564,153.14154700003564,153.14154700003564,153.14154700003564,153.14154700003564,153.14154700003564,153.14154700003564,153.14154700003564,23,0,,,153.14154700003564,153.3415969000198,0.0,153.3415969000198,1,0.0,0,0,1000,num_4,0.42685699998401105,,25,11,2026-03-04_18h14.56.182,2026A_exp2,2022.2.4,59.872997378837795,
1000,1,6.1,0.0,1,0,41,41,60,,,,,153.79222270002356,154.44298230001004,154.44298230001004,154.9273595000268,45,315,154.9273595000268,154.9273595000268,154.9273595000268,154.9273595000268,154.9273595000268,154.9273595000268,154.9273595000268,154.9273595000268,154.9273595000268,155.2938698999933,155.2938698999933,155.2938698999933,155.2938698999933,155.2938698999933,155.2938698999933,155.2938698999933,155.2938698999933,155.2938698999933,23,0,,,155.2938698999933,155.495682400011,1000,155.495682400011,1000,1000,1000,1000,1,num_2,0.21738799999002367,,25,11,2026-03-04_18h14.56.182,2026A_exp2,2022.2.4,59.872997378837795,
1000,1,0.0,4.9,0,0,42,42,11,,,,,155.74413940001978,156.39491740002995,156.39491740002995,156.89597429998685,315,315,156.89597429998685,156.89597429998685,156.89597429998685,156.89597429998685,156.89597429998685,156.89597429998685,156.89597429998685,156.89597429998685,156.89597429998685,157.2457798999967,157.2457798999967,157.2457798999967,157.2457798999967,157.2457798999967,157.2457798999967,157.2457798999967,157.2457798999967,157.2457798999967,22,0,,,157.2457798999967,157.448189000017,1000,157.448189000017,1000,1000,1000,1000,0,num_3,0.13626279996242374,,25,11,2026-03-04_18h14.56.182,2026A_exp2,2022.2.4,59.872997378837795,
1,0,4.9,0.0,1,0,43,43,6,,,,,157.61285820003832,158.26354000001447,158.26354000001447,158.76454960001865,315,315,158.76454960001865,158.76454960001865,158.76454960001865,158.76454960001865,158.76454960001865,158.76454960001865,158.76454960001865,158.76454960001865,158.76454960001865,159.13109050004277,159.13109050004277,159.13109050004277,159.13109050004277,159.13109050004277,159.13109050004277,159.13109050004277,159.13109050004277,159.13109050004277,23,0,,,159.13109050004277,159.33136950002518,0.0,159.33136950002518,1,0.0,0,0,1000,num_4,0.44543379999231547,,25,11,2026-03-04_18h14.56.182,2026A_exp2,2022.2.4,59.872997378837795,
1000,1,3.7,6.1,0,0,44,44,28,,,,,159.79840870003682,160.44905130000552,160.44905130000552,160.95006830000784,45,315,160.95006830000784,160.95006830000784,160.95006830000784,160.95006830000784,160.95006830000784,160.95006830000784,160.95006830000784,160.95006830000784,160.95006830000784,161.2998254999984,161.2998254999984,161.2998254999984,161.2998254999984,161.2998254999984,161.2998254999984,161.2998254999984,161.2998254999984,161.2998254999984,22,0,,,161.2998254999984,161.50172010000097,1000,161.50172010000097,1000,1000,1000,1000,0,num_3,0.050430000002961606,,25,11,2026-03-04_18h14.56.182,2026A_exp2,2022.2.4,59.872997378837795,
1000,1,4.9,0.0,1,0,45,45,72,,,,,161.58354490000056,162.23387290001847,162.23387290001847,162.73530170001322,45,45,162.73530170001322,162.73530170001322,162.73530170001322,162.73530170001322,162.73530170001322,162.73530170001322,162.73530170001322,162.73530170001322,162.73530170001322,163.10159660002682,163.10159660002682,163.10159660002682,163.10159660002682,163.10159660002682,163.10159660002682,163.10159660002682,163.10159660002682,163.10159660002682,23,0,,,163.10159660002682,163.30397930002073,1000,163.30397930002073,1000,1000,1000,1000,1,num_2,0.06384859996614978,,25,11,2026-03-04_18h14.56.182,2026A_exp2,2022.2.4,59.872997378837795,
1,0,0.0,4.9,0,0,46,46,85,,,,,163.38510700000916,164.0192711999989,164.0192711999989,164.52023250004277,315,45,164.52023250004277,164.52023250004277,164.52023250004277,164.52023250004277,164.52023250004277,164.52023250004277,164.52023250004277,164.52023250004277,164.52023250004277,164.88664129999233,164.88664129999233,164.88664129999233,164.88664129999233,164.88664129999233,164.88664129999233,164.88664129999233,164.88664129999233,164.88664129999233,23,0,,,164.88664129999233,165.08703880000394,0.0,165.08703880000394,1,0.0,0,0,1000,num_4,0.4255879000411369,,25,11,2026-03-04_18h14.56.182,2026A_exp2,2022.2.4,59.872997378837795,
1,0,3.7,0.0,1,0,47,47,74,,,,,165.53722460003337,166.18812810000964,166.18812810000964,166.67254960001446,315,45,166.67254960001446,166.67254960001446,166.67254960001446,166.67254960001446,166.67254960001446,166.67254960001446,166.67254960001446,166.67254960001446,166.67254960001446,167.0388969000196,167.0388969000196,167.0388969000196,167.0388969000196,167.0388969000196,167.0388969000196,167.0388969000196,167.0388969000196,167.0388969000196,23,0,,,167.0388969000196,167.2390066999942,0.0,167.2390066999942,1,0.0,0,0,1000,num_4,0.40152559999842197,,25,11,2026-03-04_18h14.56.182,2026A_exp2,2022.2.4,59.872997378837795,
1000,1,0.0,6.1,0,0,48,48,34,,,,,167.65611139999237,168.30679320002673,168.30679320002673,168.79137869999977,45,315,168.79137869999977,168.79137869999977,168.79137869999977,168.79137869999977,168.79137869999977,168.79137869999977,168.79137869999977,168.79137869999977,168.79137869999977,169.15757819998544,169.15757819998544,169.15757819998544,169.15757819998544,169.15757819998544,169.15757819998544,169.15757819998544,169.15757819998544,169.15757819998544,23,0,,,169.15757819998544,169.35970140004065,1000,169.35970140004065,1000,1000,1000,1000,0,num_3,0.12886400002753362,,25,11,2026-03-04_18h14.56.182,2026A_exp2,2022.2.4,59.872997378837795,
1,0,4.9,0.0,0,0,49,49,48,,,,,169.5079838000238,170.15861430001678,170.15861430001678,170.65974299999652,315,45,170.65974299999652,170.65974299999652,170.65974299999652,170.65974299999652,170.65974299999652,170.65974299999652,170.65974299999652,170.65974299999652,170.65974299999652,171.0262698000297,171.0262698000297,171.0262698000297,171.0262698000297,171.0262698000297,171.0262698000297,171.0262698000297,171.0262698000297,171.0262698000297,23,0,,,171.0262698000297,171.22647829999914,4.9,171.22647829999914,1,4.9,1,1,1000,num_4,0.5494646999868564,,25,11,2026-03-04_18h14.56.182,2026A_exp2,2022.2.4,59.872997378837795,
1000,1,3.7,0.0,1,0,50,50,79,,,,,171.7935407999903,172.44425500003854,172.44425500003854,172.92892020003637,45,45,172.92892020003637,172.92892020003637,172.92892020003637,172.92892020003637,172.92892020003637,172.92892020003637,172.92892020003637,172.92892020003637,172.92892020003637,173.29513310000766,173.29513310000766,173.29513310000766,173.29513310000766,173.29513310000766,173.29513310000766,173.29513310000766,173.29513310000766,173.29513310000766,23,0,,,173.29513310000766,173.4953344000387,1000,173.51210260001244,1000,1000,1000,1000,1,num_2,0.29665420000674203,,25,11,2026-03-04_18h14.56.182,2026A_exp2,2022.2.4,59.872997378837795,
1000,1,6.1,3.7,1,0,51,51,0,,,,,173.82901950000087,174.47959510004148,174.47959510004148,174.98084640002344,315,45,174.98084640002344,174.98084640002344,174.98084640002344,174.98084640002344,174.98084640002344,174.98084640002344,174.98084640002344,174.98084640002344,174.98084640002344,175.34718179999618,175.34718179999618,175.34718179999618,175.34718179999618,175.34718179999618,175.34718179999618,175.34718179999618,175.34718179999618,175.34718179999618,23,0,,,175.34718179999618,175.54956950002816,1000,175.54956950002816,1000,1000,1000,1000,1,num_2,0.30744729994330555,,25,11,2026-03-04_18h14.56.182,2026A_exp2,2022.2.4,59.872997378837795,
1,0,0.0,0.0,1,0,52,52,41,,,,,175.88099760003388,176.53158680000342,176.53158680000342,177.03292960004183,315,315,177.03292960004183,177.03292960004183,177.03292960004183,177.03292960004183,177.03292960004183,177.03292960004183,177.03292960004183,177.03292960004183,177.03292960004183,177.399339399999,177.399339399999,177.399339399999,177.399339399999,177.399339399999,177.399339399999,177.399339399999,177.399339399999,177.399339399999,3,1,[0.0012376999948173761],[0.3336511999950744],177.399339399999,177.59951349999756,0.0,177.59951349999756,1,0.0,0,0,1000,num_4,0.42569879995426163,,25,11,2026-03-04_18h14.56.182,2026A_exp2,2022.2.4,59.872997378837795,
1,0,0.0,4.9,1,0,53,53,45,,,,,178.0497448000242,178.70058370003244,178.70058370003244,179.18512030004058,45,315,179.18512030004058,179.18512030004058,179.18512030004058,179.18512030004058,179.18512030004058,179.18512030004058,179.18512030004058,179.18512030004058,179.18512030004058,179.55146290000994,179.55146290000994,179.55146290000994,179.55146290000994,179.55146290000994,179.55146290000994,179.55146290000994,179.55146290000994,179.55146290000994,23,0,,,179.55146290000994,179.75170230004005,4.9,179.75170230004005,1,4.9,1,1,1000,num_4,0.4087916999706067,,25,11,2026-03-04_18h14.56.182,2026A_exp2,2022.2.4,59.872997378837795,
1,0,4.9,6.1,1,0,54,54,86,,,,,180.18523750000168,180.83595189999323,180.83595189999323,181.32054290000815,315,315,181.32054290000815,181.32054290000815,181.32054290000815,181.32054290000815,181.32054290000815,181.32054290000815,181.32054290000815,181.32054290000815,181.32054290000815,181.68716000003042,181.68716000003042,181.68716000003042,181.68716000003042,181.68716000003042,181.68716000003042,181.68716000003042,181.68716000003042,181.68716000003042,23,0,,,181.68716000003042,181.8870877000154,6.1,181.8870877000154,1,6.1,1,1,1000,num_4,0.19279220001772046,,25,11,2026-03-04_18h14.56.182,2026A_exp2,2022.2.4,59.872997378837795,
1,0,6.1,3.7,0,0,55,55,26,,,,,182.10389590001432,182.75463680003304,182.75463680003304,183.23910960002104,45,45,183.23910960002104,183.23910960002104,183.23910960002104,183.23910960002104,183.23910960002104,183.23910960002104,183.23910960002104,183.23910960002104,183.23910960002104,183.60567800002173,183.60567800002173,183.60567800002173,183.60567800002173,183.60567800002173,183.60567800002173,183.60567800002173,183.60567800002173,183.60567800002173,23,0,,,183.60567800002173,183.80577109998558,6.1,183.80577109998558,0,6.1,1,0,1000,num_1,0.018721100001130253,,25,11,2026-03-04_18h14.56.182,2026A_exp2,2022.2.4,59.872997378837795,
1000,1,0.0,0.0,0,0,56,56,75,,,,,183.85566659999313,184.5064237000188,184.5064237000188,184.9905649999855,45,45,184.9905649999855,184.9905649999855,184.9905649999855,184.9905649999855,184.9905649999855,184.9905649999855,184.9905649999855,184.9905649999855,184.9905649999855,185.35687730001519,185.35687730001519,185.35687730001519,185.35687730001519,185.35687730001519,185.35687730001519,185.35687730001519,185.35687730001519,185.35687730001519,23,0,,,185.35687730001519,185.55923399998574,1000,185.55923399998574,1000,1000,1000,1000,0,num_3,0.08117600000696257,,25,11,2026-03-04_18h14.56.182,2026A_exp2,2022.2.4,59.872997378837795,
1,0,0.0,0.0,1,0,57,57,70,,,,,185.6576122000115,186.30819459998747,186.30819459998747,186.8092243000283,315,315,186.8092243000283,186.8092243000283,186.8092243000283,186.8092243000283,186.8092243000283,186.8092243000283,186.8092243000283,186.8092243000283,186.8092243000283,187.17588689998956,187.17588689998956,187.17588689998956,187.17588689998956,187.17588689998956,187.17588689998956,187.17588689998956,187.17588689998956,187.17588689998956,22,1,[0.3666240999591537],[0.36662709998199716],187.17588689998956,187.37600580003345,0.0,187.37600580003345,1,0.0,0,0,1000,num_4,0.38389769999776036,,25,11,2026-03-04_18h14.56.182,2026A_exp2,2022.2.4,59.872997378837795,
1,0,0.0,0.0,1,0,58,58,43,,,,,187.77630920003867,188.42693020001752,188.42693020001752,188.91137470002286,315,45,188.91137470002286,188.91137470002286,188.91137470002286,188.91137470002286,188.91137470002286,188.91137470002286,188.91137470002286,188.91137470002286,188.91137470002286,189.27783700003056,189.27783700003056,189.27783700003056,189.27783700003056,189.27783700003056,189.27783700003056,189.27783700003056,189.27783700003056,189.27783700003056,23,0,,,189.27783700003056,189.47796330001438,0.0,189.47796330001438,1,0.0,0,0,1000,num_4,0.08264549996238202,,25,11,2026-03-04_18h14.56.182,2026A_exp2,2022.2.4,59.872997378837795,
1,0,4.9,4.9,1,0,59,59,89,,,,,189.57807570003206,190.22864950000076,190.22864950000076,190.71313370001735,45,315,190.71313370001735,190.71313370001735,190.71313370001735,190.71313370001735,190.71313370001735,190.71313370001735,190.71313370001735,190.71313370001735,190.71313370001735,191.07958610000787,191.07958610000787,191.07958610000787,191.07958610000787,191.07958610000787,191.07958610000787,191.07958610000787,191.07958610000787,191.07958610000787,23,0,,,191.07958610000787,191.2796890999889,4.9,191.2796890999889,1,4.9,1,1,1000,num_4,0.49593700002878904,,25,11,2026-03-04_18h14.56.182,2026A_exp2,2022.2.4,59.872997378837795,
1,0,0.0,6.1,0,0,60,60,68,,,,,191.797020900005,192.44753440003842,192.44753440003842,192.9321479999926,315,315,192.9321479999926,192.9321479999926,192.9321479999926,192.9321479999926,192.9321479999926,192.9321479999926,192.9321479999926,192.9321479999926,192.9321479999926,193.29833570000483,193.29833570000483,193.29833570000483,193.29833570000483,193.29833570000483,193.29833570000483,193.29833570000483,193.29833570000483,193.29833570000483,23,0,,,193.29833570000483,193.49856680002995,0.0,193.49856680002995,0,0.0,0,1,1000,num_1,0.6695702000288293,,25,11,2026-03-04_18h14.56.182,2026A_exp2,2022.2.4,59.872997378837795,
1000,1,0.0,3.7,0,0,61,61,44,,,,,194.1994534000405,194.850060900033,194.850060900033,195.3345610999968,45,315,195.3345610999968,195.3345610999968,195.3345610999968,195.3345610999968,195.3345610999968,195.3345610999968,195.3345610999968,195.3345610999968,195.3345610999968,195.70078710000962,195.70078710000962,195.70078710000962,195.70078710000962,195.70078710000962,195.70078710000962,195.70078710000962,195.70078710000962,195.70078710000962,23,0,,,195.70078710000962,195.90320980001707,1000,195.90320980001707,1000,1000,1000,1000,0,num_3,0.21725079999305308,,25,11,2026-03-04_18h14.56.182,2026A_exp2,2022.2.4,59.872997378837795,
1,0,3.7,4.9,1,0,62,62,39,,,,,196.15133980003884,196.80204169999342,196.80204169999342,197.30301500001224,315,45,197.30301500001224,197.30301500001224,197.30301500001224,197.30301500001224,197.30301500001224,197.30301500001224,197.30301500001224,197.30301500001224,197.30301500001224,197.65282050002133,197.65282050002133,197.65282050002133,197.65282050002133,197.65282050002133,197.65282050002133,197.65282050002133,197.65282050002133,197.65282050002133,22,0,,,197.65282050002133,197.85307910002302,4.9,197.85307910002302,1,4.9,1,1,1000,num_4,0.05880669999169186,,25,11,2026-03-04_18h14.56.182,2026A_exp2,2022.2.4,59.872997378837795,
0,0,0.0,4.9,1,0,63,63,56,,,,,197.936556700035,198.5705601000227,198.5705601000227,199.07151979999617,45,45,199.07151979999617,199.07151979999617,199.07151979999617,199.07151979999617,199.07151979999617,199.07151979999617,199.07151979999617,199.07151979999617,199.07151979999617,199.43790339998668,199.43790339998668,199.43790339998668,199.43790339998668,199.43790339998668,199.43790339998668,199.43790339998668,199.43790339998668,199.43790339998668,2,2,"[0.0012122999760322273, 0.3339108999934979]","[0.3170673999702558, 0.36716929997783154]",199.43790339998668,199.63828850002028,0.0,199.63828850002028,1,0.0,0,0,1000,num_4,0.5302043000119738,,25,11,2026-03-04_18h14.56.182,2026A_exp2,2022.2.4,59.872997378837795,
1,0,0.0,0.0,0,0,64,64,81,,,,,200.18877230002545,200.83927719999338,200.83927719999338,201.32372370001394,45,45,201.32372370001394,201.32372370001394,201.32372370001394,201.32372370001394,201.32372370001394,201.32372370001394,201.32372370001394,201.32372370001394,201.32372370001394,201.6902107000351,201.6902107000351,201.6902107000351,201.6902107000351,201.6902107000351,201.6902107000351,201.6902107000351,201.6902107000351,201.6902107000351,23,0,,,201.6902107000351,201.89040979999118,0.0,201.89040979999118,0,0.0,0,1,1000,num_1,0.5421168999746442,,25,11,2026-03-04_18h14.56.182,2026A_exp2,2022.2.4,59.872997378837795,
0,0,0.0,6.1,1,0,65,65,76,,,,,202.45765679999022,203.10837690002518,203.10837690002518,203.5927917000372,45,315,203.5927917000372,203.5927917000372,203.5927917000372,203.5927917000372,203.5927917000372,203.5927917000372,203.5927917000372,203.5927917000372,203.5927917000372,203.95925800001714,203.95925800001714,203.95925800001714,203.95925800001714,203.95925800001714,203.95925800001714,203.95925800001714,203.95925800001714,203.95925800001714,23,0,,,203.95925800001714,204.1593102000188,0.0,204.1593102000188,1,0.0,0,0,1000,num_4,0.057382000028155744,,25,11,2026-03-04_18h14.56.182,2026A_exp2,2022.2.4,59.872997378837795,
1,0,0.0,0.0,0,0,66,66,2,,,,,204.24278810003307,204.89350689999992,204.89350689999992,205.377809800033,45,45,205.377809800033,205.377809800033,205.377809800033,205.377809800033,205.377809800033,205.377809800033,205.377809800033,205.377809800033,205.377809800033,205.74421040003654,205.74421040003654,205.74421040003654,205.74421040003654,205.74421040003654,205.74421040003654,205.74421040003654,205.74421040003654,205.74421040003654,23,0,,,205.74421040003654,205.94440070004202,0.0,205.94440070004202,0,0.0,0,1,1000,num_1,0.6802409999654628,,25,11,2026-03-04_18h14.56.182,2026A_exp2,2022.2.4,59.872997378837795,
1,0,0.0,3.7,0,0,67,67,12,,,,,206.64512900001137,207.2793551000068,207.2793551000068,207.780185599986,315,45,207.780185599986,207.780185599986,207.780185599986,207.780185599986,207.780185599986,207.780185599986,207.780185599986,207.780185599986,207.780185599986,208.14664799999446,208.14664799999446,208.14664799999446,208.14664799999446,208.14664799999446,208.14664799999446,208.14664799999446,208.14664799999446,208.14664799999446,23,0,,,208.14664799999446,208.34686270001112,0.0,208.34686270001112,1,0.0,0,0,1000,num_4,0.5729061999591067,,25,11,2026-03-04_18h14.56.182,2026A_exp2,2022.2.4,59.872997378837795,
0,0,0.0,3.7,1,0,68,68,21,,,,,208.94738480000524,209.59811040002387,209.59811040002387,210.08275060000597,315,45,210.08275060000597,210.08275060000597,210.08275060000597,210.08275060000597,210.08275060000597,210.08275060000597,210.08275060000597,210.08275060000597,210.08275060000597,210.44887020002352,210.44887020002352,210.44887020002352,210.44887020002352,210.44887020002352,210.44887020002352,210.44887020002352,210.44887020002352,210.44887020002352,23,0,,,210.44887020002352,210.64879270002712,0.0,210.64879270002712,0,0.0,0,1,1000,num_1,1.3678644999745302,,25,11,2026-03-04_18h14.56.182,2026A_exp2,2022.2.4,59.872997378837795,
1000,1,0.0,0.0,0,0,69,69,69,,,,,212.03383249999024,212.68474930000957,212.68474930000957,213.18555210001068,45,45,213.18555210001068,213.18555210001068,213.18555210001068,213.18555210001068,213.18555210001068,213.18555210001068,213.18555210001068,213.18555210001068,213.18555210001068,213.53543160000117,213.53543160000117,213.53543160000117,213.53543160000117,213.53543160000117,213.53543160000117,213.53543160000117,213.53543160000117,213.53543160000117,22,0,,,213.53543160000117,213.73594740004046,1000,213.73594740004046,1000,1000,1000,1000,0,num_3,0.10430690000066534,,25,11,2026-03-04_18h14.56.182,2026A_exp2,2022.2.4,59.872997378837795,
1,0,0.0,0.0,1,0,70,70,66,,,,,213.86908590001985,214.5030915000243,214.5030915000243,215.00412810000125,315,45,215.00412810000125,215.00412810000125,215.00412810000125,215.00412810000125,215.00412810000125,215.00412810000125,215.00412810000125,215.00412810000125,215.00412810000125,215.37059840001166,215.37059840001166,215.37059840001166,215.37059840001166,215.37059840001166,215.37059840001166,215.37059840001166,215.37059840001166,215.37059840001166,23,0,,,215.37059840001166,215.5708504000213,0.0,215.5708504000213,1,0.0,0,0,1000,num_4,0.6781595000065863,,25,11,2026-03-04_18h14.56.182,2026A_exp2,2022.2.4,59.872997378837795,
1000,1,4.9,4.9,0,0,71,71,42,,,,,216.2715773000382,216.92205180000747,216.92205180000747,217.40647079999326,45,45,217.40647079999326,217.40647079999326,217.40647079999326,217.40647079999326,217.40647079999326,217.40647079999326,217.40647079999326,217.40647079999326,217.40647079999326,217.77284280001186,217.77284280001186,217.77284280001186,217.77284280001186,217.77284280001186,217.77284280001186,217.77284280001186,217.77284280001186,217.77284280001186,23,0,,,217.77284280001186,217.97522560000652,1000,217.97522560000652,1000,1000,1000,1000,0,num_3,0.11271590000251308,,25,11,2026-03-04_18h14.56.182,2026A_exp2,2022.2.4,59.872997378837795,
1,0,0.0,4.9,0,0,72,72,17,,,,,218.10658200003672,218.75734449998708,218.75734449998708,219.25838419998763,315,45,219.25838419998763,219.25838419998763,219.25838419998763,219.25838419998763,219.25838419998763,219.25838419998763,219.25838419998763,219.25838419998763,219.25838419998763,219.62485170003492,219.62485170003492,219.62485170003492,219.62485170003492,219.62485170003492,219.62485170003492,219.62485170003492,219.62485170003492,219.62485170003492,23,0,,,219.62485170003492,219.82498889998533,0.0,219.82498889998533,0,0.0,0,1,1000,num_1,0.967297499999404,,25,11,2026-03-04_18h14.56.182,2026A_exp2,2022.2.4,59.872997378837795,
0,0,4.9,0.0,0,0,73,73,30,,,,,220.80941300000995,221.4600650999928,221.4600650999928,221.94433830003254,45,45,221.94433830003254,221.94433830003254,221.94433830003254,221.94433830003254,221.94433830003254,221.94433830003254,221.94433830003254,221.94433830003254,221.94433830003254,222.31070840003667,222.31070840003667,222.31070840003667,222.31070840003667,222.31070840003667,222.31070840003667,222.31070840003667,222.31070840003667,222.31070840003667,23,0,,,222.31070840003667,222.5110762999975,0.0,222.5110762999975,1,0.0,0,0,1000,num_4,0.465575699985493,,25,11,2026-03-04_18h14.56.182,2026A_exp2,2022.2.4,59.872997378837795,
1,0,4.9,6.1,1,0,74,74,46,,,,,222.9948798000114,223.64537570002722,223.64537570002722,224.12990870000795,315,45,224.12990870000795,224.12990870000795,224.12990870000795,224.12990870000795,224.12990870000795,224.12990870000795,224.12990870000795,224.12990870000795,224.12990870000795,224.49630260001868,224.49630260001868,224.49630260001868,224.49630260001868,224.49630260001868,224.49630260001868,224.49630260001868,224.49630260001868,224.49630260001868,23,0,,,224.49630260001868,224.69661789998645,6.1,224.69661789998645,0,6.1,1,0,1000,num_1,0.8635807000100613,,25,11,2026-03-04_18h14.56.182,2026A_exp2,2022.2.4,59.872997378837795,
1,0,0.0,0.0,0,0,75,75,59,,,,,225.5807943000109,226.2314017000026,226.2314017000026,226.7158509999863,45,315,226.7158509999863,226.7158509999863,226.7158509999863,226.7158509999863,226.7158509999863,226.7158509999863,226.7158509999863,226.7158509999863,226.7158509999863,227.08233970002038,227.08233970002038,227.08233970002038,227.08233970002038,227.08233970002038,227.08233970002038,227.08233970002038,227.08233970002038,227.08233970002038,23,0,,,227.08233970002038,227.2824724999955,0.0,227.2824724999955,1,0.0,0,0,1000,num_4,0.6299945000209846,,25,11,2026-03-04_18h14.56.182,2026A_exp2,2022.2.4,59.872997378837795,
1,0,4.9,0.0,1,0,76,76,82,,,,,227.93299310002476,228.58368129999144,228.58368129999144,229.08497510000598,45,315,229.08497510000598,229.08497510000598,229.08497510000598,229.08497510000598,229.08497510000598,229.08497510000598,229.08497510000598,229.08497510000598,229.08497510000598,229.43459080002503,229.43459080002503,229.43459080002503,229.43459080002503,229.43459080002503,229.43459080002503,229.43459080002503,229.43459080002503,229.43459080002503,22,0,,,229.43459080002503,229.63481910002884,0.0,229.65150310000172,1,0.0,0,0,1000,num_4,0.5084340000175871,,25,11,2026-03-04_18h14.56.182,2026A_exp2,2022.2.4,59.872997378837795,
1000,1,4.9,6.1,1,0,77,77,1,,,,,230.1854755000095,230.83593290002318,230.83593290002318,231.32015690003755,45,315,231.32015690003755,231.32015690003755,231.32015690003755,231.32015690003755,231.32015690003755,231.32015690003755,231.32015690003755,231.32015690003755,231.32015690003755,231.68688719999045,231.68688719999045,231.68688719999045,231.68688719999045,231.68688719999045,231.68688719999045,231.68688719999045,231.68688719999045,231.68688719999045,23,0,,,231.68688719999045,231.88890690001426,1000,231.88890690001426,1000,1000,1000,1000,1,num_2,0.09465650003403425,,25,11,2026-03-04_18h14.56.182,2026A_exp2,2022.2.4,59.872997378837795,
0,0,3.7,4.9,1,0,78,78,3,,,,,232.00391080003465,232.65450509998482,232.65450509998482,233.15557100001024,315,315,233.15557100001024,233.15557100001024,233.15557100001024,233.15557100001024,233.15557100001024,233.15557100001024,233.15557100001024,233.15557100001024,233.15557100001024,233.50544249999803,233.50544249999803,233.50544249999803,233.50544249999803,233.50544249999803,233.50544249999803,233.50544249999803,233.50544249999803,233.50544249999803,22,0,,,233.50544249999803,233.70564050000394,3.7,233.70564050000394,0,3.7,1,0,1000,num_1,0.9261261000065133,,25,11,2026-03-04_18h14.56.182,2026A_exp2,2022.2.4,59.872997378837795,
1000,1,0.0,0.0,1,0,79,79,7,,,,,234.6566923999926,235.30746580002597,235.30746580002597,235.80827600002522,315,315,235.80827600002522,235.80827600002522,235.80827600002522,235.80827600002522,235.80827600002522,235.80827600002522,235.80827600002522,235.80827600002522,235.80827600002522,236.17475450003985,236.17475450003985,236.17475450003985,236.17475450003985,236.17475450003985,236.17475450003985,236.17475450003985,236.17475450003985,236.17475450003985,23,0,,,236.17475450003985,236.37748110003304,1000,236.37748110003304,1000,1000,1000,1000,1,num_2,0.12664750003023073,,25,11,2026-03-04_18h14.56.182,2026A_exp2,2022.2.4,59.872997378837795,
1000,1,4.9,4.9,0,0,80,80,31,,,,,236.5251353000058,237.175767800014,237.175767800014,237.67690650001168,315,45,237.67690650001168,237.67690650001168,237.67690650001168,237.67690650001168,237.67690650001168,237.67690650001168,237.67690650001168,237.67690650001168,237.67690650001168,238.02648950001458,238.02648950001458,238.02648950001458,238.02648950001458,238.02648950001458,238.02648950001458,238.02648950001458,238.02648950001458,238.02648950001458,22,0,,,238.02648950001458,238.22851169999922,1000,238.2434043000103,1000,1000,1000,1000,0,num_3,0.23712950001936406,,25,11,2026-03-04_18h14.56.182,2026A_exp2,2022.2.4,59.872997378837795,
1000,1,4.9,0.0,0,0,81,81,36,,,,,238.51047209999524,239.16109870001674,239.16109870001674,239.66207790002227,315,45,239.66207790002227,239.66207790002227,239.66207790002227,239.66207790002227,239.66207790002227,239.66207790002227,239.66207790002227,239.66207790002227,239.66207790002227,240.02858089999063,240.02858089999063,240.02858089999063,240.02858089999063,240.02858089999063,240.02858089999063,240.02858089999063,240.02858089999063,240.02858089999063,23,0,,,240.02858089999063,240.2306372000021,1000,240.2306372000021,1000,1000,1000,1000,0,num_3,0.2264127999660559,,25,11,2026-03-04_18h14.56.182,2026A_exp2,2022.2.4,59.872997378837795,
1000,1,6.1,3.7,1,0,82,82,24,,,,,240.47917750000488,241.12970140000107,241.12970140000107,241.6306414999999,315,45,241.6306414999999,241.6306414999999,241.6306414999999,241.6306414999999,241.6306414999999,241.6306414999999,241.6306414999999,241.6306414999999,241.6306414999999,241.99717660003807,241.99717660003807,241.99717660003807,241.99717660003807,241.99717660003807,241.99717660003807,241.99717660003807,241.99717660003807,241.99717660003807,23,0,,,241.99717660003807,242.19927989999996,1000,242.19927989999996,1000,1000,1000,1000,1,num_2,0.12178410001797602,,25,11,2026-03-04_18h14.56.182,2026A_exp2,2022.2.4,59.872997378837795,
1,0,0.0,0.0,1,0,83,83,18,,,,,242.34762100002263,242.99823560001096,242.99823560001096,243.4825582000194,315,315,243.4825582000194,243.4825582000194,243.4825582000194,243.4825582000194,243.4825582000194,243.4825582000194,243.4825582000194,243.4825582000194,243.4825582000194,243.84886460000416,243.84886460000416,243.84886460000416,243.84886460000416,243.84886460000416,243.84886460000416,243.84886460000416,243.84886460000416,243.84886460000416,23,0,,,243.84886460000416,244.0491658000392,0.0,244.0491658000392,0,0.0,0,1,1000,num_1,0.6867922999663278,,25,11,2026-03-04_18h14.56.182,2026A_exp2,2022.2.4,59.872997378837795,
1,0,0.0,6.1,0,0,84,84,5,,,,,244.76672529999632,245.41736210003728,245.41736210003728,245.91824860003544,315,315,245.91824860003544,245.91824860003544,245.91824860003544,245.91824860003544,245.91824860003544,245.91824860003544,245.91824860003544,245.91824860003544,245.91824860003544,246.26818830001866,246.26818830001866,246.26818830001866,246.26818830001866,246.26818830001866,246.26818830001866,246.26818830001866,246.26818830001866,246.26818830001866,22,0,,,246.26818830001866,246.46822640002938,0.0,246.46822640002938,1,0.0,0,0,1000,num_4,0.7156680999905802,,25,11,2026-03-04_18h14.56.182,2026A_exp2,2022.2.4,59.872997378837795,
1,0,0.0,0.0,0,0,85,85,38,,,,,247.20245029998478,247.83637460001046,247.83637460001046,248.33747110003605,315,315,248.33747110003605,248.33747110003605,248.33747110003605,248.33747110003605,248.33747110003605,248.33747110003605,248.33747110003605,248.33747110003605,248.33747110003605,248.70396370004164,248.70396370004164,248.70396370004164,248.70396370004164,248.70396370004164,248.70396370004164,248.70396370004164,248.70396370004164,248.70396370004164,23,0,,,248.70396370004164,248.90413300000364,0.0,248.90413300000364,1,0.0,0,0,1000,num_4,0.5442053999868222,,25,11,2026-03-04_18h14.56.182,2026A_exp2,2022.2.4,59.872997378837795,
1000,1,6.1,3.7,0,0,86,86,87,,,,,249.47140939999372,250.12195370002883,250.12195370002883,250.60639870003797,45,315,250.60639870003797,250.60639870003797,250.60639870003797,250.60639870003797,250.60639870003797,250.60639870003797,250.60639870003797,250.60639870003797,250.60639870003797,250.9728120000218,250.9728120000218,250.9728120000218,250.9728120000218,250.9728120000218,250.9728120000218,250.9728120000218,250.9728120000218,250.9728120000218,23,0,,,250.9728120000218,251.17415550001897,1000,251.17415550001897,1000,1000,1000,1000,0,num_3,0.19376589998137206,,25,11,2026-03-04_18h14.56.182,2026A_exp2,2022.2.4,59.872997378837795,
0,0,3.7,0.0,1,0,87,87,83,,,,,251.38992119999602,252.0405088000116,252.0405088000116,252.54174070002045,45,45,252.54174070002045,252.54174070002045,252.54174070002045,252.54174070002045,252.54174070002045,252.54174070002045,252.54174070002045,252.54174070002045,252.54174070002045,252.90797330002533,252.90797330002533,252.90797330002533,252.90797330002533,252.90797330002533,252.90797330002533,252.90797330002533,252.90797330002533,252.90797330002533,23,0,,,252.90797330002533,253.10839220002526,3.7,253.10839220002526,0,3.7,1,0,1000,num_1,0.8913495000451803,,25,11,2026-03-04_18h14.56.182,2026A_exp2,2022.2.4,59.872997378837795,
1,0,6.1,4.9,1,0,88,88,35,,,,,254.02576250000857,254.676551200042,254.676551200042,255.16105649998644,315,45,255.16105649998644,255.16105649998644,255.16105649998644,255.16105649998644,255.16105649998644,255.16105649998644,255.16105649998644,255.16105649998644,255.16105649998644,255.52731289999792,255.52731289999792,255.52731289999792,255.52731289999792,255.52731289999792,255.52731289999792,255.52731289999792,255.52731289999792,255.52731289999792,23,0,,,255.52731289999792,255.72751520003658,4.9,255.72751520003658,1,4.9,1,1,1000,num_4,0.6886546000023372,,25,11,2026-03-04_18h14.56.182,2026A_exp2,2022.2.4,59.872997378837795,
1,0,4.9,0.0,1,0,89,89,84,,,,,256.44472530001076,257.09585069998866,257.09585069998866,257.58003710000776,315,315,257.58003710000776,257.58003710000776,257.58003710000776,257.58003710000776,257.58003710000776,257.58003710000776,257.58003710000776,257.58003710000776,257.58003710000776,257.9465502999956,257.9465502999956,257.9465502999956,257.9465502999956,257.9465502999956,257.9465502999956,257.9465502999956,257.9465502999956,257.9465502999956,23,0,,,257.9465502999956,258.1466550999903,0.0,258.1466550999903,1,0.0,0,0,1000,num_4,0.694316900044214,,25,11,2026-03-04_18h14.56.182,2026A_exp2,2022.2.4,59.872997378837795,
,,,,,,,,,,,,,,,,,,,,,,,,,,,,,,,,,,,,,,,,,,,,,,,,,,,,258.8719162000343,,,,,,,
