validity,detectorcomp,contrastCW,contrastCCW,precueCWorCCW,block_80trials.thisRepN,block_80trials.thisTrialN,block_80trials.thisN,block_80trials.thisIndex,etRecord.started,etRecord.stopped,text.started,text.stopped,text_4.started,text_4.stopped,text_6.started,text_6.stopped,oriCW,oriCCW,roi_2.started,grating_UR.started,grating_UL.started,grating_LR.started,grating_LL.started,noise_UR.started,noise_UL.started,noise_LR.started,noise_LL.started,roi_2.stopped,grating_UR.stopped,grating_UL.stopped,grating_LR.stopped,grating_LL.stopped,noise_UR.stopped,noise_UL.stopped,noise_LR.stopped,noise_LL.stopped,outframe,roi_2.numLooks,roi_2.timesOn,roi_2.timesOff,text_2.started,text_2.stopped,probedcontrast,key_resp.started,respdetect,relevantContrast,correctDetect,TorFdetect,respCWorCCW,key_resp.keys,key_resp.rt,feedback_display_.started,participantNo,blockNo,date,expName,psychopyVersion,frameRate,
1,0,4.9,0.0,1,0,0,0,6,3.480000304989517e-05,3.480000304989517e-05,52.892955099989194,54.896140099997865,54.896140099997865,55.529463999992004,55.529463999992004,56.050110899988795,45,45,56.050110899988795,56.050110899988795,56.050110899988795,56.050110899988795,56.050110899988795,56.050110899988795,56.050110899988795,56.050110899988795,56.050110899988795,56.39725509998971,56.39725509998971,56.39725509998971,56.39725509998971,56.39725509998971,56.39725509998971,56.39725509998971,56.39725509998971,56.39725509998971,23,0,,,56.39725509998971,56.59740949998377,0.0,56.59740949998377,0,0.0,0,1,1000,num_1,0.8431369999889284,,18,3,2026-03-02_10h29.49.650,2026A_exp2,2022.2.4,59.97023077766166,
1,0,0.0,0.0,0,0,1,1,49,,,,,57.46500329999253,58.099016099993605,58.099016099993605,58.59991419999278,315,315,58.59991419999278,58.59991419999278,58.59991419999278,58.59991419999278,58.59991419999278,58.59991419999278,58.59991419999278,58.59991419999278,58.59991419999278,58.96624989999691,58.96624989999691,58.96624989999691,58.96624989999691,58.96624989999691,58.96624989999691,58.96624989999691,58.96624989999691,58.96624989999691,23,0,,,58.96624989999691,59.16671199997654,0.0,59.16671199997654,0,0.0,0,1,1000,num_1,0.9060593999747653,,18,3,2026-03-02_10h29.49.650,2026A_exp2,2022.2.4,59.97023077766166,
1000,1,6.1,3.7,1,0,2,2,0,,,,,60.10105820000172,60.75168849999318,60.75168849999318,61.23612079999293,45,45,61.23612079999293,61.23612079999293,61.23612079999293,61.23612079999293,61.23612079999293,61.23612079999293,61.23612079999293,61.23612079999293,61.23612079999293,61.602521299995715,61.602521299995715,61.602521299995715,61.602521299995715,61.602521299995715,61.602521299995715,61.602521299995715,61.602521299995715,61.602521299995715,23,0,,,61.602521299995715,61.8073559999757,1000,61.8073559999757,1000,1000,1000,1000,1,num_2,1.3052621000097133,,18,3,2026-03-02_10h29.49.650,2026A_exp2,2022.2.4,59.97023077766166,
1,0,0.0,4.9,0,0,3,3,85,,,,,63.13733109997702,63.787992500001565,63.787992500001565,64.28919709997717,315,315,64.28919709997717,64.28919709997717,64.28919709997717,64.28919709997717,64.28919709997717,64.28919709997717,64.28919709997717,64.28919709997717,64.28919709997717,64.63882679998642,64.63882679998642,64.63882679998642,64.63882679998642,64.63882679998642,64.63882679998642,64.63882679998642,64.63882679998642,64.63882679998642,22,0,,,64.63882679998642,64.83871709997766,0.0,64.85536159999901,0,0.0,0,1,1000,num_1,0.6722126999811735,,18,3,2026-03-02_10h29.49.650,2026A_exp2,2022.2.4,59.97023077766166,
1,0,6.1,3.7,0,0,4,4,26,,,,,65.55627430000459,66.2071769000031,66.2071769000031,66.69157989998348,45,315,66.69157989998348,66.69157989998348,66.69157989998348,66.69157989998348,66.69157989998348,66.69157989998348,66.69157989998348,66.69157989998348,66.69157989998348,67.05790879999404,67.05790879999404,67.05790879999404,67.05790879999404,67.05790879999404,67.05790879999404,67.05790879999404,67.05790879999404,67.05790879999404,23,0,,,67.05790879999404,67.25817389998701,6.1,67.25817389998701,1,6.1,1,1,1000,num_4,0.47869750001700595,,18,3,2026-03-02_10h29.49.650,2026A_exp2,2022.2.4,59.97023077766166,
1,0,0.0,0.0,1,0,5,5,43,,,,,67.75869239997701,68.40930279999156,68.40930279999156,68.89361589998589,315,45,68.89361589998589,68.89361589998589,68.89361589998589,68.89361589998589,68.89361589998589,68.89361589998589,68.89361589998589,68.89361589998589,68.89361589998589,69.26013549999334,69.26013549999334,69.26013549999334,69.26013549999334,69.26013549999334,69.26013549999334,69.26013549999334,69.26013549999334,69.26013549999334,23,0,,,69.26013549999334,69.46020679999492,0.0,69.46020679999492,0,0.0,0,1,1000,num_1,0.4759823000058532,,18,3,2026-03-02_10h29.49.650,2026A_exp2,2022.2.4,59.97023077766166,
1,0,0.0,0.0,1,0,6,6,70,,,,,69.96071179999853,70.5950073999993,70.5950073999993,71.1126977999811,315,45,71.1126977999811,71.1126977999811,71.1126977999811,71.1126977999811,71.1126977999811,71.1126977999811,71.1126977999811,71.1126977999811,71.1126977999811,71.46217789998627,71.46217789998627,71.46217789998627,71.46217789998627,71.46217789998627,71.46217789998627,71.46217789998627,71.46217789998627,71.46217789998627,22,0,,,71.46217789998627,71.66246379999211,0.0,71.66246379999211,0,0.0,0,1,1000,num_1,0.4655895000032615,,18,3,2026-03-02_10h29.49.650,2026A_exp2,2022.2.4,59.97023077766166,
1,0,6.1,0.0,0,0,7,7,50,,,,,72.14617809999618,72.78037009999389,72.78037009999389,73.28147649997845,45,45,73.28147649997845,73.28147649997845,73.28147649997845,73.28147649997845,73.28147649997845,73.28147649997845,73.28147649997845,73.28147649997845,73.28147649997845,73.64795299997786,73.64795299997786,73.64795299997786,73.64795299997786,73.64795299997786,73.64795299997786,73.64795299997786,73.64795299997786,73.64795299997786,23,0,,,73.64795299997786,73.84788369998569,6.1,73.84788369998569,1,6.1,1,1,1000,num_4,0.3756530999962706,,18,3,2026-03-02_10h29.49.650,2026A_exp2,2022.2.4,59.97023077766166,
1000,1,6.1,0.0,1,0,8,8,60,,,,,74.24831429999904,74.89909939997597,74.89909939997597,75.38342169998214,315,315,75.38342169998214,75.38342169998214,75.38342169998214,75.38342169998214,75.38342169998214,75.38342169998214,75.38342169998214,75.38342169998214,75.38342169998214,75.7498126999999,75.7498126999999,75.7498126999999,75.7498126999999,75.7498126999999,75.7498126999999,75.7498126999999,75.7498126999999,75.7498126999999,23,0,,,75.7498126999999,75.9517521999951,1000,75.9517521999951,1000,1000,1000,1000,0,num_3,0.7278045999992173,,18,3,2026-03-02_10h29.49.650,2026A_exp2,2022.2.4,59.97023077766166,
1,0,0.0,0.0,0,0,9,9,81,,,,,76.70076269999845,77.35140939999837,77.35140939999837,77.8526268999849,45,315,77.8526268999849,77.8526268999849,77.8526268999849,77.8526268999849,77.8526268999849,77.8526268999849,77.8526268999849,77.8526268999849,77.8526268999849,78.21894719998818,78.21894719998818,78.21894719998818,78.21894719998818,78.21894719998818,78.21894719998818,78.21894719998818,78.21894719998818,78.21894719998818,23,0,,,78.21894719998818,78.41916059999494,0.0,78.41916059999494,0,0.0,0,1,1000,num_1,0.8528135999804363,,18,3,2026-03-02_10h29.49.650,2026A_exp2,2022.2.4,59.97023077766166,
0,0,0.0,0.0,1,0,10,10,62,,,,,79.30336389999138,79.95401999997557,79.95401999997557,80.4385198999953,45,45,80.4385198999953,80.4385198999953,80.4385198999953,80.4385198999953,80.4385198999953,80.4385198999953,80.4385198999953,80.4385198999953,80.4385198999953,80.80486799997743,80.80486799997743,80.80486799997743,80.80486799997743,80.80486799997743,80.80486799997743,80.80486799997743,80.80486799997743,80.80486799997743,23,0,,,80.80486799997743,81.00527209998108,0.0,81.00527209998108,0,0.0,0,1,1000,num_1,0.5631490000232588,,18,3,2026-03-02_10h29.49.650,2026A_exp2,2022.2.4,59.97023077766166,
1000,1,0.0,3.7,0,0,11,11,52,,,,,81.58898689999478,82.23972159999539,82.23972159999539,82.72427989999414,45,45,82.72427989999414,82.72427989999414,82.72427989999414,82.72427989999414,82.72427989999414,82.72427989999414,82.72427989999414,82.72427989999414,82.72427989999414,83.09066849999363,83.09066849999363,83.09066849999363,83.09066849999363,83.09066849999363,83.09066849999363,83.09066849999363,83.09066849999363,83.09066849999363,23,0,,,83.09066849999363,83.29246549998061,1000,83.29246549998061,1000,1000,1000,1000,1,num_2,1.2750415000191424,,18,3,2026-03-02_10h29.49.650,2026A_exp2,2022.2.4,59.97023077766166,
1000,1,4.9,0.0,0,0,12,12,22,,,,,84.5920115999761,85.24277019998408,85.24277019998408,85.74386889999732,45,45,85.74386889999732,85.74386889999732,85.74386889999732,85.74386889999732,85.74386889999732,85.74386889999732,85.74386889999732,85.74386889999732,85.74386889999732,86.1103208999848,86.1103208999848,86.1103208999848,86.1103208999848,86.1103208999848,86.1103208999848,86.1103208999848,86.1103208999848,86.1103208999848,23,0,,,86.1103208999848,86.31062730000122,1000,86.31062730000122,1000,1000,1000,1000,0,num_3,0.5777804999961518,,18,3,2026-03-02_10h29.49.650,2026A_exp2,2022.2.4,59.97023077766166,
1,0,4.9,4.9,1,0,13,13,89,,,,,86.91097519997857,87.56177949998528,87.56177949998528,88.06282829999691,315,45,88.06282829999691,88.06282829999691,88.06282829999691,88.06282829999691,88.06282829999691,88.06282829999691,88.06282829999691,88.06282829999691,88.06282829999691,88.42930269998033,88.42930269998033,88.42930269998033,88.42930269998033,88.42930269998033,88.42930269998033,88.42930269998033,88.42930269998033,88.42930269998033,23,0,,,88.42930269998033,88.62952439999208,4.9,88.62952439999208,1,4.9,1,1,1000,num_4,0.8668996999913361,,18,3,2026-03-02_10h29.49.650,2026A_exp2,2022.2.4,59.97023077766166,
1,0,0.0,3.7,0,0,14,14,12,,,,,89.51361009999528,90.16442950000055,90.16442950000055,90.64873679997982,45,45,90.64873679997982,90.64873679997982,90.64873679997982,90.64873679997982,90.64873679997982,90.64873679997982,90.64873679997982,90.64873679997982,90.64873679997982,91.01521529999445,91.01521529999445,91.01521529999445,91.01521529999445,91.01521529999445,91.01521529999445,91.01521529999445,91.01521529999445,91.01521529999445,23,0,,,91.01521529999445,91.21534629998496,0.0,91.21534629998496,0,0.0,0,1,1000,num_1,0.793394200009061,,18,3,2026-03-02_10h29.49.650,2026A_exp2,2022.2.4,59.97023077766166,
0,0,0.0,4.9,0,0,15,15,54,,,,,92.03278199999477,92.6834097999963,92.6834097999963,93.16795719999936,45,315,93.16795719999936,93.16795719999936,93.16795719999936,93.16795719999936,93.16795719999936,93.16795719999936,93.16795719999936,93.16795719999936,93.16795719999936,93.53436029999284,93.53436029999284,93.53436029999284,93.53436029999284,93.53436029999284,93.53436029999284,93.53436029999284,93.53436029999284,93.53436029999284,23,0,,,93.53436029999284,93.73456709997845,4.9,93.73456709997845,1,4.9,1,1,1000,num_4,0.7453761999786366,,18,3,2026-03-02_10h29.49.650,2026A_exp2,2022.2.4,59.97023077766166,
1000,1,6.1,4.9,1,0,16,16,16,,,,,94.5018917999987,95.15260959998704,95.15260959998704,95.63720119997743,45,45,95.63720119997743,95.63720119997743,95.63720119997743,95.63720119997743,95.63720119997743,95.63720119997743,95.63720119997743,95.63720119997743,95.63720119997743,96.00344179998501,96.00344179998501,96.00344179998501,96.00344179998501,96.00344179998501,96.00344179998501,96.00344179998501,96.00344179998501,96.00344179998501,23,0,,,96.00344179998501,96.20579549999093,1000,96.20579549999093,1000,1000,1000,1000,1,num_2,0.8906583999923896,,18,3,2026-03-02_10h29.49.650,2026A_exp2,2022.2.4,59.97023077766166,
1000,1,0.0,3.7,0,0,17,17,44,,,,,97.12165839999216,97.77183660000446,97.77183660000446,98.27302569997846,45,315,98.27302569997846,98.27302569997846,98.27302569997846,98.27302569997846,98.27302569997846,98.27302569997846,98.27302569997846,98.27302569997846,98.27302569997846,98.63953749998473,98.63953749998473,98.63953749998473,98.63953749998473,98.63953749998473,98.63953749998473,98.63953749998473,98.63953749998473,98.63953749998473,23,0,,,98.63953749998473,98.84141969998018,1000,98.84141969998018,1000,1000,1000,1000,1,num_2,0.622724399989238,,18,3,2026-03-02_10h29.49.650,2026A_exp2,2022.2.4,59.97023077766166,
0,0,0.0,4.9,1,0,18,18,56,,,,,99.49048019998008,100.12431069999002,100.12431069999002,100.6253339999821,315,45,100.6253339999821,100.6253339999821,100.6253339999821,100.6253339999821,100.6253339999821,100.6253339999821,100.6253339999821,100.6253339999821,100.6253339999821,100.99184199998854,100.99184199998854,100.99184199998854,100.99184199998854,100.99184199998854,100.99184199998854,100.99184199998854,100.99184199998854,100.99184199998854,23,0,,,100.99184199998854,101.19181059999391,0.0,101.19181059999391,0,0.0,0,1,1000,num_1,0.6722586000105366,,18,3,2026-03-02_10h29.49.650,2026A_exp2,2022.2.4,59.97023077766166,
1000,1,4.9,3.7,1,0,19,19,67,,,,,101.89345719999983,102.5263341999962,102.5263341999962,103.02776379999705,315,315,103.02776379999705,103.02776379999705,103.02776379999705,103.02776379999705,103.02776379999705,103.02776379999705,103.02776379999705,103.02776379999705,103.02776379999705,103.39427759998944,103.39427759998944,103.39427759998944,103.39427759998944,103.39427759998944,103.39427759998944,103.39427759998944,103.39427759998944,103.39427759998944,23,0,,,103.39427759998944,103.59616309998091,1000,103.59616309998091,1000,1000,1000,1000,1,num_2,0.8041368999984115,,18,3,2026-03-02_10h29.49.650,2026A_exp2,2022.2.4,59.97023077766166,
1000,1,0.0,4.9,0,0,20,20,11,,,,,104.428497099987,105.07926969998516,105.07926969998516,105.58047200000146,315,45,105.58047200000146,105.58047200000146,105.58047200000146,105.58047200000146,105.58047200000146,105.58047200000146,105.58047200000146,105.58047200000146,105.58047200000146,105.9301381999976,105.9301381999976,105.9301381999976,105.9301381999976,105.9301381999976,105.9301381999976,105.9301381999976,105.9301381999976,105.9301381999976,22,0,,,105.9301381999976,106.13197509999736,1000,106.14720229999512,1000,1000,1000,1000,1,num_2,0.6367115000030026,,18,3,2026-03-02_10h29.49.650,2026A_exp2,2022.2.4,59.97023077766166,
1,0,4.9,6.1,0,0,21,21,15,,,,,106.81430699999328,107.46490339998854,107.46490339998854,107.96598700000322,45,45,107.96598700000322,107.96598700000322,107.96598700000322,107.96598700000322,107.96598700000322,107.96598700000322,107.96598700000322,107.96598700000322,107.96598700000322,108.33247819999815,108.33247819999815,108.33247819999815,108.33247819999815,108.33247819999815,108.33247819999815,108.33247819999815,108.33247819999815,108.33247819999815,23,0,,,108.33247819999815,108.53277109999908,4.9,108.53277109999908,1,4.9,1,1,1000,num_4,0.8189180000044871,,18,3,2026-03-02_10h29.49.650,2026A_exp2,2022.2.4,59.97023077766166,
1,0,3.7,0.0,1,0,22,22,74,,,,,109.38344489998417,110.03420989998267,110.03420989998267,110.51883169999928,315,315,110.51883169999928,110.51883169999928,110.51883169999928,110.51883169999928,110.51883169999928,110.51883169999928,110.51883169999928,110.51883169999928,110.51883169999928,110.88512579997769,110.88512579997769,110.88512579997769,110.88512579997769,110.88512579997769,110.88512579997769,110.88512579997769,110.88512579997769,110.88512579997769,23,0,,,110.88512579997769,111.08511909999652,0.0,111.08511909999652,0,0.0,0,1,1000,num_1,0.9625189999933355,,18,3,2026-03-02_10h29.49.650,2026A_exp2,2022.2.4,59.97023077766166,
1000,1,6.1,4.9,1,0,23,23,53,,,,,112.06944339998881,112.72031909998623,112.72031909998623,113.22145209999871,315,315,113.22145209999871,113.22145209999871,113.22145209999871,113.22145209999871,113.22145209999871,113.22145209999871,113.22145209999871,113.22145209999871,113.22145209999871,113.57093359998544,113.57093359998544,113.57093359998544,113.57093359998544,113.57093359998544,113.57093359998544,113.57093359998544,113.57093359998544,113.57093359998544,22,0,,,113.57093359998544,113.77330770000117,1000,113.77330770000117,1000,1000,1000,1000,1,num_2,0.7872518999793101,,18,3,2026-03-02_10h29.49.650,2026A_exp2,2022.2.4,59.97023077766166,
1000,1,3.7,6.1,0,0,24,24,28,,,,,114.58870490000118,115.23946709997836,115.23946709997836,115.74061249999795,315,315,115.74061249999795,115.74061249999795,115.74061249999795,115.74061249999795,115.74061249999795,115.74061249999795,115.74061249999795,115.74061249999795,115.74061249999795,116.106762099982,116.106762099982,116.106762099982,116.106762099982,116.106762099982,116.106762099982,116.106762099982,116.106762099982,116.106762099982,23,0,,,116.106762099982,116.30949809998856,1000,116.30949809998856,1000,1000,1000,1000,0,num_3,0.6594044000084978,,18,3,2026-03-02_10h29.49.650,2026A_exp2,2022.2.4,59.97023077766166,
1000,1,0.0,0.0,0,0,25,25,69,,,,,116.99107129999902,117.64181999998982,117.64181999998982,118.14286520000314,315,315,118.14286520000314,118.14286520000314,118.14286520000314,118.14286520000314,118.14286520000314,118.14286520000314,118.14286520000314,118.14286520000314,118.14286520000314,118.50928609998664,118.50928609998664,118.50928609998664,118.50928609998664,118.50928609998664,118.50928609998664,118.50928609998664,118.50928609998664,118.50928609998664,23,0,,,118.50928609998664,118.70972749998327,1000,118.70972749998327,1000,1000,1000,1000,1,num_2,0.7535989999887533,,18,3,2026-03-02_10h29.49.650,2026A_exp2,2022.2.4,59.97023077766166,
1,0,0.0,6.1,0,0,26,26,68,,,,,119.4935545999906,120.14429229998495,120.14429229998495,120.64561619999586,315,45,120.64561619999586,120.64561619999586,120.64561619999586,120.64561619999586,120.64561619999586,120.64561619999586,120.64561619999586,120.64561619999586,120.64561619999586,121.01174619997619,121.01174619997619,121.01174619997619,121.01174619997619,121.01174619997619,121.01174619997619,121.01174619997619,121.01174619997619,121.01174619997619,23,0,,,121.01174619997619,121.21205380000174,0.0,121.21205380000174,0,0.0,0,1,1000,num_1,0.9084282999974675,,18,3,2026-03-02_10h29.49.650,2026A_exp2,2022.2.4,59.97023077766166,
1,0,0.0,4.9,0,0,27,27,17,,,,,122.14619499997934,122.79691419997835,122.79691419997835,123.28140919998987,315,45,123.28140919998987,123.28140919998987,123.28140919998987,123.28140919998987,123.28140919998987,123.28140919998987,123.28140919998987,123.28140919998987,123.28140919998987,123.64784109999891,123.64784109999891,123.64784109999891,123.64784109999891,123.64784109999891,123.64784109999891,123.64784109999891,123.64784109999891,123.64784109999891,23,0,,,123.64784109999891,123.84808100000373,0.0,123.84808100000373,0,0.0,0,1,1000,num_1,0.6559482000011485,,18,3,2026-03-02_10h29.49.650,2026A_exp2,2022.2.4,59.97023077766166,
1000,1,0.0,0.0,1,0,28,28,14,,,,,124.53191170000355,125.18273479997879,125.18273479997879,125.66709939998691,45,45,125.66709939998691,125.66709939998691,125.66709939998691,125.66709939998691,125.66709939998691,125.66709939998691,125.66709939998691,125.66709939998691,125.66709939998691,126.03346720000263,126.03346720000263,126.03346720000263,126.03346720000263,126.03346720000263,126.03346720000263,126.03346720000263,126.03346720000263,126.03346720000263,23,0,,,126.03346720000263,126.23542479999014,1000,126.23542479999014,1000,1000,1000,1000,0,num_3,0.6448871000029612,,18,3,2026-03-02_10h29.49.650,2026A_exp2,2022.2.4,59.97023077766166,
1000,1,4.9,6.1,1,0,29,29,1,,,,,126.90091559998109,127.55163279999397,127.55163279999397,128.05296989998897,315,45,128.05296989998897,128.05296989998897,128.05296989998897,128.05296989998897,128.05296989998897,128.05296989998897,128.05296989998897,128.05296989998897,128.05296989998897,128.4192783999897,128.4192783999897,128.4192783999897,128.4192783999897,128.4192783999897,128.4192783999897,128.4192783999897,128.4192783999897,128.4192783999897,23,0,,,128.4192783999897,128.62117749999743,1000,128.62117749999743,1000,1000,1000,1000,1,num_2,0.5143354999891017,,18,3,2026-03-02_10h29.49.650,2026A_exp2,2022.2.4,59.97023077766166,
1000,1,4.9,0.0,0,0,30,30,58,,,,,129.15315469997586,129.80404029999045,129.80404029999045,130.30503529999987,315,315,130.30503529999987,130.30503529999987,130.30503529999987,130.30503529999987,130.30503529999987,130.30503529999987,130.30503529999987,130.30503529999987,130.30503529999987,130.67156940000132,130.67156940000132,130.67156940000132,130.67156940000132,130.67156940000132,130.67156940000132,130.67156940000132,130.67156940000132,130.67156940000132,23,0,,,130.67156940000132,130.87162910000188,1000,130.87162910000188,1000,1000,1000,1000,0,num_3,0.4243033000093419,,18,3,2026-03-02_10h29.49.650,2026A_exp2,2022.2.4,59.97023077766166,
1,0,0.0,0.0,1,0,31,31,37,,,,,131.32216300000437,131.97288919999846,131.97288919999846,132.4737002000038,45,45,132.4737002000038,132.4737002000038,132.4737002000038,132.4737002000038,132.4737002000038,132.4737002000038,132.4737002000038,132.4737002000038,132.4737002000038,132.84024950000457,132.84024950000457,132.84024950000457,132.84024950000457,132.84024950000457,132.84024950000457,132.84024950000457,132.84024950000457,132.84024950000457,23,0,,,132.84024950000457,133.04132459999528,0.0,133.04132459999528,0,0.0,0,1,1000,num_1,0.846562199993059,,18,3,2026-03-02_10h29.49.650,2026A_exp2,2022.2.4,59.97023077766166,
1,0,0.0,0.0,1,0,32,32,41,,,,,133.9078559000045,134.5586689999909,134.5586689999909,135.04316479997942,315,315,135.04316479997942,135.04316479997942,135.04316479997942,135.04316479997942,135.04316479997942,135.04316479997942,135.04316479997942,135.04316479997942,135.04316479997942,135.40975349998916,135.40975349998916,135.40975349998916,135.40975349998916,135.40975349998916,135.40975349998916,135.40975349998916,135.40975349998916,135.40975349998916,23,0,,,135.40975349998916,135.60965669999132,0.0,135.60965669999132,0,0.0,0,1,1000,num_1,0.7110939999984112,,18,3,2026-03-02_10h29.49.650,2026A_exp2,2022.2.4,59.97023077766166,
0,0,0.0,6.1,1,0,33,33,76,,,,,136.3438089999836,136.97783859999618,136.97783859999618,137.47888829998556,45,315,137.47888829998556,137.47888829998556,137.47888829998556,137.47888829998556,137.47888829998556,137.47888829998556,137.47888829998556,137.47888829998556,137.47888829998556,137.8453465999919,137.8453465999919,137.8453465999919,137.8453465999919,137.8453465999919,137.8453465999919,137.8453465999919,137.8453465999919,137.8453465999919,23,0,,,137.8453465999919,138.04543689999264,0.0,138.04543689999264,0,0.0,0,1,1000,num_1,0.5385942000139039,,18,3,2026-03-02_10h29.49.650,2026A_exp2,2022.2.4,59.97023077766166,
1000,1,4.9,0.0,0,0,34,34,36,,,,,138.6127303999965,139.26348900000448,139.26348900000448,139.74789509997936,45,45,139.74789509997936,139.74789509997936,139.74789509997936,139.74789509997936,139.74789509997936,139.74789509997936,139.74789509997936,139.74789509997936,139.74789509997936,140.11427649998222,140.11427649998222,140.11427649998222,140.11427649998222,140.11427649998222,140.11427649998222,140.11427649998222,140.11427649998222,140.11427649998222,23,0,,,140.11427649998222,140.3163413000002,1000,140.3163413000002,1000,1000,1000,1000,0,num_3,0.72429420001572,,18,3,2026-03-02_10h29.49.650,2026A_exp2,2022.2.4,59.97023077766166,
1000,1,4.9,4.9,0,0,35,35,31,,,,,141.0651073999761,141.71586999998544,141.71586999998544,142.21702449998702,45,45,142.21702449998702,142.21702449998702,142.21702449998702,142.21702449998702,142.21702449998702,142.21702449998702,142.21702449998702,142.21702449998702,142.21702449998702,142.58346029999666,142.58346029999666,142.58346029999666,142.58346029999666,142.58346029999666,142.58346029999666,142.58346029999666,142.58346029999666,142.58346029999666,23,0,,,142.58346029999666,142.78559859999223,1000,142.78559859999223,1000,1000,1000,1000,0,num_3,0.47856899999896996,,18,3,2026-03-02_10h29.49.650,2026A_exp2,2022.2.4,59.97023077766166,
1,0,0.0,0.0,1,0,36,36,18,,,,,143.28399799999897,143.93486249999842,143.93486249999842,144.435702399991,45,315,144.435702399991,144.435702399991,144.435702399991,144.435702399991,144.435702399991,144.435702399991,144.435702399991,144.435702399991,144.435702399991,144.8023048999894,144.8023048999894,144.8023048999894,144.8023048999894,144.8023048999894,144.8023048999894,144.8023048999894,144.8023048999894,144.8023048999894,23,0,,,144.8023048999894,145.014351299993,0.0,145.014351299993,0,0.0,0,1,1000,num_1,0.8417247000033967,,18,3,2026-03-02_10h29.49.650,2026A_exp2,2022.2.4,59.97023077766166,
1,0,4.9,4.9,0,0,37,37,63,,,,,145.88672899999074,146.5372609999904,146.5372609999904,147.02187559998129,45,45,147.02187559998129,147.02187559998129,147.02187559998129,147.02187559998129,147.02187559998129,147.02187559998129,147.02187559998129,147.02187559998129,147.02187559998129,147.38827129997662,147.38827129997662,147.38827129997662,147.38827129997662,147.38827129997662,147.38827129997662,147.38827129997662,147.38827129997662,147.38827129997662,23,0,,,147.38827129997662,147.5883327999909,4.9,147.5883327999909,1,4.9,1,1,1000,num_4,1.0272155000129715,,18,3,2026-03-02_10h29.49.650,2026A_exp2,2022.2.4,59.97023077766166,
1,0,4.9,0.0,1,0,38,38,4,,,,,148.6393543999875,149.29017999998177,149.29017999998177,149.77454349998152,315,315,149.77454349998152,149.77454349998152,149.77454349998152,149.77454349998152,149.77454349998152,149.77454349998152,149.77454349998152,149.77454349998152,149.77454349998152,150.14091909999843,150.14091909999843,150.14091909999843,150.14091909999843,150.14091909999843,150.14091909999843,150.14091909999843,150.14091909999843,150.14091909999843,23,0,,,150.14091909999843,150.34113689998048,0.0,150.34113689998048,0,0.0,0,1,1000,num_1,0.8744557999889366,,18,3,2026-03-02_10h29.49.650,2026A_exp2,2022.2.4,59.97023077766166,
1,0,4.9,0.0,0,0,39,39,48,,,,,151.24199280000175,151.89271329998155,151.89271329998155,152.37714009999763,315,45,152.37714009999763,152.37714009999763,152.37714009999763,152.37714009999763,152.37714009999763,152.37714009999763,152.37714009999763,152.37714009999763,152.37714009999763,152.7434919999796,152.7434919999796,152.7434919999796,152.7434919999796,152.7434919999796,152.7434919999796,152.7434919999796,152.7434919999796,152.7434919999796,23,0,,,152.7434919999796,152.9437334999966,4.9,152.9437334999966,1,4.9,1,1,1000,num_4,0.42453019999084063,,18,3,2026-03-02_10h29.49.650,2026A_exp2,2022.2.4,59.97023077766166,
1,0,6.1,0.0,1,0,40,40,13,,,,,153.39404569999897,154.04480329999933,154.04480329999933,154.52913329997682,315,45,154.52913329997682,154.52913329997682,154.52913329997682,154.52913329997682,154.52913329997682,154.52913329997682,154.52913329997682,154.52913329997682,154.52913329997682,154.89577539998572,154.89577539998572,154.89577539998572,154.89577539998572,154.89577539998572,154.89577539998572,154.89577539998572,154.89577539998572,154.89577539998572,23,0,,,154.89577539998572,155.09590769998613,0.0,155.09590769998613,0,0.0,0,1,1000,num_1,0.432004300004337,,18,3,2026-03-02_10h29.49.650,2026A_exp2,2022.2.4,59.97023077766166,
1,0,0.0,0.0,0,0,41,41,64,,,,,155.54641439998522,156.19705859999522,156.19705859999522,156.6981320999912,45,315,156.6981320999912,156.6981320999912,156.6981320999912,156.6981320999912,156.6981320999912,156.6981320999912,156.6981320999912,156.6981320999912,156.6981320999912,157.04795069998363,157.04795069998363,157.04795069998363,157.04795069998363,157.04795069998363,157.04795069998363,157.04795069998363,157.04795069998363,157.04795069998363,22,0,,,157.04795069998363,157.248107899999,0.0,157.248107899999,0,0.0,0,1,1000,num_1,0.4160244000086095,,18,3,2026-03-02_10h29.49.650,2026A_exp2,2022.2.4,59.97023077766166,
1,0,4.9,6.1,1,0,42,42,86,,,,,157.68181650000042,158.33261089998996,158.33261089998996,158.8337721999851,45,45,158.8337721999851,158.8337721999851,158.8337721999851,158.8337721999851,158.8337721999851,158.8337721999851,158.8337721999851,158.8337721999851,158.8337721999851,159.18341759999748,159.18341759999748,159.18341759999748,159.18341759999748,159.18341759999748,159.18341759999748,159.18341759999748,159.18341759999748,159.18341759999748,22,0,,,159.18341759999748,159.38351869999315,6.1,159.38351869999315,1,6.1,1,1,1000,num_4,0.5122181999904569,,18,3,2026-03-02_10h29.49.650,2026A_exp2,2022.2.4,59.97023077766166,
1000,1,6.1,3.7,1,0,43,43,10,,,,,159.91727730000275,160.56787909998093,160.56787909998093,161.0523682999774,45,45,161.0523682999774,161.0523682999774,161.0523682999774,161.0523682999774,161.0523682999774,161.0523682999774,161.0523682999774,161.0523682999774,161.0523682999774,161.4189598999801,161.4189598999801,161.4189598999801,161.4189598999801,161.4189598999801,161.4189598999801,161.4189598999801,161.4189598999801,161.4189598999801,23,0,,,161.4189598999801,161.61906799999997,1000,161.61906799999997,1000,1000,1000,1000,0,num_3,0.7809496000118088,,18,3,2026-03-02_10h29.49.650,2026A_exp2,2022.2.4,59.97023077766166,
1000,1,0.0,3.7,1,0,44,44,80,,,,,162.4198330999934,163.0705665999849,163.0705665999849,163.5717848999775,45,45,163.5717848999775,163.5717848999775,163.5717848999775,163.5717848999775,163.5717848999775,163.5717848999775,163.5717848999775,163.5717848999775,163.5717848999775,163.93816639998113,163.93816639998113,163.93816639998113,163.93816639998113,163.93816639998113,163.93816639998113,163.93816639998113,163.93816639998113,163.93816639998113,23,0,,,163.93816639998113,164.14031309998245,1000,164.14031309998245,1000,1000,1000,1000,1,num_2,0.6280119000002742,,18,3,2026-03-02_10h29.49.650,2026A_exp2,2022.2.4,59.97023077766166,
1000,1,0.0,0.0,0,0,45,45,75,,,,,164.78903699998045,165.42291939997813,165.42291939997813,165.9241160999809,45,45,165.9241160999809,165.9241160999809,165.9241160999809,165.9241160999809,165.9241160999809,165.9241160999809,165.9241160999809,165.9241160999809,165.9241160999809,166.29039239999838,166.29039239999838,166.29039239999838,166.29039239999838,166.29039239999838,166.29039239999838,166.29039239999838,166.29039239999838,166.29039239999838,23,0,,,166.29039239999838,166.49310849999893,1000,166.49310849999893,1000,1000,1000,1000,1,num_2,0.8265224999922793,,18,3,2026-03-02_10h29.49.650,2026A_exp2,2022.2.4,59.97023077766166,
1,0,0.0,4.9,0,0,46,46,71,,,,,167.34136949997628,167.99223599999095,167.99223599999095,168.49316509999335,45,45,168.49316509999335,168.49316509999335,168.49316509999335,168.49316509999335,168.49316509999335,168.49316509999335,168.49316509999335,168.49316509999335,168.49316509999335,168.85958389998996,168.85958389998996,168.85958389998996,168.85958389998996,168.85958389998996,168.85958389998996,168.85958389998996,168.85958389998996,168.85958389998996,23,0,,,168.85958389998996,169.05982619998395,0.0,169.05982619998395,0,0.0,0,1,1000,num_1,0.45987479999894276,,18,3,2026-03-02_10h29.49.650,2026A_exp2,2022.2.4,59.97023077766166,
1000,1,0.0,4.9,1,0,47,47,51,,,,,169.54370019998169,170.1944180999999,170.1944180999999,170.69548749999376,45,45,170.69548749999376,170.69548749999376,170.69548749999376,170.69548749999376,170.69548749999376,170.69548749999376,170.69548749999376,170.69548749999376,170.69548749999376,171.06182429997716,171.06182429997716,171.06182429997716,171.06182429997716,171.06182429997716,171.06182429997716,171.06182429997716,171.06182429997716,171.06182429997716,23,0,,,171.06182429997716,171.26385809999192,1000,171.26385809999192,1000,1000,1000,1000,1,num_2,0.6485864999995101,,18,3,2026-03-02_10h29.49.650,2026A_exp2,2022.2.4,59.97023077766166,
1000,1,3.7,0.0,1,0,48,48,79,,,,,171.92937460000394,172.57997819999582,172.57997819999582,173.0808737000043,45,315,173.0808737000043,173.0808737000043,173.0808737000043,173.0808737000043,173.0808737000043,173.0808737000043,173.0808737000043,173.0808737000043,173.0808737000043,173.44762999998056,173.44762999998056,173.44762999998056,173.44762999998056,173.44762999998056,173.44762999998056,173.44762999998056,173.44762999998056,173.44762999998056,23,0,,,173.44762999998056,173.64768209998147,1000,173.64768209998147,1000,1000,1000,1000,0,num_3,0.7436641000094824,,18,3,2026-03-02_10h29.49.650,2026A_exp2,2022.2.4,59.97023077766166,
1000,1,0.0,4.9,0,0,49,49,77,,,,,174.4150386999827,175.06556989997625,175.06556989997625,175.5666840999911,315,45,175.5666840999911,175.5666840999911,175.5666840999911,175.5666840999911,175.5666840999911,175.5666840999911,175.5666840999911,175.5666840999911,175.5666840999911,175.91646929999115,175.91646929999115,175.91646929999115,175.91646929999115,175.91646929999115,175.91646929999115,175.91646929999115,175.91646929999115,175.91646929999115,22,0,,,175.91646929999115,176.1167923999892,1000,176.1167923999892,1000,1000,1000,1000,1,num_2,0.5712991999753285,,18,3,2026-03-02_10h29.49.650,2026A_exp2,2022.2.4,59.97023077766166,
1000,1,3.7,0.0,1,0,50,50,55,,,,,176.71734400000423,177.35140590000083,177.35140590000083,177.85235659999307,45,315,177.85235659999307,177.85235659999307,177.85235659999307,177.85235659999307,177.85235659999307,177.85235659999307,177.85235659999307,177.85235659999307,177.85235659999307,178.2189851999865,178.2189851999865,178.2189851999865,178.2189851999865,178.2189851999865,178.2189851999865,178.2189851999865,178.2189851999865,178.2189851999865,23,0,,,178.2189851999865,178.419018399989,1000,178.419018399989,1000,1000,1000,1000,0,num_3,0.5730184999993071,,18,3,2026-03-02_10h29.49.650,2026A_exp2,2022.2.4,59.97023077766166,
1,0,0.0,0.0,0,0,51,51,38,,,,,179.0198072999774,179.67016229999717,179.67016229999717,180.17129019999993,315,315,180.17129019999993,180.17129019999993,180.17129019999993,180.17129019999993,180.17129019999993,180.17129019999993,180.17129019999993,180.17129019999993,180.17129019999993,180.5212377999851,180.5212377999851,180.5212377999851,180.5212377999851,180.5212377999851,180.5212377999851,180.5212377999851,180.5212377999851,180.5212377999851,22,0,,,180.5212377999851,180.72146279999288,0.0,180.73809709999477,0,0.0,0,1,1000,num_1,0.8936965999891981,,18,3,2026-03-02_10h29.49.650,2026A_exp2,2022.2.4,59.97023077766166,
1000,1,0.0,0.0,1,0,52,52,47,,,,,181.65554919998976,182.30616799998097,182.30616799998097,182.79058790000272,45,45,182.79058790000272,182.79058790000272,182.79058790000272,182.79058790000272,182.79058790000272,182.79058790000272,182.79058790000272,182.79058790000272,182.79058790000272,183.1574338999926,183.1574338999926,183.1574338999926,183.1574338999926,183.1574338999926,183.1574338999926,183.1574338999926,183.1574338999926,183.1574338999926,23,0,,,183.1574338999926,183.35728879997623,1000,183.35728879997623,1000,1000,1000,1000,0,num_3,0.7066822000197135,,18,3,2026-03-02_10h29.49.650,2026A_exp2,2022.2.4,59.97023077766166,
1,0,0.0,4.9,1,0,53,53,45,,,,,184.09137509998982,184.7419183999882,184.7419183999882,185.22637709998526,45,315,185.22637709998526,185.22637709998526,185.22637709998526,185.22637709998526,185.22637709998526,185.22637709998526,185.22637709998526,185.22637709998526,185.22637709998526,185.5929732999939,185.5929732999939,185.5929732999939,185.5929732999939,185.5929732999939,185.5929732999939,185.5929732999939,185.5929732999939,185.5929732999939,23,0,,,185.5929732999939,185.7929989999975,4.9,185.7929989999975,1,4.9,1,1,1000,num_4,0.7588436999940313,,18,3,2026-03-02_10h29.49.650,2026A_exp2,2022.2.4,59.97023077766166,
1,0,0.0,0.0,0,0,54,54,2,,,,,186.57710860000225,187.21115699998336,187.21115699998336,187.7122957999818,45,315,187.7122957999818,187.7122957999818,187.7122957999818,187.7122957999818,187.7122957999818,187.7122957999818,187.7122957999818,187.7122957999818,187.7122957999818,188.07863370000268,188.07863370000268,188.07863370000268,188.07863370000268,188.07863370000268,188.07863370000268,188.07863370000268,188.07863370000268,188.07863370000268,23,0,,,188.07863370000268,188.27915289998055,0.0,188.27915289998055,0,0.0,0,1,1000,num_1,0.4004111999820452,,18,3,2026-03-02_10h29.49.650,2026A_exp2,2022.2.4,59.97023077766166,
0,0,4.9,0.0,0,0,55,55,30,,,,,188.6959670999786,189.34652849999839,189.34652849999839,189.83095249999315,315,315,189.83095249999315,189.83095249999315,189.83095249999315,189.83095249999315,189.83095249999315,189.83095249999315,189.83095249999315,189.83095249999315,189.83095249999315,190.19737849998637,190.19737849998637,190.19737849998637,190.19737849998637,190.19737849998637,190.19737849998637,190.19737849998637,190.19737849998637,190.19737849998637,23,0,,,190.19737849998637,190.39755389999482,0.0,190.39755389999482,0,0.0,0,1,1000,num_1,1.9698528999870177,,18,3,2026-03-02_10h29.49.650,2026A_exp2,2022.2.4,59.97023077766166,
1000,1,0.0,0.0,1,0,56,56,29,,,,,192.3832251999993,193.0337709999876,193.0337709999876,193.51825009999448,45,315,193.51825009999448,193.51825009999448,193.51825009999448,193.51825009999448,193.51825009999448,193.51825009999448,193.51825009999448,193.51825009999448,193.51825009999448,193.884791199991,193.884791199991,193.884791199991,193.884791199991,193.884791199991,193.884791199991,193.884791199991,193.884791199991,193.884791199991,23,0,,,193.884791199991,194.08662940000067,1000,194.08662940000067,1000,1000,1000,1000,0,num_3,0.6327393000246957,,18,3,2026-03-02_10h29.49.650,2026A_exp2,2022.2.4,59.97023077766166,
1000,1,0.0,0.0,1,0,57,57,7,,,,,194.73544109999784,195.38627069999347,195.38627069999347,195.88707259998773,315,45,195.88707259998773,195.88707259998773,195.88707259998773,195.88707259998773,195.88707259998773,195.88707259998773,195.88707259998773,195.88707259998773,195.88707259998773,196.25382329997956,196.25382329997956,196.25382329997956,196.25382329997956,196.25382329997956,196.25382329997956,196.25382329997956,196.25382329997956,196.25382329997956,23,0,,,196.25382329997956,196.4555779999937,1000,196.4555779999937,1000,1000,1000,1000,0,num_3,0.5286513000028208,,18,3,2026-03-02_10h29.49.650,2026A_exp2,2022.2.4,59.97023077766166,
1,0,4.9,6.1,1,0,58,58,46,,,,,197.00444779999088,197.65519189997576,197.65519189997576,198.1565909999772,45,315,198.1565909999772,198.1565909999772,198.1565909999772,198.1565909999772,198.1565909999772,198.1565909999772,198.1565909999772,198.1565909999772,198.1565909999772,198.52259310000227,198.52259310000227,198.52259310000227,198.52259310000227,198.52259310000227,198.52259310000227,198.52259310000227,198.52259310000227,198.52259310000227,23,0,,,198.52259310000227,198.72295129997656,6.1,198.72295129997656,1,6.1,1,1,1000,num_4,0.8523654000018723,,18,3,2026-03-02_10h29.49.650,2026A_exp2,2022.2.4,59.97023077766166,
1,0,4.9,0.0,1,0,59,59,84,,,,,199.60709439998027,200.25779819997842,200.25779819997842,200.74218729999848,45,315,200.74218729999848,200.74218729999848,200.74218729999848,200.74218729999848,200.74218729999848,200.74218729999848,200.74218729999848,200.74218729999848,200.74218729999848,201.1087142000033,201.1087142000033,201.1087142000033,201.1087142000033,201.1087142000033,201.1087142000033,201.1087142000033,201.1087142000033,201.1087142000033,23,0,,,201.1087142000033,201.30877340000006,0.0,201.30877340000006,0,0.0,0,1,1000,num_1,0.5311924999987241,,18,3,2026-03-02_10h29.49.650,2026A_exp2,2022.2.4,59.97023077766166,
1000,1,6.1,3.7,0,0,60,60,87,,,,,201.85939319999306,202.5097032999911,202.5097032999911,203.01078719997895,315,45,203.01078719997895,203.01078719997895,203.01078719997895,203.01078719997895,203.01078719997895,203.01078719997895,203.01078719997895,203.01078719997895,203.01078719997895,203.3772262999846,203.3772262999846,203.3772262999846,203.3772262999846,203.3772262999846,203.3772262999846,203.3772262999846,203.3772262999846,203.3772262999846,23,0,,,203.3772262999846,203.5774287999957,1000,203.5774287999957,1000,1000,1000,1000,0,num_3,2.5586650999903213,,18,3,2026-03-02_10h29.49.650,2026A_exp2,2022.2.4,59.97023077766166,
0,0,3.7,0.0,1,0,61,61,83,,,,,206.1638673999987,206.81422430000384,206.81422430000384,207.31523129998823,315,45,207.31523129998823,207.31523129998823,207.31523129998823,207.31523129998823,207.31523129998823,207.31523129998823,207.31523129998823,207.31523129998823,207.31523129998823,207.68161299999338,207.68161299999338,207.68161299999338,207.68161299999338,207.68161299999338,207.68161299999338,207.68161299999338,207.68161299999338,207.68161299999338,23,0,,,207.68161299999338,207.88182009998127,3.7,207.88182009998127,1,3.7,1,1,1000,num_4,0.9495108000119217,,18,3,2026-03-02_10h29.49.650,2026A_exp2,2022.2.4,59.97023077766166,
1000,1,4.9,3.7,1,0,62,62,32,,,,,208.84971969999606,209.48380600000382,209.48380600000382,209.98475539998617,315,45,209.98475539998617,209.98475539998617,209.98475539998617,209.98475539998617,209.98475539998617,209.98475539998617,209.98475539998617,209.98475539998617,209.98475539998617,210.3510294999869,210.3510294999869,210.3510294999869,210.3510294999869,210.3510294999869,210.3510294999869,210.3510294999869,210.3510294999869,210.3510294999869,23,0,,,210.3510294999869,210.5512047999946,1000,210.5512047999946,1000,1000,1000,1000,1,num_2,0.8244357000221498,,18,3,2026-03-02_10h29.49.650,2026A_exp2,2022.2.4,59.97023077766166,
1000,1,0.0,6.1,0,0,63,63,34,,,,,211.40225610000198,212.03628319999552,212.03628319999552,212.53727169998456,45,315,212.53727169998456,212.53727169998456,212.53727169998456,212.53727169998456,212.53727169998456,212.53727169998456,212.53727169998456,212.53727169998456,212.53727169998456,212.903776799998,212.903776799998,212.903776799998,212.903776799998,212.903776799998,212.903776799998,212.903776799998,212.903776799998,212.903776799998,23,0,,,212.903776799998,213.10394449997693,1000,213.10394449997693,1000,1000,1000,1000,1,num_2,0.5842340000090189,,18,3,2026-03-02_10h29.49.650,2026A_exp2,2022.2.4,59.97023077766166,
1,0,3.7,4.9,1,0,64,64,39,,,,,213.70461439999053,214.35522229998605,214.35522229998605,214.8394442999852,45,45,214.8394442999852,214.8394442999852,214.8394442999852,214.8394442999852,214.8394442999852,214.8394442999852,214.8394442999852,214.8394442999852,214.8394442999852,215.20671830000356,215.20671830000356,215.20671830000356,215.20671830000356,215.20671830000356,215.20671830000356,215.20671830000356,215.20671830000356,215.20671830000356,23,0,,,215.20671830000356,215.40615239998442,4.9,215.40615239998442,1,4.9,1,1,1000,num_4,0.6020694999897387,,18,3,2026-03-02_10h29.49.650,2026A_exp2,2022.2.4,59.97023077766166,
1,0,4.9,0.0,1,0,65,65,82,,,,,216.04006759999902,216.69077409998863,216.69077409998863,217.17507009999827,45,45,217.17507009999827,217.17507009999827,217.17507009999827,217.17507009999827,217.17507009999827,217.17507009999827,217.17507009999827,217.17507009999827,217.17507009999827,217.5414978999761,217.5414978999761,217.5414978999761,217.5414978999761,217.5414978999761,217.5414978999761,217.5414978999761,217.5414978999761,217.5414978999761,23,0,,,217.5414978999761,217.7424045999942,0.0,217.7424045999942,0,0.0,0,1,1000,num_1,2.8418681000184733,,18,3,2026-03-02_10h29.49.650,2026A_exp2,2022.2.4,59.97023077766166,
1000,1,0.0,0.0,0,0,66,66,20,,,,,220.61251350000384,,221.26211319997674,221.7465974999941,45,315,221.7465974999941,221.7465974999941,221.7465974999941,221.7465974999941,221.7465974999941,221.7465974999941,221.7465974999941,221.7465974999941,221.7465974999941,222.11314689999563,222.11314689999563,222.11314689999563,222.11314689999563,222.11314689999563,222.11314689999563,222.11314689999563,222.11314689999563,222.11314689999563,23,0,,,222.11314689999563,222.3132268000045,1000,222.3132268000045,1000,1000,1000,1000,1,num_2,0.6380652999796439,,18,3,2026-03-02_10h29.49.650,2026A_exp2,2022.2.4,59.97023077766166,
1000,1,4.9,0.0,1,0,67,67,25,,,,,222.98088519999874,223.6311705999833,223.6311705999833,224.1318764000025,45,45,224.1318764000025,224.1318764000025,224.1318764000025,224.1318764000025,224.1318764000025,224.1318764000025,224.1318764000025,224.1318764000025,224.1318764000025,224.49848039998324,224.49848039998324,224.49848039998324,224.49848039998324,224.49848039998324,224.49848039998324,224.49848039998324,224.49848039998324,224.49848039998324,23,0,,,224.49848039998324,224.6986890999833,1000,224.6986890999833,1000,1000,1000,1000,0,num_3,0.668901700002607,,18,3,2026-03-02_10h29.49.650,2026A_exp2,2022.2.4,59.97023077766166,
0,0,0.0,3.7,1,0,68,68,21,,,,,225.39935530000366,226.04999219998717,226.04999219998717,226.5344286999898,315,45,226.5344286999898,226.5344286999898,226.5344286999898,226.5344286999898,226.5344286999898,226.5344286999898,226.5344286999898,226.5344286999898,226.5344286999898,226.90088849997846,226.90088849997846,226.90088849997846,226.90088849997846,226.90088849997846,226.90088849997846,226.90088849997846,226.90088849997846,226.90088849997846,23,0,,,226.90088849997846,227.10102549998555,0.0,227.10102549998555,0,0.0,0,1,1000,num_1,1.171254199987743,,18,3,2026-03-02_10h29.49.650,2026A_exp2,2022.2.4,59.97023077766166,
1000,1,6.1,0.0,0,0,69,69,19,,,,,228.3025948999857,228.93644089999725,228.93644089999725,229.43785249997745,45,315,229.43785249997745,229.43785249997745,229.43785249997745,229.43785249997745,229.43785249997745,229.43785249997745,229.43785249997745,229.43785249997745,229.43785249997745,229.80378319998272,229.80378319998272,229.80378319998272,229.80378319998272,229.80378319998272,229.80378319998272,229.80378319998272,229.80378319998272,229.80378319998272,23,0,,,229.80378319998272,230.00420389999636,1000,230.00420389999636,1000,1000,1000,1000,0,num_3,0.7956345999846235,,18,3,2026-03-02_10h29.49.650,2026A_exp2,2022.2.4,59.97023077766166,
1000,1,0.0,0.0,0,0,70,70,65,,,,,230.82165619998705,231.47221369997715,231.47221369997715,231.9566874000011,315,315,231.9566874000011,231.9566874000011,231.9566874000011,231.9566874000011,231.9566874000011,231.9566874000011,231.9566874000011,231.9566874000011,231.9566874000011,232.32296709998627,232.32296709998627,232.32296709998627,232.32296709998627,232.32296709998627,232.32296709998627,232.32296709998627,232.32296709998627,232.32296709998627,23,0,,,232.32296709998627,232.52328359999228,1000,232.52328359999228,1000,1000,1000,1000,1,num_2,0.8122686999849975,,18,3,2026-03-02_10h29.49.650,2026A_exp2,2022.2.4,59.97023077766166,
1,0,0.0,0.0,1,0,71,71,66,,,,,233.3574350999843,234.00794280000264,234.00794280000264,234.50909869998577,45,45,234.50909869998577,234.50909869998577,234.50909869998577,234.50909869998577,234.50909869998577,234.50909869998577,234.50909869998577,234.50909869998577,234.50909869998577,234.87575539998943,234.87575539998943,234.87575539998943,234.87575539998943,234.87575539998943,234.87575539998943,234.87575539998943,234.87575539998943,234.87575539998943,23,0,,,234.87575539998943,235.07585279998602,0.0,235.07585279998602,0,0.0,0,1,1000,num_1,1.1958848999929614,,18,3,2026-03-02_10h29.49.650,2026A_exp2,2022.2.4,59.97023077766166,
1000,1,0.0,0.0,0,0,72,72,61,,,,,236.293886200001,236.92762719999882,236.92762719999882,237.42877919998136,315,45,237.42877919998136,237.42877919998136,237.42877919998136,237.42877919998136,237.42877919998136,237.42877919998136,237.42877919998136,237.42877919998136,237.42877919998136,237.7952312999987,237.7952312999987,237.7952312999987,237.7952312999987,237.7952312999987,237.7952312999987,237.7952312999987,237.7952312999987,237.7952312999987,23,0,,,237.7952312999987,237.99551429998246,1000,237.99551429998246,1000,1000,1000,1000,1,num_2,1.8125760999973863,,18,3,2026-03-02_10h29.49.650,2026A_exp2,2022.2.4,59.97023077766166,
1,0,0.0,3.7,0,0,73,73,78,,,,,239.83095679999678,240.4811098999926,240.4811098999926,240.96554730000207,45,45,240.96554730000207,240.96554730000207,240.96554730000207,240.96554730000207,240.96554730000207,240.96554730000207,240.96554730000207,240.96554730000207,240.96554730000207,241.3321486999921,241.3321486999921,241.3321486999921,241.3321486999921,241.3321486999921,241.3321486999921,241.3321486999921,241.3321486999921,241.3321486999921,23,0,,,241.3321486999921,241.53219369999715,0.0,241.53219369999715,0,0.0,0,1,1000,num_1,0.7800129000097513,,18,3,2026-03-02_10h29.49.650,2026A_exp2,2022.2.4,59.97023077766166,
0,0,0.0,0.0,1,0,74,74,8,,,,,242.33287379998364,242.96684119998827,242.96684119998827,243.467985700001,45,315,243.467985700001,243.467985700001,243.467985700001,243.467985700001,243.467985700001,243.467985700001,243.467985700001,243.467985700001,243.467985700001,243.83445669998764,243.83445669998764,243.83445669998764,243.83445669998764,243.83445669998764,243.83445669998764,243.83445669998764,243.83445669998764,243.83445669998764,23,0,,,243.83445669998764,244.03462259998196,0.0,244.03462259998196,0,0.0,0,1,1000,num_1,0.5887252999818884,,18,3,2026-03-02_10h29.49.650,2026A_exp2,2022.2.4,59.97023077766166,
1000,1,4.9,4.9,0,0,75,75,42,,,,,244.65208669999265,245.30285979999462,245.30285979999462,245.78708979999647,45,315,245.78708979999647,245.78708979999647,245.78708979999647,245.78708979999647,245.78708979999647,245.78708979999647,245.78708979999647,245.78708979999647,245.78708979999647,246.15340769998147,246.15340769998147,246.15340769998147,246.15340769998147,246.15340769998147,246.15340769998147,246.15340769998147,246.15340769998147,246.15340769998147,23,0,,,246.15340769998147,246.35391370000434,1000,246.35391370000434,1000,1000,1000,1000,1,num_2,1.0861261000100058,,18,3,2026-03-02_10h29.49.650,2026A_exp2,2022.2.4,59.97023077766166,
1,0,0.0,0.0,0,0,76,76,59,,,,,247.47145969999838,248.12191190000158,248.12191190000158,248.623045299988,315,315,248.623045299988,248.623045299988,248.623045299988,248.623045299988,248.623045299988,248.623045299988,248.623045299988,248.623045299988,248.623045299988,248.99011220000102,248.99011220000102,248.99011220000102,248.99011220000102,248.99011220000102,248.99011220000102,248.99011220000102,248.99011220000102,248.99011220000102,23,0,,,248.99011220000102,249.19021269999212,0.0,249.19021269999212,0,0.0,0,1,1000,num_1,0.7692470000183675,,18,3,2026-03-02_10h29.49.650,2026A_exp2,2022.2.4,59.97023077766166,
1000,1,4.9,0.0,1,0,77,77,72,,,,,249.9907473999774,250.62538250000216,250.62538250000216,251.12592399999266,315,315,251.12592399999266,251.12592399999266,251.12592399999266,251.12592399999266,251.12592399999266,251.12592399999266,251.12592399999266,251.12592399999266,251.12592399999266,251.49290709997877,251.49290709997877,251.49290709997877,251.49290709997877,251.49290709997877,251.49290709997877,251.49290709997877,251.49290709997877,251.49290709997877,23,0,,,251.49290709997877,251.69304179999745,1000,251.69304179999745,1000,1000,1000,1000,0,num_3,0.6353294999862555,,18,3,2026-03-02_10h29.49.650,2026A_exp2,2022.2.4,59.97023077766166,
1,0,0.0,6.1,0,0,78,78,5,,,,,252.34334839999792,252.99365639997995,252.99365639997995,253.49467659997754,315,315,253.49467659997754,253.49467659997754,253.49467659997754,253.49467659997754,253.49467659997754,253.49467659997754,253.49467659997754,253.49467659997754,253.49467659997754,253.86117099999683,253.86117099999683,253.86117099999683,253.86117099999683,253.86117099999683,253.86117099999683,253.86117099999683,253.86117099999683,253.86117099999683,23,0,,,253.86117099999683,254.06137469998794,0.0,254.06137469998794,0,0.0,0,1,1000,num_1,1.210181599977659,,18,3,2026-03-02_10h29.49.650,2026A_exp2,2022.2.4,59.97023077766166,
1,0,0.0,0.0,0,0,79,79,9,,,,,255.29593279998517,255.94643529999303,255.94643529999303,256.43101899998146,315,45,256.43101899998146,256.43101899998146,256.43101899998146,256.43101899998146,256.43101899998146,256.43101899998146,256.43101899998146,256.43101899998146,256.43101899998146,256.79691259999527,256.79691259999527,256.79691259999527,256.79691259999527,256.79691259999527,256.79691259999527,256.79691259999527,256.79691259999527,256.79691259999527,23,0,,,256.79691259999527,256.9970842000039,0.0,256.9970842000039,0,0.0,0,1,1000,num_1,0.5865991000027861,,18,3,2026-03-02_10h29.49.650,2026A_exp2,2022.2.4,59.97023077766166,
1000,1,0.0,6.1,1,0,80,80,88,,,,,257.61507849997724,258.2490053999936,258.2490053999936,258.7500292999903,45,315,258.7500292999903,258.7500292999903,258.7500292999903,258.7500292999903,258.7500292999903,258.7500292999903,258.7500292999903,258.7500292999903,258.7500292999903,259.11655239999527,259.11655239999527,259.11655239999527,259.11655239999527,259.11655239999527,259.11655239999527,259.11655239999527,259.11655239999527,259.11655239999527,23,0,,,259.11655239999527,259.3167829999875,1000,259.3167829999875,1000,1000,1000,1000,0,num_3,0.5871321999875363,,18,3,2026-03-02_10h29.49.650,2026A_exp2,2022.2.4,59.97023077766166,
1000,1,6.1,0.0,0,0,81,81,33,,,,,259.9338577000017,260.5846231000032,260.5846231000032,261.0854569999792,45,315,261.0854569999792,261.0854569999792,261.0854569999792,261.0854569999792,261.0854569999792,261.0854569999792,261.0854569999792,261.0854569999792,261.0854569999792,261.4353829000029,261.4353829000029,261.4353829000029,261.4353829000029,261.4353829000029,261.4353829000029,261.4353829000029,261.4353829000029,261.4353829000029,22,0,,,261.4353829000029,261.63571219998994,1000,261.65233459998854,1000,1000,1000,1000,0,num_3,0.7152697999845259,,18,3,2026-03-02_10h29.49.650,2026A_exp2,2022.2.4,59.97023077766166,
1000,1,6.1,3.7,1,0,82,82,24,,,,,262.3864889999968,263.03703289999976,263.03703289999976,263.5379413999908,45,45,263.5379413999908,263.5379413999908,263.5379413999908,263.5379413999908,263.5379413999908,263.5379413999908,263.5379413999908,263.5379413999908,263.5379413999908,263.88789449998876,263.88789449998876,263.88789449998876,263.88789449998876,263.88789449998876,263.88789449998876,263.88789449998876,263.88789449998876,263.88789449998876,22,0,,,263.88789449998876,264.08840229999623,1000,264.08840229999623,1000,1000,1000,1000,0,num_3,0.6393651000107639,,18,3,2026-03-02_10h29.49.650,2026A_exp2,2022.2.4,59.97023077766166,
1,0,6.1,4.9,1,0,83,83,35,,,,,264.75528589999885,265.4059224999801,265.4059224999801,265.89139330000035,315,45,265.89139330000035,265.89139330000035,265.89139330000035,265.89139330000035,265.89139330000035,265.89139330000035,265.89139330000035,265.89139330000035,265.89139330000035,266.25683050000225,266.25683050000225,266.25683050000225,266.25683050000225,266.25683050000225,266.25683050000225,266.25683050000225,266.25683050000225,266.25683050000225,23,0,,,266.25683050000225,266.4571219999925,4.9,266.4571219999925,1,4.9,1,1,1000,num_4,0.9185865999897942,,18,3,2026-03-02_10h29.49.650,2026A_exp2,2022.2.4,59.97023077766166,
1,0,0.0,0.0,1,0,84,84,73,,,,,267.3914345999947,268.0421824999794,268.0421824999794,268.5264329999918,45,45,268.5264329999918,268.5264329999918,268.5264329999918,268.5264329999918,268.5264329999918,268.5264329999918,268.5264329999918,268.5264329999918,268.5264329999918,268.89380999997957,268.89380999997957,268.89380999997957,268.89380999997957,268.89380999997957,268.89380999997957,268.89380999997957,268.89380999997957,268.89380999997957,23,0,,,268.89380999997957,269.09297810000135,0.0,269.09297810000135,0,0.0,0,1,1000,num_1,0.5472687000001315,,18,3,2026-03-02_10h29.49.650,2026A_exp2,2022.2.4,59.97023077766166,
0,0,3.7,4.9,1,0,85,85,3,,,,,269.6604277000006,270.29455019999295,270.29455019999295,270.7954602999962,45,315,270.7954602999962,270.7954602999962,270.7954602999962,270.7954602999962,270.7954602999962,270.7954602999962,270.7954602999962,270.7954602999962,270.7954602999962,271.162259499979,271.162259499979,271.162259499979,271.162259499979,271.162259499979,271.162259499979,271.162259499979,271.162259499979,271.162259499979,23,0,,,271.162259499979,271.362212499982,3.7,271.362212499982,0,3.7,1,0,1000,num_1,0.7012549999926705,,18,3,2026-03-02_10h29.49.650,2026A_exp2,2022.2.4,59.97023077766166,
1000,1,3.7,3.7,1,0,86,86,40,,,,,272.0795197999978,272.71344469999894,272.71344469999894,273.21428739998373,45,45,273.21428739998373,273.21428739998373,273.21428739998373,273.21428739998373,273.21428739998373,273.21428739998373,273.21428739998373,273.21428739998373,273.21428739998373,273.5809236999776,273.5809236999776,273.5809236999776,273.5809236999776,273.5809236999776,273.5809236999776,273.5809236999776,273.5809236999776,273.5809236999776,23,0,,,273.5809236999776,273.7810937000031,1000,273.7810937000031,1000,1000,1000,1000,1,num_2,0.7703780000156257,,18,3,2026-03-02_10h29.49.650,2026A_exp2,2022.2.4,59.97023077766166,
1000,1,0.0,4.9,1,0,87,87,27,,,,,274.5818025000044,275.21581959998,275.21581959998,275.71701559997746,315,45,275.71701559997746,275.71701559997746,275.71701559997746,275.71701559997746,275.71701559997746,275.71701559997746,275.71701559997746,275.71701559997746,275.71701559997746,276.0835436999914,276.0835436999914,276.0835436999914,276.0835436999914,276.0835436999914,276.0835436999914,276.0835436999914,276.0835436999914,276.0835436999914,23,0,,,276.0835436999914,276.2834685999842,1000,276.2834685999842,1000,1000,1000,1000,1,num_2,0.564754199993331,,18,3,2026-03-02_10h29.49.650,2026A_exp2,2022.2.4,59.97023077766166,
1000,1,0.0,0.0,1,0,88,88,23,,,,,276.86749079998117,277.5184170999855,277.5184170999855,278.01941209999495,315,45,278.01941209999495,278.01941209999495,278.01941209999495,278.01941209999495,278.01941209999495,278.01941209999495,278.01941209999495,278.01941209999495,278.01941209999495,278.3690021999937,278.3690021999937,278.3690021999937,278.3690021999937,278.3690021999937,278.3690021999937,278.3690021999937,278.3690021999937,278.3690021999937,22,0,,,278.3690021999937,278.569477299985,1000,278.569477299985,1000,1000,1000,1000,0,num_3,0.6385371000214946,,18,3,2026-03-02_10h29.49.650,2026A_exp2,2022.2.4,59.97023077766166,
1,0,0.0,3.7,1,0,89,89,57,,,,,279.2367580999853,279.8872849000036,279.8872849000036,280.3882871999813,315,315,280.3882871999813,280.3882871999813,280.3882871999813,280.3882871999813,280.3882871999813,280.3882871999813,280.3882871999813,280.3882871999813,280.3882871999813,280.73855739997816,280.73855739997816,280.73855739997816,280.73855739997816,280.73855739997816,280.73855739997816,280.73855739997816,280.73855739997816,280.73855739997816,22,0,,,280.73855739997816,280.9385824999772,3.7,280.9385824999772,1,3.7,1,1,1000,num_4,0.7651941999793053,,18,3,2026-03-02_10h29.49.650,2026A_exp2,2022.2.4,59.97023077766166,
,,,,,,,,,,,,,,,,,,,,,,,,,,,,,,,,,,,,,,,,,,,,,,,,,,,,281.7300050999911,,,,,,,
