validity,detectorcomp,contrastCW,contrastCCW,precueCWorCCW,block_80trials.thisRepN,block_80trials.thisTrialN,block_80trials.thisN,block_80trials.thisIndex,etRecord.started,etRecord.stopped,text.started,text.stopped,text_4.started,text_4.stopped,text_6.started,text_6.stopped,oriCW,oriCCW,roi_2.started,grating_UR.started,grating_UL.started,grating_LR.started,grating_LL.started,noise_UR.started,noise_UL.started,noise_LR.started,noise_LL.started,roi_2.stopped,grating_UR.stopped,grating_UL.stopped,grating_LR.stopped,grating_LL.stopped,noise_UR.stopped,noise_UL.stopped,noise_LR.stopped,noise_LL.stopped,outframe,roi_2.numLooks,roi_2.timesOn,roi_2.timesOff,text_2.started,text_2.stopped,probedcontrast,key_resp.started,respdetect,relevantContrast,correctDetect,TorFdetect,respCWorCCW,key_resp.keys,key_resp.rt,feedback_display_.started,participantNo,blockNo,date,expName,psychopyVersion,frameRate,
1,0,6.1,6.1,0,0,0,0,51,4.630000330507755e-05,4.630000330507755e-05,53.61483549996046,55.617149400000926,55.617149400000926,56.251370499958284,56.251370499958284,56.77423280000221,315,45,56.77423280000221,56.77423280000221,56.77423280000221,56.77423280000221,56.77423280000221,56.77423280000221,56.77423280000221,56.77423280000221,56.77423280000221,57.11867860000348,57.11867860000348,57.11867860000348,57.11867860000348,57.11867860000348,57.11867860000348,57.11867860000348,57.11867860000348,57.11867860000348,23,0,,,57.11867860000348,57.31892940000398,6.1,57.31892940000398,0,6.1,1,0,1000,num_1,2.2818394000059925,,25,16,2026-03-04_18h39.38.141,2026A_exp2,2022.2.4,60.079256557252286,
1000,1,0.0,0.0,1,0,1,1,39,,,,,59.62132549996022,60.27186759997858,60.27186759997858,60.756587099982426,45,45,60.756587099982426,60.756587099982426,60.756587099982426,60.756587099982426,60.756587099982426,60.756587099982426,60.756587099982426,60.756587099982426,60.756587099982426,61.123052299954,61.123052299954,61.123052299954,61.123052299954,61.123052299954,61.123052299954,61.123052299954,61.123052299954,61.123052299954,22,1,[0.03376429999480024],[0.05015550000825897],61.123052299954,61.33886439999333,1000,61.33886439999333,1000,1000,1000,1000,1,num_2,0.3167234000284225,,25,16,2026-03-04_18h39.38.141,2026A_exp2,2022.2.4,60.079256557252286,
1,0,4.9,0.0,1,0,2,2,15,,,,,61.673257199989166,62.323955399973784,62.323955399973784,62.8260067999945,45,45,62.8260067999945,62.8260067999945,62.8260067999945,62.8260067999945,62.8260067999945,62.8260067999945,62.8260067999945,62.8260067999945,62.8260067999945,63.19145019998541,63.19145019998541,63.19145019998541,63.19145019998541,63.19145019998541,63.19145019998541,63.19145019998541,63.19145019998541,63.19145019998541,23,0,,,63.19145019998541,63.39175109995995,0.0,63.39175109995995,0,0.0,0,1,1000,num_1,0.2082767999963835,,25,16,2026-03-04_18h39.38.141,2026A_exp2,2022.2.4,60.079256557252286,
1000,1,6.1,6.1,0,0,3,3,74,,,,,63.62511299998732,64.27595079998719,64.27595079998719,64.7604933999828,315,45,64.7604933999828,64.7604933999828,64.7604933999828,64.7604933999828,64.7604933999828,64.7604933999828,64.7604933999828,64.7604933999828,64.7604933999828,65.12680729996646,65.12680729996646,65.12680729996646,65.12680729996646,65.12680729996646,65.12680729996646,65.12680729996646,65.12680729996646,65.12680729996646,23,0,,,65.12680729996646,65.32888139999704,1000,65.32888139999704,1000,1000,1000,1000,0,num_3,0.1106391999637708,,25,16,2026-03-04_18h39.38.141,2026A_exp2,2022.2.4,60.079256557252286,
1000,1,3.7,3.7,1,0,4,4,88,,,,,65.46055899997009,66.11890649999259,66.11890649999259,66.59723849996226,45,45,66.59723849996226,66.59723849996226,66.59723849996226,66.59723849996226,66.59723849996226,66.59723849996226,66.59723849996226,66.59723849996226,66.59723849996226,66.96203379996587,66.96203379996587,66.96203379996587,66.96203379996587,66.96203379996587,66.96203379996587,66.96203379996587,66.96203379996587,66.96203379996587,23,0,,,66.96203379996587,67.16432499996154,1000,67.16432499996154,1000,1000,1000,1000,1,num_2,0.33992729999590665,,25,16,2026-03-04_18h39.38.141,2026A_exp2,2022.2.4,60.079256557252286,
1000,1,4.9,4.9,1,0,5,5,26,,,,,67.52937619999284,68.17989309999393,68.17989309999393,68.66419419995509,315,315,68.66419419995509,68.66419419995509,68.66419419995509,68.66419419995509,68.66419419995509,68.66419419995509,68.66419419995509,68.66419419995509,68.66419419995509,69.03074729995569,69.03074729995569,69.03074729995569,69.03074729995569,69.03074729995569,69.03074729995569,69.03074729995569,69.03074729995569,69.03074729995569,23,0,,,69.03074729995569,69.23295189999044,1000,69.23295189999044,1000,1000,1000,1000,1,num_2,0.3268227999797091,,25,16,2026-03-04_18h39.38.141,2026A_exp2,2022.2.4,60.079256557252286,
1000,1,6.1,6.1,0,0,6,6,56,,,,,69.58126659999834,70.23206359997857,70.23206359997857,70.73275439999998,315,45,70.73275439999998,70.73275439999998,70.73275439999998,70.73275439999998,70.73275439999998,70.73275439999998,70.73275439999998,70.73275439999998,70.73275439999998,71.0827315999777,71.0827315999777,71.0827315999777,71.0827315999777,71.0827315999777,71.0827315999777,71.0827315999777,71.0827315999777,71.0827315999777,22,0,,,71.0827315999777,71.28468699997757,1000,71.28468699997757,1000,1000,1000,1000,0,num_3,0.2112174999783747,,25,16,2026-03-04_18h39.38.141,2026A_exp2,2022.2.4,60.079256557252286,
1000,1,0.0,3.7,0,0,7,7,32,,,,,71.5164386999677,72.1671961999964,72.1671961999964,72.66822699998738,315,45,72.66822699998738,72.66822699998738,72.66822699998738,72.66822699998738,72.66822699998738,72.66822699998738,72.66822699998738,72.66822699998738,72.66822699998738,73.03478190000169,73.03478190000169,73.03478190000169,73.03478190000169,73.03478190000169,73.03478190000169,73.03478190000169,73.03478190000169,73.03478190000169,23,0,,,73.03478190000169,73.2367795999744,1000,73.2367795999744,1000,1000,1000,1000,0,num_3,0.11503270000685006,,25,16,2026-03-04_18h39.38.141,2026A_exp2,2022.2.4,60.079256557252286,
1,0,0.0,3.7,1,0,8,8,25,,,,,73.36832269997103,74.01916429999983,74.01916429999983,74.52027219999582,315,315,74.52027219999582,74.52027219999582,74.52027219999582,74.52027219999582,74.52027219999582,74.52027219999582,74.52027219999582,74.52027219999582,74.52027219999582,74.88669459999073,74.88669459999073,74.88669459999073,74.88669459999073,74.88669459999073,74.88669459999073,74.88669459999073,74.88669459999073,74.88669459999073,23,0,,,74.88669459999073,75.08683059999021,3.7,75.08683059999021,0,3.7,1,0,1000,num_1,0.68892720004078,,25,16,2026-03-04_18h39.38.141,2026A_exp2,2022.2.4,60.079256557252286,
1,0,0.0,0.0,0,0,9,9,19,,,,,75.8040825999924,76.4547823999892,76.4547823999892,76.93924929999048,315,315,76.93924929999048,76.93924929999048,76.93924929999048,76.93924929999048,76.93924929999048,76.93924929999048,76.93924929999048,76.93924929999048,76.93924929999048,77.30568210000638,77.30568210000638,77.30568210000638,77.30568210000638,77.30568210000638,77.30568210000638,77.30568210000638,77.30568210000638,77.30568210000638,23,0,,,77.30568210000638,77.50601109996205,0.0,77.50601109996205,0,0.0,0,1,1000,num_1,0.5978485000086948,,25,16,2026-03-04_18h39.38.141,2026A_exp2,2022.2.4,60.079256557252286,
1000,1,6.1,0.0,0,0,10,10,80,,,,,78.12294649996329,78.77384409995284,78.77384409995284,79.25821899995208,45,315,79.25821899995208,79.25821899995208,79.25821899995208,79.25821899995208,79.25821899995208,79.25821899995208,79.25821899995208,79.25821899995208,79.25821899995208,79.62464359996375,79.62464359996375,79.62464359996375,79.62464359996375,79.62464359996375,79.62464359996375,79.62464359996375,79.62464359996375,79.62464359996375,23,0,,,79.62464359996375,79.82691489998251,1000,79.82691489998251,1000,1000,1000,1000,0,num_3,0.461306200013496,,25,16,2026-03-04_18h39.38.141,2026A_exp2,2022.2.4,60.079256557252286,
1000,1,4.9,4.9,1,0,11,11,60,,,,,80.3084392999881,80.95917759998702,80.95917759998702,81.46039239998208,315,45,81.46039239998208,81.46039239998208,81.46039239998208,81.46039239998208,81.46039239998208,81.46039239998208,81.46039239998208,81.46039239998208,81.46039239998208,81.82657370000379,81.82657370000379,81.82657370000379,81.82657370000379,81.82657370000379,81.82657370000379,81.82657370000379,81.82657370000379,81.82657370000379,23,0,,,81.82657370000379,82.02695599995786,1000,82.02695599995786,1000,1000,1000,1000,1,num_2,0.2926813999656588,,25,16,2026-03-04_18h39.38.141,2026A_exp2,2022.2.4,60.079256557252286,
1,0,3.7,6.1,0,0,12,12,55,,,,,82.34402540000156,82.99473459995352,82.99473459995352,83.47924509999575,45,315,83.47924509999575,83.47924509999575,83.47924509999575,83.47924509999575,83.47924509999575,83.47924509999575,83.47924509999575,83.47924509999575,83.47924509999575,83.84551680000732,83.84551680000732,83.84551680000732,83.84551680000732,83.84551680000732,83.84551680000732,83.84551680000732,83.84551680000732,83.84551680000732,23,0,,,83.84551680000732,84.0457704999717,3.7,84.0457704999717,0,3.7,1,0,1000,num_1,0.394476699992083,,25,16,2026-03-04_18h39.38.141,2026A_exp2,2022.2.4,60.079256557252286,
1000,1,3.7,3.7,1,0,13,13,46,,,,,84.46289929997874,85.1135241999873,85.1135241999873,85.5979948999593,45,45,85.5979948999593,85.5979948999593,85.5979948999593,85.5979948999593,85.5979948999593,85.5979948999593,85.5979948999593,85.5979948999593,85.5979948999593,85.96393529995112,85.96393529995112,85.96393529995112,85.96393529995112,85.96393529995112,85.96393529995112,85.96393529995112,85.96393529995112,85.96393529995112,23,0,,,85.96393529995112,86.16714109998429,1000,86.16714109998429,1000,1000,1000,1000,1,num_2,0.22575719997985289,,25,16,2026-03-04_18h39.38.141,2026A_exp2,2022.2.4,60.079256557252286,
1000,1,0.0,3.7,1,0,14,14,43,,,,,86.41484379995381,87.06536169996252,87.06536169996252,87.56661489995895,315,315,87.56661489995895,87.56661489995895,87.56661489995895,87.56661489995895,87.56661489995895,87.56661489995895,87.56661489995895,87.56661489995895,87.56661489995895,87.91616329998942,87.91616329998942,87.91616329998942,87.91616329998942,87.91616329998942,87.91616329998942,87.91616329998942,87.91616329998942,87.91616329998942,22,0,,,87.91616329998942,88.11636659997748,1000,88.11636659997748,1000,1000,1000,1000,1,num_2,0.3405078999930993,,25,16,2026-03-04_18h39.38.141,2026A_exp2,2022.2.4,60.079256557252286,
1,0,0.0,0.0,0,0,15,15,29,,,,,88.48362849996192,89.13595609995537,89.13595609995537,89.63534779998008,315,315,89.63534779998008,89.63534779998008,89.63534779998008,89.63534779998008,89.63534779998008,89.63534779998008,89.63534779998008,89.63534779998008,89.63534779998008,90.00157119997311,90.00157119997311,90.00157119997311,90.00157119997311,90.00157119997311,90.00157119997311,90.00157119997311,90.00157119997311,90.00157119997311,23,0,,,90.00157119997311,90.201808599988,0.0,90.201808599988,0,0.0,0,1,1000,num_1,0.6306463000364602,,25,16,2026-03-04_18h39.38.141,2026A_exp2,2022.2.4,60.079256557252286,
0,0,0.0,0.0,0,0,16,16,4,,,,,90.85269939998398,91.48656699998537,91.48656699998537,91.98760140000377,45,315,91.98760140000377,91.98760140000377,91.98760140000377,91.98760140000377,91.98760140000377,91.98760140000377,91.98760140000377,91.98760140000377,91.98760140000377,92.35409549996257,92.35409549996257,92.35409549996257,92.35409549996257,92.35409549996257,92.35409549996257,92.35409549996257,92.35409549996257,92.35409549996257,23,0,,,92.35409549996257,92.55426299996907,0.0,92.55426299996907,0,0.0,0,1,1000,num_1,0.518130199983716,,25,16,2026-03-04_18h39.38.141,2026A_exp2,2022.2.4,60.079256557252286,
1000,1,4.9,3.7,1,0,17,17,14,,,,,93.0881928000017,93.7387410000083,93.7387410000083,94.22332709998591,45,315,94.22332709998591,94.22332709998591,94.22332709998591,94.22332709998591,94.22332709998591,94.22332709998591,94.22332709998591,94.22332709998591,94.22332709998591,94.58963939995738,94.58963939995738,94.58963939995738,94.58963939995738,94.58963939995738,94.58963939995738,94.58963939995738,94.58963939995738,94.58963939995738,23,0,,,94.58963939995738,94.79189209995093,1000,94.79189209995093,1000,1000,1000,1000,1,num_2,0.11156190000474453,,25,16,2026-03-04_18h39.38.141,2026A_exp2,2022.2.4,60.079256557252286,
1000,1,3.7,6.1,0,0,18,18,81,,,,,94.92316619999474,95.573980199988,95.573980199988,96.07499239995377,315,45,96.07499239995377,96.07499239995377,96.07499239995377,96.07499239995377,96.07499239995377,96.07499239995377,96.07499239995377,96.07499239995377,96.07499239995377,96.42486039997311,96.42486039997311,96.42486039997311,96.42486039997311,96.42486039997311,96.42486039997311,96.42486039997311,96.42486039997311,96.42486039997311,22,0,,,96.42486039997311,96.6269142999663,1000,96.6269142999663,1000,1000,1000,1000,0,num_3,0.06958850001683459,,25,16,2026-03-04_18h39.38.141,2026A_exp2,2022.2.4,60.079256557252286,
1000,1,6.1,6.1,0,0,19,19,50,,,,,96.72520589997293,97.37563219998265,97.37563219998265,97.87677249999251,45,315,97.87677249999251,97.87677249999251,97.87677249999251,97.87677249999251,97.87677249999251,97.87677249999251,97.87677249999251,97.87677249999251,97.87677249999251,98.24330289999489,98.24330289999489,98.24330289999489,98.24330289999489,98.24330289999489,98.24330289999489,98.24330289999489,98.24330289999489,98.24330289999489,23,0,,,98.24330289999489,98.44533769995905,1000,98.44533769995905,1000,1000,1000,1000,0,num_3,0.1869042000034824,,25,16,2026-03-04_18h39.38.141,2026A_exp2,2022.2.4,60.079256557252286,
1,0,6.1,6.1,1,0,20,20,89,,,,,98.66048989997944,99.31108959997073,99.31108959997073,99.8120981999673,315,315,99.8120981999673,99.8120981999673,99.8120981999673,99.8120981999673,99.8120981999673,99.8120981999673,99.8120981999673,99.8120981999673,99.8120981999673,100.16193689999636,100.16193689999636,100.16193689999636,100.16193689999636,100.16193689999636,100.16193689999636,100.16193689999636,100.16193689999636,100.16193689999636,6,1,[0.0012348999734967947],[0.26714050001464784],100.16193689999636,100.3621399999829,6.1,100.3621399999829,0,6.1,1,0,1000,num_1,0.8299459000118077,,25,16,2026-03-04_18h39.38.141,2026A_exp2,2022.2.4,60.079256557252286,
1,0,0.0,3.7,0,0,21,21,2,,,,,101.21267059998354,101.86359470000025,101.86359470000025,102.34794649999822,315,45,102.34794649999822,102.34794649999822,102.34794649999822,102.34794649999822,102.34794649999822,102.34794649999822,102.34794649999822,102.34794649999822,102.34794649999822,102.7143262999598,102.7143262999598,102.7143262999598,102.7143262999598,102.7143262999598,102.7143262999598,102.7143262999598,102.7143262999598,102.7143262999598,23,0,,,102.7143262999598,102.91465589997824,0.0,102.91465589997824,0,0.0,0,1,1000,num_1,0.8620618000277318,,25,16,2026-03-04_18h39.38.141,2026A_exp2,2022.2.4,60.079256557252286,
1,0,3.7,0.0,1,0,22,22,59,,,,,103.79893940000329,104.44958939997014,104.44958939997014,104.93384630000219,315,45,104.93384630000219,104.93384630000219,104.93384630000219,104.93384630000219,104.93384630000219,104.93384630000219,104.93384630000219,104.93384630000219,104.93384630000219,105.30026329995599,105.30026329995599,105.30026329995599,105.30026329995599,105.30026329995599,105.30026329995599,105.30026329995599,105.30026329995599,105.30026329995599,23,0,,,105.30026329995599,105.5004493999877,0.0,105.5004493999877,0,0.0,0,1,1000,num_1,0.9084203999955207,,25,16,2026-03-04_18h39.38.141,2026A_exp2,2022.2.4,60.079256557252286,
1,0,4.9,0.0,0,0,23,23,87,,,,,106.43493220000528,107.08553849998862,107.08553849998862,107.57044209999731,45,315,107.57044209999731,107.57044209999731,107.57044209999731,107.57044209999731,107.57044209999731,107.57044209999731,107.57044209999731,107.57044209999731,107.57044209999731,107.9361007999978,107.9361007999978,107.9361007999978,107.9361007999978,107.9361007999978,107.9361007999978,107.9361007999978,107.9361007999978,107.9361007999978,23,0,,,107.9361007999978,108.13659399998141,4.9,108.13659399998141,0,4.9,1,0,1000,num_1,0.3279651000048034,,25,16,2026-03-04_18h39.38.141,2026A_exp2,2022.2.4,60.079256557252286,
1000,1,6.1,4.9,0,0,24,24,77,,,,,108.48679969995283,109.13760179997189,109.13760179997189,109.62203749996843,315,315,109.62203749996843,109.62203749996843,109.62203749996843,109.62203749996843,109.62203749996843,109.62203749996843,109.62203749996843,109.62203749996843,109.62203749996843,109.9882136999513,109.9882136999513,109.9882136999513,109.9882136999513,109.9882136999513,109.9882136999513,109.9882136999513,109.9882136999513,109.9882136999513,23,0,,,109.9882136999513,110.19043409998994,1000,110.19043409998994,1000,1000,1000,1000,0,num_3,0.2503162000211887,,25,16,2026-03-04_18h39.38.141,2026A_exp2,2022.2.4,60.079256557252286,
1000,1,6.1,0.0,0,0,25,25,68,,,,,110.47225239995169,111.1230077999644,111.1230077999644,111.62389899999835,45,315,111.62389899999835,111.62389899999835,111.62389899999835,111.62389899999835,111.62389899999835,111.62389899999835,111.62389899999835,111.62389899999835,111.62389899999835,111.99043909995817,111.99043909995817,111.99043909995817,111.99043909995817,111.99043909995817,111.99043909995817,111.99043909995817,111.99043909995817,111.99043909995817,23,0,,,111.99043909995817,112.19238480000058,1000,112.19238480000058,1000,1000,1000,1000,0,num_3,0.25531979999504983,,25,16,2026-03-04_18h39.38.141,2026A_exp2,2022.2.4,60.079256557252286,
0,0,3.7,6.1,1,0,26,26,17,,,,,112.47440149995964,113.10816169995815,113.10816169995815,113.60913599998457,315,315,113.60913599998457,113.60913599998457,113.60913599998457,113.60913599998457,113.60913599998457,113.60913599998457,113.60913599998457,113.60913599998457,113.60913599998457,113.9756289999932,113.9756289999932,113.9756289999932,113.9756289999932,113.9756289999932,113.9756289999932,113.9756289999932,113.9756289999932,113.9756289999932,23,0,,,113.9756289999932,114.17606359999627,3.7,114.17606359999627,1,3.7,1,1,1000,num_4,1.2559653999633156,,25,16,2026-03-04_18h39.38.141,2026A_exp2,2022.2.4,60.079256557252286,
1000,1,0.0,0.0,1,0,27,27,71,,,,,115.46051159995841,116.11119089997374,116.11119089997374,116.59557069995208,45,45,116.59557069995208,116.59557069995208,116.59557069995208,116.59557069995208,116.59557069995208,116.59557069995208,116.59557069995208,116.59557069995208,116.59557069995208,116.96203769999556,116.96203769999556,116.96203769999556,116.96203769999556,116.96203769999556,116.96203769999556,116.96203769999556,116.96203769999556,116.96203769999556,15,1,[0.0010417999583296478],[0.11694339994573966],116.96203769999556,117.16405530000338,1000,117.16405530000338,1000,1000,1000,1000,1,num_2,0.4035841000149958,,25,16,2026-03-04_18h39.38.141,2026A_exp2,2022.2.4,60.079256557252286,
1000,1,0.0,0.0,1,0,28,28,70,,,,,117.59628850000445,118.24660099996254,118.24660099996254,118.74788649997208,315,315,118.74788649997208,118.74788649997208,118.74788649997208,118.74788649997208,118.74788649997208,118.74788649997208,118.74788649997208,118.74788649997208,118.74788649997208,119.0974484999897,119.0974484999897,119.0974484999897,119.0974484999897,119.0974484999897,119.0974484999897,119.0974484999897,119.0974484999897,119.0974484999897,22,0,,,119.0974484999897,119.29947709996486,1000,119.3145578999538,1000,1000,1000,1000,1,num_2,0.23703519999980927,,25,16,2026-03-04_18h39.38.141,2026A_exp2,2022.2.4,60.079256557252286,
1000,1,6.1,4.9,1,0,29,29,76,,,,,119.5814710999839,120.23194460000377,120.23194460000377,120.73308330000145,315,315,120.73308330000145,120.73308330000145,120.73308330000145,120.73308330000145,120.73308330000145,120.73308330000145,120.73308330000145,120.73308330000145,120.73308330000145,121.08284119999735,121.08284119999735,121.08284119999735,121.08284119999735,121.08284119999735,121.08284119999735,121.08284119999735,121.08284119999735,121.08284119999735,22,0,,,121.08284119999735,121.284777999972,1000,121.284777999972,1000,1000,1000,1000,1,num_2,0.09898609999800101,,25,16,2026-03-04_18h39.38.141,2026A_exp2,2022.2.4,60.079256557252286,
1,0,6.1,0.0,1,0,30,30,38,,,,,121.39988759998232,122.05049930000678,122.05049930000678,122.55161179997958,315,315,122.55161179997958,122.55161179997958,122.55161179997958,122.55161179997958,122.55161179997958,122.55161179997958,122.55161179997958,122.55161179997958,122.55161179997958,122.91794919996755,122.91794919996755,122.91794919996755,122.91794919996755,122.91794919996755,122.91794919996755,122.91794919996755,122.91794919996755,122.91794919996755,22,1,[0.11684009997406974],[0.13319480000063777],122.91794919996755,123.11820229998557,0.0,123.11820229998557,0,0.0,0,1,1000,num_1,0.7621679000440054,,25,16,2026-03-04_18h39.38.141,2026A_exp2,2022.2.4,60.079256557252286,
1,0,0.0,3.7,1,0,31,31,10,,,,,123.90227560000494,124.55297959997552,124.55297959997552,125.03742789995158,45,45,125.03742789995158,125.03742789995158,125.03742789995158,125.03742789995158,125.03742789995158,125.03742789995158,125.03742789995158,125.03742789995158,125.03742789995158,125.40383299998939,125.40383299998939,125.40383299998939,125.40383299998939,125.40383299998939,125.40383299998939,125.40383299998939,125.40383299998939,125.40383299998939,23,0,,,125.40383299998939,125.60392649995629,3.7,125.60392649995629,0,3.7,1,0,1000,num_1,0.20382699999026954,,25,16,2026-03-04_18h39.38.141,2026A_exp2,2022.2.4,60.079256557252286,
1,0,6.1,6.1,0,0,32,32,11,,,,,125.83756879996508,126.48827509995317,126.48827509995317,126.9726362999645,315,315,126.9726362999645,126.9726362999645,126.9726362999645,126.9726362999645,126.9726362999645,126.9726362999645,126.9726362999645,126.9726362999645,126.9726362999645,127.33901649998734,127.33901649998734,127.33901649998734,127.33901649998734,127.33901649998734,127.33901649998734,127.33901649998734,127.33901649998734,127.33901649998734,23,0,,,127.33901649998734,127.53928539995104,6.1,127.53928539995104,0,6.1,1,0,1000,num_1,0.15750099997967482,,25,16,2026-03-04_18h39.38.141,2026A_exp2,2022.2.4,60.079256557252286,
1,0,3.7,4.9,0,0,33,33,31,,,,,127.72281029995065,128.35662390000653,128.35662390000653,128.8578012000071,315,45,128.8578012000071,128.8578012000071,128.8578012000071,128.8578012000071,128.8578012000071,128.8578012000071,128.8578012000071,128.8578012000071,128.8578012000071,129.2243795999675,129.2243795999675,129.2243795999675,129.2243795999675,129.2243795999675,129.2243795999675,129.2243795999675,129.2243795999675,129.2243795999675,23,0,,,129.2243795999675,129.4244195999927,3.7,129.4244195999927,0,3.7,1,0,1000,num_1,0.5036887000314891,,25,16,2026-03-04_18h39.38.141,2026A_exp2,2022.2.4,60.079256557252286,
1,0,6.1,4.9,0,0,34,34,30,,,,,129.95837849995587,130.6091656999779,130.6091656999779,131.09347540000454,45,315,131.09347540000454,131.09347540000454,131.09347540000454,131.09347540000454,131.09347540000454,131.09347540000454,131.09347540000454,131.09347540000454,131.09347540000454,131.45994669996435,131.45994669996435,131.45994669996435,131.45994669996435,131.45994669996435,131.45994669996435,131.45994669996435,131.45994669996435,131.45994669996435,23,0,,,131.45994669996435,131.66011050000088,6.1,131.66011050000088,0,6.1,1,0,1000,num_1,0.34026349999476224,,25,16,2026-03-04_18h39.38.141,2026A_exp2,2022.2.4,60.079256557252286,
1000,1,4.9,6.1,1,0,35,35,18,,,,,132.02711109997472,132.67772849998437,132.67772849998437,133.16219689999707,315,315,133.16219689999707,133.16219689999707,133.16219689999707,133.16219689999707,133.16219689999707,133.16219689999707,133.16219689999707,133.16219689999707,133.16219689999707,133.52846459997818,133.52846459997818,133.52846459997818,133.52846459997818,133.52846459997818,133.52846459997818,133.52846459997818,133.52846459997818,133.52846459997818,23,0,,,133.52846459997818,133.73041689995443,1000,133.73041689995443,1000,1000,1000,1000,1,num_2,0.029819899995345622,,25,16,2026-03-04_18h39.38.141,2026A_exp2,2022.2.4,60.079256557252286,
1000,1,3.7,0.0,1,0,36,36,21,,,,,133.77898609999102,134.42952929995954,134.42952929995954,134.9307598999585,315,315,134.9307598999585,134.9307598999585,134.9307598999585,134.9307598999585,134.9307598999585,134.9307598999585,134.9307598999585,134.9307598999585,134.9307598999585,135.29689909995068,135.29689909995068,135.29689909995068,135.29689909995068,135.29689909995068,135.29689909995068,135.29689909995068,135.29689909995068,135.29689909995068,23,0,,,135.29689909995068,135.49879669997608,1000,135.49879669997608,1000,1000,1000,1000,1,num_2,0.08518310001818463,,25,16,2026-03-04_18h39.38.141,2026A_exp2,2022.2.4,60.079256557252286,
1,0,0.0,6.1,0,0,37,37,57,,,,,135.61413519998314,136.26468309998745,136.26468309998745,136.76584839995485,45,315,136.76584839995485,136.76584839995485,136.76584839995485,136.76584839995485,136.76584839995485,136.76584839995485,136.76584839995485,136.76584839995485,136.76584839995485,137.13220779999392,137.13220779999392,137.13220779999392,137.13220779999392,137.13220779999392,137.13220779999392,137.13220779999392,137.13220779999392,137.13220779999392,23,0,,,137.13220779999392,137.33231239998713,0.0,137.33231239998713,0,0.0,0,1,1000,num_1,0.5720733000198379,,25,16,2026-03-04_18h39.38.141,2026A_exp2,2022.2.4,60.079256557252286,
1,0,0.0,0.0,0,0,38,38,0,,,,,137.93298019998474,138.5835201999871,138.5835201999871,139.0679533999646,45,315,139.0679533999646,139.0679533999646,139.0679533999646,139.0679533999646,139.0679533999646,139.0679533999646,139.0679533999646,139.0679533999646,139.0679533999646,139.4344645999954,139.4344645999954,139.4344645999954,139.4344645999954,139.4344645999954,139.4344645999954,139.4344645999954,139.4344645999954,139.4344645999954,23,0,,,139.4344645999954,139.63466789998347,0.0,139.63466789998347,0,0.0,0,1,1000,num_1,0.33313800004543737,,25,16,2026-03-04_18h39.38.141,2026A_exp2,2022.2.4,60.079256557252286,
1,0,0.0,0.0,1,0,39,39,53,,,,,139.9850843999884,140.63577349996194,140.63577349996194,141.1198793000076,315,315,141.1198793000076,141.1198793000076,141.1198793000076,141.1198793000076,141.1198793000076,141.1198793000076,141.1198793000076,141.1198793000076,141.1198793000076,141.48650659999112,141.48650659999112,141.48650659999112,141.48650659999112,141.48650659999112,141.48650659999112,141.48650659999112,141.48650659999112,141.48650659999112,23,0,,,141.48650659999112,141.68693169998005,0.0,141.68693169998005,0,0.0,0,1,1000,num_1,0.17666390002705157,,25,16,2026-03-04_18h39.38.141,2026A_exp2,2022.2.4,60.079256557252286,
0,0,3.7,3.7,0,0,40,40,63,,,,,141.88689579995116,142.52110569999786,142.52110569999786,143.02195470000152,315,315,143.02195470000152,143.02195470000152,143.02195470000152,143.02195470000152,143.02195470000152,143.02195470000152,143.02195470000152,143.02195470000152,143.02195470000152,143.38844979996793,143.38844979996793,143.38844979996793,143.38844979996793,143.38844979996793,143.38844979996793,143.38844979996793,143.38844979996793,143.38844979996793,23,0,,,143.38844979996793,143.5885151999537,3.7,143.5885151999537,0,3.7,1,0,1000,num_1,0.5959942999761552,,25,16,2026-03-04_18h39.38.141,2026A_exp2,2022.2.4,60.079256557252286,
1000,1,6.1,0.0,0,0,41,41,58,,,,,144.2060455000028,144.8566205999814,144.8566205999814,145.3409440999967,315,45,145.3409440999967,145.3409440999967,145.3409440999967,145.3409440999967,145.3409440999967,145.3409440999967,145.3409440999967,145.3409440999967,145.3409440999967,145.70744460000424,145.70744460000424,145.70744460000424,145.70744460000424,145.70744460000424,145.70744460000424,145.70744460000424,145.70744460000424,145.70744460000424,23,0,,,145.70744460000424,145.90974390000338,1000,145.90974390000338,1000,1000,1000,1000,0,num_3,0.31372279999777675,,25,16,2026-03-04_18h39.38.141,2026A_exp2,2022.2.4,60.079256557252286,
1000,1,6.1,0.0,1,0,42,42,52,,,,,146.24144979997072,146.89200239995262,146.89200239995262,147.39309029997094,45,315,147.39309029997094,147.39309029997094,147.39309029997094,147.39309029997094,147.39309029997094,147.39309029997094,147.39309029997094,147.39309029997094,147.39309029997094,147.75947799999267,147.75947799999267,147.75947799999267,147.75947799999267,147.75947799999267,147.75947799999267,147.75947799999267,147.75947799999267,147.75947799999267,23,0,,,147.75947799999267,147.961366500007,1000,147.961366500007,1000,1000,1000,1000,1,num_2,0.08681389997946098,,25,16,2026-03-04_18h39.38.141,2026A_exp2,2022.2.4,60.079256557252286,
1,0,6.1,3.7,0,0,43,43,86,,,,,148.0764248999767,148.72705739998491,148.72705739998491,149.22829219995765,45,315,149.22829219995765,149.22829219995765,149.22829219995765,149.22829219995765,149.22829219995765,149.22829219995765,149.22829219995765,149.22829219995765,149.22829219995765,149.59461869997904,149.59461869997904,149.59461869997904,149.59461869997904,149.59461869997904,149.59461869997904,149.59461869997904,149.59461869997904,149.59461869997904,23,0,,,149.59461869997904,149.79483279999113,6.1,149.79483279999113,0,6.1,1,0,1000,num_1,0.724700800026767,,25,16,2026-03-04_18h39.38.141,2026A_exp2,2022.2.4,60.079256557252286,
1000,1,4.9,4.9,1,0,44,44,85,,,,,150.54552579997107,151.19627309998032,151.19627309998032,151.6807068999624,315,315,151.6807068999624,151.6807068999624,151.6807068999624,151.6807068999624,151.6807068999624,151.6807068999624,151.6807068999624,151.6807068999624,151.6807068999624,152.0470599999535,152.0470599999535,152.0470599999535,152.0470599999535,152.0470599999535,152.0470599999535,152.0470599999535,152.0470599999535,152.0470599999535,23,0,,,152.0470599999535,152.24911400000565,1000,152.24911400000565,1000,1000,1000,1000,1,num_2,0.2237563999951817,,25,16,2026-03-04_18h39.38.141,2026A_exp2,2022.2.4,60.079256557252286,
1000,1,0.0,4.9,1,0,45,45,73,,,,,152.4975909999921,153.14827079995302,153.14827079995302,153.64925550000044,315,45,153.64925550000044,153.64925550000044,153.64925550000044,153.64925550000044,153.64925550000044,153.64925550000044,153.64925550000044,153.64925550000044,153.64925550000044,154.01555249997182,154.01555249997182,154.01555249997182,154.01555249997182,154.01555249997182,154.01555249997182,154.01555249997182,154.01555249997182,154.01555249997182,23,0,,,154.01555249997182,154.22407369996654,1000,154.22407369996654,1000,1000,1000,1000,1,num_2,0.23976399999810383,,25,16,2026-03-04_18h39.38.141,2026A_exp2,2022.2.4,60.079256557252286,
0,0,0.0,0.0,0,0,46,46,67,,,,,154.48286180000287,155.13345159997698,155.13345159997698,155.63466869998956,315,45,155.63466869998956,155.63466869998956,155.63466869998956,155.63466869998956,155.63466869998956,155.63466869998956,155.63466869998956,155.63466869998956,155.63466869998956,156.00108479999471,156.00108479999471,156.00108479999471,156.00108479999471,156.00108479999471,156.00108479999471,156.00108479999471,156.00108479999471,156.00108479999471,23,0,,,156.00108479999471,156.2012230999535,0.0,156.2012230999535,0,0.0,0,1,1000,num_1,0.6629237000015564,,25,16,2026-03-04_18h39.38.141,2026A_exp2,2022.2.4,60.079256557252286,
1,0,0.0,6.1,0,0,47,47,72,,,,,156.8853601999581,157.53589759999886,157.53589759999886,158.02031379996333,315,315,158.02031379996333,158.02031379996333,158.02031379996333,158.02031379996333,158.02031379996333,158.02031379996333,158.02031379996333,158.02031379996333,158.02031379996333,158.38678070000606,158.38678070000606,158.38678070000606,158.38678070000606,158.38678070000606,158.38678070000606,158.38678070000606,158.38678070000606,158.38678070000606,23,0,,,158.38678070000606,158.58695849997457,0.0,158.58695849997457,0,0.0,0,1,1000,num_1,0.5885855999658816,,25,16,2026-03-04_18h39.38.141,2026A_exp2,2022.2.4,60.079256557252286,
1000,1,4.9,0.0,0,0,48,48,20,,,,,159.20410519995494,159.83820399997057,159.83820399997057,160.33937869995134,315,315,160.33937869995134,160.33937869995134,160.33937869995134,160.33937869995134,160.33937869995134,160.33937869995134,160.33937869995134,160.33937869995134,160.33937869995134,160.7058193999692,160.7058193999692,160.7058193999692,160.7058193999692,160.7058193999692,160.7058193999692,160.7058193999692,160.7058193999692,160.7058193999692,23,0,,,160.7058193999692,160.90786879998632,1000,160.90786879998632,1000,1000,1000,1000,0,num_3,0.13201329996809363,,25,16,2026-03-04_18h39.38.141,2026A_exp2,2022.2.4,60.079256557252286,
1000,1,4.9,0.0,1,0,49,49,7,,,,,161.0560980999726,161.70680889999494,161.70680889999494,162.19118729996262,45,315,162.19118729996262,162.19118729996262,162.19118729996262,162.19118729996262,162.19118729996262,162.19118729996262,162.19118729996262,162.19118729996262,162.19118729996262,162.55767389998073,162.55767389998073,162.55767389998073,162.55767389998073,162.55767389998073,162.55767389998073,162.55767389998073,162.55767389998073,162.55767389998073,23,0,,,162.55767389998073,162.75989619997563,1000,162.75989619997563,1000,1000,1000,1000,1,num_2,0.056984599970746785,,25,16,2026-03-04_18h39.38.141,2026A_exp2,2022.2.4,60.079256557252286,
1000,1,0.0,6.1,1,0,50,50,3,,,,,162.84136419999413,163.49194009997882,163.49194009997882,163.97635069995886,315,45,163.97635069995886,163.97635069995886,163.97635069995886,163.97635069995886,163.97635069995886,163.97635069995886,163.97635069995886,163.97635069995886,163.97635069995886,164.34278369997628,164.34278369997628,164.34278369997628,164.34278369997628,164.34278369997628,164.34278369997628,164.34278369997628,164.34278369997628,164.34278369997628,23,0,,,164.34278369997628,164.54480679996777,1000,164.54480679996777,1000,1000,1000,1000,1,num_2,0.1600594000192359,,25,16,2026-03-04_18h39.38.141,2026A_exp2,2022.2.4,60.079256557252286,
1,0,0.0,4.9,0,0,51,51,35,,,,,164.72653829999035,165.37688799999887,165.37688799999887,165.87818199995672,45,45,165.87818199995672,165.87818199995672,165.87818199995672,165.87818199995672,165.87818199995672,165.87818199995672,165.87818199995672,165.87818199995672,165.87818199995672,166.22793749999255,166.22793749999255,166.22793749999255,166.22793749999255,166.22793749999255,166.22793749999255,166.22793749999255,166.22793749999255,166.22793749999255,17,1,[0.28392459999304265],[0.3505797000252642],166.22793749999255,166.42810600000666,0.0,166.42810600000666,0,0.0,0,1,1000,num_1,0.7084865000215359,,25,16,2026-03-04_18h39.38.141,2026A_exp2,2022.2.4,60.079256557252286,
0,0,0.0,0.0,0,0,52,52,69,,,,,167.162227599998,167.8128647999838,167.8128647999838,168.29745469999034,45,315,168.29745469999034,168.29745469999034,168.29745469999034,168.29745469999034,168.29745469999034,168.29745469999034,168.29745469999034,168.29745469999034,168.29745469999034,168.66378859995166,168.66378859995166,168.66378859995166,168.66378859995166,168.66378859995166,168.66378859995166,168.66378859995166,168.66378859995166,168.66378859995166,23,0,,,168.66378859995166,168.86388929997338,0.0,168.86388929997338,1,0.0,0,0,1000,num_4,1.1286235000006855,,25,16,2026-03-04_18h39.38.141,2026A_exp2,2022.2.4,60.079256557252286,
1000,1,6.1,0.0,0,0,53,53,8,,,,,170.01513219997287,170.6657568999799,170.6657568999799,171.15006369998446,315,45,171.15006369998446,171.15006369998446,171.15006369998446,171.15006369998446,171.15006369998446,171.15006369998446,171.15006369998446,171.15006369998446,171.15006369998446,171.51638449996244,171.51638449996244,171.51638449996244,171.51638449996244,171.51638449996244,171.51638449996244,171.51638449996244,171.51638449996244,171.51638449996244,23,0,,,171.51638449996244,171.71886249998352,1000,171.71886249998352,1000,1000,1000,1000,0,num_3,0.12965139996958897,,25,16,2026-03-04_18h39.38.141,2026A_exp2,2022.2.4,60.079256557252286,
1000,1,0.0,0.0,0,0,54,54,41,,,,,171.86693560000276,172.5174907000037,172.5174907000037,173.01869329996407,45,45,173.01869329996407,173.01869329996407,173.01869329996407,173.01869329996407,173.01869329996407,173.01869329996407,173.01869329996407,173.01869329996407,173.01869329996407,173.368347599986,173.368347599986,173.368347599986,173.368347599986,173.368347599986,173.368347599986,173.368347599986,173.368347599986,173.368347599986,22,0,,,173.368347599986,173.56888799997978,1000,173.56888799997978,1000,1000,1000,1000,0,num_3,0.2555034999968484,,25,16,2026-03-04_18h39.38.141,2026A_exp2,2022.2.4,60.079256557252286,
1000,1,0.0,6.1,0,0,55,55,83,,,,,173.85237839998445,174.50279699999373,174.50279699999373,174.9872144999681,45,315,174.9872144999681,174.9872144999681,174.9872144999681,174.9872144999681,174.9872144999681,174.9872144999681,174.9872144999681,174.9872144999681,174.9872144999681,175.3536203999538,175.3536203999538,175.3536203999538,175.3536203999538,175.3536203999538,175.3536203999538,175.3536203999538,175.3536203999538,175.3536203999538,23,0,,,175.3536203999538,175.55582229996799,1000,175.55582229996799,1000,1000,1000,1000,0,num_3,0.17996919999131933,,25,16,2026-03-04_18h39.38.141,2026A_exp2,2022.2.4,60.079256557252286,
1000,1,0.0,0.0,1,0,56,56,42,,,,,175.75422919995617,176.40482969995355,176.40482969995355,176.88924679998308,45,315,176.88924679998308,176.88924679998308,176.88924679998308,176.88924679998308,176.88924679998308,176.88924679998308,176.88924679998308,176.88924679998308,176.88924679998308,177.25547449995065,177.25547449995065,177.25547449995065,177.25547449995065,177.25547449995065,177.25547449995065,177.25547449995065,177.25547449995065,177.25547449995065,23,0,,,177.25547449995065,177.45775169995613,1000,177.45775169995613,1000,1000,1000,1000,1,num_2,0.08575000002747402,,25,16,2026-03-04_18h39.38.141,2026A_exp2,2022.2.4,60.079256557252286,
1000,1,0.0,3.7,1,0,57,57,75,,,,,177.5727188999881,178.22314610000467,178.22314610000467,178.72442809998756,315,315,178.72442809998756,178.72442809998756,178.72442809998756,178.72442809998756,178.72442809998756,178.72442809998756,178.72442809998756,178.72442809998756,178.72442809998756,179.09083820000524,179.09083820000524,179.09083820000524,179.09083820000524,179.09083820000524,179.09083820000524,179.09083820000524,179.09083820000524,179.09083820000524,23,0,,,179.09083820000524,179.29243949998636,1000,179.29243949998636,1000,1000,1000,1000,1,num_2,0.14003389998106286,,25,16,2026-03-04_18h39.38.141,2026A_exp2,2022.2.4,60.079256557252286,
1,0,0.0,0.0,0,0,58,58,49,,,,,179.45798469998408,180.11332740000216,180.11332740000216,180.60948409995763,315,45,180.60948409995763,180.60948409995763,180.60948409995763,180.60948409995763,180.60948409995763,180.60948409995763,180.60948409995763,180.60948409995763,180.60948409995763,180.97603759996127,180.97603759996127,180.97603759996127,180.97603759996127,180.97603759996127,180.97603759996127,180.97603759996127,180.97603759996127,180.97603759996127,23,0,,,180.97603759996127,181.17627399996854,0.0,181.17627399996854,0,0.0,0,1,1000,num_1,0.7518414999940433,,25,16,2026-03-04_18h39.38.141,2026A_exp2,2022.2.4,60.079256557252286,
1000,1,3.7,0.0,1,0,59,59,44,,,,,181.9603615999804,182.61115329997847,182.61115329997847,183.09550579998177,45,45,183.09550579998177,183.09550579998177,183.09550579998177,183.09550579998177,183.09550579998177,183.09550579998177,183.09550579998177,183.09550579998177,183.09550579998177,183.4618005999946,183.4618005999946,183.4618005999946,183.4618005999946,183.4618005999946,183.4618005999946,183.4618005999946,183.4618005999946,183.4618005999946,23,0,,,183.4618005999946,183.66448839998338,1000,183.66448839998338,1000,1000,1000,1000,1,num_2,0.3276797999860719,,25,16,2026-03-04_18h39.38.141,2026A_exp2,2022.2.4,60.079256557252286,
1,0,0.0,0.0,0,0,60,60,66,,,,,184.012877799978,184.6630077000009,184.6630077000009,185.16415599995526,45,315,185.16415599995526,185.16415599995526,185.16415599995526,185.16415599995526,185.16415599995526,185.16415599995526,185.16415599995526,185.16415599995526,185.16415599995526,185.5138332999777,185.5138332999777,185.5138332999777,185.5138332999777,185.5138332999777,185.5138332999777,185.5138332999777,185.5138332999777,185.5138332999777,22,0,,,185.5138332999777,185.7140988999745,0.0,185.7140988999745,0,0.0,0,1,1000,num_1,0.5497114000027068,,25,16,2026-03-04_18h39.38.141,2026A_exp2,2022.2.4,60.079256557252286,
1,0,4.9,0.0,1,0,61,61,48,,,,,186.2814380999771,186.93186109996168,186.93186109996168,187.41647299996112,315,45,187.41647299996112,187.41647299996112,187.41647299996112,187.41647299996112,187.41647299996112,187.41647299996112,187.41647299996112,187.41647299996112,187.41647299996112,187.78285550000146,187.78285550000146,187.78285550000146,187.78285550000146,187.78285550000146,187.78285550000146,187.78285550000146,187.78285550000146,187.78285550000146,23,0,,,187.78285550000146,187.98292499996023,0.0,187.98292499996023,0,0.0,0,1,1000,num_1,0.8972825999953784,,25,16,2026-03-04_18h39.38.141,2026A_exp2,2022.2.4,60.079256557252286,
1000,1,3.7,3.7,0,0,62,62,16,,,,,188.90067939995788,189.55131640000036,189.55131640000036,190.0356332999654,315,45,190.0356332999654,190.0356332999654,190.0356332999654,190.0356332999654,190.0356332999654,190.0356332999654,190.0356332999654,190.0356332999654,190.0356332999654,190.40209789999062,190.40209789999062,190.40209789999062,190.40209789999062,190.40209789999062,190.40209789999062,190.40209789999062,190.40209789999062,190.40209789999062,23,0,,,190.40209789999062,190.6040102999541,1000,190.6040102999541,1000,1000,1000,1000,0,num_3,0.1395464999950491,,25,16,2026-03-04_18h39.38.141,2026A_exp2,2022.2.4,60.079256557252286,
1,0,0.0,0.0,1,0,63,63,82,,,,,190.76922069996363,191.41983949998394,191.41983949998394,191.92095699999481,315,315,191.92095699999481,191.92095699999481,191.92095699999481,191.92095699999481,191.92095699999481,191.92095699999481,191.92095699999481,191.92095699999481,191.92095699999481,192.28737709997222,192.28737709997222,192.28737709997222,192.28737709997222,192.28737709997222,192.28737709997222,192.28737709997222,192.28737709997222,192.28737709997222,23,0,,,192.28737709997222,192.48750190000283,0.0,192.48750190000283,0,0.0,0,1,1000,num_1,0.6799820000305772,,25,16,2026-03-04_18h39.38.141,2026A_exp2,2022.2.4,60.079256557252286,
1000,1,0.0,4.9,0,0,64,64,9,,,,,193.18819989997428,193.83895929995924,193.83895929995924,194.3231620999868,45,45,194.3231620999868,194.3231620999868,194.3231620999868,194.3231620999868,194.3231620999868,194.3231620999868,194.3231620999868,194.3231620999868,194.3231620999868,194.68970240000635,194.68970240000635,194.68970240000635,194.68970240000635,194.68970240000635,194.68970240000635,194.68970240000635,194.68970240000635,194.68970240000635,23,0,,,194.68970240000635,194.8918150999816,1000,194.8918150999816,1000,1000,1000,1000,0,num_3,0.1410032999701798,,25,16,2026-03-04_18h39.38.141,2026A_exp2,2022.2.4,60.079256557252286,
1000,1,6.1,3.7,1,0,65,65,45,,,,,195.05673449998721,195.70748330000788,195.70748330000788,196.20811780000804,315,315,196.20811780000804,196.20811780000804,196.20811780000804,196.20811780000804,196.20811780000804,196.20811780000804,196.20811780000804,196.20811780000804,196.20811780000804,196.57493689999683,196.57493689999683,196.57493689999683,196.57493689999683,196.57493689999683,196.57493689999683,196.57493689999683,196.57493689999683,196.57493689999683,24,0,,,196.57493689999683,196.77740059996722,1000,196.77740059996722,1000,1000,1000,1000,1,num_2,0.45484630001010373,,25,16,2026-03-04_18h39.38.141,2026A_exp2,2022.2.4,60.079256557252286,
1,0,3.7,4.9,0,0,66,66,84,,,,,197.2591102999868,197.90958829998272,197.90958829998272,198.4108185999794,45,315,198.4108185999794,198.4108185999794,198.4108185999794,198.4108185999794,198.4108185999794,198.4108185999794,198.4108185999794,198.4108185999794,198.4108185999794,198.77724500000477,198.77724500000477,198.77724500000477,198.77724500000477,198.77724500000477,198.77724500000477,198.77724500000477,198.77724500000477,198.77724500000477,23,0,,,198.77724500000477,198.9886084999889,3.7,198.9886084999889,0,3.7,1,0,1000,num_1,0.43553209997480735,,25,16,2026-03-04_18h39.38.141,2026A_exp2,2022.2.4,60.079256557252286,
1,0,0.0,3.7,0,0,67,67,22,,,,,199.44490770000266,200.09538579999935,200.09538579999935,200.5963638999965,315,45,200.5963638999965,200.5963638999965,200.5963638999965,200.5963638999965,200.5963638999965,200.5963638999965,200.5963638999965,200.5963638999965,200.5963638999965,200.96270859998185,200.96270859998185,200.96270859998185,200.96270859998185,200.96270859998185,200.96270859998185,200.96270859998185,200.96270859998185,200.96270859998185,23,0,,,200.96270859998185,201.16290509997634,0.0,201.16290509997634,0,0.0,0,1,1000,num_1,0.45292509999126196,,25,16,2026-03-04_18h39.38.141,2026A_exp2,2022.2.4,60.079256557252286,
1000,1,6.1,3.7,0,0,68,68,61,,,,,201.64633109996794,202.2973812999553,202.2973812999553,202.7818367999862,45,315,202.7818367999862,202.7818367999862,202.7818367999862,202.7818367999862,202.7818367999862,202.7818367999862,202.7818367999862,202.7818367999862,202.7818367999862,203.14824049995514,203.14824049995514,203.14824049995514,203.14824049995514,203.14824049995514,203.14824049995514,203.14824049995514,203.14824049995514,203.14824049995514,23,0,,,203.14824049995514,203.35065789998043,1000,203.35065789998043,1000,1000,1000,1000,0,num_3,0.3537316999863833,,25,16,2026-03-04_18h39.38.141,2026A_exp2,2022.2.4,60.079256557252286,
1000,1,0.0,4.9,0,0,69,69,27,,,,,203.7320352999959,204.38279790000524,204.38279790000524,204.88388769997982,45,45,204.88388769997982,204.88388769997982,204.88388769997982,204.88388769997982,204.88388769997982,204.88388769997982,204.88388769997982,204.88388769997982,204.88388769997982,205.25032529997407,205.25032529997407,205.25032529997407,205.25032529997407,205.25032529997407,205.25032529997407,205.25032529997407,205.25032529997407,205.25032529997407,23,0,,,205.25032529997407,205.45261249999749,1000,205.45261249999749,1000,1000,1000,1000,0,num_3,0.16326649999246,,25,16,2026-03-04_18h39.38.141,2026A_exp2,2022.2.4,60.079256557252286,
1,0,0.0,3.7,0,0,70,70,1,,,,,205.63417089998256,206.28466740000295,206.28466740000295,206.78571520000696,315,45,206.78571520000696,206.78571520000696,206.78571520000696,206.78571520000696,206.78571520000696,206.78571520000696,206.78571520000696,206.78571520000696,206.78571520000696,207.13555259996792,207.13555259996792,207.13555259996792,207.13555259996792,207.13555259996792,207.13555259996792,207.13555259996792,207.13555259996792,207.13555259996792,22,0,,,207.13555259996792,207.3357824999839,0.0,207.3357824999839,0,0.0,0,1,1000,num_1,0.6002789999474771,,25,16,2026-03-04_18h39.38.141,2026A_exp2,2022.2.4,60.079256557252286,
1,0,3.7,3.7,1,0,71,71,64,,,,,207.95289570000023,208.60377599997446,208.60377599997446,209.0881265999633,315,315,209.0881265999633,209.0881265999633,209.0881265999633,209.0881265999633,209.0881265999633,209.0881265999633,209.0881265999633,209.0881265999633,209.0881265999633,209.45447810000041,209.45447810000041,209.45447810000041,209.45447810000041,209.45447810000041,209.45447810000041,209.45447810000041,209.45447810000041,209.45447810000041,23,0,,,209.45447810000041,209.65478619997157,3.7,209.65478619997157,0,3.7,1,0,1000,num_1,0.8574045999557711,,25,16,2026-03-04_18h39.38.141,2026A_exp2,2022.2.4,60.079256557252286,
1,0,6.1,0.0,0,0,72,72,24,,,,,210.53895039996132,211.19965359999333,211.19965359999333,211.68908189999638,315,315,211.68908189999638,211.68908189999638,211.68908189999638,211.68908189999638,211.68908189999638,211.68908189999638,211.68908189999638,211.68908189999638,211.68908189999638,212.04033709998475,212.04033709998475,212.04033709998475,212.04033709998475,212.04033709998475,212.04033709998475,212.04033709998475,212.04033709998475,212.04033709998475,23,0,,,212.04033709998475,212.24075239995727,6.1,212.2571847999934,0,6.1,1,0,1000,num_1,0.46298899996327236,,25,16,2026-03-04_18h39.38.141,2026A_exp2,2022.2.4,60.079256557252286,
1000,1,4.9,4.9,0,0,73,73,34,,,,,212.7410622999887,213.39184239995666,213.39184239995666,213.8761603999883,45,45,213.8761603999883,213.8761603999883,213.8761603999883,213.8761603999883,213.8761603999883,213.8761603999883,213.8761603999883,213.8761603999883,213.8761603999883,214.24275439995108,214.24275439995108,214.24275439995108,214.24275439995108,214.24275439995108,214.24275439995108,214.24275439995108,214.24275439995108,214.24275439995108,23,0,,,214.24275439995108,214.45503559999634,1000,214.45503559999634,1000,1000,1000,1000,0,num_3,0.10438600002089515,,25,16,2026-03-04_18h39.38.141,2026A_exp2,2022.2.4,60.079256557252286,
1,0,0.0,4.9,1,0,74,74,36,,,,,214.57642579998355,215.22689659998287,215.22689659998287,215.7281039999798,45,315,215.7281039999798,215.7281039999798,215.7281039999798,215.7281039999798,215.7281039999798,215.7281039999798,215.7281039999798,215.7281039999798,215.7281039999798,216.0945023999666,216.0945023999666,216.0945023999666,216.0945023999666,216.0945023999666,216.0945023999666,216.0945023999666,216.0945023999666,216.0945023999666,22,1,[0.2337662999634631],[0.2504996999632567],216.0945023999666,216.29457599995658,4.9,216.29457599995658,0,4.9,1,0,1000,num_1,0.36190979997627437,,25,16,2026-03-04_18h39.38.141,2026A_exp2,2022.2.4,60.079256557252286,
1000,1,4.9,0.0,1,0,75,75,28,,,,,216.67835020000348,217.32912929996382,217.32912929996382,217.81349420000333,45,315,217.81349420000333,217.81349420000333,217.81349420000333,217.81349420000333,217.81349420000333,217.81349420000333,217.81349420000333,217.81349420000333,217.81349420000333,218.1797557999962,218.1797557999962,218.1797557999962,218.1797557999962,218.1797557999962,218.1797557999962,218.1797557999962,218.1797557999962,218.1797557999962,23,0,,,218.1797557999962,218.38144729996566,1000,218.38144729996566,1000,1000,1000,1000,1,num_2,0.3461939999833703,,25,16,2026-03-04_18h39.38.141,2026A_exp2,2022.2.4,60.079256557252286,
1000,1,3.7,4.9,0,0,76,76,13,,,,,218.74742969998624,219.39755039999727,219.39755039999727,219.8989613999729,45,45,219.8989613999729,219.8989613999729,219.8989613999729,219.8989613999729,219.8989613999729,219.8989613999729,219.8989613999729,219.8989613999729,219.8989613999729,220.24854289996438,220.24854289996438,220.24854289996438,220.24854289996438,220.24854289996438,220.24854289996438,220.24854289996438,220.24854289996438,220.24854289996438,22,0,,,220.24854289996438,220.45140089996858,1000,220.45140089996858,1000,1000,1000,1000,0,num_3,0.14134249999187887,,25,16,2026-03-04_18h39.38.141,2026A_exp2,2022.2.4,60.079256557252286,
1000,1,3.7,0.0,0,0,77,77,37,,,,,220.61564689996885,221.26612309995107,221.26612309995107,221.76751839998178,45,315,221.76751839998178,221.76751839998178,221.76751839998178,221.76751839998178,221.76751839998178,221.76751839998178,221.76751839998178,221.76751839998178,221.76751839998178,222.11703089997172,222.11703089997172,222.11703089997172,222.11703089997172,222.11703089997172,222.11703089997172,222.11703089997172,222.11703089997172,222.11703089997172,22,0,,,222.11703089997172,222.31897520000348,1000,222.31897520000348,1000,1000,1000,1000,0,num_3,0.8331510000280105,,25,16,2026-03-04_18h39.38.141,2026A_exp2,2022.2.4,60.079256557252286,
1000,1,0.0,0.0,1,0,78,78,40,,,,,223.16831089998595,223.81889669998782,223.81889669998782,224.32006810000166,45,315,224.32006810000166,224.32006810000166,224.32006810000166,224.32006810000166,224.32006810000166,224.32006810000166,224.32006810000166,224.32006810000166,224.32006810000166,224.6864307000069,224.6864307000069,224.6864307000069,224.6864307000069,224.6864307000069,224.6864307000069,224.6864307000069,224.6864307000069,224.6864307000069,23,0,,,224.6864307000069,224.88829169998644,1000,224.88829169998644,1000,1000,1000,1000,1,num_2,0.26412529998924583,,25,16,2026-03-04_18h39.38.141,2026A_exp2,2022.2.4,60.079256557252286,
1,0,6.1,0.0,1,0,79,79,54,,,,,225.17034919996513,225.82090719998814,225.82090719998814,226.3219584999606,315,45,226.3219584999606,226.3219584999606,226.3219584999606,226.3219584999606,226.3219584999606,226.3219584999606,226.3219584999606,226.3219584999606,226.3219584999606,226.68863259995123,226.68863259995123,226.68863259995123,226.68863259995123,226.68863259995123,226.68863259995123,226.68863259995123,226.68863259995123,226.68863259995123,23,0,,,226.68863259995123,226.88860389997717,0.0,226.88860389997717,0,0.0,0,1,1000,num_1,0.5746958000236191,,25,16,2026-03-04_18h39.38.141,2026A_exp2,2022.2.4,60.079256557252286,
1,0,0.0,4.9,1,0,80,80,65,,,,,227.4889194999705,228.13992689998122,228.13992689998122,228.62436049996177,315,315,228.62436049996177,228.62436049996177,228.62436049996177,228.62436049996177,228.62436049996177,228.62436049996177,228.62436049996177,228.62436049996177,228.62436049996177,228.99062689999118,228.99062689999118,228.99062689999118,228.99062689999118,228.99062689999118,228.99062689999118,228.99062689999118,228.99062689999118,228.99062689999118,23,0,,,228.99062689999118,229.19092829996953,4.9,229.19092829996953,0,4.9,1,0,1000,num_1,0.5127977999509312,,25,16,2026-03-04_18h39.38.141,2026A_exp2,2022.2.4,60.079256557252286,
1,0,0.0,3.7,1,0,81,81,12,,,,,229.7248592999531,230.37550550000742,230.37550550000742,230.85985859995708,315,45,230.85985859995708,230.85985859995708,230.85985859995708,230.85985859995708,230.85985859995708,230.85985859995708,230.85985859995708,230.85985859995708,230.85985859995708,231.22624729998643,231.22624729998643,231.22624729998643,231.22624729998643,231.22624729998643,231.22624729998643,231.22624729998643,231.22624729998643,231.22624729998643,23,0,,,231.22624729998643,231.4265239999513,3.7,231.4265239999513,0,3.7,1,0,1000,num_1,0.061004300019703805,,25,16,2026-03-04_18h39.38.141,2026A_exp2,2022.2.4,60.079256557252286,
1,0,4.9,0.0,0,0,82,82,23,,,,,231.51243770000292,232.1605225999956,232.1605225999956,232.66169959999388,315,315,232.66169959999388,232.66169959999388,232.66169959999388,232.66169959999388,232.66169959999388,232.66169959999388,232.66169959999388,232.66169959999388,232.66169959999388,233.02801839995664,233.02801839995664,233.02801839995664,233.02801839995664,233.02801839995664,233.02801839995664,233.02801839995664,233.02801839995664,233.02801839995664,23,0,,,233.02801839995664,233.23207500000717,4.9,233.23207500000717,0,4.9,1,0,1000,num_1,0.14454369997838512,,25,16,2026-03-04_18h39.38.141,2026A_exp2,2022.2.4,60.079256557252286,
1,0,3.7,6.1,1,0,83,83,6,,,,,233.39506769995205,234.04568969999673,234.04568969999673,234.53022529999726,315,315,234.53022529999726,234.53022529999726,234.53022529999726,234.53022529999726,234.53022529999726,234.53022529999726,234.53022529999726,234.53022529999726,234.53022529999726,234.89670929999556,234.89670929999556,234.89670929999556,234.89670929999556,234.89670929999556,234.89670929999556,234.89670929999556,234.89670929999556,234.89670929999556,23,0,,,234.89670929999556,235.09676949999994,6.1,235.09676949999994,0,6.1,1,0,1000,num_1,0.1829394000233151,,25,16,2026-03-04_18h39.38.141,2026A_exp2,2022.2.4,60.079256557252286,
1000,1,6.1,0.0,1,0,84,84,79,,,,,235.29701689997455,235.9476187999826,235.9476187999826,236.43611019995296,315,315,236.43611019995296,236.43611019995296,236.43611019995296,236.43611019995296,236.43611019995296,236.43611019995296,236.43611019995296,236.43611019995296,236.43611019995296,236.79853049997473,236.79853049997473,236.79853049997473,236.79853049997473,236.79853049997473,236.79853049997473,236.79853049997473,236.79853049997473,236.79853049997473,23,0,,,236.79853049997473,237.00062459998298,1000,237.00062459998298,1000,1000,1000,1000,1,num_2,0.0869237000006251,,25,16,2026-03-04_18h39.38.141,2026A_exp2,2022.2.4,60.079256557252286,
1000,1,4.9,0.0,0,0,85,85,78,,,,,237.1155826000031,237.76604919997044,237.76604919997044,238.2672515999875,45,315,238.2672515999875,238.2672515999875,238.2672515999875,238.2672515999875,238.2672515999875,238.2672515999875,238.2672515999875,238.2672515999875,238.2672515999875,238.63359679997666,238.63359679997666,238.63359679997666,238.63359679997666,238.63359679997666,238.63359679997666,238.63359679997666,238.63359679997666,238.63359679997666,23,0,,,238.63359679997666,238.8339819999528,1000,238.8339819999528,1000,1000,1000,1000,0,num_3,0.09374119999120012,,25,16,2026-03-04_18h39.38.141,2026A_exp2,2022.2.4,60.079256557252286,
1000,1,0.0,0.0,1,0,86,86,62,,,,,238.95056629995815,239.60139289998915,239.60139289998915,240.1022804999957,315,315,240.1022804999957,240.1022804999957,240.1022804999957,240.1022804999957,240.1022804999957,240.1022804999957,240.1022804999957,240.1022804999957,240.1022804999957,240.45214839995606,240.45214839995606,240.45214839995606,240.45214839995606,240.45214839995606,240.45214839995606,240.45214839995606,240.45214839995606,240.45214839995606,22,0,,,240.45214839995606,240.65438659995561,1000,240.65438659995561,1000,1000,1000,1000,1,num_2,0.1935187000199221,,25,16,2026-03-04_18h39.38.141,2026A_exp2,2022.2.4,60.079256557252286,
1000,1,3.7,0.0,1,0,87,87,33,,,,,240.8693421999924,241.51981339999475,241.51981339999475,242.0045667999657,45,45,242.0045667999657,242.0045667999657,242.0045667999657,242.0045667999657,242.0045667999657,242.0045667999657,242.0045667999657,242.0045667999657,242.0045667999657,242.3706807999988,242.3706807999988,242.3706807999988,242.3706807999988,242.3706807999988,242.3706807999988,242.3706807999988,242.3706807999988,242.3706807999988,23,0,,,242.3706807999988,242.5740251999814,1000,242.5740251999814,1000,1000,1000,1000,1,num_2,0.7142181000090204,,25,16,2026-03-04_18h39.38.141,2026A_exp2,2022.2.4,60.079256557252286,
1000,1,0.0,0.0,0,0,88,88,47,,,,,243.30515430000378,243.95573669997975,243.95573669997975,244.4567419999512,45,315,244.4567419999512,244.4567419999512,244.4567419999512,244.4567419999512,244.4567419999512,244.4567419999512,244.4567419999512,244.4567419999512,244.4567419999512,244.82338709995383,244.82338709995383,244.82338709995383,244.82338709995383,244.82338709995383,244.82338709995383,244.82338709995383,244.82338709995383,244.82338709995383,23,0,,,244.82338709995383,245.02505820000079,1000,245.02505820000079,1000,1000,1000,1000,0,num_3,0.26286260003689677,,25,16,2026-03-04_18h39.38.141,2026A_exp2,2022.2.4,60.079256557252286,
1000,1,0.0,0.0,0,0,89,89,5,,,,,245.3071110000019,245.95766799995909,245.95766799995909,246.4588359000045,45,45,246.4588359000045,246.4588359000045,246.4588359000045,246.4588359000045,246.4588359000045,246.4588359000045,246.4588359000045,246.4588359000045,246.4588359000045,246.82509939995361,246.82509939995361,246.82509939995361,246.82509939995361,246.82509939995361,246.82509939995361,246.82509939995361,246.82509939995361,246.82509939995361,23,0,,,246.82509939995361,247.02722709998488,1000,247.02722709998488,1000,1000,1000,1000,0,num_3,0.20562319998862222,,25,16,2026-03-04_18h39.38.141,2026A_exp2,2022.2.4,60.079256557252286,
,,,,,,,,,,,,,,,,,,,,,,,,,,,,,,,,,,,,,,,,,,,,,,,,,,,,247.26956089999294,,,,,,,
